timestamp,ax,ay,az,gx,gy,gz,acc_mag,gyro_mag,dax,day,daz
152032.0,2.0134033115,0.730203159,10.179891098999999,-0.06773622826989993,0.030939451650103478,0.048179814001303466,10.402748306850077,0.0886946490259772,0.0,0.0,0.0
152042.0,2.0110497155,0.740990474,9.680634547499999,-0.08025896565295924,-0.02288650248140164,0.06256830835474472,9.915042767584104,0.10430765443575324,-0.002353595999999847,0.010787314999999964,-0.49925655150000026
152052.0,2.0098729174999996,0.6057567705,9.8147895195,-0.08185768724778605,-0.05859244831870164,0.08042128127339472,10.036763607936255,0.12884618132948508,-0.0011767980000003675,-0.13523370349999997,0.13415497200000104
152062.0,1.9344597789999998,0.7146105855,9.7932148895,-0.057342792574273695,-0.12014497504878566,0.09294576398570603,10.00798984798655,0.16236356097528803,-0.07541313849999987,0.10885381500000002,-0.021574629999999928
152072.0,1.8158973804999998,0.8367033779999998,9.728589066,-0.03282964323001334,-0.15211940694532178,0.10840065451211581,9.93191829680239,0.1896544261088084,-0.11856239849999994,0.12209279249999982,-0.06462582350000012
152082.0,1.7428378379999998,0.8941703469999999,9.692696727,-0.03282964323001334,-0.17743366241624753,0.1275853136500375,9.888649765292282,0.22099434900519807,-0.07305954250000002,0.057466969000000034,-0.035892339000000106
152092.0,1.6806636769999999,0.8499423555,9.63993695,-0.05014854539755307,-0.18542727039038157,0.14037508640865193,9.822190020704921,0.23791451005383132,-0.06217416099999995,-0.0442279914999999,-0.05275977700000034
152102.0,1.5501371654999998,0.801987837,9.662688377999999,-0.06160663193689584,-0.1646438896576331,0.14543828656868749,9.819045595825317,0.22815626815899379,-0.13052651150000005,-0.04795451849999999,0.022751427999999407
152112.0,1.32389775,0.8534727495,9.6890682665,-0.06107430651503757,-0.13400114398036864,0.13717764321899834,9.816270414953506,0.20125626276829015,-0.22623941549999982,0.05148491249999998,0.02637988850000106
152122.0,1.082065761,0.8594548059999999,9.7477120335,-0.056810467152415424,-0.1094862493068563,0.12119042727073026,9.845172358203065,0.17292133363879925,-0.24183198900000002,0.005982056499999944,0.058643766999999514
152132.0,0.9252574275,0.8295445235,9.876963680499998,-0.05521174555758863,-0.09989391973789545,0.10227105817911174,9.954830835806746,0.1532530632293928,-0.1568083335,-0.02991028249999994,0.12925164699999847
152142.0,0.6475330995,0.8918167509999999,10.069762419499998,-0.056810467152415424,-0.11081793552612797,0.08335168908749319,10.129893948975317,0.1498517536970684,-0.2777243279999999,0.062272227499999944,0.19279873900000055
152152.0,0.365003513,0.9205502354999999,10.2349064055,-0.06640279672137626,-0.1475902775363965,0.06603278691995346,10.282701465564697,0.17479287852800793,-0.28252958650000004,0.028733484500000017,0.16514398600000213
152162.0,0.1399408955,0.8487655574999999,10.307965948,-0.0799919302774041,-0.18676070193890523,0.047645743250193204,10.343797581689191,0.20868249938143113,-0.2250626175,-0.07178467799999999,0.07305954249999935
152172.0,-0.109049948,0.870242121,10.342681488999999,-0.09224937761416029,-0.22193257702509495,0.029527480285240066,10.379801232356265,0.24214848442060272,-0.2489908435,0.021476563500000045,0.03471554099999885
152182.0,-0.3592175895,0.8941703469999999,10.298355431000001,-0.10130938176126285,-0.24484875010378052,0.01513724060254682,10.343340972300368,0.26541220264579446,-0.2501676415,0.023928225999999886,-0.04432605799999756
152192.0,-0.5866338029999999,0.9205502354999999,10.276878867499999,-0.09864600932271951,-0.24138601686782374,0.00021642082724729686,10.334688733201856,0.26076481958382697,-0.2274162134999999,0.02637988850000006,-0.021476563500002044
152202.0,-0.8799507045,0.97085835,10.3008070935,-0.08505513043743967,-0.2269957771851305,-0.01630486587213103,10.383809799664798,0.24295535953075714,-0.2933169015000001,0.050308114500000056,0.023928226000000663
152212.0,-1.1588518305,1.0570588035,10.286391318,-0.07119896150585668,-0.21713641224061456,-0.035489525010052696,10.405294672720029,0.23125098924259269,-0.27890112599999994,0.08620045349999994,-0.014415775499999839
152222.0,-1.369596739,1.033032511,10.345035085,-0.06373942428283291,-0.21713641224061456,-0.059472094261706784,10.486310233163204,0.23398261842390436,-0.21074490849999994,-0.02402629249999988,0.058643766999999514
152232.0,-1.5096357009999999,0.986352857,10.465951079499998,-0.06507111050210458,-0.21953449463285477,-0.08638332599820735,10.62017061570731,0.24472785449595355,-0.140038962,-0.04667965400000007,0.1209159944999989
152242.0,-1.682036608,0.986352857,10.485172113500001,-0.07333175385179375,-0.22299897319806347,-0.12528846035441293,10.66494131999245,0.2660888694935397,-0.1724009070000001,0.0,0.019221034000002746
152252.0,-1.7323447225,0.9936097779999998,10.436040796999999,-0.09278344836527054,-0.22912856953106758,-0.17351714357477227,10.62540475206282,0.3020213051760624,-0.050308114499999945,0.007256920999999861,-0.04913131650000224
152262.0,-1.6533031234999997,1.089322682,10.408484110499998,-0.11516555069284583,-0.23339066356443772,-0.2313399016933444,10.595120414710985,0.3482132335522607,0.07904159900000018,0.0957129040000001,-0.027556686500000538
152272.0,-1.5479797024999997,1.3035979844999999,10.299532228999999,-0.12129514702584993,-0.23419002436185116,-0.2803696910403691,10.496474312870685,0.38492160741727527,0.10532342100000003,0.21427530249999993,-0.10895188149999946
152282.0,-1.403135482,1.514342893,10.225393955,-0.105573221123885,-0.2355234559103748,-0.29768859320790886,10.431716307174842,0.3939993678022121,0.1448442204999998,0.21074490850000016,-0.07413827399999917
152292.0,-1.19837263,1.5658278055,10.1846963575,-0.0719983223032701,-0.22513176554400058,-0.2872969028415346,10.37381094734639,0.37203169307705836,0.204762852,0.05148491249999987,-0.04069759749999946
152302.0,-1.113447041,1.5166964889999999,10.280409261500001,-0.030431560837773132,-0.19981751007307483,-0.266246486733231,10.451169654004836,0.33427579769497967,0.08492558900000002,-0.04913131650000002,0.09571290400000088
152312.0,-1.0128308119999998,1.2461310154999998,10.4157410315,-0.0008534660042252271,-0.17530261539956246,-0.2569194472105733,10.538801165066182,0.31102948047594114,0.10061622900000011,-0.27056547350000004,0.13533176999999874
152322.0,-0.8775971085,1.053430343,10.530576903,0.004475024202113462,-0.1515870815234635,-0.27450713008292016,10.619460536317169,0.31361255330865173,0.13523370349999986,-0.19270067249999978,0.11483587150000041
152332.0,-0.7375581465,1.076181771,10.561762049999999,-0.01177922712170973,-0.126806896803648,-0.32300284867883455,10.64203818939405,0.3472025050646927,0.140038962,0.02275142799999985,0.031185146999998636
152342.0,-0.477779988,1.1659126185,10.5449926785,-0.032562607854458206,-0.11001857472871457,-0.37096624185289073,10.620004545221692,0.38830447178738287,0.25977815849999997,0.08973084750000004,-0.016769371499998798
152352.0,-0.214373369,1.3479240424999999,10.437217595,-0.054412384760175216,-0.08124158602183205,-0.4058728268927773,10.52608029092803,0.41748491532577137,0.26340661899999995,0.18201142399999992,-0.10777508349999998
152362.0,0.05491724,1.470016835,10.270896810999998,-0.0962461816012273,-0.026349235717358394,-0.4274555684229392,10.375706563923373,0.4389485991223612,0.269290609,0.12209279250000016,-0.1663207840000016
152372.0,0.1830901555,1.559845749,10.039852136999999,-0.16499470083728393,0.06877644450408855,-0.4317194077855614,10.16195215982332,0.46726341359208157,0.12817291549999998,0.08982891399999993,-0.23104467399999962
152382.0,0.19387747049999998,1.5095376345,9.82430197,-0.23560723171447054,0.17642835276709878,-0.4399800511352505,9.941488899620882,0.5293582687492902,0.010787314999999992,-0.050308114499999945,-0.21555016699999818
152392.0,0.2070183815,1.2318133064999999,9.6423886125,-0.28703335812448344,0.2675589743307307,-0.46689302820100315,9.722956278150129,0.6098893778414519,0.013140911000000005,-0.27772432800000013,-0.18191335750000093
152402.0,0.21417723599999997,0.8810294359999999,9.583744845499998,-0.3163444175824762,0.34296766999239775,-0.5119242682317088,9.626538839020329,0.6926521995923934,0.007158854499999978,-0.35078387049999993,-0.05864376700000129
152412.0,0.3494109395,0.544661341,9.5513829005,-0.33233337885999625,0.3685472155096266,-0.5860012776741041,9.573278398385058,0.767899747493176,0.13523370350000005,-0.336368095,-0.032361944999998116
152422.0,0.5229886445,0.3531374665,9.4556699965,-0.32593849248068907,0.3581555251432524,-0.6768648638621809,9.476703977398063,0.8322603709190963,0.17357770500000003,-0.19152387449999997,-0.09571290400000088
152432.0,0.805518231,0.40217071649999997,9.302392056999999,-0.2992908054612396,0.33390766584529513,-0.7754567679780886,9.345859986529874,0.8957692306319268,0.28252958649999993,0.04903324999999997,-0.15327793950000057
152442.0,1.1084456495,0.49553002449999994,9.1251858915,-0.2534602046331205,0.3072617241550977,-0.8625888402254015,9.20560803627371,0.9501112301961439,0.30292741849999993,0.09335930799999997,-0.17720616549999946
152452.0,1.546508705,0.6811699089999999,8.9612187035,-0.1871115131185561,0.2806140371356483,-0.9353341634485252,9.119162366770649,0.9942861527211545,0.4380630555,0.1856398844999999,-0.1639671879999991
152462.0,2.0457652564999997,0.869065323,8.8354974505,-0.12635660185663347,0.2632951349681086,-0.9801001134329277,9.110787299577112,1.0226859494888292,0.4992565514999998,0.1878954140000001,-0.12572125300000003
152472.0,2.4922620309999997,1.0964815365,8.733802489999999,-0.08665385203226647,0.2574325740106596,-0.9819641250740576,9.148384979075805,1.0188395178664023,0.4464967744999999,0.22741621350000008,-0.10169496050000149
152482.0,2.7867557304999995,1.114427706,8.719386714499999,-0.056011106355002026,0.2731544999126245,-0.940929689030419,9.221478259496907,0.9813762298713518,0.2944936994999998,0.017946169500000053,-0.014415775499999839
152492.0,3.0297645175,0.8571012100000001,8.78283574,-0.031230921635186534,0.2915397982531328,-0.8863043741015004,9.330182160681902,0.9335450005131584,0.2430087870000004,-0.257326496,0.06344902550000064
152502.0,3.2009886264999996,0.6033051079999999,8.861877339,-0.013377948716536536,0.3101921319691962,-0.8631229109765117,9.44156635372558,0.917267293486487,0.17122410899999974,-0.25379610200000013,0.07904159899999996
152512.0,3.2764017649999997,0.427373807,9.0055447615,-0.0027192229746071652,0.33071022265564154,-0.8639222717739251,9.592564482346985,0.9250612613278913,0.07541313850000009,-0.17593130099999993,0.14366742250000009
152522.0,3.3661326125,0.360296321,9.1563710385,-0.008314748556500986,0.3360387128619802,-0.8831069309118469,9.762161277019745,0.9449174583052404,0.08973084750000027,-0.06707748600000002,0.15082627700000018
152532.0,3.4355636944999994,0.3327396345,9.2640480555,-0.04375365901824584,0.32831214026340133,-0.9137496765891113,9.886172158016823,0.9719268056744426,0.06943108199999948,-0.027556686499999983,0.10767701700000032
152542.0,3.5493208344999996,0.3782424905,9.345443250499999,-0.09464746000640051,0.30592829260657406,-0.9462581792367577,10.003902004525605,0.998976878448796,0.11375714000000015,0.04550285599999998,0.08139519499999892
152552.0,3.7144648205,0.46444294399999997,9.327497080999999,-0.1407468415393267,0.2627610642169983,-0.9667762699232031,10.05062972887903,1.0116864170079423,0.16514398600000035,0.0862004535,-0.017946169500000053
152562.0,3.822239904,0.5733948255,9.303568855,-0.18124895216110715,0.218529184983706,-0.9633117913579943,10.07445745186142,1.004278743536121,0.10777508349999998,0.10895188150000001,-0.023928225999998887
152572.0,3.8270451624999997,0.685877101,9.2054042885,-0.20229936826941072,0.15271281889099986,-0.9497226578019664,9.992805921673101,0.9829645803375974,0.004805258499999798,0.1124822755,-0.0981645664999995
152582.0,3.8856889295,0.6260565359999999,9.126460756,-0.20016657592347367,0.08210028801381326,-0.9294716024910763,9.938954229390296,0.9543189064700585,0.0586437670000004,-0.0598205650000001,-0.0789435325000003
152592.0,3.8557786469999997,0.6895055615,9.061736865999999,-0.17192191263844944,0.020013690532618977,-0.8988288568138117,9.872057633676176,0.9153420156942551,-0.029910282500000385,0.06344902550000009,-0.06472389000000156
152602.0,3.7671265309999997,0.7996342409999999,9.0414371005,-0.1218274724477082,-0.031946506628504207,-0.8513977890616139,9.827422961399472,0.8606629465404948,-0.088652116,0.11012867949999994,-0.020299765499999012
152612.0,3.7923296215,0.785316532,9.061736865999999,-0.07119896150585668,-0.05486093437793776,-0.7925103800993252,9.854621303843304,0.7975911965446395,0.025203090500000247,-0.014317708999999956,0.020299765499999012
152622.0,3.8725480185,0.7278495629999999,9.212563143,-0.03069685088407627,-0.04686732640380373,-0.7440129161741588,10.0198659075713,0.746119335208796,0.08021839699999989,-0.057466969000000034,0.15082627700000195
152632.0,3.937173842,0.7122569894999999,9.4364489625,-0.008314748556500986,0.009889035541799871,-0.7051095271472051,10.249644720822667,0.7052278875237847,0.06462582350000012,-0.015592573499999984,0.22388581949999953
152642.0,3.9252097289999996,0.788846926,9.728589066,-0.016840681952493285,0.09622349232095138,-0.6728680598751139,10.520218443758221,0.6799220507110834,-0.011964113000000332,0.07658993650000001,0.2921401034999995
152652.0,3.8737248164999993,0.9074093245,10.031418418,-0.06533814587765972,0.16123875228699217,-0.6544827615346056,10.791593539100104,0.6772109669015703,-0.05148491250000031,0.11856239850000005,0.30282935199999983
152662.0,3.7983116779999997,0.9791940024999999,10.2564810355,-0.11863002925805458,0.1980110942972607,-0.6355633924429871,10.980956048055848,0.676182152323029,-0.07541313849999964,0.07178467799999988,0.22506261750000078
152672.0,3.8019401384999996,1.0486250844999998,10.4061305145,-0.15593469669018137,0.19401429031019365,-0.6083833800016794,11.12842826590476,0.6573336379181387,0.003628460499999875,0.06943108199999992,0.14964947899999892
152682.0,3.8258683644999993,1.0701997145,10.5569567915,-0.1807148814099969,0.1452515363387241,-0.5694799909747258,11.279713332749008,0.6148685528569198,0.023928225999999775,0.02157463000000015,0.15082627700000018
152692.0,3.8210631059999995,1.044996624,10.577354623499998,-0.20443041528609582,0.04959178536616688,-0.526314507914402,11.294820584475104,0.5667963488864662,-0.004805258499999798,-0.025203090500000025,0.020397831999998672
152702.0,3.800665274,0.8391550404999999,10.549797937,-0.21695489799840714,-0.057259016770177966,-0.5007332170679212,11.244886580953828,0.5487091920518341,-0.02039783199999956,-0.20584158350000004,-0.02755668649999876
152712.0,3.7599676764999996,0.635667053,10.4408460555,-0.21242402326022983,-0.154519234666814,-0.5017996132408897,11.115426032556936,0.5663947487298828,-0.04069759750000035,-0.20348798749999986,-0.10895188149999946
152722.0,3.8019401384999996,0.616446019,10.324735319499998,-0.1996342505016154,-0.23232601272072118,-0.5329746843400124,11.019751082887902,0.6147285777539436,0.04197246199999993,-0.01922103400000008,-0.11611073600000132
152732.0,3.9215812685,0.5913409949999999,10.228924349,-0.18924256013524118,-0.2709623663721197,-0.5574895790135248,10.97084213519558,0.6480956574960184,0.11964113000000065,-0.02510502400000003,-0.09581097049999876
152742.0,3.926386527,0.7805112734999999,10.158316468999999,-0.1996342505016154,-0.28828301386891136,-0.5452321316767685,10.918658456597328,0.6482584418821538,0.004805258499999798,0.1891702785,-0.07060788000000073
152752.0,3.8581322429999996,1.0139095434999998,10.000331337499999,-0.23161042772740353,-0.30693534758497476,-0.49726873850271236,10.766606885489091,0.6285927903828193,-0.06825428400000044,0.2333982699999999,-0.15798513150000026
152762.0,3.7539856199999995,1.0941279405,9.864999567499998,-0.2579893340420458,-0.32691936752030987,-0.4061398622683325,10.611679435985838,0.5817081373529838,-0.1041466230000001,0.08021839700000011,-0.13533177000000052
152772.0,3.5026411804999995,1.0977564009999998,9.7237838075,-0.26571765196987673,-0.36422403495243666,-0.2896949852337748,10.393533368891934,0.5358994333594833,-0.25134443949999996,0.003628460499999875,-0.14121575999999791
152782.0,3.2727733045000003,0.9408500009999999,9.5849216435,-0.2587886948394592,-0.3911370120181892,-0.17751394756183927,10.171871348924164,0.5014687949675585,-0.22986787599999925,-0.1569063999999999,-0.13886216400000073
152792.0,3.0178004045,0.740990474,9.4376257605,-0.2510621222408803,-0.3932680590348743,-0.09464396934789651,9.936043788108641,0.47607713284201925,-0.2549729000000003,-0.19985952699999998,-0.14729588299999996
152802.0,2.725660301,0.588987399,9.3359308,-0.2438678750641597,-0.35143426219382223,-0.045081854579013536,9.743497017755834,0.4301278353516639,-0.29214010349999997,-0.152003075,-0.10169496049999971
152812.0,2.4132204319999997,0.474053461,9.262871257499999,-0.23054403155443495,-0.2920127824804233,-0.021101030656611446,9.583795880042935,0.3726489891467607,-0.3124398690000003,-0.11493393799999996,-0.07305954250000113
152822.0,2.120001597,0.381870951,9.279640629,-0.2065632076320329,-0.23872089910002842,-0.009642944117268671,9.526382440249169,0.31583067106538126,-0.2932188349999998,-0.09218251,0.016769371500000574
152832.0,1.8398256064999998,0.22378775299999998,9.316807832499999,-0.17885086976886694,-0.19715239230527945,-0.009642944117268671,9.499365631896648,0.26636382220568877,-0.2801759905000001,-0.15808319800000004,0.037167203499999246
152842.0,1.5501371654999998,0.07060788,9.346718114999998,-0.14101213158562986,-0.16091412104612118,-0.03255911719595422,9.474653039866505,0.21642058986831317,-0.289688441,-0.15317987299999997,0.029910282499999497
152852.0,1.2161226664999998,0.011964112999999998,9.322789889,-0.0954468208038139,-0.13613219099705373,-0.08345291818410887,9.401782213730307,0.18602811233966024,-0.334014499,-0.058643767,-0.023928225999998887
