timestamp,ax,ay,az,gx,gy,gz,acc_mag,gyro_mag,dax,day,daz
129262.0,0.43806305549999996,0.152003075,9.891379456,-0.025633650724040717,-0.024750514122531587,0.10253809355466686,9.90224175214796,0.10855290244206907,0.0,0.0,0.0
129272.0,0.5063173395,-0.034715541,10.1858731555,-0.05414534938462009,-0.065252624744312,0.08735023840381222,10.198508437855057,0.1217361410806479,0.06825428400000005,-0.186718616,0.29449369950000026
129282.0,0.3721623675,0.059820565,10.182244695,-0.07626216166589224,-0.08923519399596608,0.056173421975437496,10.18921932027355,0.13013181965177828,-0.13415497200000004,0.09453610600000001,-0.003628460499999875
129292.0,0.247715979,0.25134443949999996,10.1523344125,-0.09944537012013291,-0.12867090844477796,0.023397883952235982,10.158465989348551,0.16429560338541307,-0.12444638849999998,0.19152387449999997,-0.029910282499999497
129302.0,0.19142580799999998,0.27654753,10.050541385499999,-0.12982108042184223,-0.15292051307198717,0.010875146569176666,10.056167486570905,0.20088918600311792,-0.05629017100000003,0.025203090500000025,-0.10179302700000115
129312.0,0.2201592925,0.13170330949999998,9.970421055,-0.1554023712683231,-0.16144644646797945,-0.0077771871468867325,9.973721065369467,0.22422162409739518,0.028733484500000017,-0.1448442205,-0.08012033049999978
129322.0,0.1950542685,0.0310870805,9.93805911,-0.15033917110828754,-0.14812260295825477,-0.0362888858074661,9.94002170259643,0.21414727434595812,-0.025105024000000004,-0.10061622899999997,-0.03236194499999989
129332.0,0.0214765635,0.11846433199999999,9.9452179645,-0.12049578622843651,-0.13480050477778205,-0.0711954708473527,9.945946682048396,0.19431728089989878,-0.173577705,0.08737725149999999,0.007158854500000089
129342.0,-0.1401370285,0.21427530250000001,10.0852569265,-0.08558920118854993,-0.14119539115708926,-0.10556973046538101,10.088506309931837,0.19597606444316285,-0.161613592,0.09581097050000002,0.1400389620000002
129352.0,-0.2515405725,0.26576021499999997,10.270896810999998,-0.06293831815616752,-0.166509646628015,-0.13568015072078718,10.277413218008723,0.22382090521693662,-0.111403544,0.05148491249999995,0.1856398844999987
129362.0,-0.3796154215,0.372260434,10.4204482235,-0.06107430651503757,-0.2083434434690671,-0.15486480985870887,10.434003396472841,0.2666836528274937,-0.128074849,0.10650021900000001,0.14955141250000104
129372.0,-0.48376204449999993,0.48238911349999997,10.503118283000001,-0.08425576964002625,-0.2603036406301903,-0.15619649607798053,10.52531323235613,0.3150466083455002,-0.10414662299999994,0.11012867949999999,0.08267005950000161
129382.0,-0.5268132379999999,0.475230259,10.443199651499999,-0.12289386862067672,-0.3064012768338645,-0.1529990528883269,10.467272564899174,0.3638589775925608,-0.04305119349999997,-0.007158854499999978,-0.059918631500002206
129392.0,-0.569962498,0.427373807,10.336699432499998,-0.15167085732755922,-0.3429065834685779,-0.15193440204461037,10.361219077786256,0.40456524377808695,-0.04314926000000008,-0.047856451999999994,-0.10650021900000084
129402.0,-0.609385231,0.31724512749999995,10.1499808165,-0.15726638290945305,-0.3631593841087201,-0.15886161384577588,10.17320526707298,0.4264439773444245,-0.03942273299999999,-0.11012867950000005,-0.1867186159999985
129412.0,-0.6560648849999999,0.18907221199999996,10.0230827655,-0.1420785277585984,-0.3586285093705428,-0.17964673990777633,10.046310644149113,0.4255275160819575,-0.04667965399999996,-0.12817291549999998,-0.1268980509999995
129422.0,-0.733929686,0.18436502,9.9679693925,-0.12129514702584993,-0.32958448528810524,-0.2273430977062774,9.996652292363104,0.4183578966738094,-0.07786480100000004,-0.004707191999999971,-0.0551133729999993
129432.0,-0.805714364,0.222610955,10.007490192,-0.10370746415350307,-0.2842862098818444,-0.28623050666856603,10.042339927358471,0.41653546091284743,-0.07178467799999999,0.03824593500000001,0.03952079949999998
129442.0,-0.8105196225,0.3076346105,10.063780363,-0.09411513458454224,-0.24671450707416245,-0.3389900646271026,10.101052237600765,0.4296975337078405,-0.00480525850000002,0.08502365550000002,0.05629017099999878
129452.0,-0.80218397,0.44885037049999993,10.145175558,-0.087720248205235,-0.22379833399547688,-0.39121729716378095,10.18673416161743,0.45916392480733187,0.008335652500000013,0.1412157599999999,0.0813951950000007
129462.0,-0.748247395,0.578200084,10.228924349,-0.09198408756785714,-0.22353304394917375,-0.41972899582436035,10.272540233010867,0.4843557824973295,0.05393657499999993,0.12934971350000007,0.08374879099999966
129472.0,-0.6824447735,0.628410132,10.2684451485,-0.11116874670577882,-0.24937962484195778,-0.4213277174191871,10.310266530533093,0.5020614832827863,0.06580262150000005,0.05021004799999995,0.03952079949999998
129482.0,-0.5567235205,0.6069335685,10.250498979,-0.13675003755225973,-0.27682492732956865,-0.4082709092850175,10.28353240639276,0.5118766927004788,0.12572125300000003,-0.021476563499999934,-0.017946169500000053
129492.0,-0.4717979315,0.545838139,10.167926986,-0.15167085732755922,-0.2968089472649037,-0.38801985397412736,10.193491637058505,0.5115261549687175,0.08492558899999997,-0.06109542950000002,-0.08257199300000018
129502.0,-0.45620535799999995,0.5278919695,10.054169845999999,-0.1508714965301458,-0.30107278662752585,-0.36430432009802843,10.078349297000285,0.4961095332232553,0.01559257350000004,-0.017946169500000053,-0.11375714000000059
129512.0,-0.43463072799999997,0.5398560825,9.921289738499999,-0.1311527666411139,-0.27789132350253715,-0.3443203001626933,9.945468241103555,0.4614987594563364,0.021574629999999984,0.011964112999999998,-0.13288010750000012
129522.0,-0.3711817025,0.566235971,9.882945736999998,-0.0962461816012273,-0.22806217335809906,-0.33046413123111035,9.906110007041692,0.4128949314534735,0.06344902549999998,0.02637988850000006,-0.0383440015000005
129532.0,-0.38795107399999995,0.7002928764999999,9.903343568999999,-0.06187366731245098,-0.17770069779180267,-0.31980540548918096,9.93564945005348,0.37105442469061717,-0.016769371499999963,0.13405690549999993,0.02039783200000045
129542.0,-0.3376429595,0.7745292169999999,9.993074416499999,-0.036559411841525224,-0.13879730876484905,-0.30941371512280674,10.028730456533037,0.34108375895175735,0.050308114499999945,0.07423634049999994,0.08973084750000027
129552.0,-0.35441233099999997,0.8391550404999999,10.2217654945,-0.022970278285497372,-0.1094862493068563,-0.2910266714530465,10.262274558152896,0.3117874211202815,-0.016769371499999963,0.06462582350000001,0.22869107800000066
129562.0,-0.4058972435,0.9181966395,10.424076684,-0.03469365487114328,-0.0924326371856197,-0.2726413731125382,10.472306926125801,0.28996682644415844,-0.051484912500000035,0.07904159900000007,0.2023111894999996
129572.0,-0.4861156405,0.8678885249999999,10.539010622,-0.08212472262334118,-0.08896815862041095,-0.2673128829061995,10.58585300287106,0.29345524476807505,-0.080218397,-0.050308114500000056,0.11493393800000007
129582.0,-0.4980797535,0.7493261265,10.527046509,-0.14127916696118498,-0.09003455479337948,-0.27717050252146347,10.56542858985622,0.3238665026551666,-0.011964112999999998,-0.11856239849999994,-0.011964112999999443
129592.0,-0.45375369549999994,0.7038232704999999,10.381025490499999,-0.18604511694558754,-0.08790350777669441,-0.29848795400532224,10.414746749042338,0.3625394749610421,0.04432605800000006,-0.045502856000000036,-0.14602101850000082
129602.0,-0.2527173705,0.635667053,10.252852575,-0.20070064667458393,-0.07804414283217843,-0.3131434837343186,10.275647161921544,0.3800401021093315,0.20103632499999996,-0.0681562174999999,-0.12817291549999865
129612.0,-0.08031646349999999,0.670382594,10.113990410999998,-0.19164064252748136,-0.04473627938711866,-0.3096790051691099,10.136501644573793,0.3669176430812204,0.172400907,0.03471554099999996,-0.1388621640000025
129622.0,-0.024026292499999997,0.706274933,9.975128246999999,-0.180981916785552,-0.0013020156219877698,-0.2958228362375269,10.000129253555311,0.346795761057812,0.05629017099999999,0.035892338999999995,-0.13886216399999896
129632.0,0.0346174745,0.6069335685,9.9236433345,-0.1705902264191778,0.056253707121029235,-0.2942241146427001,9.942246413989103,0.34472211207273257,0.058643767,-0.09934136449999997,-0.051484912499999425
129642.0,0.12444638849999999,0.5267151715,9.8194967115,-0.16739278322952414,0.125267516403389,-0.3131434837343186,9.83440041093804,0.376525080105516,0.08982891399999998,-0.080218397,-0.1041466230000001
129652.0,0.16151552549999998,0.4943532265,9.853035454499999,-0.16153022227207522,0.20414069063026477,-0.34192221777045306,9.866751240664907,0.42973973202780846,0.03706913699999999,-0.032361945,0.03353874299999937
129662.0,0.22731814699999997,0.44885037049999993,9.866274432,-0.15060620648384268,0.268091299752589,-0.3746960104644026,9.879094663105038,0.4847187583459362,0.06580262149999999,-0.04550285600000009,0.013238977500002136
129672.0,0.32548271349999996,0.4968048889999999,9.8387177455,-0.14847341413790563,0.3053959671847158,-0.4005425913571867,9.856628275943972,0.5251146722093987,0.0981645665,0.04795451849999999,-0.027556686500000538
129682.0,0.42482407799999994,0.5255383735,9.8147895195,-0.15673405748759478,0.34589807780649623,-0.41706387805656503,9.838026193874288,0.5640508163156357,0.09934136449999997,0.028733484500000073,-0.023928226000000663
129692.0,0.4978836205,0.5602539145,9.7608529445,-0.17538639120365818,0.3842691414115915,-0.42958836076887635,9.789587465896052,0.6024693510617238,0.07305954250000007,0.03471554099999996,-0.05393657499999982
129702.0,0.528970701,0.532697228,9.662688377999999,-0.1993672151260603,0.41704293410554105,-0.44930534532865624,9.691807005381998,0.6446296523550421,0.031087080499999975,-0.027556686499999983,-0.09816456650000127
129712.0,0.5792788154999999,0.44414317849999996,9.555011361,-0.22334978437771436,0.4215738088437183,-0.4820808833518578,9.582852874688948,0.6782415355740747,0.050308114499999945,-0.08855404950000001,-0.10767701699999854
129722.0,0.6810718425,0.3303860385,9.349071710999999,-0.2220180981584427,0.3842691414115915,-0.5305766019477722,9.379667139429976,0.6917126133630486,0.10179302700000004,-0.11375713999999998,-0.20593965000000125
129732.0,0.8941703469999999,0.2644853505,9.1336196105,-0.18178127758296542,0.3181857399433302,-0.5756095873077298,9.18109472227541,0.6823584065456765,0.2130985044999999,-0.06590068799999999,-0.21545210049999852
129742.0,1.150320045,0.258503294,8.977988074999999,-0.1117010721276371,0.2550344916184194,-0.6110484977694748,9.055072061214082,0.6714908696742354,0.2561496980000001,-0.005982056499999999,-0.1556315355000013
129752.0,1.3909752359999998,0.196329133,8.980341671,-0.029365164664804596,0.22732215375525344,-0.6358304278185423,9.089548600647277,0.6758831314832681,0.24065519099999988,-0.062174161000000006,0.002353596000000735
129762.0,1.6494785299999999,0.11365907349999999,9.0163320765,0.021795671698905186,0.22519110673856838,-0.6563467731757355,9.166675619854923,0.6942457580116339,0.25850329400000005,-0.0826700595,0.03599040549999977
129772.0,1.8517897195,0.05619210449999999,9.0785062375,0.028724628829322675,0.23957960109200963,-0.6816610286466613,9.265611594610494,0.7231080469310331,0.20231118950000004,-0.05746696899999999,0.06217416099999973
129782.0,2.031349481,-0.023928225999999997,9.1347964085,0.021795671698905186,0.26142937799772664,-0.7141695312943077,9.357962315520563,0.7608275037182973,0.17955976149999997,-0.08012033049999999,0.056290171000000555
129792.0,2.177468566,-0.1413138265,9.2281557165,0.019664624682220112,0.28247979410603025,-0.754406351869785,9.482626054076466,0.8057980362867334,0.14611908500000004,-0.11738560049999999,0.09335930800000014
129802.0,2.3366304955,-0.215550167,9.211386345,0.007939502767322205,0.2846125864519673,-0.8002369526979041,9.505574277435676,0.8493800919107407,0.1591619295000002,-0.0742363405,-0.016769371500000574
129812.0,2.5198187174999997,-0.29331690149999995,9.2030506925,-0.022703242909942238,0.28008171171379004,-0.8442035418848933,9.54629054777266,0.8897419977758458,0.18318822199999962,-0.07776673449999996,-0.008335652499999568
129822.0,2.6706449945,-0.36637644399999997,9.248553548499999,-0.051481976946076737,0.2688906605500024,-0.8777784407055081,9.633396032803692,0.9194822305236172,0.15082627700000018,-0.07305954250000002,0.045502855999998815
129832.0,2.6538756230000002,-0.4213917505,9.352700171499999,-0.07413111464920714,0.22758918913080856,-0.8980294960163984,9.731065066462108,0.9293811042214164,-0.016769371499999686,-0.05501530650000003,0.1041466230000001
129842.0,2.6047443064999998,-0.44178958249999994,9.4017334215,-0.08958600517561695,0.15591026208065345,-0.9188128767491469,9.765882564643084,0.9362428983044019,-0.049131316500000466,-0.02039783199999995,0.049033250000000805
129852.0,2.665839736,-0.42256854850000003,9.408892276,-0.09678025235233756,0.07357260928856897,-0.9419943398741355,9.788386973224465,0.9498066552924437,0.06109542950000035,0.019221033999999915,0.007158854500000089
129862.0,2.8238248674999995,-0.3256788465,9.323966686999999,-0.09917833474457778,0.02081305133003238,-0.9491903323801081,9.747636040274314,0.9545846281353132,0.15798513149999938,0.09688970200000002,-0.08492558900000091
129872.0,2.9854384594999996,-0.34480181399999993,9.341912856499999,-0.08878664437820355,0.0005619960191421741,-0.940929689030419,9.813412602394713,0.9451095511941184,0.16161359200000014,-0.01912296749999992,0.017946169500000053
129882.0,3.0536927434999996,-0.274193934,9.441254221,-0.06267302810986437,0.0042935099599060505,-0.923342006158072,9.926605812194682,0.9254765275339234,0.068254284,0.07060787999999996,0.09934136450000075
129892.0,3.0740905755,-0.111403544,9.602867813,-0.05574407097944689,0.0093567101199416,-0.9028256608008788,10.083526855715963,0.9045933469101868,0.02039783200000045,0.16279038999999998,0.16161359200000014
129902.0,3.1435216575,-0.05266171049999999,9.8159663175,-0.08212472262334118,-0.0026354471705114374,-0.8823075701144335,10.307167235143652,0.8861253093829254,0.06943108199999992,0.0587418335,0.21309850449999956
129912.0,3.2619859894999994,0.0095124505,9.957182077499999,-0.10930298973539689,-0.01888969849433463,-0.8575273853946179,10.47788709649498,0.8646717186169748,0.1184643319999994,0.06217416099999999,0.1412157599999997
129922.0,3.3984945575,0.11611073599999999,9.978756707499999,-0.12369322941809013,-0.029014353485153736,-0.8215544041817627,10.542240387500552,0.8313203273964188,0.13650856800000044,0.10659828549999999,0.021574629999999928
129932.0,3.5169588894999997,0.2058415835,9.969146190499998,-0.13141980201666903,-0.016224580726539286,-0.7645310068606042,10.573327118532344,0.7759136948354125,0.11846433199999984,0.08973084750000002,-0.009610517000000485
129942.0,3.5971772865,0.1579851315,9.960810537999999,-0.1303534058437005,0.015217525748138559,-0.706708248742032,10.59161887089119,0.7187907430852025,0.08021839700000033,-0.04785645200000002,-0.008335652499999568
129952.0,3.659449514,0.0909076455,10.036223676499999,-0.11543258606840097,0.036534977231997307,-0.6536834007371922,10.682959357325307,0.6648018312904396,0.06227222749999983,-0.06707748599999999,0.07541313850000009
129962.0,3.615123456,0.069431082,10.0852569265,-0.1039744995290582,0.04213050281389112,-0.6086504153772345,10.713838973532564,0.6189030650744505,-0.04432605799999978,-0.02147656349999999,0.049033250000000805
129972.0,3.6415033445,-0.0,10.231376011499998,-0.09651321697678243,0.051722832382851955,-0.5830708698600057,10.860092158757324,0.5932635937930253,0.026379888499999726,-0.069431082,0.1461190849999987
129982.0,3.6714136269999997,-0.1664188505,10.282860924,-0.09464746000640051,0.06184923270292305,-0.574010865712903,10.919899360188682,0.5850401210413521,0.02991028249999994,-0.1664188505,0.0514849125000012
129992.0,3.7001471114999998,-0.215550167,10.333070971999998,-0.11036938590836541,0.07250795844485243,-0.5734767949617928,10.977700407354197,0.5884848678966013,0.028733484500000017,-0.049131316499999994,0.05021004799999851
130002.0,3.692988257,-0.240655191,10.367786513,-0.1407468415393267,0.09142558220721896,-0.5716127833206628,11.00850009612753,0.595742800662182,-0.007158854499999645,-0.025105024000000004,0.0347155410000024
130012.0,3.6773956835,-0.240655191,10.37739703,-0.18311296380223707,0.08822813901756536,-0.5572225436379696,11.012335040863608,0.593137020565494,-0.015592573500000206,0.0,0.009610516999998708
130022.0,3.5468691719999996,-0.147295883,10.389361143,-0.2214840274073324,0.05358858935323389,-0.5145893859995041,10.979107521110766,0.5627869468002862,-0.13052651150000028,0.093359308,0.01196411300000122
130032.0,3.26561445,-0.058643767,10.352292005999999,-0.2547918908523922,-0.011693705988362009,-0.4399800511352505,10.855304077037559,0.5085647410122504,-0.28125472199999946,0.08865211599999999,-0.03706913700000136
130042.0,2.9005128704999996,0.0214765635,10.181067897,-0.2902325466433891,-0.10921921393130114,-0.3472507079767918,10.586197602446306,0.46556076081781367,-0.36510157950000055,0.0801203305,-0.17122410899999885
130052.0,2.5796392825,-0.010787315,9.951200021,-0.31421337056579113,-0.21100856123686246,-0.25345671397461655,10.280128260480627,0.4555161479205501,-0.32087358799999954,-0.0322638785,-0.22986787600000014
130062.0,2.234935535,-0.0946341725,9.674652491,-0.31128296275169265,-0.29787534343787225,-0.17031970038511862,9.929893921579575,0.4632878192516814,-0.3447037475000001,-0.0838468575,-0.2765475300000002
130072.0,1.9751573765,-0.101793027,9.430466906,-0.29076487206524737,-0.36236002331130673,-0.10636909126279441,9.635627356194789,0.47661659737923845,-0.2597781585000001,-0.007158854499999992,-0.24418558500000032
130082.0,1.7584304114999998,-0.11012867949999999,9.273658572499999,-0.26278549882652624,-0.374882760694366,-0.0549412195235295,9.439541787472482,0.4610985147038192,-0.2167269650000001,-0.008335652499999999,-0.15680833350000078
130092.0,1.522580479,-0.10414662299999998,9.199422232,-0.23161042772740353,-0.34583873661192843,-0.01017526953912694,9.325152397506972,0.4163548463553649,-0.23584993249999986,0.005982056500000013,-0.07423634049999883
130102.0,1.299969524,-0.0850236555,9.085763158499999,-0.20629617225647776,-0.28801597849335625,0.02020044076258237,9.178684108175815,0.3548511974929243,-0.22261095499999994,0.019122967499999977,-0.11365907350000093
130112.0,1.1119760435,-0.032361944999999996,9.101257665499999,-0.17298830881141797,-0.2035472786845867,0.030059805707098337,9.168992807861972,0.2688122794153641,-0.1879934805000001,0.05266171050000001,0.015494506999999658
130122.0,0.9875296549999999,-0.016769371499999998,9.1347964085,-0.1282223588270154,-0.10868688850944287,0.03539004124268902,9.188035777905386,0.17177388642103664,-0.1244463885,0.015592573499999998,0.03353874300000115
130132.0,0.886913426,0.028733484499999996,9.301215259,-0.08665385203226647,-0.02315179252770478,0.04738045320389007,9.343449380855285,0.10143866577928673,-0.10061622899999989,0.045502855999999994,0.1664188504999995
130142.0,0.8247392649999999,0.039520799499999995,9.496367593999999,-0.07359704389809689,0.04346393436241479,0.058571504367677704,9.532195666749566,0.10361592341282101,-0.06217416100000006,0.010787314999999999,0.1951523349999995
130152.0,0.7360871489999999,0.12209279249999999,9.7345711225,-0.09251641298971541,0.0831666841867818,0.05963790054064624,9.763124801000666,0.1379589185663743,-0.088652116,0.082571993,0.23820352850000148
130162.0,0.677443382,0.08737725149999999,9.855487117,-0.11783066846064118,0.07837051940230139,0.056705747397295767,9.879129042240933,0.15245178427671469,-0.05864376699999996,-0.034715541,0.1209159944999989
130172.0,0.5936945909999999,0.0095124505,9.880592141000001,-0.127422998029602,0.03147177707196175,0.05031086101798855,9.898417288177345,0.14056413452687913,-0.0837487910000001,-0.07786480099999998,0.02510502400000192
130182.0,0.5026888789999999,-0.15808319799999998,9.9189361425,-0.11649898224136951,-0.05992413453797331,0.03405660969416535,9.932924071266877,0.13536161726006662,-0.09100571199999996,-0.16759564849999997,0.038344001499998726
130192.0,0.42129368399999995,-0.35441233099999997,9.8973615125,-0.09331577378712881,-0.1835632587492516,-0.0003159045946109737,9.912661669685868,0.20592086682958624,-0.08139519499999998,-0.196329133,-0.021574629999999928
