timestamp,ax,ay,az,gx,gy,gz,acc_mag,gyro_mag,dax,day,daz
161412.0,0.790023724,0.17475450299999998,9.820771576,-0.04721813758345459,-0.09722880197010011,0.11372914471845451,9.854046426152616,0.15689904654835274,0.0,0.0,0.0
161422.0,0.9240806294999999,-0.313616667,9.8506818585,-0.08292408342075458,-0.12094433584619906,0.09800721881648958,9.898899610614217,0.17637843100729103,0.13405690549999993,-0.48837116999999997,0.029910282499999497
161432.0,0.8654368624999998,-0.4178613565,9.7106428965,-0.08159239720148291,-0.1073552022901712,0.08788256382567049,9.758082523712114,0.1609527998029894,-0.05864376700000007,-0.10424468949999999,-0.1400389620000002
161442.0,0.8438622324999999,-0.3064578125,9.647193870999999,-0.053880059338316945,-0.11055264547982482,0.07615744191077257,9.688878647343154,0.14465443019583288,-0.021574629999999928,0.11140354400000002,-0.06344902550000064
161452.0,0.7684490939999999,-0.2825295865,9.583744845499998,-0.024301964504769045,-0.09483071957785989,0.08122064207080812,9.618653868445682,0.1272015862827193,-0.07541313849999998,0.023928225999999997,-0.06344902550000064
161462.0,0.677443382,-0.308909475,9.619637184499998,0.0004782202150464463,-0.08523839000889906,0.08708320302825706,9.648407856272216,0.12185768779828338,-0.09100571199999996,-0.026379888500000004,0.035892339000000106
161472.0,0.631940526,-0.33999655549999996,9.7488888315,0.021795671698905186,-0.0761783858617965,0.08042128127339472,9.77526367598841,0.11289721103273402,-0.045502856000000036,-0.031087080499999975,0.12925164700000202
161482.0,0.4392398535,-0.332837701,9.926094997,0.036184166052346436,-0.07084989565545781,0.06017022596250451,9.941381919712072,0.09974696827308532,-0.19270067249999995,0.007158854499999978,0.17720616549999946
161492.0,0.16269232349999999,-0.310086273,10.0613287005,0.03378608366010623,-0.0956300803752733,0.023664919327791117,10.067420598561178,0.10414720413174705,-0.27654753,0.022751427999999962,0.13523370350000086
161502.0,-0.035990405499999996,-0.2370267305,10.233729607499999,0.019664624682220112,-0.13559986557519546,-0.013906783479890817,10.236537435074501,0.13772225540797764,-0.19868272899999997,0.07305954250000002,0.17240090699999833
161512.0,-0.0946341725,-0.111403544,10.321106858999999,-0.010712830948741195,-0.18782709811187376,-0.032025046444843955,10.322141888732073,0.19083864161080735,-0.058643767000000006,0.1256231865,0.08737725149999953
161522.0,-0.0575650355,-0.08865211599999999,10.284037722,-0.04322133359638758,-0.23605578133223307,-0.02429847384626506,10.284580924787473,0.24120703018253611,0.037069137,0.022751428000000004,-0.03706913699999781
161532.0,-0.15092434349999997,-0.22388581949999997,10.1511576145,-0.057077502527970565,-0.26776492318246603,-0.016037830496575894,10.15474785172214,0.2742500818391479,-0.09335930799999997,-0.13523370349999997,-0.13288010750000012
161542.0,-0.2909633055,-0.29812215999999997,10.096044241499998,-0.03789109806079689,-0.28561789610111604,-0.025097834643678457,10.104634866919033,0.28921137458489127,-0.14003896200000002,-0.0742363405,-0.05511337300000285
161552.0,-0.500531416,-0.25497289999999995,10.1523344125,0.00953822436214901,-0.29574429642118716,-0.037088246604879506,10.167862946625958,0.2982133542044522,-0.20956811049999996,0.04314926000000002,0.05629017100000233
161562.0,-0.7148067184999999,-0.14964947899999997,10.263639889999999,0.053237778173583036,-0.30826703380424647,-0.0464152861275372,10.289589272802724,0.3162549666671327,-0.21427530249999993,0.10532342099999997,0.11130547749999842
161572.0,-0.8835791649999999,-0.09698776849999999,10.408484110499998,0.06309714311809901,-0.3154612809809671,-0.05574058032094291,10.446370673424893,0.3265028048307304,-0.1687724465,0.052661710499999986,0.14484422049999957
161582.0,-1.0643157245,-0.068254284,10.539010622,0.03751759760087011,-0.3002734258301124,-0.06853035307955735,10.592835857282559,0.3102710261734112,-0.1807365595,0.02873348449999999,0.13052651150000116
161592.0,-1.218770462,-0.065900688,10.5785314215,-0.017107717328048416,-0.27389277418621816,-0.09064716536082949,10.648712193283531,0.289010093822954,-0.15445473750000005,0.0023535959999999995,0.03952079949999998
161602.0,-1.3061477135,-0.15210114149999998,10.586867074,-0.0861215266104082,-0.23285833814257945,-0.12395502880588928,10.668219675713104,0.2774973372025396,-0.08737725149999997,-0.08620045349999998,0.008335652500001345
161612.0,-1.4318689665,-0.19397553699999998,10.5473462745,-0.13968044536635818,-0.1995504746975197,-0.16872097879029183,10.645862514629298,0.29630691428602157,-0.12572125300000003,-0.041874395499999995,-0.03952079949999998
161622.0,-1.5491565004999999,-0.15563153549999997,10.506648677,-0.16872446944879582,-0.18782709811187376,-0.2172166973862063,10.621382841221257,0.33306164444330094,-0.11728753399999992,0.0383440015,-0.04069759750000124
161632.0,-1.5826952435,-0.13533177,10.400148457999999,-0.17192191263844944,-0.19262326289635417,-0.26198264737060883,10.520756953290414,0.3678257372417181,-0.03353874300000004,0.020299765499999983,-0.10650021900000084
161642.0,-1.6089770654999997,-0.13170330949999998,10.3976967955,-0.15513533589276798,-0.20274791788717328,-0.29848795400532224,10.522274070284865,0.3927706065077035,-0.026281821999999844,0.0036284605000000136,-0.002451662499998619
161652.0,-1.604171807,-0.0993413645,10.379750626,-0.1335525943626061,-0.21980153000840988,-0.3389900646271026,10.50344985949958,0.425515301688327,0.004805258499999798,0.032361944999999975,-0.017946169500000053
161662.0,-1.5360155894999998,-0.07305954249999999,10.364256118999998,-0.13141980201666903,-0.24271770308709545,-0.38668816775485565,10.477713800642116,0.4750902933502044,0.06815621750000012,0.02628182200000001,-0.015494507000001434
161672.0,-1.381560852,-0.045502855999999994,10.248145383,-0.1482063787623505,-0.25923898978647375,-0.4399800511352505,10.340950859992875,0.531744703714422,0.15445473749999983,0.027556686499999997,-0.11611073599999777
161682.0,-1.1756212019999999,-0.039520799499999995,10.097221039499999,-0.159132139879835,-0.25603980126756815,-0.4796828009596175,10.165506373255909,0.5665465623515292,0.20593965000000014,0.005982056499999999,-0.1509243435000016
161692.0,-1.000866699,0.001176798,10.018277506999999,-0.15007213573273243,-0.23019322037478412,-0.49380600526675567,10.068148774292263,0.5651149754407582,0.17475450299999995,0.040697597499999995,-0.0789435325000003
161702.0,-0.9470281905,0.059820565,9.9799335055,-0.13168683739222414,-0.19075750592597226,-0.4868770481363382,10.024944571806875,0.5392393802490852,0.05383850849999994,0.058643767,-0.038344001499998726
161712.0,-0.9829205295,0.040697597499999995,10.057798306499999,-0.11996171547732626,-0.15345283849384544,-0.4847460011196531,10.105795160994957,0.5224148470550736,-0.035892338999999995,-0.019122967500000004,0.0778648009999987
161722.0,-0.9709564165,-0.065900688,10.169103784,-0.1242255548399484,-0.13240242238554184,-0.5084615349957521,10.215565135281773,0.5399032529065637,0.011964112999999998,-0.1065982855,0.11130547750000197
161732.0,-0.9972382384999999,-0.0742363405,10.233729607499999,-0.14127916696118498,-0.12041201042434078,-0.5646838261902454,10.282471338058741,0.5944128858230895,-0.026281821999999955,-0.008335652499999999,0.06462582349999835
161742.0,-0.8811275024999999,-0.045502855999999994,10.261286294,-0.16605935168100047,-0.11401537871578157,-0.6470214789823299,10.299148148900388,0.6776518347417786,0.11611073599999999,0.028733484500000003,0.027556686500000538
161752.0,-0.620172546,0.0550153065,10.1870499535,-0.19563744651454837,-0.11375008866947844,-0.7314901787910993,10.206058368727165,0.7656963985933859,0.2609549564999999,0.1005181625,-0.07423634049999883
161762.0,-0.329307307,0.26576021499999997,10.030241619999998,-0.22654722756736798,-0.09269967256117483,-0.7858484583444628,10.039164245588406,0.823088497728998,0.29086523900000005,0.21074490849999997,-0.15680833350000256
161772.0,-0.15808319799999998,0.3747120965,9.917661277999999,-0.2491963652704984,-0.04020540464894137,-0.8100963176424201,9.92599640730813,0.8485112532458374,0.171224109,0.10895188150000001,-0.11258034199999933
161782.0,-0.06119349599999999,0.33401449899999996,9.864999567499998,-0.2635848596239396,-0.01569225530468102,-0.8378086555055859,9.87084225364128,0.8784341570883937,0.096889702,-0.040697597500000016,-0.05266171050000068
161792.0,0.05374044199999999,0.350685804,9.827930430499999,-0.2649182911724633,-0.013294172912440809,-0.8761797191106814,9.834331960788255,0.9154503461204416,0.11493393799999999,0.016671305000000025,-0.037069136999999586
161802.0,0.2058415835,0.5278919695,9.826753632500001,-0.2537254946794237,-0.030880110455535674,-0.9113515941968711,9.843075111102848,0.9465156819182885,0.1521011415,0.17720616549999996,-0.001176797999997703
161812.0,0.44159344949999996,0.7469725305,9.769286663499999,-0.23827234948226586,-0.07005053485804441,-0.9260071239258675,9.807748704448022,0.958733531030992,0.23575186599999995,0.21908056100000006,-0.05746696900000181
161822.0,0.697841214,1.009104285,9.533436731,-0.23187571777370666,-0.10575648069534441,-0.9062883940368355,9.612059598334913,0.9414400856496407,0.25624776450000003,0.26213175450000004,-0.23584993249999897
161832.0,1.0401913655,1.144436055,9.266499717999999,-0.23081106692999012,-0.11135200627723822,-0.8596584324113031,9.394665985788892,0.8970427182331873,0.3423501514999999,0.13533176999999985,-0.2669370130000015
161842.0,1.3538080325,1.1300202794999998,8.987598592,-0.22787891378663963,-0.058857738365004776,-0.7887788661585613,9.158966670529113,0.8231434458297093,0.313616667,-0.014415775500000061,-0.27890112599999917
161852.0,1.321544154,0.9540889785,8.7899945945,-0.23161042772740353,0.05092347158543855,-0.7120384842776226,8.939841704482577,0.7504901020551557,-0.03226387850000001,-0.17593130099999987,-0.1976039974999999
161862.0,1.2317152399999998,0.5375024865,8.6703534645,-0.23427380016594687,0.16177282303810242,-0.681128703224803,8.773885145977754,0.7382350371491541,-0.08982891400000015,-0.416586492,-0.11964112999999976
161872.0,1.229361644,0.129251647,8.687122835999999,-0.2220180981584427,0.2486396052391122,-0.7184333706569299,8.77463043140526,0.7919975992872902,-0.002353595999999847,-0.40825083949999996,0.016769371499998798
161882.0,1.3418439195,-0.007158854499999999,8.757730716,-0.18471168539706387,0.28994107665830604,-0.7941091016941519,8.85993474284471,0.865328550349227,0.11248227550000012,-0.1364105015,0.07060788000000073
161892.0,1.6567354509999999,0.106500219,8.7386077485,-0.1359506767548463,0.3053959671847158,-0.8689837266047087,8.8949075337179,0.9310649818281191,0.3148915314999998,0.11365907349999999,-0.019122967499999532
161902.0,2.1140195405,0.40815277299999997,8.6966352865,-0.105573221123885,0.34856319557429155,-0.9020263000034654,8.959192631600258,0.9727761573072072,0.4572840895000003,0.30165255399999996,-0.04197246200000038
161912.0,2.5437469435,0.49798168699999995,8.721838377,-0.09837897394716438,0.44475527196870707,-0.875645648359571,9.098851518057812,0.9870364613072351,0.4297274029999998,0.08982891399999998,0.025203090499999803
161922.0,2.7436064705,0.4596376855,8.830692191999999,-0.10823833889168034,0.5492097370420637,-0.8178228902409989,9.258497062523215,0.9910505300286074,0.1998595270000001,-0.03834400149999995,0.1088538149999998
161932.0,2.6299473969999996,0.12444638849999999,9.047419156999998,-0.1226268332451216,0.6184888363707265,-0.7685278108476711,9.422733341077222,0.9940828823560216,-0.11365907350000048,-0.335191297,0.21672696499999944
161942.0,2.538941685,-0.404622379,9.3071973155,-0.1255572410592201,0.5803848081411863,-0.7837156659985257,9.655768535909955,0.9832707620157316,-0.0910057119999994,-0.5290687675,0.2597781585000014
161952.0,2.700555277,-0.73746008,9.514313763499999,-0.11223514287874736,0.4695372020177745,-0.8601907578331613,9.917611232754169,0.9864025807130077,0.1616135919999997,-0.332837701,0.20711644799999895
161962.0,3.001031033,-0.6416491095,9.503526448499999,-0.08825257362709327,0.33284126967232663,-0.9513213793967933,9.986736994538816,1.011723378422338,0.300475756,0.09581097049999998,-0.010787314999999964
161972.0,3.3912376364999997,-0.3376429595,9.4950927295,-0.05787686332538396,0.2153317417940524,-0.9971537255541643,10.088175326446194,1.0217793512882296,0.3902066034999998,0.30400615,-0.008433718999999229
161982.0,3.8139042514999995,-0.21074490849999997,9.467634109499999,-0.032030282432599935,0.1476496187309643,-0.9832975566225813,10.209131926243106,0.9948368880193627,0.4226666149999998,0.12689805100000004,-0.027458620000000877
161992.0,4.1047694905,-0.068254284,9.4688109075,-0.026700046897009253,0.11247774364477456,-0.9534524264134783,10.320473400935393,0.9604351434394055,0.2908652390000004,0.14249062449999997,0.0011767980000012557
162002.0,4.3238500515,-0.049131316499999994,9.594532160499998,-0.016840681952493285,0.09009389598794729,-0.9228096807362138,10.523931800091939,0.9273501094642654,0.21908056100000017,0.019122967500000004,0.12572125299999826
162012.0,4.4842868455,-0.058643767,9.7716402595,0.007674212721019067,0.06771179366037201,-0.8903011780885675,10.751614807330736,0.8929053523456354,0.16043679399999977,-0.009512450500000005,0.17710809900000157
162022.0,4.5859818059999995,-0.0299102825,9.951200021,0.03352079361380309,0.028274333882308142,-0.8588590716138896,10.957121228128885,0.8599778988174405,0.10169496049999971,0.0287334845,0.1795597615000002
162032.0,4.674535855499999,0.154356671,10.169103784,0.055103535143964974,-0.01755626694581096,-0.8268828943881015,11.193113204823778,0.828902855059674,0.0885540494999999,0.1842669535,0.2179037630000007
162042.0,4.7296492285,0.336368095,10.318753263,0.06043377067955566,-0.050331804969012475,-0.779985897387014,11.356028981235374,0.7839410254302381,0.05511337300000019,0.18201142399999998,0.14964947899999892
162052.0,4.6721822594999995,0.5159278565,10.432412336499999,0.026059511061527336,-0.07005053485804441,-0.7144365666698628,11.442495172725945,0.718335425372914,-0.057466969000000034,0.17955976149999997,0.11365907349999915
162062.0,4.594415525,0.5529969935,10.403678852,-0.02536836067773758,-0.09216560181006457,-0.6472867690286329,11.386439010802857,0.6543074302191699,-0.07776673449999993,0.03706913700000003,-0.02873348449999824
162072.0,4.4328019329999995,0.5482898015,10.372591771499998,-0.06400471432913606,-0.12414177903585268,-0.567881269379899,11.293405807896345,0.5848050280829212,-0.16161359200000014,-0.004707192000000027,-0.03108708050000253
162082.0,4.190969944,0.5996766475,10.274427205,-0.07706152246330564,-0.17130581141249543,-0.48341256957112944,11.112501768004913,0.5186249817425093,-0.24183198899999958,0.0513868460000001,-0.09816456649999772
162092.0,4.086823321,0.6224280754999999,10.178714301,-0.08292408342075458,-0.20141623166790162,-0.40400706992239543,10.986162495959269,0.458984329294312,-0.1041466230000001,0.02275142799999985,-0.09571290400000088
162102.0,3.8641142994999997,0.5733948255,10.079274869999999,-0.09997769554199118,-0.18409558417110988,-0.3120770875613501,10.809807715705402,0.3758707654207279,-0.22270902150000005,-0.04903324999999992,-0.09943943100000041
162112.0,3.5564796889999997,0.5267151715,9.95963374,-0.12156043707215305,-0.1475902775363965,-0.22414565451662374,10.5886864570212,0.29462027140563335,-0.30763461050000007,-0.04667965399999996,-0.11964112999999976
162122.0,3.1937317055,0.42855060500000003,9.867451229999999,-0.14154620233674012,-0.10921921393130114,-0.14260736252195266,10.380278011893047,0.2286941711832471,-0.3627479834999998,-0.0981645665,-0.09218251000000066
162132.0,2.7807736739999998,0.3207755215,9.849505060499999,-0.14127916696118498,-0.09030159016893462,-0.07066314542549443,10.239548285838596,0.1819545556607726,-0.4129580315000001,-0.10777508350000004,-0.017946169500000053
162142.0,2.400079521,0.1579851315,9.869804826,-0.12049578622843651,-0.08736943702558414,-0.00884358331985527,10.158660753870636,0.14910017434903222,-0.38069415299999987,-0.16279039,0.020299765500000788
162152.0,2.1391245645,-0.02157463,9.884220601500001,-0.10264281330978653,-0.09989391973789545,0.0281940487367164,10.113067599211625,0.14597687045870358,-0.2609549565,-0.1795597615,0.014415775500001615
162162.0,1.9451490274999998,-0.215550167,9.900989973,-0.09518153075751076,-0.11161729632354137,0.04524766085795299,10.092555130348531,0.15350991970891179,-0.19397553700000003,-0.19397553699999998,0.016769371499998798
162172.0,1.648301732,-0.24300878699999998,9.903343568999999,-0.0962461816012273,-0.12067730047064393,0.06017022596250451,10.042517897217163,0.1656707409715951,-0.2968472954999999,-0.02745861999999999,0.0023535959999989586
162182.0,1.441185284,-0.2693886755,9.82430197,-0.09438216996009736,-0.1345334694022269,0.06656511234181173,9.933100949806747,0.17730810070849737,-0.20711644800000006,-0.02637988850000003,-0.07904159899999819
162192.0,1.3179156935,-0.3866762095,9.7943916875,-0.08505513043743967,-0.13506579482408518,0.06496639074698493,9.890223900111462,0.17233042700545276,-0.12326959049999986,-0.11728753399999997,-0.029910282500001273
162202.0,1.1898408445,-0.462089348,9.7847811705,-0.07572983624403397,-0.12787154764736455,0.05883853974323284,9.867684143472921,0.1598377757427712,-0.1280748490000001,-0.07541313850000003,-0.009610516999998708
162212.0,1.082065761,-0.5183795189999999,9.8602923755,-0.08718792278337673,-0.11454944946689184,0.047113417828334926,9.933023173595771,0.1514694173485702,-0.10777508349999998,-0.05629017099999989,0.07551120499999975
162222.0,1.0018473639999999,-0.5818285445,9.917661277999999,-0.10690490734315668,-0.10122560595716713,0.017270032948483893,9.985100290988033,0.14823473463897152,-0.08021839700000011,-0.06344902550000009,0.0573689024999986
162232.0,0.9156469104999999,-0.6225261419999999,9.9883672245,-0.1351513159574329,-0.08843583319855268,-0.02269975225143825,10.049548640294619,0.16310135974548087,-0.08620045349999994,-0.040697597499999905,0.0707059465000004
162242.0,0.837880176,-0.5985979159999999,10.0852569265,-0.1623295830694886,-0.09829519814306864,-0.06666634143842741,10.137690561853304,0.201139853331666,-0.07776673449999993,0.023928225999999997,0.09688970200000036
162252.0,0.732556755,-0.5926158595,10.203819325,-0.18151424220741028,-0.15345283849384544,-0.10503740504352274,10.247231907860312,0.25986159820994265,-0.10532342100000003,0.005982056499999944,0.11856239849999994
162262.0,0.6487098975,-0.5733948255,10.264816688,-0.20070064667458393,-0.251777707234198,-0.14553951566530315,10.30126534923103,0.3533475824960413,-0.08384685749999998,0.01922103399999997,0.06099736300000025
162272.0,0.6451795035,-0.5853589385,10.1966604705,-0.21535617640358032,-0.35383234458606244,-0.2049592500494501,10.233806057829884,0.4621513875033516,-0.0035303939999999923,-0.011964112999999998,-0.06815621750000034
