timestamp,ax,ay,az,gx,gy,gz,acc_mag,gyro_mag,dax,day,daz
51762.0,-0.9861567239999999,-0.071196279,9.9048145665,0.023832470935982567,0.1027143718091183,-0.01706408409674856,9.95404066654263,0.10681484828017665,0.0,0.0,0.0
51772.0,-0.10983448,0.11915079749999999,9.819790910999998,0.009443976582541317,0.06354394740660955,-0.0037419859162758427,9.821127942415776,0.06435079179235603,0.8763222439999999,0.1903470765,-0.08502365550000235
51782.0,0.06374322499999999,0.175342902,9.891575588999999,0.012908455147750061,0.08113163027895641,0.0037192966359999163,9.893334926348944,0.08223626215660164,0.17357770499999997,0.056192104500000006,0.07178467800000021
51792.0,0.0697252815,0.18377662099999997,9.852152856,0.022500784716710895,0.10005099937057493,0.014110987002374155,9.854113423301731,0.1035162197054149,0.005982056500000013,0.008433718999999978,-0.039422732999998544
51802.0,0.07090207949999999,0.05687856999999999,9.831755023999998,0.0035814156250923643,0.13282479206452447,0.0037192966359999163,9.832175198223018,0.13292511084189615,0.0011767979999999928,-0.12689805099999998,-0.020397832000002225
51812.0,-0.009316317499999999,-0.046091255,9.836560282499999,-0.017736035858766378,0.16666498093144252,-0.021860248881228977,9.836672678747407,0.169025599593703,-0.080218397,-0.10296982499999999,0.0048052585000011305
51822.0,-0.08227779349999999,-0.0663910205,9.891575588999999,-0.016936675061352973,0.18718307161788786,-0.05250473988774542,9.892140568946992,0.19514379563060927,-0.07296147599999998,-0.020299765499999997,0.05501530649999964
51832.0,-0.14700168349999998,0.023339827,10.020925302499998,-0.0014817845349431858,0.1927785971997817,-0.08394684636242326,10.022030640581823,0.2102685336371564,-0.06472388999999999,0.08973084749999999,0.1293497134999999
51842.0,-0.15298373999999998,0.163378789,10.095161642999999,0.009443976582541317,0.19171394635606515,-0.10126749385921499,10.097642559117348,0.21702196025663845,-0.005982056499999999,0.140038962,0.07423634050000061
51852.0,-0.17210670749999998,0.2842947835,10.157335803999999,-0.008143706289805541,0.19117987560495486,-0.10073342310810474,10.162771023589585,0.21624820766780262,-0.019122967500000004,0.12091599449999998,0.06217416099999973
51862.0,-0.23310407049999998,0.324992381,10.189697749,-0.05077686392827103,0.18984818938568318,-0.08501324253539179,10.19754371264803,0.21412117207271616,-0.060997363,0.040697597500000016,0.03236194500000167
51872.0,-0.283412185,0.3849110125,10.2627572915,-0.08968025295522464,0.18158754603599403,-0.06236410483226138,10.273882721658188,0.21191004274695577,-0.0503081145,0.059918631499999986,0.07305954249999935
51882.0,-0.388735606,0.380105754,10.3357187675,-0.10833258667128803,0.15574096514321,-0.036250488563922226,10.350008608520469,0.1931457881491433,-0.10532342100000003,-0.004805258499999965,0.07296147599999969
51892.0,-0.45218463149999993,0.2807643895,10.395637399,-0.12458683799511122,0.12376478791742189,-0.019729201864543904,10.409254368823138,0.1767168479123494,-0.06344902549999992,-0.09934136450000003,0.05991863150000043
51902.0,-0.5264209719999999,0.210058443,10.372885970999999,-0.15070045426345038,0.10484716415505535,-0.016264723299335156,10.388359204253845,0.1843043568952491,-0.0742363405,-0.07070594649999998,-0.022751428000001184
51912.0,-0.608992965,0.151414676,10.296197968,-0.1794774429703329,0.09312204224015745,-0.023726005851610915,10.31530374888568,0.2035848487481754,-0.08257199300000007,-0.05864376700000001,-0.07668800299999923
51922.0,-0.7024503394999999,0.1179739995,10.2435362575,-0.20132896520530189,0.08752651665826364,-0.03145432377944181,10.268271003569142,0.22177379879820996,-0.09345737449999991,-0.0334406765,-0.052661710499998904
51932.0,-0.7873759284999999,0.0760015375,10.1358592405,-0.21065425939870758,0.08486139889046829,-0.03545112776650882,10.166679872490962,0.22985529466249516,-0.08492558900000002,-0.041972462,-0.10767701700000032
51942.0,-0.8772048425,0.0497197155,10.095161642999999,-0.21358466721280608,0.08006523410598787,-0.039713221799878975,10.13332368890451,0.2315296779390887,-0.08982891400000004,-0.026281821999999996,-0.04069759750000124
51952.0,-0.978899803,0.030498681499999996,10.002979132999998,-0.20798914163091226,0.07766715171374766,-0.03465176696909542,10.050809247474557,0.22470517227195833,-0.10169496050000004,-0.019221034,-0.09218251000000066
51962.0,-1.067551919,0.0173577705,9.8963808475,-0.20132896520530189,0.08246331649822808,-0.02692344904126453,9.953809435121919,0.21922231388889718,-0.088652116,-0.013140910999999995,-0.10659828549999872
51972.0,-1.1154083709999998,-0.0508965135,9.8389138785,-0.20106192982974674,0.09125628526977551,-0.025059437400134582,9.90206809700495,0.22221967651608154,-0.04785645199999977,-0.068254284,-0.057466969000000034
51982.0,-1.2004320265,-0.0879656505,9.853329654,-0.19413297269932928,0.09445372845942913,-0.025591762821992853,9.92657444823291,0.21740298119690823,-0.08502365550000013,-0.03706913700000001,0.014415775499999839
51992.0,-1.2590757934999999,-0.1550431365,9.841365541,-0.1834759922866519,0.08539546964157856,-0.03651577861022536,9.922791237325093,0.2056434488827405,-0.05864376699999996,-0.067077486,-0.011964112999999443
52002.0,-1.2853576155,-0.188483813,9.8928504535,-0.17548063898326588,0.07367034772668066,-0.061030673283737714,9.977783343148015,0.19986374827269618,-0.026281822000000066,-0.03344067649999999,0.051484912499999425
52012.0,-1.287809278,-0.20407638649999998,9.837737080499998,-0.17281726654472251,0.07047290453702704,-0.09034173274173048,9.92376797255329,0.20734962398001316,-0.0024516624999999515,-0.015592573499999984,-0.055113373000001076
52022.0,-1.2722167045000001,-0.20289958849999998,9.789880628499999,-0.17361662734213593,0.07899883793301934,-0.12364959618679028,9.874283078102524,0.2273164585365122,0.015592573499999762,0.0011767980000000067,-0.04785645199999955
52032.0,-1.254270535,-0.116699135,9.840188742999999,-0.16455662319503336,0.0864601204852951,-0.15589106345888154,9.920490298414833,0.24260308806366204,0.017946169500000053,0.08620045349999998,0.050308114499999945
52042.0,-1.1992552285,-0.0042168595,9.864116969,-0.14910173266862356,0.0864601204852951,-0.17560979334791346,9.93675170581928,0.24605990863774274,0.05501530650000008,0.11248227549999999,0.023928226000000663
52052.0,-1.105797854,0.08924051499999999,9.876081081999999,-0.1392423677241076,0.09205564606718891,-0.17587682872346858,9.93819552542949,0.24247749962437226,0.09345737450000002,0.0934573745,0.011964112999999443
52062.0,-1.0591182,0.1311149105,9.840188742999999,-0.13871004230224934,0.11603821531884301,-0.1633523460111573,9.897890531784565,0.24369926589389398,0.04667965400000007,0.041874395499999995,-0.035892339000000106
52072.0,-1.0363667719999998,0.104735022,9.829401428,-0.1453719640571117,0.1525435219535564,-0.14923088703327117,9.88444019374428,0.25820997592764355,0.022751428000000073,-0.02637988849999999,-0.010787314999998188
52082.0,-1.0256775235,0.015004174499999998,9.775464852999999,-0.15256621123383232,0.19224627177792342,-0.14549937309250727,9.829137937769712,0.2853158695079371,0.01068924849999986,-0.0897308475,-0.053936575000001596
52092.0,-0.9921387804999999,-0.020888164499999997,9.7455545705,-0.1530985366556906,0.23035030000746362,-0.14843152623585776,9.79594863000933,0.31389861519342266,0.03353874300000004,-0.035892338999999995,-0.029910282499999497
52102.0,-0.9921387804999999,0.010198915999999999,9.78507537,-0.1392423677241076,0.26019368488731465,-0.14070320830802688,9.835250041266884,0.32693513646108274,0.0,0.031087080499999996,0.03952079949999998
52112.0,-0.9514411829999999,-0.000588399,9.748006233,-0.12298811640028443,0.2916375366912445,-0.1284457609712707,9.794328266375835,0.34157992197217285,0.040697597500000016,-0.010787314999999999,-0.037069136999999586
52122.0,-0.9370254074999999,-0.15739673249999997,9.789880628499999,-0.13124875974997358,0.33666877672195017,-0.12578064320347535,9.835880899339,0.3826132150880842,0.014415775500000061,-0.15680833349999998,0.04187439549999894
52132.0,-0.9669356899999999,-0.33577969599999996,9.828126563499998,-0.16615534478986016,0.39262577787014036,-0.1494961770795743,9.881284551161144,0.45178723644186486,-0.02991028250000005,-0.1783829635,0.038245934999999065
52142.0,-0.9848818595,-0.45424402799999997,9.8700990255,-0.20106192982974674,0.44298725343643675,-0.19932532722401242,9.929510797986067,0.5257320538135177,-0.017946169500000053,-0.118464332,0.04197246200000215
52152.0,-0.9609536334999998,-0.5273035705,9.9503174225,-0.19839681206195142,0.4754957560840831,-0.2630089009707815,10.010509365147506,0.5784731550211967,0.023928226000000108,-0.07305954250000002,0.08021839699999944
52162.0,-0.871222786,-0.5165162555,9.980227704999999,-0.15176685043641894,0.49015128581307954,-0.3205663690430505,10.03148858488564,0.6050159145320483,0.08973084749999982,0.010787314999999964,0.029910282499999497
52172.0,-0.7850223324999999,-0.371672035,9.959829872999999,-0.08888089215781124,0.5016093723524223,-0.35387248715885833,9.997630282383318,0.6202721278524096,0.08620045350000016,0.1448442205,-0.02039783200000045
52182.0,-0.7706065569999999,-0.37530049549999994,9.929919590499999,-0.03905174201337312,0.5165301921277218,-0.369062087638965,9.966844435497608,0.6360308974147493,0.01441577549999995,-0.0036284604999999304,-0.029910282499999497
52192.0,-0.7969864454999999,-0.37883088949999993,9.9048145665,-0.015603243512829306,0.5322521180296867,-0.3837176173679613,9.944046049466015,0.6563345094033631,-0.02637988849999995,-0.0035303939999999923,-0.025105023999998366
52202.0,-0.8700459879999999,-0.3429385505,9.9310963885,-0.00041538836197465044,0.5410450868012342,-0.3890461075743,9.975031947233637,0.6663984035979978,-0.07305954250000002,0.03589233899999994,0.02628182199999962
52212.0,-0.9501663185,-0.322638785,9.999350672499999,0.019303341527057285,0.5271889178696512,-0.3821188957731345,10.049573408360391,0.6513951370908165,-0.08012033050000011,0.02029976550000001,0.06825428399999822
52222.0,-0.996944039,-0.380105754,10.0819226655,0.030227357315289794,0.5005429761794538,-0.3823841858194376,10.138221857616067,0.6306144857975002,-0.04677772049999995,-0.057466969000000034,0.08257199300000195
52232.0,-0.9909619825,-0.437572723,10.1370360385,0.02116735316818723,0.46830150890736255,-0.3959750647047175,10.194752335614718,0.6136371989644733,0.005982056499999944,-0.05746696899999998,0.0551133729999993
52242.0,-0.965758892,-0.406387576,10.200485063999999,-0.010807078728348888,0.4312621315215388,-0.41729077085932426,10.25415704191677,0.6001961400071737,0.025203090500000025,0.031185147000000024,0.06344902549999887
52252.0,-0.9082919229999998,-0.4231569475,10.218431233499999,-0.052642620898652966,0.38836193850751827,-0.4439384578787737,10.26744334746352,0.5921803738728432,0.057466969000000145,-0.01676937150000002,0.017946169500000053
52262.0,-0.8556302124999999,-0.44826197149999997,10.226766886,-0.0808872841836772,0.3435959885231157,-0.4769792859482783,10.272283231892606,0.5933887387670224,0.0526617104999999,-0.025105023999999976,0.008335652500001345
52272.0,-0.7838455344999999,-0.41001603649999996,10.200485063999999,-0.08541641359260249,0.30549196029357545,-0.5129522671611335,10.238770556713819,0.6031097163044058,0.07178467799999999,0.03824593500000001,-0.026281822000001398
52282.0,-0.7730582195,-0.314205066,10.188520951,-0.07449239780436998,0.26872136361255894,-0.5393311734757757,10.222636793078511,0.6071559958323683,0.010787314999999964,0.09581097049999998,-0.011964112999999443
52292.0,-0.7706065569999999,-0.21251010549999996,10.0807458675,-0.06543239365726741,0.22315605283074297,-0.5494575737958468,10.112390036769218,0.596643651986959,0.0024516625000000625,0.10169496050000001,-0.10777508349999998
52302.0,-0.7227501049999999,-0.116699135,9.969440389999999,-0.058238146480546794,0.17092882029406467,-0.5422615812898742,9.996285714811806,0.5715382453131244,0.047856451999999994,0.09581097049999997,-0.1113054775000002
52312.0,-0.723926903,-0.0891424485,9.878434678,-0.05637238951016486,0.13522287445676467,-0.5252079691686377,9.90532625532974,0.5452581800887359,-0.0011767980000000344,0.027556686499999997,-0.0910057119999994
52322.0,-0.6557706855,-0.1238579895,9.78507537,-0.06410070743799574,0.1115073405806657,-0.506023310030716,9.807806889927265,0.5221133765686015,0.0681562175,-0.034715541,-0.09335930800000014
52332.0,-0.6353728535,-0.289100042,9.617479721499999,-0.08515112354629935,0.11443949372401618,-0.4956316196643417,9.642779355077707,0.5157497590654841,0.020397832000000005,-0.16524205250000001,-0.16759564850000075
52342.0,-0.5994805145,-0.3968751255,9.5935514955,-0.11872427703766227,0.13895438839752855,-0.5089537178448145,9.620453058422774,0.5407750575989113,0.035892338999999995,-0.10777508349999998,-0.023928225999998887
52352.0,-0.545642006,-0.3394081565,9.631895497,-0.15522958367237566,0.16453393391475743,-0.5308052400797835,9.65330689248712,0.5769937971527263,0.05383850849999994,0.05746696899999998,0.0383440015000005
52362.0,-0.537208287,-0.2376151295,9.6521952625,-0.19413297269932928,0.16719905168255278,-0.5422615812898742,9.67005310630796,0.5997422417302439,0.008433719000000006,0.10179302700000001,0.020299765499999012
52372.0,-0.4498310355,-0.194563936,9.654548858499998,-0.23916595805928698,0.15973776913027704,-0.5395982088513308,9.666980746171705,0.6114595140945137,0.08737725150000003,0.0430511935,0.0023535959999989586
52382.0,-0.30253515249999996,-0.054426907499999996,9.554030696,-0.2426304366244957,0.14508223940128062,-0.504157553060334,9.558974440120052,0.5780079785557181,0.14729588300000002,0.14013702849999998,-0.10051816249999845
52392.0,-0.291845904,0.090417313,9.5109795025,-0.193600647277471,0.11257373675363426,-0.47511352897789644,9.515885687582994,0.5252493905286924,0.01068924849999997,0.1448442205,-0.043051193500000196
52402.0,-0.143373223,-0.046091255,9.540889785,-0.14430556788414317,0.08619483043899195,-0.4356778145290845,9.542078294290937,0.46697837614777304,0.148472681,-0.136508568,0.029910282499999497
52412.0,-0.13140911,-0.14180415899999999,9.48695321,-0.08941321757966951,0.08139692032525955,-0.3983731470969577,9.48892290949979,0.41631880385627584,0.011964112999999998,-0.09571290399999999,-0.05393657499999982
52422.0,-0.154160538,-0.188483813,9.4199737905,-0.055040703290893174,0.08459610884416516,-0.3773227309886541,9.423120387268032,0.390587280861866,-0.022751428000000018,-0.046679654000000015,-0.06697941949999908
52432.0,-0.18887607899999997,-0.140627361,9.3613300235,-0.056105354134609715,0.08299738724933835,-0.36240016588410257,9.364291219134675,0.3759923633341662,-0.03471554099999996,0.047856451999999994,-0.058643766999999514
52442.0,-0.18642441649999997,-0.025693422999999996,9.263165457,-0.07182728003657464,0.09125628526977551,-0.3245631730301175,9.265076820988094,0.34471455009336227,0.002451662500000007,0.11493393800000001,-0.09816456650000127
52452.0,-0.144550021,0.0532501095,9.163824092499999,-0.08861385678225611,0.12243310169815022,-0.2691384973037856,9.165118781609777,0.308671039678483,0.04187439549999997,0.0789435325,-0.09934136450000075
52462.0,-0.10748088399999998,0.09394770699999999,9.138621002,-0.10220473566753595,0.1687977732773796,-0.2091846921685284,9.139735889525006,0.2875703943279185,0.037069137000000016,0.040697597499999995,-0.025203090499998027
52472.0,-0.18887607899999997,-0.036480738,9.1985396335,-0.13018236357700505,0.21329668788622702,-0.1641517068085707,9.200550875166863,0.2989794436042335,-0.08139519499999999,-0.130428445,0.059918631499998654
52482.0,-0.29900475849999997,-0.3166567285,9.319357561499999,-0.13657724995631226,0.22315605283074297,-0.14576640846806244,9.329528427975188,0.2994992737191601,-0.11012867949999999,-0.28017599049999997,0.12081792799999924
52492.0,-0.39236406649999994,-0.5739832244999999,9.423504184499999,-0.1096642728905597,0.18611667544491933,-0.16282002058929904,9.449118340775335,0.27051068136394235,-0.09335930799999997,-0.25732649599999996,0.1041466230000001
52502.0,-0.44139731649999997,-0.7176506469999999,9.463024984,-0.04384965212710554,0.11337309755104766,-0.21744533551821754,9.500457667394826,0.24911588704580392,-0.04903325000000003,-0.14366742249999997,0.03952079950000176
52512.0,-0.41511549449999996,-0.7176506469999999,9.408009677499999,0.037421604492010416,0.04116184507903427,-0.28166123468684495,9.444468720729988,0.2871022903050145,0.02628182200000001,0.0,-0.055015306500001415
52522.0,-0.22241482199999998,-0.5273035705,9.3374017975,0.11016692771513407,-0.015594516866569335,-0.33895166738355875,9.354923288646656,0.3567466520383729,0.19270067249999998,0.19034707649999993,-0.07060787999999896
52532.0,-0.0571727695,-0.266348614,9.228449915999999,0.14480647737946553,-0.02278876404328996,-0.3639988874789294,9.23246977584397,0.39240722947413786,0.1652420525,0.2609549565,-0.10895188150000124
52542.0,0.158279331,-0.08561205449999999,9.242767624999999,0.1416090341898119,0.0329012017293451,-0.36692929529302787,9.24451919464964,0.39468052318760855,0.2154521005,0.1807365595,0.014317709000000178
52552.0,0.22888721099999998,0.0987529655,9.276306367999998,0.10617012372806706,0.10458012877950022,-0.3528078363151418,9.279655238022139,0.3829914723245699,0.07060787999999998,0.18436502,0.03353874299999937
52562.0,0.285177382,0.079629998,9.379276192999999,0.08671842921459026,0.15307584737541466,-0.3301586986120113,9.383948474941793,0.3741083630237689,0.056290171,-0.019122967500000004,0.10296982500000063
52572.0,0.33068023799999996,0.08443525649999999,9.4570429275,0.10776884532289387,0.1642668985392023,-0.30217932537329023,9.46319922990749,0.3604304130632919,0.04550285599999998,0.0048052584999999925,0.07776673450000082
52582.0,0.420509152,0.03893240049999999,9.4882280745,0.14560583817687892,0.16853073790182446,-0.2747340228856794,9.497621579766928,0.3536699776060641,0.08982891400000004,-0.045502855999999994,0.031185147000000413
52592.0,0.5210273145,0.0293218835,9.471458703,0.17678265460525364,0.1866507461960296,-0.26141017937595473,9.485824118016394,0.3666413641505604,0.10051816249999995,-0.009610516999999992,-0.016769371500000574
52602.0,0.573689025,-0.0508965135,9.452237669,0.18530858800124594,0.22768518223966827,-0.2622095401733681,9.469768027980118,0.39361613020359776,0.052661710500000014,-0.080218397,-0.019221033999999193
52612.0,0.5318146295,-0.0412859965,9.538438122499999,0.1733181760400449,0.28683962657751205,-0.2792631522946047,9.553341465184761,0.4362385468416267,-0.04187439549999994,0.009610516999999999,0.08620045349999828
52622.0,0.49229383,0.020986230999999998,9.6378775535,0.16399113651738723,0.3513243064509466,-0.2979154860106681,9.650465137660815,0.48895347218776913,-0.03952079950000004,0.0622722275,0.09943943100000041
52632.0,0.48513497549999995,0.10954028049999999,9.794685887,0.16932137205297787,0.3942244994649672,-0.3112393295203928,9.807304759336398,0.5300496233869151,-0.007158854500000034,0.0885540495,0.15680833350000078
52642.0,0.5952636549999999,0.2723306705,10.008961189499999,0.18397690178197426,0.41047875078879037,-0.3240291022790073,10.030344306452106,0.5543781781078323,0.11012867949999994,0.16279039,0.21427530249999904
52652.0,0.688622963,0.44237798149999996,10.164592724999999,0.205294353265833,0.41101107621064864,-0.31576845892931804,10.197492099963098,0.5574814758404701,0.09335930800000014,0.17004731099999998,0.15563153549999953
52662.0,0.759230843,0.532108829,10.345329284499998,0.19649963916503357,0.39742194265462083,-0.2955174036184279,10.386790133799542,0.5328103269801909,0.07060787999999996,0.08973084750000004,0.18073655949999967
52672.0,0.8585722075,0.590752596,10.478209392,0.1733181760400449,0.379836005111526,-0.25634872454517116,10.529910110146675,0.48992780029394867,0.09934136449999997,0.05864376699999996,0.1328801075000019
52682.0,0.9005446694999999,0.6314501935,10.485368246499998,0.14427415195760726,0.35505407506245845,-0.21744533551821754,10.542896059117082,0.44063692659623394,0.04197246199999993,0.040697597500000016,0.007158854499998313
52692.0,0.8801468374999999,0.563293976,10.4973323595,0.12002629265965004,0.33427069432970996,-0.17827491111570878,10.549215384319583,0.39739797678221794,-0.020397832000000005,-0.0681562175,0.01196411300000122
52702.0,0.8442544984999999,0.38726460849999994,10.538029957000001,0.08698371926089339,0.3150860351917883,-0.15216129484736962,10.57888533399732,0.3605529595482014,-0.035892338999999995,-0.17602936750000003,0.04069759750000124
52712.0,0.8011052384999999,0.1909354755,10.552445732499999,0.047013934060971256,0.3012298662602053,-0.14843152623585776,10.584532908745382,0.3390894576711825,-0.04314925999999997,-0.19632913299999993,0.014415775499998063
52722.0,0.6934282214999999,0.1107170785,10.6493354345,0.019835666948915556,0.27644793621113783,-0.16628449915450774,10.672462048015984,0.3232142474857368,-0.10767701699999999,-0.08021839700000001,0.09688970200000036
52732.0,0.641943309,0.07247114349999999,10.7044488075,0.01077566280181299,0.21995860964108938,-0.19692724483177218,10.723925006777986,0.29542891635906643,-0.05148491249999998,-0.03824593500000001,0.055113373000001076
52742.0,0.641943309,0.12150439349999999,10.7595621805,0.01530653753999027,0.14588160019869403,-0.21584661392339075,10.779379984287388,0.2609702897078287,0.0,0.04903325,0.0551133729999993
52752.0,0.6610662764999999,0.2136869035,10.652963895,0.026230553328222776,0.08486139889046829,-0.20891765679297325,10.675594150342478,0.22701560798636397,0.019122967499999977,0.09218251000000001,-0.1065982855000005
52762.0,0.7256921,0.35019547149999997,10.583532813,0.0233001455141243,0.04835609225575489,-0.1955938132832485,10.614161893249472,0.20282541318559844,0.06462582350000001,0.13650856799999997,-0.06943108199999948
52772.0,0.8083621595,0.4183516889999999,10.52253545,-0.007077310116837007,0.03316823710490024,-0.1689478715930511,10.561828431342148,0.17231832052036386,0.08267005950000006,0.06815621749999995,-0.06099736300000025
52782.0,0.8155210139999999,0.42678540800000003,10.552445732499999,-0.05850518185610192,0.02570695455262448,-0.14763216543844435,10.59251298069135,0.1608693882888552,0.007158854499999867,0.008433719000000117,0.029910282499999497
52792.0,0.874164781,0.3166567285,10.582356014999998,-0.1157938692235638,0.02304183678482914,-0.13723872974281812,10.623120745630812,0.18103484563366462,0.05864376700000007,-0.11012867950000005,0.029910282499999497
52802.0,0.93163175,0.2244742185,10.564409845499998,-0.15682830526720248,0.019045032797762124,-0.13457535730427478,10.607784018166873,0.20752917240914326,0.057466969000000034,-0.09218251,-0.017946169500000053
52812.0,0.9675240889999999,0.15386633849999998,10.512924932999999,-0.16535598399244678,0.015048228810695109,-0.13990384751061347,10.558473770380438,0.2171224013793195,0.035892338999999884,-0.07060788000000001,-0.051484912499999425
52822.0,0.9603652345,0.2688002765,10.453104368,-0.15043341888789524,0.010784389448072963,-0.144967047670649,10.500568837000374,0.20919359809614846,-0.007158854499999867,0.11493393800000001,-0.05982056499999899
52832.0,0.989098719,0.3082230095,10.360921858,-0.14350620708672976,0.02091078976814406,-0.13590704352354646,10.412589468863873,0.19875114359534649,0.028733484500000017,0.03942273299999999,-0.09218251000000066
52842.0,1.09442214,0.2842947835,10.3920089385,-0.17388191738843906,0.060081214170652805,-0.12258320001382174,10.45334554687213,0.22106857401387567,0.10532342100000003,-0.023928225999999997,0.031087080500000752
52852.0,1.2165149324999998,0.279489525,10.353664937,-0.21331937716650295,0.11816926233552807,-0.10473022709517174,10.428633688227974,0.26540073794741764,0.12209279249999971,-0.004805258499999965,-0.0383440015000005
52862.0,1.2679998449999998,0.28792324399999997,10.453104368,-0.26394614277910244,0.17705841662706875,-0.09593725832362432,10.533665759347796,0.3319957932280239,0.05148491250000009,0.00843371899999995,0.09943943100000041
