timestamp,ax,ay,az,gx,gy,gz,acc_mag,gyro_mag,dax,day,daz
36342.0,-0.431884866,0.5883989999999999,9.8245961695,0.05767265980290062,0.027305676147451285,-0.07355515599604903,9.85167132086911,0.09737605769496785,0.0,0.0,0.0
36352.0,0.6694999955,0.5704528305,9.6294438345,0.039020326086837226,0.04089480970347914,-0.05303706530960369,9.669531283241708,0.07751065478540385,1.1013848615,-0.017946169499999942,-0.1951523349999995
36362.0,0.680189244,0.6649889364999999,9.611497665,0.0233001455141243,0.12563054488780384,-0.031187288403886675,9.658455107190857,0.13152405691649366,0.010689248500000081,0.09453610599999995,-0.017946169500000053
36372.0,0.65508422,0.7571714465,9.540889785,-0.00041538836197465044,0.19038051480754145,-0.012267919312268142,9.593280034701648,0.1907758234424061,-0.02510502400000003,0.0921825100000001,-0.07060788000000073
36382.0,0.6527306239999999,0.7104917924999999,9.57913572,-0.022532200643246795,0.2514007161157672,-0.004274311338134113,9.627600791313338,0.2524446273279814,-0.002353596000000069,-0.04667965400000007,0.03824593500000084
36392.0,0.6155634205,0.635078654,9.680928747,-0.022799236018801926,0.2964337014757249,-0.007206464481484587,9.721246042864829,0.29739649907818877,-0.03716720349999991,-0.07541313849999998,0.10179302699999937
36402.0,0.5461323385,0.6314501935,9.782721773999999,-0.017201965107656113,0.32387900396333574,-0.02479240202457945,9.818280663411509,0.3252816933213362,-0.06943108200000003,-0.003628460499999986,0.10179302699999937
36412.0,0.49464742599999995,0.633901856,9.946688962,-0.014803882715415903,0.3380004629412219,-0.05356939073146196,9.979134679212487,0.3425392641950294,-0.051484912500000035,0.0024516625000000625,0.16396718800000087
36422.0,0.4311984005,0.5656475719999999,10.1478233535,-0.024663247659931872,0.3393338944897455,-0.09087405816358875,10.172718813087444,0.35215601965866233,-0.06344902549999992,-0.06825428400000011,0.20113439150000012
36432.0,0.305575214,0.6387071145,10.271092944,-0.033723251807034435,0.30868940348322904,-0.12818047092496754,10.295468578642287,0.33594142147377254,-0.12562318650000004,0.07305954250000002,0.12326959049999964
36442.0,0.2217283565,0.7320664224999999,10.3345419695,-0.03399028718258957,0.2551304847272791,-0.15242833022292476,10.362810546873135,0.29913425031995305,-0.08384685749999998,0.09335930799999992,0.06344902550000064
36452.0,0.2205515585,0.8337613829999999,10.323754654499998,-0.02972644781996742,0.19704243656240383,-0.16228769516744077,10.359715787609678,0.25699548538681055,-0.0011767980000000067,0.10169496050000004,-0.01078731500000174
36462.0,0.249285043,0.867300126,10.2890391135,-0.0326568556340659,0.15121009040503275,-0.15509170266146813,10.328537090041163,0.21905341333710288,0.028733484500000017,0.03353874300000004,-0.03471554099999885
36472.0,0.2576206955,0.86494653,10.283057057,-0.04598069914379061,0.12483118409039044,-0.1393715220887552,10.32258511033096,0.1926693291224556,0.008335652499999985,-0.002353595999999958,-0.0059820564999988335
36482.0,0.20623384949999998,0.8373898434999999,10.314242204,-0.06436599748429887,0.11976798393035487,-0.1268470393764439,10.350234122639511,0.18595032402622916,-0.051386846000000014,-0.027556686500000094,0.031185146999998636
36492.0,0.10444082249999999,0.7762944139999999,10.353664937,-0.08381769199777568,0.12909502345301258,-0.12738111012755415,10.383251828318299,0.1997920864035809,-0.101793027,-0.06109542950000002,0.03942273300000032
36502.0,0.0099047165,0.7212791075,10.401619455499999,-0.10620153965460297,0.14614863557424917,-0.14363361612212533,10.426601984892347,0.23080036045366342,-0.09453610599999998,-0.05501530649999986,0.04795451849999921
36512.0,-0.1038524235,0.6314501935,10.535676361,-0.1347132383151823,0.16293521231993063,-0.1734787463312284,10.555093133481686,0.27347836371413126,-0.11375714,-0.08982891400000004,0.13405690550000138
36522.0,-0.21162750699999996,0.6614585424999999,10.5655866435,-0.15922638765944266,0.17012945949665126,-0.20119108419439435,10.588386785836208,0.307855368436241,-0.10777508349999997,0.030008348999999934,0.029910282499999497
36532.0,-0.303810017,0.7141202529999999,10.581179217,-0.1765470351562344,0.16693201630699767,-0.21398085695300878,10.609600458285273,0.32376374230775196,-0.09218251000000002,0.052661710500000014,0.015592573500001095
36542.0,-0.365984178,0.7176506469999999,10.5895148695,-0.18827215707113232,0.1586713729573085,-0.21451318237486705,10.620112619037872,0.3265561439277592,-0.062174161000000006,0.0035303939999999923,0.008335652499999568
36552.0,-0.46414874449999993,0.6626353405000001,10.5979485885,-0.20026256903233336,0.14588160019869403,-0.20758597057370157,10.628783276367507,0.32323129955341173,-0.09816456649999994,-0.05501530649999986,0.008433718999999229
36562.0,-0.562313311,0.65900688,10.561958183,-0.21118658482056585,0.12802862728004405,-0.19452916243953197,10.597426432254945,0.3143766817860579,-0.0981645665000001,-0.003628460500000097,-0.03599040549999977
36572.0,-0.674893653,0.6614585424999999,10.511748135,-0.22211234593805038,0.11816926233552807,-0.1812053189298073,10.554139363301106,0.3100536024423522,-0.112580342,0.0024516624999999515,-0.050210048000000285
36582.0,-0.7838455344999999,0.5704528305,10.4722273355,-0.23783427184001527,0.11577117994328788,-0.17081362856343302,10.517004118102003,0.31487362968362065,-0.1089518814999999,-0.09100571199999996,-0.03952079949999998
36592.0,-0.8700459879999999,0.47464185999999997,10.411131905999998,-0.2711421352850751,0.1253635095122487,-0.16841554617119284,10.458199294363745,0.34292544851077883,-0.08620045349999994,-0.09581097049999998,-0.061095429500001686
36602.0,-0.932220149,0.3429385505,10.353664937,-0.31617337531578077,0.1440158432283121,-0.1836034013220475,10.40120276137735,0.39295849060220106,-0.06217416100000017,-0.13170330949999998,-0.05746696899999826
36612.0,-1.01008495,0.2735074685,10.304631687,-0.3550767643427344,0.16080416530324557,-0.2086506214174181,10.357630624146926,0.44212279965282725,-0.07786480099999993,-0.06943108199999998,-0.04903324999999903
36622.0,-1.0770643695,0.2136869035,10.2531467745,-0.3715980510421127,0.1679984124799662,-0.24009447322134794,10.311777176035836,0.47323771426791633,-0.06697941949999997,-0.05982056500000002,-0.0514849125000012
36632.0,-1.1142315729999999,0.15984839499999998,10.195679805500001,-0.37213037646397096,0.16746434172885594,-0.2707372188986124,10.257628878251282,0.4897182501549753,-0.03716720349999991,-0.05383850850000002,-0.05746696899999826
36642.0,-1.147770316,0.19211227349999999,10.122620262999998,-0.3668018862576323,0.16293521231993063,-0.30617612936035726,10.189294618020337,0.5048121723631356,-0.03353874300000004,0.03226387850000001,-0.0730595425000029
36652.0,-1.0663751209999999,0.21966896,10.0915331825,-0.36040699987832503,0.15707265136248166,-0.32642718467124743,10.150096173148992,0.5109987575911817,0.08139519500000003,0.02755668650000001,-0.031087080499998976
36662.0,-1.034013176,0.2352615335,9.982581301,-0.3545444389208761,0.1480126472153791,-0.3338884672235232,10.03874796318551,0.5090098343355429,0.03236194499999989,0.015592573500000012,-0.10895188149999946
36672.0,-0.996944039,0.20289958849999998,9.922760736,-0.35587612514014777,0.1440158432283121,-0.3429484713706258,9.974780513064655,0.5147834822145878,0.03706913700000003,-0.03236194500000003,-0.05982056499999899
36682.0,-0.941830666,0.1658304515,9.852152856,-0.3625380468950101,0.14454991397942235,-0.35733696572406703,9.898457487914552,0.5291674783570793,0.055113372999999966,-0.037069136999999974,-0.07060788000000073
36692.0,-0.8616122689999999,0.19211227349999999,9.8269497655,-0.3630703723168684,0.14534927477683576,-0.37625633481568554,9.866520385697338,0.5426926721648219,0.08021839700000011,0.026281821999999982,-0.025203090499999803
36702.0,-0.8220914695,0.21731536399999998,9.866470565,-0.354277403545321,0.14588160019869403,-0.38771442135502837,9.903045075211288,0.5450838398503576,0.03952079949999987,0.025203090499999997,0.03952079949999998
36712.0,-0.7754118154999999,0.2376151295,9.840188742999999,-0.35054763493380914,0.13921967844383168,-0.39650739012657576,9.873552498024619,0.5472511979417493,0.04667965400000007,0.02029976550000001,-0.026281822000001398
36722.0,-0.6737168549999999,0.21966896,9.795862685,-0.34841484258787203,0.13095903509414253,-0.40609971969553665,9.821459901464443,0.5508721755045484,0.10169496050000004,-0.017946169499999998,-0.044326057999999335
36732.0,-0.5659417714999999,0.23163307299999997,9.768305998499999,-0.34388571317894673,0.13362415286193788,-0.42475205341160005,9.787427958844297,0.5626074162629161,0.10777508349999998,0.01196411299999997,-0.027556686500000538
36742.0,-0.5084748025,0.254384501,9.774288055,-0.336424430626671,0.14588160019869403,-0.4458024695199036,9.790810236198132,0.5772371095391009,0.05746696899999992,0.022751428000000018,0.00598205650000061
36752.0,-0.4174690904999999,0.35372586549999996,9.799393079,-0.33216059126404884,0.15680736131617856,-0.4556618344644196,9.814657770202674,0.5852750757885605,0.09100571200000007,0.09934136449999997,0.025105024000000142
36762.0,-0.2762533305,0.45551889249999994,9.793411022499999,-0.3398889091918797,0.17146289104517493,-0.45086566967993913,9.807890334810093,0.5900879982622552,0.1412157599999999,0.10179302699999998,-0.00598205650000061
36772.0,-0.19240647299999997,0.497393288,9.8030215395,-0.3598729291272148,0.20876755847730172,-0.42581844958456855,9.817517590394258,0.5953266083401453,0.08384685750000004,0.04187439550000005,0.009610517000000485
36782.0,-0.154160538,0.36814164099999996,9.80665,-0.38412078842517206,0.24687158670684195,-0.4098312336363005,9.814768360069158,0.6135601034025774,0.03824593499999995,-0.12925164700000003,0.003628460499999875
36792.0,-0.1385679645,0.1766177665,9.8820631385,-0.3995756789515818,0.2633911280769683,-0.4215546102219464,9.884612627186236,0.6377647677307462,0.015592573500000012,-0.19152387449999997,0.07541313850000009
36802.0,-0.121798593,0.011375713999999999,9.9036377685,-0.38438782380072717,0.25459815930542085,-0.4588592776540732,9.904393235013714,0.6504814051894068,0.016769371500000005,-0.1652420525,0.021574629999999928
36812.0,-0.0583495675,0.0065704555,9.9036377685,-0.33482570903184417,0.21889221346812085,-0.5052239492333025,9.903811836488645,0.6444170198129043,0.0634490255,-0.004805258499999999,0.0
36822.0,0.020593965,0.05687856999999999,9.829401428,-0.2711421352850751,0.17918946364375382,-0.5356014048642639,9.829587565909778,0.6264948413997191,0.0789435325,0.05030811449999999,-0.07423634049999883
36832.0,0.11042287899999999,0.06648908699999999,9.725254805,-0.22451042833029058,0.1586713729573085,-0.5486582129984334,9.726108935904035,0.6136834458544911,0.08982891399999998,0.009610516999999999,-0.1041466230000001
36842.0,0.169066646,0.0485429175,9.6151261255,-0.21944722817025503,0.1679984124799662,-0.5603815895840794,9.616734911335643,0.6248264386949198,0.058643767,-0.01794616949999999,-0.11012867950000071
36852.0,0.21221590599999998,-0.0281450855,9.518138357,-0.24929235837935806,0.1909145855586517,-0.575569444734934,9.520545442336372,0.6556487204577267,0.043149259999999995,-0.076688003,-0.09698776850000002
36862.0,0.201428591,-0.0508965135,9.540889785,-0.2932572022370952,0.20743412692877805,-0.591291370636899,9.54315156653587,0.6918483856079275,-0.010787314999999992,-0.022751427999999997,0.022751427999999407
36872.0,0.2001537265,-0.079629998,9.5229436155,-0.32443401866546995,0.20503604453653784,-0.6080779473825804,9.525379654103322,0.7190660624168184,-0.0012748645000000003,-0.028733484499999996,-0.017946169500000053
36882.0,0.26242595399999996,-0.14906107999999998,9.506174243999999,-0.33482570903184417,0.19624307576499042,-0.6381883676379866,9.510963954520726,0.7469297107511649,0.06227222749999997,-0.06943108199999999,-0.016769371500000574
36892.0,0.3594137225,-0.265171816,9.418796992499999,-0.3284308226525369,0.1935779579971951,-0.6802891998545938,9.429381268240725,0.7798285879149273,0.09698776850000002,-0.11611073600000002,-0.08737725149999953
36902.0,0.44443737799999994,-0.30704621149999994,9.3995759585,-0.2985874377726859,0.19651011114054556,-0.738378993348721,9.41508524436031,0.8203500591788836,0.08502365549999996,-0.04187439549999994,-0.019221033999999193
36912.0,0.547407203,-0.3046926155,9.4223273865,-0.24662724061156271,0.19704243656240383,-0.8127212928374196,9.44313219298684,0.8718753451322323,0.10296982500000007,0.002353595999999958,0.022751427999999407
36922.0,0.668225131,-0.188483813,9.4666534445,-0.18853744711743547,0.19624307576499042,-0.8700117255341334,9.492079772722452,0.9115800109250662,0.12081792800000002,0.11620880249999999,0.04432605800000111
36932.0,0.7856107314999999,-0.0879656505,9.5156866945,-0.14030876389707614,0.19704243656240383,-0.9094474399829453,9.548466654128305,0.9410669036387941,0.11738560049999991,0.1005181625,0.04903324999999903
36942.0,0.922021233,-0.018534568499999998,9.53010247,-0.1096642728905597,0.19624307576499042,-0.944621060398387,9.57461851840753,0.9710028554450765,0.13641050150000011,0.069431082,0.014415775499999839
36952.0,1.0621582615,0.1083634825,9.576782124,-0.08834856673595297,0.1975747619842621,-0.966470837304104,9.636113255217488,0.9904075601371037,0.14013702849999998,0.12689805099999998,0.04667965400000007
36962.0,1.1722869409999999,0.2807643895,9.588746236999999,-0.0739583270532597,0.19331266795089194,-0.966470837304104,9.664219560421426,0.988385299916032,0.11012867949999983,0.172400907,0.011964112999999443
36972.0,1.350571838,0.383636148,9.543243381,-0.06250198584316893,0.17545969503224196,-0.9384914640653829,9.645968858163045,0.9567961282001161,0.17828489700000016,0.10287175850000002,-0.045502855999998815
36982.0,1.3781285245,0.42443181199999996,9.521668751,-0.06862983684692102,0.15547392976765487,-0.891062141642437,9.630241762118334,0.9071239924130764,0.027556686499999872,0.040795663999999954,-0.021574629999999928
36992.0,1.452364865,0.394423463,9.53010247,-0.06942919764433443,0.1432164824308987,-0.8385678737302035,9.648201213591655,0.8535381966718364,0.07423634050000016,-0.03000834899999999,0.008433718999999229
37002.0,1.5624935444999999,0.390893069,9.461848186,-0.09047961375263804,0.13202543126711105,-0.7828779079575685,9.597955749163875,0.7990713946664042,0.11012867949999983,-0.0035303939999999923,-0.068254284
37012.0,1.627119368,0.413644497,9.417522127999998,-0.1197906732106308,0.13682159605159147,-0.7346474794079572,9.565999280733232,0.7568202385869619,0.06462582350000012,0.022751428000000018,-0.04432605800000111
37022.0,1.7300891929999997,0.36215958449999996,9.4535125335,-0.16775406638468696,0.1480126472153791,-0.7040047337306927,9.617342013333111,0.7386960373790601,0.10296982499999974,-0.051484912500000035,0.03599040550000154
37032.0,1.752840621,0.289100042,9.513333098499999,-0.2101219339768493,0.15520863972135174,-0.6920143217694917,9.677785682682153,0.7396788293012133,0.022751428000000296,-0.07305954249999996,0.05982056499999899
37042.0,1.7899097579999999,0.21486370149999998,9.540889785,-0.2338374678529483,0.15680736131617856,-0.6837536784198026,9.709712727033855,0.7394508791579275,0.03706913699999981,-0.07423634050000003,0.027556686500000538
37052.0,1.8162896465,0.2723306705,9.472635501,-0.20159425525160501,0.1386873530219734,-0.6637696584844675,9.649035983396661,0.7074352162306293,0.02637988850000017,0.05746696900000001,-0.068254284
37062.0,1.856987244,0.310674672,9.425955846999999,-0.1424398109137612,0.10884396814212237,-0.6381883676379866,9.612157094315224,0.6628880008889204,0.040697597499999905,0.0383440015,-0.04667965400000007
37072.0,1.9168078089999998,0.289100042,9.405558014999999,-0.08301833120036227,0.080332269481543,-0.5990196885647299,9.603241774758068,0.6100572957710892,0.05982056499999988,-0.021574629999999984,-0.02039783200000045
37082.0,1.9539750125,0.3274440435,9.357701563,-0.037720055794101454,0.05634970022988892,-0.5609139150059376,9.565135466540482,0.564997797670395,0.037167203500000134,0.0383440015,-0.04785645199999955
37092.0,1.9838852949999999,0.34656701100000004,9.339755393499999,-0.015603243512829306,0.040629519657176,-0.5174813965700588,9.554419938815911,0.5193084005403648,0.02991028249999994,0.019122967500000032,-0.017946169500000053
37102.0,2.0137955775,0.30949787399999995,9.3277912805,-0.01960004749989632,0.03823143726493579,-0.47777864674569176,9.54771447701181,0.47970641015467513,0.02991028249999994,-0.037069137000000085,-0.011964112999999443
37112.0,2.0018314645,0.2568361635,9.311021908999999,-0.024663247659931872,0.05182057082096364,-0.45086566967993913,9.527246350180182,0.4545035747288305,-0.011964112999999887,-0.05266171049999996,-0.016769371500000574
37122.0,1.9910441494999997,0.24006679199999997,9.3062166505,-0.02706133005217208,0.08006523410598787,-0.43621013995094277,9.51985069294276,0.4443220042859236,-0.010787315000000186,-0.01676937150000002,-0.004805258499999354
37132.0,1.9551518104999999,0.2136869035,9.260713794499999,-0.032391565587762766,0.12456414871483529,-0.42821653197680876,9.467264688307358,0.447140737267947,-0.035892338999999884,-0.026379888499999976,-0.04550285600000059
37142.0,1.936028843,0.182599823,9.1769650035,-0.04251622057858186,0.1797217890656121,-0.41755780623487937,9.38073755371886,0.45657646897854476,-0.019122967499999755,-0.031087080500000003,-0.08374879099999966
37152.0,1.8593408399999998,0.2711538725,9.1757882055,-0.05530599333719632,0.23701222176232598,-0.40450099810070983,9.366203178132352,0.47207478605428443,-0.07668800300000034,0.08855404950000001,-0.0011767979999994793
37162.0,1.843846333,0.2460488485,9.2379623665,-0.06436599748429887,0.2839092187634136,-0.3823841858194376,9.423388881948787,0.4805882766940896,-0.01549450699999988,-0.025105024000000004,0.06217416099999973
37172.0,1.7588226775,0.265171816,9.309845111,-0.045713663768235484,0.31774940763033166,-0.35653760492665365,9.478237668137448,0.479763992845833,-0.0850236554999999,0.019122967500000004,0.07188274449999987
37182.0,1.7504870249999998,0.22810267899999997,9.4103632735,-0.025197318411042134,0.3260100509800208,-0.33895166738355875,9.574506389161687,0.47096251551179513,-0.008335652500000235,-0.03706913700000003,0.10051816250000023
37192.0,1.7636279359999998,0.2603665575,9.5696232695,0.0049131018443640375,0.3076247526395125,-0.32536253382753094,9.734262363479827,0.44779225699527847,0.013140911000000033,0.03226387850000001,0.1592599959999994
37202.0,1.752840621,0.29508209849999995,9.664159375499999,0.04035375763536089,0.27298345764592913,-0.3128380511152196,9.826265828001365,0.4171522984824475,-0.010787314999999742,0.03471554099999996,0.09453610599999962
37212.0,1.731265991,0.30586941349999996,9.666611038,0.06913074634224341,0.2327483823997038,-0.2987148468080815,9.825182287860692,0.3849434105204166,-0.02157463000000015,0.01078731500000002,0.0024516625000003955
37222.0,1.727735597,0.30351581749999995,9.655823723,0.07552563272155062,0.20716883688247492,-0.2920546703824711,9.813874052292663,0.3659494209114723,-0.0035303939999999923,-0.0023535960000000133,-0.010787314999999964
37232.0,1.6905683934999998,0.371672035,9.665336173499998,0.06566801310628666,0.2021056367224394,-0.28539274862760877,9.819108154077426,0.35582017552343986,-0.037167203500000134,0.06815621750000006,0.009512450499999048
37242.0,1.6546760544999999,0.5153394575,9.691716062,0.048879691031353194,0.20929988389916002,-0.2680721011308171,9.845450107954479,0.3435961539368761,-0.035892338999999884,0.14366742249999997,0.02637988850000106
37252.0,1.6020143439999999,0.575258089,9.737218918,0.03529055747532534,0.21063157011843167,-0.24462360263027325,9.884877545240446,0.324733411803111,-0.052661710500000014,0.059918631499999986,0.04550285600000059
37262.0,1.6319246265,0.579965281,9.825772967499999,0.025963517952667648,0.2021056367224394,-0.21291446078004025,9.97724170913967,0.294708941616498,0.029910282500000163,0.004707192000000027,0.08855404949999901
37272.0,1.6068196024999999,0.5739832244999999,9.876081081999999,0.02649758870377791,0.1877171423689981,-0.17827491111570878,10.02239010991011,0.260234109370027,-0.025105024000000142,-0.005982056500000055,0.050308114499999945
37282.0,1.5169906885,0.575258089,9.8928504535,0.03369183588049854,0.16666498093144252,-0.1401708828861686,10.025002379713971,0.2203638629244018,-0.08982891399999993,0.001274864500000028,0.016769371500000574
37292.0,1.4248081785,0.5261267725,9.889221993,0.04221776927649083,0.14268415700904044,-0.10846174103593562,10.005178626746083,0.1841332614510748,-0.09218251,-0.04913131650000002,-0.003628460499999875
37302.0,1.3565538945,0.47464185999999997,9.8832399365,0.04808033023393979,0.12190077627629195,-0.08474620715983666,9.987189544930843,0.15605587794166947,-0.068254284,-0.05148491249999998,-0.0059820564999988335
37312.0,1.3171311615,0.4315906665,9.8593117105,0.056873299005487224,0.11284077212918939,-0.06582683806821812,9.956260965081555,0.1424808218832928,-0.03942273299999988,-0.04305119349999997,-0.023928226000000663
37322.0,1.2824156205,0.45551889249999994,9.9071681625,0.05847202060031403,0.1168375761162564,-0.05037194754180834,10.000203412190197,0.14002617428523942,-0.03471554100000018,0.02392822599999994,0.04785645199999955
37332.0,1.266823047,0.43041386849999996,9.945512163999998,0.03768863986756556,0.1253635095122487,-0.032253684576855214,10.035103832790144,0.13482115286956267,-0.015592573499999984,-0.025105023999999976,0.038344001499998726
37342.0,1.2500536755,0.44590837549999995,9.957476277,0.0049131018443640375,0.12962734887487085,-0.00800582527889799,10.045536435551359,0.12996723196427942,-0.016769371499999908,0.01549450699999999,0.01196411300000122
37352.0,1.2357359665,0.48778277099999995,10.0005274705,-0.023331561440660196,0.13415647828379615,0.014910347799787557,10.088385653751113,0.1369840899385056,-0.014317708999999956,0.041874395499999995,0.043051193500000196
37362.0,1.173463739,0.4578724885,10.097515239,-0.04651302456564888,0.1253635095122487,0.04075692869257158,10.17577900528064,0.13978768975816036,-0.062272227500000055,-0.02991028249999994,0.09698776850000002
37372.0,1.0801044309999999,0.441103117,10.1490001515,-0.05797111110499165,0.09711884622722447,0.07060205890167462,10.215840720021038,0.13333180691946722,-0.09335930800000014,-0.01676937150000002,0.051484912499999425
37382.0,1.0429372275,0.383636148,10.212449177,-0.0622349504676138,0.054485688588758976,0.0945828828240767,10.272731523181438,0.1256495166883287,-0.03716720349999991,-0.05746696899999998,0.06344902550000064
