timestamp,ax,ay,az,gx,gy,gz,acc_mag,gyro_mag,dax,day,daz
61962.0,-5.8868339285,-0.550545331,11.2243973905,0.13437289911104344,0.08876220976867562,-0.20232205754968668,12.686410471172996,0.25859045007436715,0.0,0.0,0.0
61972.0,-5.732477257499999,-0.9875296549999999,10.743185074999998,0.14663034644779963,0.02481160064635139,-0.30490902032340933,12.21689550921026,0.33924266344405596,0.1543566710000004,-0.43698432399999987,-0.4812123155000023
61982.0,-5.741989708,-0.74334407,10.8078108985,0.1727439627161388,-0.004766494187196514,-0.41336028938383307,12.260986201399849,0.44802893317418413,-0.009512450500000824,0.24418558499999987,0.0646258235000019
61992.0,-5.8640825004999995,-0.4164884255,10.813792955,0.22177375206316347,-0.022619467105846513,-0.49116706743774025,12.308494800537288,0.5393888444635425,-0.12209279249999927,0.32685564450000004,0.00598205650000061
62002.0,-5.7575822814999995,-0.2668389465,10.903523802499999,0.2662726666720109,-0.029014353485153736,-0.5548506411845093,12.333198614442889,0.6161186571981458,0.10650021899999995,0.14964947899999997,0.08973084749999849
62012.0,-5.5936150934999995,-0.16867437999999998,10.988547458,0.27426627464614495,-0.026083945671055254,-0.6182689248849753,12.331470151503334,0.6768743052505897,0.16396718799999999,0.09816456650000002,0.08502365550000057
62022.0,-5.4571065254999995,0.0024516625,10.9454962645,0.2358952110410496,-0.017290976899507822,-0.6816872085854413,12.23044995564297,0.7215559429616332,0.136508568,0.1711260425,-0.043051193500000196
62032.0,-5.3398189915000005,0.1544547375,10.886754430999998,0.16794779793165834,0.003759439208795786,-0.7280518801646706,12.126786267136827,0.7471814615102342,0.11728753399999903,0.152003075,-0.05874183350000095
62042.0,-5.222433391,0.19397553699999998,10.8772419805,0.09413782386481816,0.03147177707196175,-0.7608274181878721,12.06755278151862,0.7672748939594558,0.11738560050000046,0.03952079949999998,-0.009512450499999048
62052.0,-5.054935809,0.15572960199999997,10.797023583499998,0.03338465793214754,0.05065818153913541,-0.7949346424303453,11.92276587058157,0.7972464314614142,0.1674975820000002,-0.03824593500000001,-0.08021839700000122
62062.0,-4.901657869499999,0.1976039975,10.6473741045,-0.011913617474113293,0.06557900131443493,-0.8210465133694325,11.723134074582465,0.8237474836446056,0.15327793950000057,0.04187439550000002,-0.14964947899999714
62072.0,-4.6825773085,0.22633748199999998,10.451044971499998,-0.04761956331141329,0.0940906999750143,-0.831972274486917,11.454348514959399,0.8386289692985163,0.21908056099999929,0.02873348449999999,-0.19632913300000254
62082.0,-4.4252508125,0.17720616549999998,10.2451053215,-0.08625766229206375,0.13672560294273178,-0.831972274486917,11.161381179193315,0.8475329729981479,0.2573264960000001,-0.049131316499999994,-0.2059396499999977
62092.0,-4.1402695634999995,0.05874183349999999,9.942275969499999,-0.13422105546611993,0.18468899611678793,-0.8396988470854958,10.770057293958308,0.8701835845462593,0.2849812490000003,-0.11846433199999999,-0.3028293520000016
62102.0,-3.9691435209999995,-0.1842669535,9.6059078745,-0.16992700130341992,0.2579648994325179,-0.8615503693204649,10.395264339776528,0.9152541253594169,0.17112604250000008,-0.243008787,-0.3363680949999992
62112.0,-3.7296651279999997,-0.46199128149999996,9.356917031,-0.18058572704534928,0.3496278464180081,-0.9185720213123716,10.083438611714712,0.9993124607155099,0.23947839299999973,-0.27772432799999996,-0.24899084349999967
62122.0,-3.5226467464999995,-0.572119961,9.243159891,-0.17765357390199882,0.47566505302152656,-0.9918496699573536,9.908196915735617,1.1142637940724072,0.20701838150000018,-0.11012867949999999,-0.11375714000000059
62132.0,-3.4806742845,-0.556625454,9.232372576,-0.18671357804910138,0.6262171542985575,-1.0454085887133036,9.88238983004097,1.2328377841067422,0.04197246199999949,0.01549450699999999,-0.010787314999999964
62142.0,-3.2831683534999994,-0.549368533,9.3497581765,-0.2234859200593699,0.7367994703756662,-1.0861777347106392,9.924665142033914,1.3313908094138929,0.1975059310000007,0.007256920999999972,0.11738560050000046
62152.0,-3.0605573984999994,-0.500335283,9.5496177035,-0.2682518700437725,0.8122081660373331,-1.1090939077893247,10.040545068268374,1.4006178875964366,0.22261095499999994,0.04903325000000003,0.1998595269999992
62162.0,-2.8403000394999998,-0.41531162749999995,9.728000667,-0.30582182752220244,0.8465806803261094,-1.1136230371982498,10.142671494210628,1.4319155378265482,0.22025735899999965,0.08502365550000002,0.1783829635000007
62172.0,-2.5900343315,-0.478760653,9.8022370075,-0.32500823198937606,0.8468477157016647,-1.109893268586738,10.149942854637764,1.4334031087255743,0.2502657079999997,-0.06344902550000003,0.07423634050000061
62182.0,-2.5134443949999996,-0.592517793,9.622677246,-0.3191456710319271,0.8122081660373331,-1.092305585714391,9.96315198330652,1.398094258946444,0.07658993650000046,-0.11375713999999998,-0.1795597615000002
62192.0,-2.3350614315,-0.8031646349999999,9.396437830499998,-0.27038291706045753,0.7421279605820049,-1.07791709136095,9.715483993206156,1.3363255918988375,0.17838296349999982,-0.21064684199999995,-0.22623941550000204
62202.0,-2.025073225,-1.102463593,9.0875283555,-0.1773882838556957,0.6843052024634327,-1.0867100601324973,9.375474342800949,1.2964100308779487,0.3099882064999999,-0.29929895800000006,-0.3089094749999983
62212.0,-1.8000106074999997,-1.325074548,8.745178204,-0.07719765814496118,0.7024252107576379,-1.1192185627801436,9.02629506301376,1.3236354658298592,0.22506261750000012,-0.22261095499999994,-0.3423501514999998
62222.0,-1.5437628429999999,-1.6662479015,8.583564611999998,-0.0135123390689401,0.817803691619227,-1.1978247016314645,8.879029633527487,1.4504376846909544,0.25624776449999986,-0.3411733535000001,-0.16161359200000192
62232.0,-1.2349514345,-1.8171722449999999,8.693693291499999,-0.006585127267774606,1.0016619110120657,-1.331855516209117,8.967024203170416,1.6664960437787213,0.3088114085,-0.15092434349999984,0.11012867950000071
62242.0,-1.103248125,-1.703415105,8.9498429895,-0.054016195019972506,1.1674018674399513,-1.472815287917187,9.17706211060819,1.8801408834843487,0.13170330949999998,0.11375713999999992,0.25614969800000154
62252.0,-0.8913264184999999,-1.48668814,9.215603204499999,-0.12889081993052925,1.2521376026242759,-1.5754022506909098,9.377208904184835,2.016520188555031,0.21192170649999997,0.21672696499999988,0.26576021499999847
62262.0,-0.548976267,-1.1192329644999999,9.53402513,-0.1704593267252782,1.2814486620822687,-1.607910753338556,9.615180318123224,2.063139366674446,0.3423501514999999,0.3674551755000002,0.3184219255000009
62272.0,-0.3215600535,-0.7923773199999999,9.781839175499998,-0.16486380114338436,1.2718545871840559,-1.6145726750934184,9.819146619773216,2.0619503114834963,0.22741621350000002,0.32685564449999993,0.24781404549999841
62282.0,-0.0066685220000000005,-0.6247816715,9.961398936999998,-0.13448634551242306,1.246542077042382,-1.5594150347426414,9.980975172211014,2.00093202721827,0.3148915315,0.16759564849999997,0.1795597615000002
62292.0,0.215942433,-0.5098477335,10.0224943665,-0.09957976047253647,1.2428105631016182,-1.4741469741364586,10.037777103136396,1.9307002682468362,0.222610955,0.11493393799999996,0.061095429500001686
62302.0,0.48052585,-0.6260565359999999,10.111048416,-0.06387381463523648,1.282248022879682,-1.4008693254914768,10.141802204218077,1.9001775505141238,0.264583417,-0.11620880249999987,0.08855404949999901
62312.0,0.606247103,-0.8175804105,10.266679951499999,-0.030832986565731826,1.3315431022730098,-1.3475774421110818,10.31700976562789,1.8947091251054975,0.12572125299999998,-0.19152387450000008,0.15563153549999953
62322.0,0.6624392075,-0.9707602834999999,10.355234001000001,-0.0023212879051524586,1.337937988652317,-1.3148019040878802,10.421711589135478,1.8758431429225797,0.056192104500000006,-0.1531798729999999,0.08855404950000256
62332.0,0.6923494899999999,-1.031855713,10.6030480465,0.019793779046867695,1.3251482158937027,-1.2990817235151673,10.675612483840984,1.8558078866483882,0.02991028249999994,-0.06109542950000002,0.24781404549999841
62342.0,0.6696961285,-1.0426430279999999,10.8580209465,0.02645570080173005,1.2793158697363316,-1.2894876486169544,10.928504758794665,1.8166252763296615,-0.022653361499999858,-0.010787314999999964,0.2549729000000003
62352.0,0.7654090324999999,-0.989883251,11.055624943999998,0.0027401669256310974,1.2073716526398734,-1.2868242761784112,11.126210619075925,1.7645595863770687,0.09571290399999988,0.0527597769999999,0.19760399749999813
62362.0,0.8360169125,-0.7516797224999999,11.321385159,-0.033498104333527165,1.1338269686193363,-1.268437232508651,11.377069420620987,1.7016517653670091,0.07060788000000007,0.23820352850000004,0.265760215000002
62372.0,0.8013013715,-0.512299396,11.68168148,-0.07746469352051631,1.0232463978714794,-1.2055530195592952,11.720333474747411,1.5831588841514677,-0.03471554099999996,0.23938032649999996,0.36029632099999986
62382.0,0.748639661,-0.4045243125,11.9102744915,-0.09611702723657972,0.8423168409634874,-1.0989675074692535,11.940633974973915,1.3879718030164336,-0.052661710500000014,0.10777508349999998,0.22859301149999922
62392.0,0.8911302855000001,-0.38775494099999996,12.055118711999999,-0.06494021080820502,0.6083641813799074,-0.9854547835780464,12.094228137438856,1.1599333337061717,0.14249062450000005,0.01676937150000002,0.14484422049999957
62402.0,1.1233517574999998,-0.3794192885,12.0671808915,0.012067206448288795,0.383202745238623,-0.8695439772945989,12.125293103086083,0.9503139954137225,0.23222147199999976,0.008335652499999957,0.01206217950000088
62412.0,1.4346148285,-0.30400615,11.937831178,0.09626887088150322,0.22252598897077303,-0.7400422921258717,12.02756636563768,0.778747780351979,0.31126307100000017,0.07541313850000003,-0.1293497134999999
62422.0,1.651243727,-0.256149698,11.8635948375,0.17034588032389855,0.14871601490393282,-0.5977525795277819,11.980697015704012,0.6390949212474999,0.2166288985,0.047856451999999994,-0.07423634049999883
62432.0,1.742249439,-0.256149698,11.923513469,0.2212396813120532,0.13645856756717667,-0.45652577244415676,12.052851082665285,0.5253415252531239,0.09100571200000007,0.0,0.059918631499998654
62442.0,1.7362673825000001,-0.32558077999999996,11.9677414605,0.2350958502436362,0.13406048517493643,-0.33501944057881555,12.097415547678333,0.4306742365789485,-0.005982056499999944,-0.06943108199999998,0.044227991499999675
62452.0,1.579459049,-0.3925601995,12.032465350499999,0.21750991270054135,0.10767983353104216,-0.22950032466174236,12.142035118079775,0.33402980060484905,-0.15680833350000012,-0.06697941950000003,0.06472388999999978
62462.0,1.40823494,-0.481114249,11.995298146999998,0.19272798265147384,0.02907369467972154,-0.13703801687883876,12.08725668637219,0.23826198414627828,-0.17122410899999996,-0.08855404950000001,-0.03716720350000102
63012.0,-6.316659398,-0.202213123,11.4805470885,0.08267973732547537,-0.5608737724331417,0.3417948087350576,13.105114938401758,0.6619962377882731,-7.7248943379999995,0.278901126,-0.5147510584999981
63022.0,-5.78396217,-0.3111650045,10.9011702065,0.08987398450219601,-0.7138239561024128,0.291166297793206,12.344494882946805,0.7761441788524877,0.532697228,-0.10895188150000001,-0.579376882
63032.0,-5.510945034,-0.16396718799999999,10.615012159499999,0.06535908982868366,-0.6525367194186319,0.23600865744242921,11.961433173029173,0.6969763749228823,0.273017136,0.14719781650000002,-0.2861580470000007
63042.0,-5.394834298,0.0012748644999999999,10.3253237185,7.67944870877505e-05,-0.47373995485657683,0.17339147986862866,11.649744573164483,0.5044741381041626,0.11611073599999955,0.1652420525,-0.28968844099999913
63052.0,-5.418762524,0.009610516999999999,10.217646701499998,-0.10144551744291841,-0.26243643297612734,0.11636808254746993,11.56561212259073,0.30447595142846606,-0.023928225999999775,0.008335652499999999,-0.1076770170000021
63062.0,-5.5288912035,-0.11483587149999999,10.285802918999998,-0.1968399783691725,-0.09509775495341503,0.06147573224299627,11.67816624757636,0.22708770494319733,-0.11012867949999983,-0.12444638849999999,0.06815621750000034
63072.0,-5.641471545499999,-0.3111650045,10.3696497765,-0.23734208899095288,-0.023418827903259914,-0.00300720230118623,11.809007635952232,0.2385136305803762,-0.11258034199999933,-0.19632913300000002,0.08384685750000109
63082.0,-5.803085137499999,-0.2980240935,10.430745206,-0.22988080643867714,-0.030880110455535674,-0.07441909397578621,11.940061181831181,0.24359180597634955,-0.16161359200000014,0.013140911000000033,0.06109542949999991
63092.0,-5.822208105,-0.2788030595,10.415152632499998,-0.19870399001030242,-0.07910879367589499,-0.13117545592138982,11.935293993956995,0.25089535093152715,-0.01912296750000042,0.01922103399999997,-0.015592573500001095
63102.0,-5.803085137499999,-0.247715979,10.3480751465,-0.14301402423766738,-0.13506579482408518,-0.17354332351355217,11.866752696375546,0.26232244508665936,0.01912296750000042,0.031087080500000003,-0.06707748599999874
63112.0,-5.8353490159999994,-0.2644853505,10.281095727,-0.06653893240303181,-0.17397092918029078,-0.21804223812239962,11.824642911601979,0.28676773062988486,-0.03226387850000023,-0.01676937149999999,-0.06697941949999908
63122.0,-5.882126736499999,-0.360296321,10.267856749499998,0.020593139844281093,-0.2038143140601418,-0.2851920357636294,11.838839073635004,0.35113935878430874,-0.04677772049999973,-0.09581097049999998,-0.013238977500002136
63132.0,-5.885657130499999,-0.4596376855,10.2774672665,0.10106503566598365,-0.23605578133223307,-0.38804603391290726,11.852365167919704,0.4653130105317009,-0.0035303940000002143,-0.09934136450000003,0.009610517000002261
63142.0,-5.867710960999999,-0.44169151599999995,10.203230926,0.15728907218972898,-0.26616620158763926,-0.512484518921599,11.778414351958787,0.5985187392489898,0.017946169500000053,0.017946169500000053,-0.07423634050000061
63152.0,-5.682169143,-0.32793437599999997,10.095553909,0.16714843713424496,-0.24484875010378052,-0.6371882939765938,11.58942603644154,0.7027790779787104,0.18554181799999903,0.11375713999999998,-0.10767701700000032
63162.0,-5.4571065254999995,-0.1387640975,9.99493768,0.13224185209435835,-0.1577166778564676,-0.744838456910352,11.38850500866964,0.7727527319990666,0.22506261750000078,0.18917027849999998,-0.10061622899999989
63172.0,-5.2858824165,0.020397831999999998,9.941099171500001,0.0797493295113769,-0.03514394981815782,-0.8135869761464087,11.259059540219697,0.8182412972475738,0.17122410899999974,0.1591619295,-0.05383850849999838
63182.0,-5.1195616325,0.053936574999999994,10.01651231,0.03098657553990733,0.07730412322933285,-0.8503575728274252,11.249148381965203,0.854426179957576,0.16632078399999983,0.033538742999999996,0.07541313849999831
63192.0,-4.968735355499999,0.053936574999999994,10.0919254485,-0.007384488065188008,0.1521804934691416,-0.8706086281383154,11.248919923494894,0.8838398139059905,0.15082627700000106,0.0,0.07541313850000009
63202.0,-4.8106521575,0.020397831999999998,10.0344584795,-0.044422120121759674,0.19934452584578433,-0.8839324716480402,11.1280342931184,0.9072200279836232,0.15808319799999904,-0.033538742999999996,-0.057466969000000034
63212.0,-4.60716417,-0.110030613,9.9866020275,-0.07906341511534314,0.2526364092261792,-0.9081803309459974,10.99864939348446,0.9459744670938957,0.20348798749999997,-0.130428445,-0.04785645199999955
