timestamp,ax,ay,az,gx,gy,gz,acc_mag,gyro_mag,dax,day,daz
29232.0,-6.005396327,0.09826263299999999,10.479778456,-0.022040017794184394,-0.0932319979830331,-0.11358951837829497,12.078915393206085,0.14859524392688098,0.0,0.0,0.0
29242.0,-5.8725162195,0.033636809499999996,10.239123265,-0.10437767058626889,-0.057793087521288235,-0.13597162070587024,11.803695328968304,0.1808950544366539,0.13288010750000012,-0.06462582349999998,-0.2406551910000001
29252.0,-5.6522588605,-0.12444638849999999,9.976991510500001,-0.1574025185911086,0.004560545335461182,-0.15435866437563048,11.467513973407687,0.22050611941714818,0.22025735899999965,-0.15808319799999998,-0.2621317544999986
29262.0,-5.4798579535,-0.2884135765,9.762716207999999,-0.1752554915097586,0.08423133503049834,-0.1700788449483434,11.199225568743252,0.2583335413846018,0.1724009070000001,-0.16396718799999999,-0.2142753025000026
29272.0,-5.330208474499999,-0.44169151599999995,9.6429770115,-0.17658892305828228,0.18761940393088644,-0.19459373962185578,11.026931550583573,0.32287987236475996,0.1496494790000007,-0.15327793949999996,-0.11973919649999942
29282.0,-5.194974770999999,-0.615269221,9.659746383,-0.17951933087238076,0.2715557783177977,-0.2313660816321243,10.985309247787155,0.39937450422436205,0.13523370349999997,-0.17357770500000008,0.016769371500000574
29292.0,-4.995017177499999,-0.7875720615,9.737611183999999,-0.18458253103241629,0.34056958760015754,-0.280394125649897,10.972307775775217,0.47820416190100706,0.19995759349999975,-0.1723028405,0.0778648009999987
29302.0,-4.811828955499999,-0.9732119459999999,9.869216427,-0.19257613900655032,0.37654082348376067,-0.3320890327647171,11.022806914384011,0.5377282647835281,0.18318822200000007,-0.1856398844999999,0.13160524300000098
29312.0,-4.655020621999999,-1.1192329644999999,9.841757806999999,-0.19977038618327095,0.3720116940748353,-0.3883130692884624,10.944500726470539,0.5736618755891559,0.1568083334999999,-0.14602101849999993,-0.027458620000000877
29322.0,-4.489876636,-1.146789651,9.6418002135,-0.1984386999639993,0.3576231997213941,-0.43947390565217215,10.697589918630646,0.6003412232818471,0.16514398599999947,-0.027556686500000094,-0.19995759349999886
29332.0,-4.1869492175,-1.114427706,9.4191892585,-0.19071038203616839,0.36961361168259516,-0.47917665547653915,10.36791296015095,0.6345036949546594,0.3029274185000004,0.03236194499999989,-0.2226109550000004
29342.0,-3.8901019219999995,-0.962424631,9.2336474405,-0.18324909948389262,0.42690229905005705,-0.49756195381704743,10.06575378147885,0.6807302720476882,0.2968472955000001,0.1520030750000001,-0.18554181799999903
29352.0,-3.669844563,-0.8570031435,9.1677467525,-0.18884637039503846,0.5161671636433071,-0.4930328244081222,9.912103410604825,0.7383582181968362,0.22025735899999965,0.10542148750000002,-0.06590068800000104
29362.0,-3.5142130275,-0.8870114925,9.23001898,-0.19977038618327095,0.6046326674391436,-0.47571217691133044,9.916134981011405,0.7948527819616059,0.15563153549999997,-0.030008349000000045,0.062272227500001165
29372.0,-3.4603745189999997,-1.043819826,9.446647878499999,-0.19284317438210546,0.6576592607732353,-0.4706489767512949,10.114489991159399,0.8313931996977161,0.05383850850000016,-0.1568083335,0.216628898499998
29382.0,-3.3622099524999998,-1.205433418,9.599925817999999,-0.17712124848014055,0.657126935351377,-0.5031574793989413,10.242856105648666,0.8463776904565434,0.09816456649999994,-0.16161359199999992,0.15327793950000057
29392.0,-3.254434869,-1.2222027895,9.599925817999999,-0.18564718187613283,0.621420989514077,-0.5695061709135056,10.209980493924931,0.8631142456568351,0.10777508349999998,-0.01676937150000013,0.0
29402.0,-2.999461969,-1.1563021015,9.4766562275,-0.21895504532119262,0.5905112084612574,-0.6353225370062119,10.007038518344237,0.8945834367000037,0.25497289999999984,0.06590068800000015,-0.12326959049999964
29412.0,-2.6966326169999997,-1.1012867949999998,9.277875432,-0.25652674812887455,0.5851809729256667,-0.6795561615687561,9.724383405009226,0.9327589829671254,0.3028293520000003,0.05501530650000008,-0.19878079549999939
29422.0,-2.4009621195,-1.1060920534999998,9.022902532,-0.26878419546563076,0.5766550395296746,-0.6958104128925793,9.402171495567488,0.9428298409770549,0.29567049749999974,-0.00480525850000002,-0.2549729000000003
29432.0,-2.246507382,-1.181505192,8.803821971,-0.2218871984645431,0.5452111877257446,-0.6848846517750948,9.162424964667693,0.9030814771109269,0.15445473750000005,-0.07541313850000009,-0.21908056100000017
29442.0,-2.129219848,-1.286828613,8.7272320345,-0.10037912126994987,0.4775308099919085,-0.6585057454604525,9.074915097363482,0.8195983524159146,0.11728753399999992,-0.10532342100000003,-0.07658993649999957
29452.0,-2.0118342475,-1.310756839,8.776265284499999,0.0696229291913058,0.3925297847612807,-0.6241314858424243,9.098812717839564,0.7405856438075121,0.11738560050000002,-0.023928225999999997,0.04903324999999903
29462.0,-1.9076876245,-1.335861863,8.9714176195,0.22683520689394704,0.30619532798212923,-0.5905565870218092,9.268771930151445,0.7028277686884257,0.10414662299999988,-0.025105024000000142,0.1951523350000013
29472.0,-1.7796127754999997,-1.3753826625,9.1594111,0.31077158128085836,0.2254563967848715,-0.5759010572928129,9.431516887427579,0.692149976792604,0.12807484900000032,-0.03952079949999998,0.18799348049999942
29482.0,-1.5689659335,-1.3514544364999999,9.174905607,0.30464373027710623,0.17003346638779157,-0.5892249008025376,9.405688496424867,0.6847665045946383,0.21064684199999983,0.02392822600000022,0.015494506999999658
29492.0,-1.3223286859999999,-1.290359007,9.080369501,0.22870096386432898,0.18895109015015812,-0.6193353210579439,9.266428103398606,0.686718927401417,0.24663724750000005,0.06109542949999991,-0.09453610599999962
29502.0,-1.218182063,-1.3263494125,9.010938419,0.1556903505949022,0.26702490357962044,-0.6507774275326217,9.189133881583414,0.7204533604516297,0.10414662299999988,-0.03599040549999999,-0.06943108199999948
29512.0,-1.1319816095,-1.412549866,9.0875283555,0.1519605819833903,0.35176063876394514,-0.6822195340072995,9.26605909220308,0.782464732778089,0.08620045350000005,-0.08620045350000005,0.07658993649999957
29522.0,-1.0039067605,-1.519050085,9.288662747,0.1940614141999975,0.4095833968825173,-0.7501686924459428,9.465442280845712,0.8764539112863723,0.12807484899999988,-0.10650021899999995,0.20113439150000012
29532.0,-0.9057421939999999,-1.4220623165,9.4586119915,0.22630288147208877,0.45674568392990805,-0.8151856977412355,9.60770372980708,0.9614350397988595,0.09816456650000016,0.09698776850000002,0.1699492444999997
29542.0,-0.76688003,-1.1551253035,9.603456212,0.23403119939991965,0.5119050696099369,-0.8602169377719412,9.703029973312468,1.0280032016558387,0.13886216399999984,0.26693701299999995,0.14484422049999957
29552.0,-0.5884970665,-0.9288858879999999,9.8249884355,0.22603584609653363,0.5723912001670524,-0.8700763027164572,9.88633175388695,1.0657188476788775,0.17838296350000005,0.22623941550000004,0.22153222350000057
29562.0,-0.48072198299999996,-0.7576617789999999,10.160179732499998,0.22417183445540367,0.6102281930210375,-0.8383671608662242,10.199725348900364,1.0608915851017553,0.10777508350000004,0.17122410900000007,0.33519129699999795
29572.0,-0.4592454194999999,-0.730203159,10.558820055,0.24335649359332537,0.5899771377101471,-0.7794797519039355,10.593997544015927,1.0074145569838253,0.021476563500000045,0.027458619999999878,0.39864032250000214
29582.0,-0.44482964399999997,-0.7481493284999999,10.978936940999999,0.29318564373776346,0.4679384804229477,-0.7112653034189891,11.013385364381406,0.9004568701510199,0.01441577549999995,-0.017946169499999942,0.42011688599999886
29592.0,-0.40413204649999995,-0.7696258919999999,11.334526069999999,0.3629988138175367,0.27395386071003797,-0.6449148665751727,11.367811045058529,0.789134995904089,0.040697597500000016,-0.021476563499999934,0.35558912900000017
29602.0,-0.19946726099999998,-0.628410132,11.452990402,0.40989581081862425,0.07597243701006116,-0.5838964105961989,11.471951692302195,0.7174408722807964,0.20466478549999997,0.1412157599999999,0.11846433200000028
29612.0,0.015984839499999997,-0.3709855695,11.420726523499999,0.3928421986973877,-0.04766668720121713,-0.5122174835460438,11.426761576774386,0.6472741742077913,0.21545210049999997,0.25742456249999995,-0.03226387850000023
29622.0,0.15249340749999998,-0.1591619295,11.360807891999999,0.3177005384112758,-0.08523839000889906,-0.41948814038758514,11.362946040444905,0.5330755248217255,0.136508568,0.21182364,-0.05991863150000043
29632.0,0.144157755,-0.011866046499999998,11.348843779,0.23696160721401813,-0.10868688850944287,-0.3206309462253743,11.349765520993513,0.413240664389038,-0.008335652499999985,0.147295883,-0.011964112999999443
29642.0,0.08070872949999999,-0.033440676499999995,11.5607654855,0.21750991270054135,-0.15984772487315266,-0.22470415987726194,11.561095570428881,0.3512176201961774,-0.0634490255,-0.021574629999999997,0.21192170650000008
29652.0,0.1309187775,-0.16867437999999998,11.7331663925,0.2561462663519398,-0.23845386372447328,-0.1535593035782171,11.735109047932275,0.3821669983221937,0.05021004800000001,-0.1352337035,0.1724009070000001
30292.0,-5.281175224499999,-0.3447037475,10.928726892999999,0.14290057783628773,0.19721173349984727,0.14061594184542714,12.142763438657386,0.2812221294226972,-5.412094001999999,-0.1760293675,-0.8044394995000008
30302.0,-5.053660944499999,-0.46797333799999996,10.9957063125,0.20205502217413154,0.019481365110760707,0.15687019316925033,12.110493189701062,0.2565424196450276,0.2275142800000003,-0.12326959049999997,0.06697941950000086
30312.0,-4.9028346675,-0.43806305549999996,10.990901053999998,0.2553469055545264,-0.07804414283217843,0.16166635795373077,12.042823298390294,0.3121360948379817,0.1508262769999993,0.029910282499999996,-0.0048052585000011305
30322.0,-4.823891134999999,-0.41413482949999997,10.9478498605,0.27506563544355833,-0.12014497504878566,0.16726188353562457,11.970666226546726,0.34361672909700813,0.0789435325000003,0.023928225999999997,-0.04305119349999842
30332.0,-4.754460053,-0.4164884255,10.814969752999998,0.23642928179215986,-0.09056688021523775,0.16912764050600654,11.821248824149379,0.3044754897587107,0.06943108199999948,-0.0023535960000000133,-0.1328801075000019
30342.0,-4.7496547945,-0.478760653,10.7287692995,0.15009482501300836,-0.0271485965147718,0.14701082822473438,11.742866903429995,0.21184354227525992,0.004805258500000242,-0.0622722275,-0.08620045349999828
30352.0,-4.804670100999999,-0.53740442,10.684443241499999,0.06136228584161664,0.03999945579720604,0.1067757529785091,11.72736055857898,0.12948493353247126,-0.05501530649999964,-0.05864376700000001,-0.04432605800000111
30362.0,-4.929214556,-0.556625454,10.688071701999998,0.004073598474154765,0.11087902204994776,0.05588020666110245,11.783117785298428,0.12423103167795459,-0.12454445500000055,-0.01922103399999997,0.003628460499999875
30372.0,-5.070430316,-0.572119961,10.7719185595,-0.0159121667904323,0.1607064268651339,0.012180652849668426,11.919346219138323,0.1619509832991739,-0.14121576000000058,-0.01549450699999999,0.08384685750000109
30382.0,-5.1350561395000005,-0.5637843084999999,10.8556673505,-0.011648327427810155,0.16683602319813795,-0.025391049958013508,12.022153215087519,0.16915864620646925,-0.06462582350000012,0.008335652500000013,0.08374879099999966
30392.0,-5.153002309,-0.549368533,10.894011352,-0.007384488065188008,0.14205409314907047,-0.05869891340307329,12.06377726581168,0.15388131296259203,-0.017946169499999165,0.01441577549999995,0.0383440015000005
30402.0,-5.1075975195,-0.53740442,10.803005639999999,-0.019641935401944186,0.11167838284736116,-0.09360549844295989,11.961659031660695,0.147036921079336,0.04540478950000004,0.011964112999999998,-0.09100571200000118
30412.0,-5.0021760319999995,-0.5422096784999999,10.720433647,-0.034030429755385436,0.09355837455315603,-0.12904440890470475,11.842442905511685,0.1629837386610379,0.10542148750000013,-0.004805258499999909,-0.0825719929999984
30422.0,-4.887340160499999,-0.550545331,10.559996853000001,-0.045488516294728214,0.0916926175827741,-0.1599541899575243,11.649151365712953,0.1899001951522019,0.11483587150000041,-0.008335652500000124,-0.16043679399999888
30432.0,-4.8561550135,-0.5792788154999999,10.4379040605,-0.05135107725217717,0.09089325678536068,-0.1892652494155171,11.526822920364078,0.21614775478900186,0.031185146999999525,-0.028733484499999906,-0.12209279250000193
30442.0,-4.840562439999999,-0.6295869299999999,10.3912244065,-0.04522148091917308,0.08183325263825812,-0.22523648529912021,11.480634525330332,0.24387115016701116,0.015592573500000206,-0.050308114499999945,-0.04667965400000007
30452.0,-4.8274215289999995,-0.6511615599999999,10.375631832999998,-0.02736850800052308,0.06717772290926174,-0.2662726666720109,11.462187658987146,0.27597647490696026,0.01314091099999981,-0.02157463000000004,-0.015592573500001095
30462.0,-4.7771134145,-0.709805327,10.303847155,-0.019641935401944186,0.05039114616358028,-0.3059754164963779,11.379538759142877,0.31071856838326445,0.050308114499999945,-0.05864376700000007,-0.07178467799999844
30472.0,-4.6215799455,-0.7493261265,10.169692183,-0.03509682592835397,0.04612730680095813,-0.33981560536329597,11.195674608234851,0.3447233111806891,0.15553346899999987,-0.03952079949999998,-0.13415497199999926
30482.0,-4.467125208,-0.7493261265,9.9507096885,-0.06760532857600035,0.07570540163450604,-0.3680602686483202,10.933129495831114,0.38179857208478984,0.15445473750000005,0.0,-0.2189824945000005
