timestamp,ax,ay,az,gx,gy,gz,acc_mag,gyro_mag,dax,day,daz
122892.0,0.5246557749999999,1.5503332985,9.760754877999998,-0.010822786691616838,0.032417745526542675,0.06062401156802304,9.897026462886695,0.06959392010366787,0.0,0.0,0.0
122902.0,0.44688904049999995,1.6687976304999999,9.796647216999999,-0.01774999849278233,0.032950070948400946,0.06222447849210184,9.947808403886517,0.072613052171166,-0.07776673449999999,0.11846433199999984,0.035892339000000106
122912.0,0.6443949715,1.500025184,9.8169469825,0.012093386387068708,0.02522349834982205,0.04730191338755032,9.951772128075712,0.05495403418707062,0.19750593100000008,-0.16877244649999978,0.020299765500000788
122922.0,0.5965385195,1.6269232349999998,9.775072586999999,0.040338049672092945,0.047338565301842196,0.03424510525338074,9.92747608906458,0.07099876935553279,-0.047856451999999994,0.12689805099999973,-0.041874395500000716
122932.0,0.6204667455,1.719105745,9.8157701845,0.05019741461660891,0.05266880083743288,0.025452136481833306,9.984470334458535,0.0770817375734018,0.023928225999999997,0.09218251000000022,0.04069759750000124
122942.0,0.6073258345,1.7454856335,9.886378064499999,0.05152910083588058,0.066790259815319,0.023853414887006503,10.05763570627972,0.08766511530206202,-0.013140911000000033,0.02637988849999995,0.07060787999999896
122952.0,0.5653533725,1.7981473439999998,10.0109225195,0.04060508504764807,0.07238578539721283,0.021455332494766294,10.186831106775237,0.08572517805031994,-0.041972462000000044,0.05266171049999979,0.12454445500000055
122962.0,0.5294610335,1.835216481,10.0564253755,0.022218041377887812,0.07505090316500816,0.01825788930511268,10.236212182791505,0.08037182311252318,-0.035892338999999995,0.03706913700000025,0.04550285600000059
122972.0,0.432473265,1.8818961349999999,10.050443319000001,0.000635299847725936,0.07291985614832308,0.01559277153731734,10.234255082628117,0.07457106376339033,-0.09698776849999996,0.04667965399999985,-0.0059820564999988335
122982.0,0.33793715899999993,1.8172703115,10.100653366999998,-0.01402022988127045,0.06545857359604733,0.00813148898504158,10.268391857967863,0.06743524906357702,-0.09453610600000006,-0.0646258234999999,0.05021004799999673
122992.0,0.24820631149999997,1.7490160275,10.091140916499999,-0.025478316420613222,0.05320112625929115,-0.004925319149127998,10.244598012327314,0.059192594229402505,-0.08973084749999996,-0.068254284,-0.009512450499999048
123002.0,0.14876688049999998,1.6891954624999999,10.0672126905,-0.03320488901919212,0.03374943174581435,-0.0243770136626048,10.209029545016927,0.05325248907843715,-0.099439431,-0.0598205650000001,-0.023928225999998887
123012.0,0.1176798,1.63771055,10.070743084499998,-0.03400424981660552,0.010300933245270531,-0.044895104349050134,10.20371553184985,0.05725354684057344,-0.031087080499999975,-0.05148491249999987,0.003530393999998438
123022.0,0.09610516999999999,1.617312718,10.061230634,-0.03160616742436531,-0.005686282702997526,-0.06461208890883008,10.190843856229243,0.07215265527614338,-0.02157463000000001,-0.020397832000000005,-0.009512450499999048
123032.0,0.0638412915,1.570633064,10.013276115499998,-0.0276093634372983,-0.015812683023068628,-0.08326442262489347,10.135909554523124,0.08913631116922968,-0.032263878499999996,-0.04667965400000007,-0.04795451850000099
123042.0,0.023143694,1.522776612,9.984542631,-0.021746802479849347,-0.01927716158827737,-0.10511419953061049,10.100023553976623,0.10905744963072964,-0.040697597499999995,-0.047856451999999994,-0.02873348449999824
123052.0,-0.0248108245,1.4653096429999999,9.972578518,-0.01668534764906579,-0.02034181243199391,-0.13149485117450477,10.079686018153355,0.1341010292450948,-0.0479545185,-0.057466969000000034,-0.011964112999999443
123062.0,-0.065508422,1.4581507884999998,9.996506744,-0.012421508286443643,-0.021408208604962446,-0.16213759685176923,10.102506726461188,0.16401586989267417,-0.0406975975,-0.007158854500000089,0.023928225999998887
123072.0,-0.08580818750000001,1.4689381035,10.014550980000001,-0.009756390518648303,-0.018743090837167107,-0.19331441328014393,10.122073578470728,0.19446581445572625,-0.02029976550000001,0.010787315000000186,0.01804423600000149
123082.0,-0.11934693049999999,1.4701149014999997,10.031222284999998,-0.013753194505715317,-0.012882275208970145,-0.22902035911744392,10.139077968164202,0.22979431730126545,-0.03353874299999998,0.0011767979999997014,0.01667130499999736
123092.0,-0.12170052649999999,1.5024768465,10.0815303995,-0.029475120407680237,-0.0003577924966588376,-0.2644592695791888,10.193601075599418,0.26609700487768734,-0.0023535959999999995,0.032361945000000336,0.05030811450000172
123102.0,-0.168478247,1.4737433619999998,10.1474310875,-0.046795767904471965,-0.0027558748888990466,-0.2961684114294218,10.255274842358574,0.2998552428569488,-0.04677772050000001,-0.02873348450000024,0.06590068799999926
123112.0,-0.19476006899999998,1.450991934,10.1366437725,-0.058252109114562745,-0.02993588733020674,-0.3305426710474501,10.241818981390608,0.33696872696101127,-0.026281821999999982,-0.02275142799999985,-0.010787314999999964
123122.0,-0.21986509299999998,1.47492016,10.1150691425,-0.06384938002570856,-0.06564183316750674,-0.3651822207117816,10.2243999283601,0.3764885760753525,-0.025105024000000004,0.023928225999999997,-0.021574629999999928
123132.0,-0.1983885295,1.5299354665,10.065937825999999,-0.056653387519735934,-0.1034788260214918,-0.40008880575166816,10.1834750874733,0.4171193189484798,0.02147656349999999,0.05501530650000008,-0.049131316500000466
123142.0,-0.12415218899999998,1.547881636,9.984542631,-0.04519530098039316,-0.13039180308724438,-0.43206498297745627,10.104575343642896,0.453568944107024,0.07423634050000001,0.017946169500000053,-0.08139519499999892
123152.0,-0.04511059,1.6185875825,9.856467782,-0.03746872838181426,-0.13492093249616965,-0.45338068913206303,9.98858437743594,0.4745119734106301,0.07904159899999999,0.07070594649999995,-0.12807484900000077
123162.0,-0.0008825985,1.6544799215,9.818221846999998,-0.03826808917922767,-0.11920075192345672,-0.46697156801734285,9.956645259651205,0.4834622128410065,0.0442279915,0.035892338999999884,-0.03824593500000084
123172.0,-0.022359162,1.5825971769999998,9.8169469825,-0.03507064598957405,-0.09894969661256653,-0.4808277369489258,9.943719717187808,0.49215475745873916,-0.021476563499999997,-0.0718827445000001,-0.0012748644999991399
123182.0,-0.06187996149999999,1.4712916994999998,9.890006524999999,-0.028675759610266836,-0.09601754346921605,-0.504808560871328,9.999037826670893,0.5146584799379778,-0.039520799499999995,-0.11130547749999997,0.07305954249999935
123192.0,-0.091790244,1.3802859874999998,9.997781608499999,-0.018816394665750868,-0.11626859878010624,-0.5453106714931083,10.093029869540825,0.5578854472154399,-0.029910282500000003,-0.09100571200000007,0.10777508349999998
123202.0,-0.022359162,1.3312527375,10.0599557695,-0.011088076737919976,-0.14531262286254387,-0.5964715078568181,10.147681699162765,0.6140170710118117,0.06943108199999999,-0.049033249999999695,0.062174161000001504
123212.0,0.08659271949999998,1.4030374155,10.083982062,-0.010822786691616838,-0.17142623913088303,-0.6463006580012561,10.181488423364293,0.6687365914223534,0.10895188149999999,0.07178467799999999,0.024026292500000324
123222.0,0.2146675685,1.5156177574999998,10.095946175,-0.01721767307092406,-0.18608176885987943,-0.6881344548423083,10.211332357744123,0.7130581329100171,0.128074849,0.11258034199999978,0.011964112999999443
123232.0,0.33911395699999997,1.6161359199999998,10.0791768035,-0.02281319865281788,-0.1842160118894975,-0.7182448750977145,10.213554651734082,0.7418434347444047,0.12444638849999998,0.10051816250000001,-0.016769371500000574
123242.0,0.46483520999999994,1.6975311149999999,10.055248577499999,-0.031340877378062175,-0.17009455291161135,-0.7363648833919196,10.208119690430978,0.7564044216011849,0.12572125299999998,0.08139519500000003,-0.023928226000000663
123252.0,0.534266292,1.754998084,10.022886632499999,-0.03720169300625913,-0.1461119836599573,-0.7446255267416088,10.189392287745047,0.7597366996577155,0.06943108200000003,0.057466969000000034,-0.03236194499999989
123262.0,0.5857512045,1.7406803749999997,10.0240634305,-0.045729371731503425,-0.12559563830276396,-0.7507533777453609,10.190923427254802,0.7625588987059985,0.05148491249999998,-0.014317709000000178,0.0011767980000012557
123272.0,0.60605097,1.7011595755,10.0444612625,-0.05452234050305086,-0.11546923798269285,-0.7592793111413532,10.20551045922821,0.7699421425415822,0.02029976550000001,-0.03952079949999976,0.02039783200000045
123282.0,0.6228203415,1.6999827775,10.046814858499998,-0.06598042704239364,-0.11094010857376756,-0.7656759428499124,10.208640233770565,0.7764797318038368,0.01676937150000002,-0.0011767979999999234,0.0023535959999971823
123292.0,0.658810747,1.6975311149999999,9.965419663499999,-0.07956956059842149,-0.08935562171435368,-0.7773993194355583,10.13041127281752,0.7865528869469959,0.03599040549999999,-0.0024516625000001735,-0.08139519499999892
123302.0,0.6839157709999999,1.638887348,9.9546323485,-0.09076061176220912,-0.05471607205002223,-0.796585723902732,10.1117949798767,0.803604475294702,0.02510502399999992,-0.05864376699999996,-0.010787314999998188
123312.0,0.6898978275,1.661638776,9.960614405,-0.094492125702973,-0.027537804937966533,-0.8157703830406536,10.121800322046937,0.8216863211511816,0.005982056500000055,0.022751428000000073,0.0059820564999988335
123322.0,0.6910746255,1.7107700924999998,9.9762069785,-0.10248573367710703,0.005504768460790115,-0.8290942265503783,10.145394232126938,0.8354225664789717,0.0011767980000000344,0.0491313164999998,0.015592573500001095
123332.0,0.706667199,1.6940007209999999,9.9546323485,-0.11554254181127661,0.03961199270326331,-0.8389518461656422,10.122436572618948,0.8477967852727878,0.015592573499999984,-0.016769371499999908,-0.021574629999999928
123342.0,0.709020795,1.685567002,9.9785605745,-0.13286144397881636,0.07664962475983497,-0.8445473717475361,10.144728569308272,0.8583633213259003,0.002353596000000069,-0.008433718999999895,0.023928225999998887
123352.0,0.706667199,1.6448694044999999,9.996506744,-0.1387240049362653,0.09823411161924885,-0.8464131287179181,10.155546315725223,0.8633130803464262,-0.002353596000000069,-0.04069759750000013,0.017946169500000053
123362.0,0.718631312,1.5156177574999998,10.018081374,-0.1349942363247534,0.10009812326037879,-0.8456137679205047,10.157533291381421,0.8621517978974854,0.011964112999999998,-0.12925164700000003,0.021574629999999928
123372.0,0.728241829,1.4497170695,10.06358423,-0.12246975361244211,0.08091346412245712,-0.8512092935023985,10.193514766625377,0.863772591930909,0.00961051700000004,-0.06590068799999993,0.04550285600000059
123382.0,0.6898978275,1.4377529564999998,10.082707197499998,-0.1030180590989653,0.06146176960898032,-0.8645331370121232,10.208039821965428,0.8728160256411472,-0.03834400150000006,-0.01196411300000011,0.019122967499997756
123392.0,0.6898978275,1.4473634734999998,10.0934945125,-0.08569915693142556,0.040943678922534976,-0.8882486708882221,10.220051443641504,0.8933120572773894,0.0,0.00961051700000004,0.01078731500000174
123402.0,0.7508951905,1.4353993605,10.0599557695,-0.08090124681769316,0.03561518871619629,-0.9122294948106242,10.189549793564787,0.9165021028925107,0.06099736300000003,-0.011964112999999887,-0.03353874299999937
123412.0,0.9018195339999999,1.462956047,10.0109225195,-0.0920940433107328,0.05533217327597623,-0.9348786325137546,10.157366221555176,0.9410318909280118,0.15092434349999995,0.027556686500000094,-0.049033250000000805
123422.0,0.9784094704999999,1.5131660949999999,9.994153148,-0.10941294547827253,0.09210451528624475,-0.9511328838375778,10.15529683803974,0.961825450428264,0.07658993650000001,0.05021004799999984,-0.016769371499998798
123432.0,1.0968738025,1.5144409595000001,9.986994293499999,-0.11687422803054828,0.13154197506430865,-0.9540650369809283,10.16054715932285,0.9701561581369135,0.11846433200000006,0.00127486450000025,-0.0071588545000018655
123442.0,1.1998436275,1.4724684975,10.049266521,-0.11207806324606787,0.15818791675450605,-0.9468690444749558,10.227196381055451,0.9665122330591766,0.10296982499999996,-0.041972462000000155,0.062272227500001165
123452.0,1.239364427,1.510812499,10.087512455999999,-0.09635613734410295,0.1661815247286401,-0.9319482246996562,10.275041904537558,0.9515399612658694,0.03952079949999998,0.03834400150000006,0.038245934999999065
123462.0,1.160322828,1.4246120455,10.214410506999998,-0.07477339581394107,0.15552279898671073,-0.9311488639022428,10.378345270363363,0.9470040171364885,-0.07904159899999996,-0.08620045350000005,0.1268980509999995
123472.0,1.1160948364999999,1.3528273674999998,10.337680097499998,-0.06544810162053535,0.14513110862033649,-0.9458043936312392,10.485391712690875,0.9591102354303471,-0.04422799150000012,-0.07178467800000021,0.12326959049999964
123482.0,1.1448283209999999,1.3204654224999999,10.397598728999998,-0.08143531756880341,0.14699512026146644,-0.9785781863251886,10.543449157931391,0.9929020813150259,0.028733484500000017,-0.03236194499999989,0.05991863150000043
123492.0,1.1902331105,1.3443936484999999,10.423880551,-0.11500847106016635,0.1605859991467463,-1.0121530851458036,10.577397358564804,1.0312461778390862,0.04540478950000004,0.023928225999999997,0.026281822000001398
123502.0,1.2991849919999998,1.3767555934999998,10.4024039875,-0.15098145227302148,0.1763061797194592,-1.0403977484308278,10.573237268066364,1.0659768960337166,0.1089518814999999,0.03236194499999989,-0.021476563500000267
123512.0,1.3853854455,1.381560852,10.392793470500001,-0.17442995077356527,0.18909769780732563,-1.0547862427842691,10.575356227610003,1.0857061135546093,0.08620045350000027,0.004805258500000242,-0.009610516999998708
123522.0,1.4895320685,1.3898965044999998,10.3820061555,-0.18428931571808124,0.18563321924211687,-1.0601164783198598,10.580008028784812,1.0919107983619047,0.10414662299999988,0.00833565249999979,-0.01078731500000174
123532.0,1.573378926,1.462956047,10.374847301,-0.18375699029622297,0.17390809732721899,-1.0579854313031747,10.594961923447473,1.0878160830988224,0.08384685749999998,0.07305954250000024,-0.007158854499998313
123542.0,1.6667382339999999,1.5312103309999998,10.325715984499999,-0.18562100193735295,0.16191768536601794,-1.0457279839664184,10.570857676224637,1.07434608466964,0.09335930799999992,0.06825428399999978,-0.04913131650000224
123552.0,1.7792205095,1.638887348,10.275505936499998,-0.191750598270357,0.16591448935308495,-1.0196143676980793,10.556400883440654,1.0506709135265375,0.11248227550000012,0.1076770170000001,-0.050210048000000285
123562.0,1.781672172,1.672426091,10.239613597499998,-0.20747252417232193,0.18989705860473904,-0.9879052258478463,10.527157801821135,1.0271623417993139,0.0024516624999999515,0.03353874300000004,-0.035892339000000106
123572.0,1.7517618895,1.638887348,10.196464337499998,-0.23145334809472404,0.21654300029493648,-0.9628580057524758,10.474851141799025,1.013684893131305,-0.02991028249999994,-0.03353874300000004,-0.043149259999999856
123582.0,1.703807371,1.6365337519999998,10.1521382795,-0.25357016037599617,0.2426566165632756,-0.9511328838375778,10.4233926302811,1.0138213957656605,-0.0479545185000001,-0.002353596000000069,-0.04432605799999756
123592.0,1.6056428044999997,1.6029950089999998,10.089964118500001,-0.2663599331346106,0.2455870243773741,-0.9490018368208928,10.34190783787687,1.0158076032455337,-0.09816456650000016,-0.03353874300000004,-0.06217416099999973
123602.0,1.6403583455,1.4760969579999998,10.055248577499999,-0.2610314429282719,0.23412893783803132,-0.9580618409679953,10.29454523941607,1.02021383290434,0.03471554100000018,-0.12689805099999996,-0.0347155410000024
123612.0,1.654774121,1.5167945555,9.972578518,-0.2389146306469998,0.22506893369092876,-0.969252892131783,10.22209691857795,1.0233217453742445,0.014415775500000061,0.04069759750000013,-0.08267005949999806
123622.0,1.725382001,1.5719079284999997,9.969048123999999,-0.21066996736197555,0.21281148635417257,-0.9703192883047514,10.238640441175958,1.0154753001076922,0.07060788000000007,0.055113372999999743,-0.0035303940000019907
123632.0,1.809130792,1.6460462025,9.946296696,-0.18775379428329,0.21387788252714113,-0.9647220173936057,10.242618819822775,1.005824938419233,0.08374879099999988,0.07413827400000028,-0.022751427999999407
123642.0,1.8678726255,1.695177519,9.960614405,-0.1784267547606323,0.22666765528575558,-0.9471360798505108,10.275038408254675,0.9900914536151426,0.05874183350000006,0.04913131650000002,0.014317709000000178
123652.0,1.9468161579999999,1.6843902039999998,10.034850745499998,-0.1808248371528725,0.23519533401099987,-0.9191584519410417,10.359801783665695,0.9658502609859154,0.07894353249999986,-0.010787315000000186,0.07423634049999883
123662.0,1.9612319335,1.7154772845,10.0252402285,-0.18802082965884515,0.24318894198513388,-0.8882486708882221,10.358317172675799,0.9399353143829327,0.014415775500000061,0.031087080500000086,-0.009610516999998708
123672.0,1.9420108995,1.695177519,9.996506744,-0.19281699444332553,0.2455870243773741,-0.8498776072831269,10.323525572087147,0.9054188683973751,-0.01922103399999986,-0.0202997654999999,-0.028733484500000017
123682.0,1.9432857639999999,1.5922076939999998,9.995329945999998,-0.19041891205108533,0.24531998900181898,-0.8117735790535866,10.306216843769695,0.869147629991615,0.001274864499999806,-0.10296982500000018,-0.0011767980000012557
123692.0,1.8821903344999997,1.5191481514999998,10.0205330365,-0.18375699029622297,0.24318894198513388,-0.7816631587981805,10.308323525049017,0.8389903377327563,-0.06109542950000013,-0.07305954250000002,0.02520309050000158
123702.0,1.8378642764999997,1.427063708,10.034850745499998,-0.17976018630915597,0.23972446341992518,-0.7654089074743573,10.301091466926573,0.8219685751809267,-0.044326058,-0.09208444349999989,0.014317708999998402
123712.0,1.8355106804999999,1.381560852,10.061230634,-0.18002547635545912,0.23572765943285814,-0.7638101858795304,10.320182736587011,0.8193794613071689,-0.002353595999999847,-0.045502855999999925,0.02637988850000106
123722.0,1.797166679,1.3839144479999999,10.0599557695,-0.18348995492066783,0.22826637688058238,-0.7667405936936289,10.312503932401063,0.820771125459854,-0.038344001499999836,0.002353595999999847,-0.0012748644999991399
123732.0,1.7996183415,1.4246120455,10.016904575999998,-0.1869544334858766,0.22320492204979883,-0.7614121034872903,10.276503439396915,0.8151814453017328,0.0024516624999999515,0.04069759750000013,-0.04305119350000197
123742.0,1.769708059,1.5335639269999999,10.0001352045,-0.1909512374729436,0.22720172603686584,-0.7456901775853253,10.270656699576978,0.8025813605820992,-0.02991028249999994,0.1089518814999999,-0.016769371499998798
123752.0,1.7026305729999998,1.5574921529999999,9.961791202999999,-0.1861550726884632,0.22880044763169263,-0.721175282911813,10.225557033577147,0.779164388692812,-0.0670774860000003,0.023928225999999997,-0.0383440015000005
123762.0,1.6331994909999998,1.5503332985,9.912757953,-0.17283122917873847,0.2253359690664839,-0.6923982942049305,10.165315742691188,0.748373122548146,-0.06943108199999992,-0.007158854499999867,-0.04903324999999903
123772.0,1.542193779,1.5611206135,9.947473493999999,-0.15471296621378536,0.2168082903412396,-0.6630872347469376,10.186642633160027,0.7145814282219344,-0.09100571199999985,0.010787314999999964,0.03471554099999885
123782.0,1.5518042959999998,1.5407227815,9.9546323485,-0.13685999329513535,0.19948938817369988,-0.6353748968837717,10.191988444671619,0.6798734686312778,0.009610516999999819,-0.020397832000000005,0.0071588545000018655
123792.0,1.5649452069999998,1.5371923875,9.927075662,-0.12300382436355237,0.17950362290911281,-0.6145915161510233,10.16655522466548,0.6519771646080637,0.013140911000000033,-0.0035303939999999923,-0.027556686500000538
123802.0,1.6128997255,1.5538636925,9.910404356999999,-0.11021230627568593,0.16378344233639988,-0.5868791782878573,10.16031753532498,0.6191921659275067,0.0479545185000001,0.016671305000000025,-0.016671305000000913
123812.0,1.5458222394999999,1.5012019819999998,9.8732371535,-0.10115404745783536,0.15738855595709264,-0.5663610876014119,10.10564127980735,0.5964630587156384,-0.06707748600000007,-0.052661710500000236,-0.037167203499999246
123822.0,1.4500112689999998,1.4150015285,9.85764458,-0.09635613734410295,0.15658919515967926,-0.556501722656896,10.06369309306915,0.5860877481783121,-0.09581097050000009,-0.08620045349999983,-0.015592573499999318
123832.0,1.320759622,1.3863661104999998,9.8265574995,-0.09262636873259107,0.1552557636111556,-0.5530389894209392,10.011375992461184,0.5818385687961933,-0.1292516469999998,-0.028635418000000135,-0.031087080500000752
123842.0,1.2848672829999999,1.292908736,9.818221846999998,-0.08783020394811066,0.15099366957778546,-0.5578351542054196,9.985989043227365,0.5845453722727745,-0.035892339000000106,-0.0934573744999998,-0.008335652500001345
123852.0,1.2561337985,1.242698688,9.799000813,-0.07903723517656322,0.14619575946405303,-0.5639630052091718,9.957037163838729,0.5879407758220099,-0.028733484499999795,-0.05021004800000006,-0.019221033999999193
123862.0,1.3028134525,1.24740588,9.766736934499999,-0.06598042704239364,0.1328736612835803,-0.568226844571794,9.931892803952326,0.5872738488197972,0.04667965399999985,0.004707192000000138,-0.03226387850000023
123872.0,1.3375289935,1.334881198,9.7906651605,-0.05452234050305086,0.1150206883649303,-0.5610325973950732,9.97135978220902,0.5752912477221735,0.03471554100000018,0.08747531799999986,0.023928226000000663
123882.0,1.3471395105,1.3995070215,9.810964925999999,-0.040399136195912747,0.09876643704110712,-0.5453106714931083,10.001421776086644,0.5556533341350842,0.009610516999999819,0.06462582350000012,0.020299765499999012
123892.0,1.3591036234999998,1.4317708999999998,9.8169469825,-0.03373895977030238,0.08597666428249266,-0.5287893847937299,10.013469859479954,0.5367946699419229,0.011964112999999887,0.03226387849999979,0.00598205650000061
123902.0,1.375872995,1.4126479325,9.8122397905,-0.04146553236888128,0.08144578954431539,-0.5144008904402887,10.008428966917748,0.5224567762934016,0.01676937150000013,-0.019122967499999755,-0.004707191999999694
123912.0,1.4428524145000001,1.3779323915,9.7798778455,-0.05079257189153898,0.07798305630835864,-0.5037421646983594,9.981309104444922,0.5122669332735998,0.06697941950000019,-0.03471554100000018,-0.03236194499999989
123922.0,1.4763911574999997,1.3827376499999997,9.7212340785,-0.05079257189153898,0.07478386778945302,-0.49095239193974494,9.92945548696712,0.49920613316771706,0.03353874299999959,0.004805258499999798,-0.058643766999999514
123932.0,1.5338581264999998,1.3623398179999997,9.633856826999999,-0.04146553236888128,0.07851538173021691,-0.46617220721992947,9.849867404948801,0.4745530342619013,0.057466969000000034,-0.020397832000000005,-0.08737725150000131
123942.0,1.5218940134999999,1.3767555934999998,9.588353971,-0.02894279498582197,0.08890707209659116,-0.43286434377486965,9.805516265131182,0.44284725692051913,-0.011964112999999887,0.014415775500000061,-0.045502855999998815
123952.0,1.4907088665,1.3395883899999999,9.6302283665,-0.018816394665750868,0.10755940581265455,-0.39342688399680575,9.836564866365991,0.40829865973135965,-0.03118514699999997,-0.03716720349999991,0.041874395500000716
123962.0,1.4559933255,1.303696051,9.716428819999999,-0.018284069243892597,0.11875045697644218,-0.35985373050544284,9.911030671500322,0.37938197845827254,-0.03471554099999996,-0.035892338999999884,0.08620045349999828
123972.0,1.3614572195,1.2402470255,9.8014524755,-0.023612559450231285,0.12354662176092261,-0.3366705220512022,9.972975938719362,0.3594000015728383,-0.09453610599999984,-0.06344902549999998,0.08502365550000057
123982.0,1.3159543635,1.1995494279999999,9.855290984,-0.032405528221778716,0.1110238843778633,-0.3278775532796548,10.014859714261679,0.34767817174268295,-0.04550285600000015,-0.04069759750000013,0.05383850850000016
123992.0,1.3398825895,1.1767979999999998,9.827734297500001,-0.034803610614018925,0.08917410747214628,-0.330275635671895,9.98821807474722,0.3438681553643787,0.023928225999999997,-0.022751428000000073,-0.02755668649999876
124002.0,1.4380471559999999,1.2234776539999999,9.818221846999998,-0.02814168885915657,0.06732433056642927,-0.3321413926422769,9.998117694327522,0.3400623837539438,0.09816456649999994,0.04667965400000007,-0.0095124505000026
124012.0,1.5577863524999997,1.255839599,9.856467782,-0.007625343501963226,0.04014431812512157,-0.31934987455441044,10.057523977403967,0.3219534974482675,0.11973919649999987,0.032361945000000114,0.03824593500000084
124022.0,1.7110642919999999,1.3779323915,9.844503669,0.015823154998580592,0.005504768460790115,-0.28844009350159083,10.086659069080149,0.2889262228478448,0.15327793950000013,0.12209279249999994,-0.011964112999999443
124032.0,1.7828489699999999,1.5167945555,9.8253807015,0.02967932393016357,0.0033719761148530447,-0.2412778064542001,10.100362473833954,0.24311974905223385,0.07178467799999999,0.13886216400000007,-0.019122967499999532
124042.0,1.7134178879999997,1.6185875825,9.9067758965,0.03554188488761253,0.029752627758747336,-0.18265568753821457,10.183311606968282,0.18844507059080307,-0.06943108200000014,0.10179302700000004,0.08139519499999892
124052.0,1.4943373269999998,1.5922076939999998,10.007294059,0.024350833723824884,0.05027071844519267,-0.13735741213195374,10.242758601616803,0.1482807030723438,-0.21908056099999995,-0.02637988850000017,0.10051816250000023
124062.0,1.309972307,1.3264474789999998,10.075548343,-0.0070912727508529606,0.04467519286329885,-0.11923740383774861,10.24656843883758,0.1275292808752809,-0.18436501999999977,-0.265760215,0.068254284
124072.0,1.2370108309999999,1.187585315,10.087512455999999,-0.045729371731503425,0.014830062654195819,-0.12962909420412286,10.232226650459326,0.13825631364052332,-0.07296147600000014,-0.13886216399999984,0.011964112999999443
124082.0,1.204648886,1.161303493,10.003763665,-0.07317467421911425,-0.019542451634580505,-0.15067951031242646,10.142735932999994,0.16864387089650207,-0.03236194499999989,-0.026281822000000066,-0.08374879099999966
124092.0,1.2082773464999998,1.1576750325,9.818221846999998,-0.0774385135817364,-0.04858822104627014,-0.1650680046658677,9.959800493174901,0.18869283180492286,0.003628460499999875,-0.003628460499999875,-0.1855418180000008
124102.0,1.2848672829999999,1.184054921,9.6302283665,-0.06917787023204724,-0.05231798965778202,-0.16853248323107645,9.787449534061945,0.1895414141439987,0.07658993650000001,0.02637988849999995,-0.18799348049999764
124112.0,1.27290317,1.185231719,9.4997999215,-0.050258501140428714,-0.028070130359824804,-0.15814079286470223,9.65770445066793,0.16829248207563133,-0.011964112999999887,0.0011767979999999234,-0.1304284450000015
124122.0,1.2777084284999998,1.210336743,9.487737742,-0.021746802479849347,0.006836454680061789,-0.13975549452419395,9.64959176963912,0.14160246742338964,0.004805258499999798,0.025105024000000142,-0.012062179499999104
124132.0,1.2872208789999997,1.2139652035,9.557168824,0.0035657076618244156,0.040943678922534976,-0.11897036846219347,9.719574323862123,0.12586916892897684,0.009512450499999936,0.003628460499999875,0.06943108199999948
124142.0,1.2848672829999999,1.2055314844999998,9.6745544245,0.021685715956029545,0.06465921279863393,-0.0973876269320316,9.833676494966523,0.11889253111830526,-0.002353595999999847,-0.008433719000000117,0.11738560050000046
124152.0,1.2824156205,1.188762113,9.7547728215,0.026481880740509965,0.0737192169457365,-0.0795346540133816,9.91026427417966,0.11163142095160965,-0.0024516624999999515,-0.016769371499999908,0.08021839699999944
124162.0,1.2800620245,1.1827800565,9.810964925999999,0.022485076753442947,0.06146176960898032,-0.06674488125476714,9.964565230245789,0.09347730726646207,-0.002353595999999847,-0.005982056499999944,0.05619210449999912
124172.0,1.2836904849999997,1.2367166315,9.793018756499999,0.01795594734451766,0.04520751828515712,-0.05848423790507799,9.953921119492007,0.07606932258065446,0.003628460499999653,0.05393657500000004,-0.017946169500000053
124182.0,1.318406026,1.2726089704999999,9.809788128000001,0.0182212373908208,0.030019663134302467,-0.05128999072835736,9.979462468361708,0.06215992934089154,0.03471554100000018,0.035892338999999884,0.01676937150000235
124192.0,1.3842086475,1.3455704465,9.771542192999998,0.016889551171549128,0.030284953180605607,-0.0430293473786682,9.960403116133765,0.05526264618855986,0.06580262150000005,0.07296147600000014,-0.03824593500000262
124202.0,1.403331615,1.4138247304999998,9.828911095499999,0.009962339370383632,0.044408157487743724,-0.035568064826392444,10.028745350913788,0.05776175112201326,0.019122967499999977,0.06825428399999978,0.057368902500000374
124212.0,1.357828759,1.4377529564999998,9.941491437499998,0.006230825429619756,0.04947135764777927,-0.025441664506321342,10.136275672286038,0.05597782334015048,-0.045502855999999925,0.023928225999999997,0.11258034199999933
124222.0,1.3531215669999999,1.4330457645,9.9642428655,0.003300417615521277,0.032417745526542675,-0.017182766485884175,10.157297574694736,0.03683816561080295,-0.004707192000000138,-0.004707191999999694,0.022751428000001184
124232.0,1.4021548169999998,1.4521687319999999,9.9522787525,-0.005492551156026155,0.0004415683007545654,-0.008122762338781609,10.154933999022235,0.009815414855120714,0.04903324999999992,0.019122967499999755,-0.011964112999999443
124242.0,1.4512861335,1.47492016,9.872060355499999,-0.015351916100542123,-0.022207569402375848,0.009730210579868387,10.086584981166746,0.028697290196950775,0.049131316500000244,0.022751428000000073,-0.08021839700000122
124252.0,1.495514125,1.4857074749999999,9.788213498,-0.021481512433546207,-0.029668851954651607,0.035044466050794136,10.012642642268561,0.05069330087422694,0.0442279914999999,0.010787314999999964,-0.08384685749999932
