timestamp,ax,ay,az,gx,gy,gz,acc_mag,gyro_mag,dax,day,daz
125442.0,0.19073934249999996,1.7083184299999998,9.8385216125,0.07924143869904654,0.07505090316500816,0.012927653769521999,9.98755429896051,0.1099043579889479,0.0,0.0,0.0
125452.0,-0.04158019599999999,1.635356954,9.907952694499999,0.10029185480735016,0.08917410747214628,0.0009372418083209549,10.042093799409828,0.1342063933140287,-0.23231953849999995,-0.07296147599999991,0.06943108199999948
125462.0,0.027850886,1.8101114569999999,10.0456380605,0.11041825512742126,0.058264326419326704,-0.012119566325848624,10.20745429581636,0.12543447168306163,0.06943108199999999,0.17475450299999995,0.13768536600000125
125472.0,-0.07864933299999999,1.9370095079999998,10.2192157655,0.12400738868344911,0.03827856115473963,-0.01904677812701412,10.40146924302079,0.1311711113362423,-0.10650021899999998,0.12689805099999996,0.17357770499999958
125482.0,-0.11571846999999999,1.996830073,10.341308557999998,0.12507378485641765,-0.002488839513343914,-0.020645499721840925,10.532966524037771,0.12679070407248777,-0.037069137,0.0598205650000001,0.12209279249999838
125492.0,-0.160044528,1.9752554429999998,10.464578148500001,0.1037563333725589,-0.023273965575344384,-0.020912535097396056,10.650570132256188,0.10837152906884594,-0.044326058,-0.02157463000000015,0.12326959050000319
125502.0,-0.25820909449999996,1.917788474,10.501745352,0.0717801561467708,-0.05231798965778202,-0.02730742147670328,10.678541099126948,0.09292608958733226,-0.09816456649999997,-0.05746696899999981,0.037167203499999246
125512.0,-0.32999377249999995,1.8376681435,10.489781239,0.03660828106058107,-0.07123735874940056,-0.04622679056832182,10.65464361382397,0.09247617904113892,-0.07178467799999999,-0.0801203305,-0.01196411300000122
125522.0,-0.4174690904999999,1.72989306,10.384457818,0.0038327430373795474,-0.08455945692987327,-0.07447145385334604,10.535832886600868,0.11274302246479258,-0.08747531799999997,-0.10777508349999998,-0.10532342099999958
125532.0,-0.46414874449999993,1.658108382,10.2288262825,-0.02441192024764469,-0.08642521390025522,-0.11310780750474451,10.372735636322867,0.14442519020729233,-0.046679654000000015,-0.07178467799999999,-0.15563153549999953
125542.0,-0.46885593649999996,1.5599438154999998,10.1138923445,-0.04093320694702301,-0.07496712736091243,-0.15361166345577693,10.244221246773407,0.17576160207896932,-0.004707192000000027,-0.09816456650000016,-0.11493393800000007
125552.0,-0.48091811599999995,1.4641328449999997,10.070743084499998,-0.04226489316629469,-0.04965287188998668,-0.19437906412386047,10.187974945793169,0.20502426551740063,-0.012062179499999992,-0.09581097050000009,-0.04314926000000163
125562.0,-0.52759777,1.450991934,10.028868688999998,-0.03160616742436531,-0.02273989482423412,-0.2356805355430543,10.147016516230106,0.2388752131756979,-0.046679654000000015,-0.01314091099999981,-0.041874395500000716
125572.0,-0.608992965,1.4940431275000001,10.061230634,-0.020682151636132805,-0.010484192816729937,-0.27644968154038985,10.189769338350574,0.27742043205052747,-0.08139519500000003,0.043051193500000196,0.03236194500000167
125582.0,-0.643708506,1.5371923875,10.122227997,-0.016151276897955525,-0.009417796643761401,-0.31668650211586713,10.258499924459489,0.31723792216795393,-0.03471554099999996,0.043149259999999856,0.06099736300000025
125592.0,-0.679600845,1.6305516955,10.2215693615,-0.011622147489030241,-0.02034181243199391,-0.35345709879688364,10.373091937902515,0.35423266977395684,-0.035892338999999995,0.09335930799999992,0.09934136450000075
125602.0,-0.6879364975,1.7023363734999999,10.283841588999998,-0.01668534764906579,-0.04032757769658098,-0.38809839379046707,10.446463687812239,0.39054459106712053,-0.008335652500000013,0.07178467799999999,0.06227222749999761
125612.0,-0.7011754749999999,1.7154772845,10.285018387,-0.03959977539849934,-0.06137799380488459,-0.41927346488958983,10.450651299383452,0.4255885791414593,-0.013238977499999915,0.013140911000000033,0.0011767980000012557
125622.0,-0.7214752404999999,1.6975311149999999,10.246772452,-0.07877019980100809,-0.07843160592612118,-0.449383885144996,10.411459268138822,0.4629277885511433,-0.02029976550000001,-0.017946169500000053,-0.038245934999999065
125632.0,-0.727457297,1.6161359199999998,10.121051199,-0.11794062420351682,-0.08749161007322374,-0.4834911093874692,10.27505556207129,0.5053003320080504,-0.005982056500000055,-0.08139519500000003,-0.12572125300000003
125642.0,-0.7598192419999998,1.5156177574999998,9.958260809,-0.14431953051815913,-0.084027131508015,-0.5231938592118361,10.1015533858624,0.5491998725741128,-0.03236194499999989,-0.10051816250000001,-0.16279038999999962
125652.0,-0.795711581,1.4210816515,9.840973275,-0.14405424047185597,-0.07603352353388097,-0.574354695575546,9.974837591641867,0.5970058937971874,-0.035892339000000106,-0.09453610599999984,-0.1172875340000008
125662.0,-0.7706065569999999,1.369596739,9.751144361,-0.11634190260869001,-0.06297671539971139,-0.6364412930567402,9.87696542680154,0.6500454018704245,0.02510502400000003,-0.05148491250000009,-0.08982891399999993
125672.0,-0.7418730724999999,1.4282405059999999,9.819398645,-0.07130891724873233,-0.045656067902919664,-0.7027899845713047,9.95041890314712,0.7078723053130962,0.028733484500000017,0.05864376699999996,0.068254284
125682.0,-0.6616546755,1.5131660949999999,9.913934751,-0.034271285192160654,-0.028602455781683075,-0.765141872098802,10.050550272883271,0.766442891482676,0.08021839699999989,0.08492558900000002,0.09453610599999962
125692.0,-0.5251461075,1.6197643805,9.996506744,-0.019083430041306,-0.012082914411556744,-0.8147039868676851,10.14049121913709,0.8150170307060581,0.136508568,0.10659828550000006,0.08257199300000018
125702.0,-0.40668177549999995,1.705964834,10.0444612625,-0.020947441682435942,0.0025726153174396417,-0.852275689675367,10.196416435946091,0.8525369580694042,0.11846433200000006,0.08620045350000005,0.04795451850000099
125712.0,-0.28811937699999995,1.7657853989999999,10.112715546499999,-0.02894279498582197,0.006836454680061789,-0.8762565135977691,10.269762732173865,0.8767610279413093,0.1185623985,0.05982056499999988,0.06825428399999822
125722.0,-0.170831843,1.7717674554999998,10.214410506999998,-0.046795767904471965,0.005504768460790115,-0.8906467532804623,10.36834246350224,0.8918922499375161,0.11728753399999994,0.005982056499999944,0.10169496049999971
125732.0,-0.089436648,1.7167521489999997,10.277859532499999,-0.08356636458548851,-0.001424188669627373,-0.905834608431317,10.420634981847444,0.9096821991417217,0.08139519500000002,-0.05501530650000008,0.06344902550000064
125742.0,-0.08227779349999999,1.6807617434999997,10.253931306499998,-0.1285993499454462,-0.017144369242340297,-0.9303495031048294,10.391094115257408,0.9393518617272827,0.007158854500000006,-0.03599040549999999,-0.023928226000000663
125752.0,-0.011571847,1.6436926065,10.176164572,-0.1557776170575019,-0.041659263915852646,-0.967387135161401,10.30806406114813,0.9807344337392804,0.07070594649999999,-0.03706913699999981,-0.07776673449999905
125762.0,0.093751574,1.5778899849999999,9.994153148,-0.16696866822128953,-0.058180550615230975,-1.0100220381291185,10.118380468635735,1.025381894780662,0.105323421,-0.06580262150000005,-0.1820114239999988
125772.0,0.20741064749999996,1.5395459834999998,9.85764458,-0.1621725034368091,-0.05764647986412071,-1.0614481645391314,9.97929745411022,1.075311695981764,0.11365907349999996,-0.03834400150000006,-0.136508568
125782.0,0.2744881335,1.5790667829999998,9.7355517875,-0.14538592669112765,-0.03073524812762014,-1.1144747578732233,9.866598413217229,1.1243378980955343,0.06707748600000005,0.03952079949999998,-0.12209279250000016
125792.0,0.3917756675,1.520423016,9.6973058525,-0.13046336158657612,0.009768607823412262,-1.167766641253618,9.823589726681298,1.1750723564274814,0.11728753399999997,-0.058643766999999736,-0.03824593500000084
125802.0,0.567805035,1.4940431275000001,9.703287909,-0.12300382436355237,0.05506688322967309,-1.2109338696431937,9.834041065073245,1.2184100865823992,0.17602936750000003,-0.02637988849999995,0.00598205650000061
125812.0,0.7030387385,1.5299354665,9.729569731,-0.12140510276872557,0.09929876246296539,-1.2295862033592573,9.874183163678788,1.2395489803539004,0.13523370349999997,0.035892338999999884,0.02628182199999962
125822.0,0.8478829589999999,1.5551385569999998,9.788213498,-0.12753295377247767,0.13100790431319836,-1.2325166111733556,9.94718477389759,1.2460035802953062,0.1448442204999999,0.025203090499999803,0.058643766999999514
125832.0,0.9460475254999999,1.5778899849999999,9.872060355499999,-0.12939871074285958,0.14459703786922623,-1.2181281168199143,10.042027603422664,1.2334862944879847,0.09816456650000005,0.022751428000000073,0.08384685749999932
125842.0,1.01793027,1.5885792335,9.984542631,-0.1323291185569581,0.14992727340481687,-1.1997428184794061,10.161242914424697,1.2162943777809603,0.07188274449999998,0.010689248500000081,0.11248227550000145
125852.0,0.983214729,1.580243581,10.030045486999999,-0.1416561580796158,0.14806151643443496,-1.1874853711426498,10.201259405088338,1.2050353465556678,-0.03471554099999996,-0.008335652500000013,0.045502855999998815
125862.0,0.9616400989999999,1.5491565004999999,10.112715546499999,-0.1488504052563364,0.14513110862033649,-1.1928138613489885,10.275779934752832,1.2107949412103716,-0.02157463000000004,-0.031087080500000086,0.08267005949999984
125872.0,0.9125087824999999,1.5264050725,10.2431439915,-0.13179679313509982,0.12008388852496586,-1.2048060186394416,10.396373577074648,1.2179277800895236,-0.04913131650000002,-0.02275142799999985,0.1304284450000015
125882.0,0.9784094704999999,1.5395459834999998,10.270700677999999,-0.10541614149120551,0.07744898555724837,-1.2162641051787846,10.43143227674631,1.2232780884970884,0.06590068800000004,0.01314091099999981,0.02755668649999876
125892.0,1.1388462645,1.5850488395,10.315026736,-0.09582381192224468,0.06146176960898032,-1.2231913169799498,10.49805349587059,1.228477411265637,0.160436794,0.04550285600000015,0.04432605800000111
125902.0,1.3267416785,1.6592851799999997,10.1952875395,-0.09848892969004001,0.07132113455349628,-1.2112009050187489,10.414286283904461,1.2172897789038253,0.18789541399999998,0.07423634049999972,-0.11973919649999942
125912.0,1.43569356,1.6305516955,10.1952875395,-0.1131444594190364,0.11928452772755246,-1.1992104930575478,10.424193150695519,1.2104281366160232,0.10895188150000013,-0.028733484499999795,0.0
125922.0,1.4943373269999998,1.6436926065,10.257559766999998,-0.14245551887702917,0.19282746641883752,-1.1866860103452364,10.495346673888639,1.2106608500373364,0.058643766999999736,0.013140911000000033,0.06227222749999761
125932.0,1.4979657874999999,1.6425158085,10.367688446499999,-0.17896082551174258,0.2634399972960241,-1.1714981551943817,10.603335484902026,1.2140162836086728,0.003628460500000097,-0.0011767979999999234,0.11012867950000071
125942.0,1.4512861335,1.5970129524999999,10.4263322135,-0.21733014378758592,0.3161995552545607,-1.1533781469001767,10.647304130060808,1.2155228092836434,-0.04667965399999985,-0.04550285600000015,0.05864376700000129
125952.0,1.3938191645,1.580243581,10.504098948,-0.24477719160444872,0.33991508913065965,-1.1315283699944598,10.713355979710274,1.2065714207831977,-0.057466969000000034,-0.016769371499999908,0.07776673449999905
125962.0,1.3087955089999999,1.5766151204999999,10.5759816925,-0.255168881970823,0.3340525281732107,-1.1128760362783963,10.772652861884252,1.189619822476016,-0.08502365550000013,-0.003628460500000097,0.07188274449999987
125972.0,1.3076187109999997,1.508458903,10.580786951,-0.2503727171863426,0.30554082951263134,-1.102749635958325,10.76746801517651,1.1713660638830024,-0.0011767980000001454,-0.0681562174999999,0.0048052585000011305
125982.0,1.296831396,1.5024768465,10.561565917,-0.23998102681996833,0.2796942486198473,-1.094223702562333,10.746435826033482,1.1546191048106766,-0.010787314999999742,-0.005982056499999944,-0.01922103400000097
125992.0,1.2824156205,1.4689381035,10.511355868999999,-0.2319856735165823,0.26157424032564214,-1.0888934670267423,10.690695542404026,1.1436465443712922,-0.014415775500000061,-0.03353874300000004,-0.050210048000000285
126002.0,1.274079968,1.4677613054999998,10.379652559499998,-0.2303869519217555,0.26157424032564214,-1.0830326513985453,10.560056357364616,1.137742921231812,-0.008335652500000013,-0.0011767980000001454,-0.13170330950000064
126012.0,1.3028134525,1.5156177574999998,10.2982573645,-0.227456544107657,0.2892865781888081,-1.0750390434244113,10.4904015568682,1.136279960513456,0.028733484500000017,0.047856451999999994,-0.08139519499999892
126022.0,1.3087955089999999,1.5599438154999998,10.282664791,-0.2133333398005189,0.3231285123849782,-1.0625145607121,10.482345424377424,1.130867074908364,0.005982056499999944,0.044326058,-0.015592573499999318
126032.0,1.3076187109999997,1.6712492929999998,10.354449469,-0.18722146886143173,0.3511061402944473,-1.0451939132153083,10.569653007492,1.118372798478855,-0.0011767980000001454,0.11130547749999997,0.07178467800000021
126042.0,1.2609390569999999,1.7466624315,10.506550610499998,-0.16643634279943126,0.37482167417054624,-1.0241434971070047,10.725129495072748,1.103205441565181,-0.04667965399999985,0.07541313850000009,0.15210114149999754
126052.0,1.2477000795,1.7646086009999997,10.640607516,-0.16483762120460446,0.3876114469291607,-1.009222677331705,10.857860162696108,1.0935924686991425,-0.013238977499999915,0.01794616949999983,0.13405690550000138
126062.0,1.2883976769999999,1.7969705459999998,10.743577340999998,-0.1808248371528725,0.3932069725110545,-1.000962033982016,10.96875224441409,1.0905202145930568,0.040697597499999905,0.032361945000000114,0.10296982499999885
126072.0,1.3865622434999998,1.8400217394999998,10.767505566999999,-0.2018752532611761,0.3868120861317473,-0.9884375512697046,11.011240211361676,1.0804563853376536,0.09816456649999994,0.04305119349999997,0.023928226000000663
126082.0,1.447657673,1.9237705305,10.826149334,-0.2210616577283498,0.36922614858865244,-0.9599258526091252,11.090631866322346,1.051976163145616,0.06109542950000013,0.0837487910000001,0.05864376700000129
126092.0,1.472762697,1.9310274514999999,10.9158801815,-0.21999526155538124,0.3039421079178045,-0.9164933341732464,11.18276965322034,0.9903225493021619,0.025105024000000142,0.007256920999999972,0.08973084750000027
126102.0,1.4800196179999998,1.9632913299999997,10.9158801815,-0.20027653166634932,0.18296810147432155,-0.8517433642535087,11.18934363816674,0.8938986373427946,0.00725692099999975,0.03226387849999979,0.0
126112.0,1.5170887549999998,1.9082760235,10.7950622535,-0.1707001821620534,0.040411353500676706,-0.7811308333763222,11.06690764077088,0.8005854161381547,0.03706913700000003,-0.05501530649999964,-0.12081792800000102
126122.0,1.552981094,1.8460037959999998,10.580786951,-0.12753295377247767,-0.11227179479303923,-0.7102512671235804,10.852305413856529,0.7302920461395118,0.035892339000000106,-0.06227222750000028,-0.21427530249999904
126132.0,1.7145946859999999,1.7813779724999999,10.292275307999999,-0.07237531342170085,-0.24310516618103817,-0.6436355402334609,10.585087313472389,0.6918128478630754,0.16161359199999992,-0.0646258234999999,-0.2885116430000014
126142.0,1.8618905689999998,1.8196239074999998,9.977383776499998,-0.012421508286443643,-0.3038583321137088,-0.5746217309511011,10.311442899965169,0.6501340735142828,0.14729588299999996,0.03824593499999995,-0.3148915315000007
126152.0,1.9456393599999997,1.9202401365,9.7463391025,0.026748916116065093,-0.28867047696285414,-0.5016111176816743,10.122448350173354,0.5793615988009599,0.08374879099999988,0.10061622900000011,-0.23104467399999784
126162.0,1.8247233655,1.9273989909999998,9.7247644725,0.038207002655407864,-0.1935430514121552,-0.43952452020048,10.08045268213227,0.4817680890836385,-0.12091599449999979,0.007158854499999867,-0.021574629999999928
126172.0,1.6978253145,1.727539464,9.822929039,0.01848827276637593,-0.08216137453763306,-0.42033986106255833,10.117160585038862,0.42869325454675394,-0.12689805099999996,-0.19985952699999987,0.0981645664999995
126182.0,1.495514125,1.546704838,9.957084011,-0.034271285192160654,0.016695819624577758,-0.4523160382883465,10.186872942963358,0.45391967337241923,-0.20231118950000004,-0.180834626,0.13415497199999926
126192.0,1.4548165275,1.314483366,10.0576021735,-0.09795485893892976,0.07904770715207518,-0.5128021688454619,10.246937060827971,0.528024392209636,-0.040697597499999905,-0.23222147199999998,0.10051816250000023
126202.0,1.3961727604999998,1.2845730834999998,10.070743084499998,-0.1432548796744426,0.10835876661006795,-0.5914083076967825,10.247892108039556,0.6180836264329985,-0.05864376700000018,-0.029910282500000163,0.013140910999998923
126212.0,1.5111066985,1.357632626,10.003763665,-0.16803506439425808,0.10729237043709942,-0.6590904307598707,10.207933055550738,0.6885837868692714,0.11493393800000007,0.07305954250000024,-0.06697941949999908
126222.0,1.6642865715,1.5215998139999998,9.8959885815,-0.17149954295946682,0.09077282906697308,-0.6961280628164422,10.149665304393956,0.7226659529635394,0.15317987300000002,0.16396718799999976,-0.10777508349999998
126232.0,1.8127592524999998,1.7239110034999998,9.7594800135,-0.15204784844599,0.06492624817418906,-0.6937299804242021,10.07498959748439,0.7131586441026954,0.14847268099999988,0.20231118950000004,-0.136508568
126242.0,1.979178103,1.7897136249999999,9.6780848185,-0.11900702037648535,0.03561518871619629,-0.6580240345869021,10.039200494909219,0.6696467297465164,0.16641885050000016,0.06580262150000005,-0.08139519499999892
126252.0,2.0653785565,1.7574497465,9.662590311499999,-0.09502445112483127,0.018826866641262832,-0.6092612806154325,10.035938905803313,0.616914422976364,0.08620045349999983,-0.03226387849999979,-0.015494507000001434
126262.0,2.141968493,1.7227342055,9.676908020499999,-0.09475741574927614,0.0023073252711365037,-0.5650294013821403,10.05974110029784,0.572924529074858,0.07658993650000001,-0.03471554100000018,0.014317709000000178
126272.0,2.186294551,1.6533031234999997,9.649351333999999,-0.10994701622938279,-0.006485643500410928,-0.5226615337899779,10.031115404025352,0.534139952496582,0.044326058000000224,-0.06943108200000014,-0.027556686500000538
126282.0,2.1922766074999998,1.5958361545,9.613458994999998,-0.12673359297506426,-0.009683086690064539,-0.4866885525771228,9.98856163841158,0.5030118417749541,0.005982056499999722,-0.05746696899999981,-0.035892339000000106
126292.0,2.1371632345,1.4820790144999998,9.5272585415,-0.1379246441388519,-0.012615239833415014,-0.4621736579036104,9.8758635173186,0.4824798874532357,-0.055113372999999743,-0.11375714000000015,-0.08620045349999828
126302.0,2.1048993559999998,1.3659682784999998,9.465084380499999,-0.14192144812591892,-0.034732052114687155,-0.45737749311913,9.792052541053,0.4801480855883891,-0.03226387850000023,-0.11611073599999999,-0.062174161000001504
126312.0,2.1132350085,1.327624277,9.3729018705,-0.13526127170030855,-0.07043799795198716,-0.46244069327916554,9.699465856223846,0.48693789950874034,0.008335652500000013,-0.038344001499999836,-0.09218250999999889
126322.0,2.2317974069999997,1.357632626,9.2363933025,-0.1147431810138632,-0.09228777485770416,-0.46483877567140575,9.598700289702686,0.48760446916025896,0.11856239849999994,0.030008349000000045,-0.136508568
126332.0,2.4651956769999996,1.5071840385,9.0736029125,-0.09182700793517766,-0.07816457055056605,-0.45338068913206303,9.52255550078534,0.4691438465476724,0.2333982699999999,0.14955141249999993,-0.16279038999999962
126342.0,2.6771173834999997,1.7561748819999998,8.941899603,-0.08170235294435854,0.0020402898955813715,-0.41367793930769603,9.497824814731905,0.4216738961915527,0.21192170650000008,0.2489908434999999,-0.13170330950000064
126352.0,2.7955817154999996,1.9273989909999998,8.849717092999999,-0.0758397919869096,0.12328133171461947,-0.34573052619830474,9.478799324001015,0.37480602655681033,0.11846433199999984,0.17122410899999996,-0.09218251000000066
126362.0,2.7608661745,2.066261155,8.9490584575,-0.050258501140428714,0.25331534230520497,-0.26072950096767694,9.590488228964805,0.36698017965407814,-0.03471554099999974,0.13886216400000007,0.09934136450000075
126372.0,2.546590872,1.9537788794999997,9.183731591999999,-0.01721767307092406,0.3622971914582349,-0.18372208371118312,9.728478962984545,0.406582718825679,-0.21427530249999993,-0.11248227550000012,0.2346731344999995
126382.0,2.3095641414999997,1.7598033425,9.506958776,0.0038327430373795474,0.42145163579607875,-0.13682334138084348,9.940485878292883,0.4431216514468685,-0.23702673050000023,-0.1939755369999998,0.3232271840000003
126392.0,2.071360613,1.5646510075,9.806257733999999,0.000635299847725936,0.4166554710115983,-0.12056909005702028,10.144030673750612,0.4337500323999656,-0.2382035284999997,-0.19515233499999995,0.2992989579999996
126402.0,1.8989597059999999,1.385091246,10.007294059,-0.012154472910888512,0.3476416617292385,-0.13122781579894965,10.279613811231146,0.3717838025263754,-0.1724009070000001,-0.17955976149999997,0.20103632500000046
126412.0,1.7660795985,1.303696051,10.0576021735,-0.029742155783235368,0.24825214214516947,-0.15387695350208005,10.294368461543565,0.2935844660900521,-0.1328801074999999,-0.08139519500000003,0.050308114499999945
126422.0,1.7217535405,1.2031778885,9.951101954499999,-0.04999321109412557,0.14033494383585604,-0.17172992642073004,10.170373758837641,0.2273420006188562,-0.044326058,-0.10051816250000001,-0.10650021900000084
126432.0,1.7182231465,1.2282829124999999,9.7428087085,-0.06065019150680295,0.059328977263043245,-0.1845214445085965,9.969116872859466,0.203092434020644,-0.0035303939999999923,0.02510502399999992,-0.20829324599999843
126442.0,1.7193999445,1.2641752515,9.509312372,-0.054255305127495726,0.01509709802975095,-0.18558609535231305,9.745845115941663,0.19394267011546326,0.0011767980000001454,0.035892339000000106,-0.2334963365
126452.0,1.8067771959999999,1.327624277,9.3154349015,-0.03320488901919212,0.008702211650443726,-0.17386271876666715,9.581459046562257,0.17721889887741424,0.08737725149999975,0.06344902549999998,-0.19387747050000037
126462.0,1.8570853105,1.418629989,9.1801031315,-0.002562143341927676,0.03934495732770817,-0.1488154986712965,9.47288606503536,0.15395013118023126,0.05030811450000017,0.09100571200000007,-0.13533177000000052
126472.0,1.8678726255,1.4772737559999998,9.2256059875,0.031012755478687242,0.09423556230292984,-0.11204315666102797,9.528016148803195,0.14965226747195604,0.010787314999999964,0.058643766999999736,0.04550285600000059
126482.0,1.8067771959999999,1.4928663295,9.3501504425,0.05659230099591614,0.16191768536601794,-0.07180633608555072,9.639419433302162,0.18594670007379055,-0.06109542950000013,0.015592573500000206,0.12454445500000055
126492.0,1.6846844035,1.4737433619999998,9.534515462499998,0.07098079534935739,0.22080683965755862,-0.03423637860712077,9.793725855928722,0.23444842368443486,-0.12209279249999994,-0.0191229675000002,0.18436501999999777
126502.0,1.5147351589999998,1.4114711345,9.6996594485,0.07604399550939295,0.25891086788709883,-0.004925319149127998,9.918168519556056,0.2698921738987703,-0.16994924450000015,-0.06227222749999983,0.16514398600000213
126512.0,1.3159543635,1.3169350284999999,9.9187400095,0.07897614865274342,0.26930255825347305,0.00813148898504158,10.09195011542175,0.2807618582553537,-0.19878079549999983,-0.09453610600000006,0.21908056100000017
126522.0,1.1531639734999999,1.1900369775,10.0923177145,0.07231422689788106,0.2509155145837128,0.00200363798128949,10.22745579350046,0.2611358984050406,-0.16279039000000006,-0.12689805099999996,0.17357770499999958
126532.0,1.0860864875,1.1013848615,10.22637462,0.05366189318181766,0.19682427040590453,-0.02117957047295119,10.342696473359913,0.205104769340189,-0.06707748599999985,-0.088652116,0.1340569054999996
126542.0,1.0813792955000001,1.0762798375,10.246772452,0.023818508301966617,0.12674406495057622,-0.04835783758500689,10.359734801258726,0.13773111410942934,-0.004707191999999916,-0.02510502399999992,0.02039783200000045
126552.0,1.1722869409999999,1.1337468065,10.133015312,-0.010822786691616838,0.05879665184118497,-0.06807656747403883,10.26341258093596,0.09060131355865167,0.09090764549999975,0.057466969000000034,-0.11375714000000059
126562.0,1.263292653,1.221124058,10.004940462999999,-0.036402332208845735,0.013231341059369012,-0.06994232444442075,10.158045380895125,0.07995077813981005,0.09100571200000007,0.08737725149999997,-0.12807484900000077
126572.0,1.3650856799999997,1.29055514,9.867255097000001,-0.05372297970563746,0.015896458827164353,-0.05608615551283778,10.044486777949084,0.079274919059601,0.10179302699999981,0.06943108199999992,-0.1376853659999977
126582.0,1.3591036234999998,1.3731271329999999,9.7941955545,-0.0734417095946694,0.050003683069637546,-0.03183829621488056,9.982930799248244,0.0943807720596891,-0.005982056499999944,0.08257199299999995,-0.07305954250000113
126592.0,1.3076187109999997,1.409019472,9.840973275,-0.08836252936996893,0.07931474252763032,-0.007056366165813074,10.026961532044325,0.1189477081845167,-0.05148491250000009,0.035892339000000106,0.04677772049999973
