timestamp,ax,ay,az,gx,gy,gz,acc_mag,gyro_mag,dax,day,daz
203202.0,1.0401913655,0.14121576,9.544224046,-0.006181956210563916,-0.004499458811641381,0.08175296749266639,9.601778616901024,0.08210974001934213,0.0,0.0,0.0
203212.0,1.113250908,-0.056290171,9.662688377999999,-0.02590068609959585,0.01175479251218181,0.0694972654851622,9.726769394709134,0.0750925468828256,0.07305954250000002,-0.197505931,0.1184643319999985
203222.0,0.9647782269999999,-0.09581097049999998,9.685439806,-0.021371556690670562,0.05545434632361583,0.05404237495875242,9.733844102152588,0.08032749375366109,-0.148472681,-0.03952079949999998,0.022751428000001184
203232.0,0.7493261265,-0.034715541,9.7596761465,-0.008047713180945854,0.08583005662532514,0.0281940487367164,9.788461232349215,0.09069988253530227,-0.21545210049999997,0.06109542949999998,0.07423634050000061
203242.0,0.44522191,0.07060788,9.9463947625,-0.008314748556500986,0.09622349232095138,0.01513724060254682,9.956604681986203,0.09776109436303082,-0.30410421649999997,0.105323421,0.18671861600000028
203252.0,0.1591619295,0.08139519499999999,10.133211445,-0.014177309513949939,0.06557900131443493,0.0018151424220741027,10.134788201371071,0.0671185239741266,-0.28605998050000003,0.010787314999999992,0.18681668249999994
203262.0,-0.166516917,0.106500219,10.284037722,-0.016840681952493285,-0.0018360863730980347,-0.0091106186954104,10.285937101101348,0.01923494618676306,-0.3256788465,0.025105024000000004,0.15082627700000018
203272.0,-0.5842802069999999,0.3411733535,10.351017141499998,-0.01790707812546182,-0.08603775080631247,-0.018170622842512963,10.373106500998492,0.0897403451368746,-0.41776328999999995,0.2346731345,0.0669794194999973
203282.0,-1.0093004179999998,0.5386792844999999,10.402502054,-0.008847073978359257,-0.15878132870018413,-0.02429847384626506,10.46522391966835,0.16087323236956516,-0.42502021099999987,0.1975059309999999,0.0514849125000012
203292.0,-1.2882015439999999,0.5830053425,10.437217595,0.0012775810124598492,-0.22273368315176034,-0.02083399528105631,10.532562346016524,0.22370959117338543,-0.27890112600000005,0.04432605800000011,0.03471554100000063
203302.0,-1.4114711345,0.47042500049999997,10.402502054,-0.010178760197630931,-0.2629687583979856,-0.016837191293989296,10.5083585506061,0.2637037467750684,-0.12326959050000008,-0.11258034200000006,-0.03471554100000063
203312.0,-1.5611206135,0.25497289999999995,10.3378762305,-0.03149621168148967,-0.2829527783333207,-0.013372712728780553,10.458192659669542,0.28501423747342347,-0.14964947900000003,-0.21545210050000002,-0.06462582350000012
203322.0,-1.7466624315,0.1795597615,10.226570753,-0.0496162199756948,-0.29574429642118716,-0.02083399528105631,10.37621418069608,0.3006002553387316,-0.18554181799999991,-0.07541313849999995,-0.11130547749999842
203332.0,-1.8986655065,0.011964112999999998,10.135565040999998,-0.05867622412279736,-0.2872166176959428,-0.05147674095832075,10.311874346883503,0.2976342379795983,-0.1520030750000001,-0.1675956485,-0.09100571200000296
203342.0,-2.017227905,-0.148472681,10.093690645499999,-0.047485172959009725,-0.24884555409084752,-0.1007735656809006,10.294359786056061,0.2726431055093284,-0.11856239849999994,-0.160436794,-0.04187439549999894
203352.0,-2.0902874474999997,-0.2034879875,10.1068315565,-0.02909812928924946,-0.1952866353348975,-0.18044610070518977,10.322729924089705,0.2674777866071622,-0.0730595424999998,-0.0550153065,0.013140911000000699
203362.0,-2.144125956,-0.13170330949999998,10.1284061865,-0.013643238762839674,-0.14119539115708926,-0.2835671342300227,10.353706281117773,0.3170687560504362,-0.05383850850000016,0.07178467800000002,0.021574629999999928
203372.0,-2.154913271,0.028733484499999996,10.183421492999999,0.0012775810124598492,-0.10495711989793101,-0.3770940928566428,10.408964891993717,0.3914301778068298,-0.010787314999999964,0.16043679399999997,0.05501530649999964
203382.0,-2.042332929,0.221434157,10.231376011499998,0.0172665422899799,-0.08736943702558414,-0.4474413336875263,10.435574347752098,0.45621847737777066,0.11258034199999978,0.1927006725,0.04795451849999921
203392.0,-1.9059224274999997,0.28968844099999996,10.272073609,0.030855675846007753,-0.08310734299221399,-0.4804821617570309,10.451409279193442,0.4885918654233296,0.13641050150000034,0.06825428399999997,0.04069759750000124
203402.0,-1.795793748,0.23584993249999997,10.340327892999998,0.03458544445751963,-0.0916332763882063,-0.4794157655840624,10.497756013109178,0.4893181854381812,0.11012867949999983,-0.05383850849999999,0.06825428399999822
203412.0,-1.719105745,0.234575068,10.366609715,0.0359188760060433,-0.11268369249650989,-0.4818138479763026,10.510801444616465,0.4961172888641527,0.0766880029999999,-0.0012748644999999725,0.026281822000001398
203422.0,-1.692823923,0.335191297,10.437217595,0.05723458216065005,-0.15505156008867227,-0.5039306602575748,10.578918525314544,0.5303422423573957,0.026281822000000066,0.100616229,0.07060788000000073
203432.0,-1.6772313494999997,0.5195563169999999,10.548621139,0.08681267699419795,-0.20754408267165372,-0.5353727667322526,10.693757604342725,0.580719369831474,0.015592573500000206,0.18436501999999994,0.11140354399999985
203442.0,-1.6473210669999998,0.67273619,10.656298156,0.09240820257609177,-0.25390875425088305,-0.5889316854882025,10.803838719116772,0.6479579165042699,0.02991028249999994,0.15317987300000002,0.10767701700000032
203452.0,-1.543174444,0.7948289824999999,10.696995753499998,0.05750161753620518,-0.28321981370887583,-0.6779312600351494,10.836921086103455,0.7369604414277714,0.10414662299999988,0.12209279249999994,0.040697597499997684
203462.0,-1.3121297699999999,0.8750473795,10.670713931499998,-0.015776031108776744,-0.28668429227408454,-0.7903775877533881,10.786636559076152,0.8409123009072363,0.23104467400000006,0.08021839700000011,-0.02628182199999962
203472.0,-1.024794925,0.950460518,10.503118283000001,-0.11276746830060563,-0.25683916206498153,-0.8956314136241581,10.595710146152143,0.9385299601757942,0.28733484499999995,0.07541313849999998,-0.1675956484999972
203482.0,-0.662145008,0.9109397185,10.261286294,-0.20922658007057623,-0.20701175724979545,-0.9729041209269551,10.322898991552345,1.0164507159544574,0.36264991699999993,-0.03952079949999998,-0.24183198900000136
203492.0,-0.317343194,0.9109397185,9.963164134,-0.28463527573224323,-0.14012899498412074,-1.017937106286913,10.009753115563987,1.0662313669097359,0.344801814,0.0,-0.29812216000000014
203502.0,-0.020495898499999998,0.8762241774999999,9.659157983999998,-0.32193994316437,-0.051398201141981015,-1.0437836871796968,9.698841263313973,1.0935133687832777,0.2968472955,-0.03471554100000007,-0.3040061500000011
203512.0,0.23575186599999998,0.889463155,9.462828851,-0.31021656657872415,0.048260099146895205,-1.0651011386635556,9.507463042775555,1.1104070384016678,0.2562477645,0.013238977500000026,-0.196329132999999
203522.0,0.45483242699999993,0.9193734375,9.4209544555,-0.2641189303750499,0.1452515363387241,-1.0874832409911308,9.476629300908451,1.1284842123963428,0.21908056099999995,0.02991028250000005,-0.04187439549999894
203532.0,0.5888893325,1.0690229164999998,9.600514216999999,-0.20789489385130458,0.22012790657853282,-1.1090677278505447,9.677782487365253,1.1496555167108373,0.13405690550000005,0.1496494789999998,0.17955976149999842
203542.0,0.7863952634999999,1.193469305,9.9297234575,-0.16446063008617368,0.24810553448800193,-1.1285194223640216,10.032058334901077,1.1671159932691966,0.1975059309999999,0.12444638850000023,0.3292092405000009
203552.0,1.013811477,1.2281848459999998,10.197837268499999,-0.16179725764763034,0.21986087120297768,-1.1359789595870453,10.32144063014696,1.1683173164397127,0.22741621350000008,0.03471554099999974,0.2681138109999992
203562.0,1.195822901,1.2449542175,10.3714149735,-0.20176529751830047,0.1540445051102715,-1.1319821555999783,10.514093016840164,1.1600959207902122,0.18201142400000014,0.01676937150000013,0.17357770500000136
203572.0,1.3298798065,1.193469305,10.3378762305,-0.2670493381891484,0.06664539748740347,-1.1186600574195056,10.491169345637813,1.1520231256790499,0.13405690549999982,-0.05148491249999987,-0.03353874300000115
203582.0,1.4268675749999997,1.1012867949999998,10.1380167035,-0.3163444175824762,-0.014358823756157348,-1.1143962180568834,10.296997929584757,1.1585158165406035,0.0969877684999998,-0.09218251000000022,-0.1998595269999992
203592.0,1.5250321415,0.9529121805,9.961987336,-0.32673785327810245,-0.0668530916683908,-1.1367800657137106,10.122991471841598,1.1846923138243421,0.09816456650000038,-0.14837461449999978,-0.17602936749999998
203602.0,1.7117507575,0.8307213214999999,9.811161058999998,-0.30408697024572,-0.09749583734565524,-1.1922029961107905,9.993951665654306,1.2342294388437254,0.18671861599999984,-0.12219085900000015,-0.15082627700000195
203612.0,1.9823162309999998,0.7481493284999999,9.722607009499999,-0.2734442245684556,-0.09056688021523775,-1.268411052569871,9.95079856687892,1.300707769648192,0.2705654734999998,-0.08257199299999995,-0.08855404949999901
203622.0,2.191786275,0.8403318384999999,9.696227121,-0.25239380846015197,-0.05699372672387483,-1.3384912580251993,9.976317209075255,1.3632717143859387,0.20947004400000035,0.09218251,-0.026379888499999282
203632.0,2.4024331169999997,0.9109397185,9.7357479205,-0.23640659251188392,-0.04260348704118158,-1.3821908118366335,10.0690756092066,1.4029093250872489,0.2106468419999996,0.07060788000000007,0.03952079949999998
203642.0,2.6610344774999994,0.870242121,9.75369409,-0.22814594916219477,-0.04500156943342179,-1.3981797731141534,10.147560014156467,1.417385760234713,0.2586013604999997,-0.040697597500000016,0.017946169500000053
203652.0,2.827453328,0.8642600644999999,9.774091922,-0.23320914932223033,-0.036475636037429496,-1.3931165729541177,10.211479358095646,1.4129723157908505,0.16641885050000038,-0.005982056500000055,0.02039783200000045
203662.0,3.002207831,0.924178696,9.750065629499998,-0.2515944476627386,-0.02235243173029138,-1.3845888942288738,10.243590088548798,1.4074394492556017,0.1747545030000004,0.0599186315000001,-0.0240262925000021
203672.0,3.281108957,0.962424631,9.6459190065,-0.28197190329369987,0.018682004313347305,-1.3731308076895308,10.234045663276037,1.4019077667800899,0.2789011259999996,0.03824593499999995,-0.10414662299999833
203682.0,3.59119523,1.064217658,9.489110672999999,-0.32060825694509837,0.09116029216091583,-1.3387582934007545,10.201591237057887,1.379628073589958,0.310086273,0.10179302700000004,-0.15680833350000078
203692.0,3.740844709,1.1886640465,9.416149197,-0.35018635177864627,0.18708707850902817,-1.2692104133672844,10.201505136618751,1.3298598156636787,0.14964947900000025,0.1244463885,-0.07296147599999969
203702.0,3.6941650549999996,1.20425662,9.485580278999999,-0.37603293267143034,0.28354619027899874,-1.1775474663817944,10.250527922490171,1.2682339074703033,-0.046679654000000514,0.015592573499999984,0.06943108199999948
203712.0,3.6222823104999997,1.044996624,9.5849216435,-0.4194654511073092,0.33257423429677146,-1.0970755705600916,10.299692713531183,1.2207095041452298,-0.07188274449999987,-0.15925999600000007,0.09934136450000075
203722.0,3.489402203,0.8989756055,9.648370668999998,-0.4522409891305107,0.31685405372405856,-1.0373888008003895,10.29927868542282,1.1751995267345803,-0.13288010749999968,-0.14602101849999993,0.06344902549999887
203732.0,3.3948660969999995,0.7612902395,9.605221408999999,-0.4543720361471958,0.2425100089061081,-0.9838298820444397,10.215916843887772,1.1104892113189417,-0.09453610600000051,-0.13768536600000003,-0.043149259999999856
203742.0,3.3458328469999996,0.673912988,9.474792963999999,-0.4176014394661792,0.12340175943300707,-0.9326690456807298,10.070772456277775,1.0293155518335424,-0.04903324999999992,-0.08737725149999997,-0.13042844499999973
203752.0,3.3410275885,0.7038232704999999,9.291604741999999,-0.35924461059649687,0.000296705972839036,-0.8751133229377128,9.899078301780035,0.9459810284884939,-0.004805258499999798,0.02991028249999994,-0.18318822200000007
203762.0,3.3350455319999996,0.834349782,9.1826528605,-0.30009016625865303,-0.09829519814306864,-0.7951737525378685,9.80508958733603,0.8555801251713872,-0.005982056500000166,0.13052651150000005,-0.10895188149999946
203772.0,3.277578563,0.8774009754999998,9.073700979,-0.2635848596239396,-0.1499883599286367,-0.708841041087969,9.687332097370826,0.7709922878133931,-0.05746696899999959,0.04305119349999986,-0.10895188149999946
203782.0,3.1243006234999995,0.7685471604999999,9.053401213499999,-0.23587252176077367,-0.17050645061508202,-0.6265033882958846,9.60812118244344,0.6908073477963041,-0.15327793950000057,-0.10885381499999991,-0.020299765500000788
203792.0,3.048887485,0.578200084,9.042613898499999,-0.20682849767833603,-0.1872930273607635,-0.5692147009284226,9.56027700177524,0.633925927299768,-0.07541313849999964,-0.19034707649999993,-0.010787314999999964
203802.0,2.9950489765,0.39020660349999997,8.989952187999998,-0.18631215232114268,-0.2088775142201774,-0.5388372452974614,9.483766124677194,0.6071965175864348,-0.053838508499999715,-0.18799348050000003,-0.05266171050000068
203812.0,3.0668336545,0.2621317545,8.9612187035,-0.1655270262591422,-0.24271770308709545,-0.5284455549310871,9.475105401685477,0.6046203638155887,0.07178467799999977,-0.128074849,-0.02873348449999824
203822.0,3.264437652,0.050210048,8.8941412175,-0.14394428472898035,-0.2573732328160918,-0.548164284820119,9.474429915807484,0.6224508183211719,0.1976039974999999,-0.21192170649999997,-0.06707748600000052
203832.0,3.6893597965,-0.18436502,8.8115692245,-0.1295540450462871,-0.22033385543026815,-0.6142459409591283,9.554533916774048,0.6653039413842268,0.4249221445,-0.234575068,-0.08257199300000018
203842.0,4.2962933649999995,-0.39981712049999996,8.793623055,-0.1388810845689448,-0.0924326371856197,-0.7234965708169654,9.795192537230468,0.7424816738829606,0.6069335684999997,-0.21545210049999997,-0.017946169500000053
203852.0,4.839777908,-0.393835064,8.8474615635,-0.15593469669018137,0.11913792007038493,-0.8362099339107592,10.092379916254174,0.8589275447915222,0.5434845430000008,0.005982056499999944,0.05383850850000016
203862.0,5.231259376,-0.12689805099999998,9.106062924,-0.17032319104362265,0.36961361168259516,-0.9284052063181076,10.502502547021015,1.0136865582944772,0.3914814679999994,0.26693701300000006,0.25860136050000015
203872.0,5.4550471289999996,0.17240090699999996,9.467634109499999,-0.19217296794933963,0.5782537611245013,-0.9518537048186515,10.92809941772646,1.1301917258775531,0.22378775299999987,0.29929895799999995,0.361571185499999
203882.0,5.566450672999999,0.38304774899999994,9.893733052,-0.21722018804471027,0.6771109552867122,-0.8990941468601149,11.358611375392387,1.1463132821273516,0.11140354399999985,0.21064684199999997,0.42609894250000124
203892.0,5.4096423394999995,0.5649611065,10.167926986,-0.23320914932223033,0.635010123070105,-0.7733239756321515,11.531268381483269,1.0274504051372138,-0.1568083334999999,0.18191335750000004,0.2741939339999995
203902.0,5.068468985999999,0.7265746985,10.2576578335,-0.22628019219181283,0.4588784762758451,-0.5748102265103164,11.46459039319365,0.7695316613814186,-0.34117335350000033,0.16161359200000003,0.08973084750000027
203912.0,4.472224666,0.8235624669999999,10.194208807999999,-0.20309872906682414,0.20120853748691428,-0.3309964566529686,11.162479196904902,0.437370122005382,-0.5962443199999994,0.0969877684999999,-0.06344902550000064
203922.0,3.7013239094999997,0.8594548059999999,10.0709392175,-0.14714172791863395,-0.07751007208106818,-0.09437867930159337,10.763934130659308,0.19122195082052348,-0.7709007565000001,0.035892338999999995,-0.12326959049999964
203932.0,3.2488450784999996,0.475230259,9.976403111499998,-0.08079303640406951,-0.34690513278489693,0.08122064207080812,10.502830912963882,0.36533201143930794,-0.4524788310000001,-0.3842245469999999,-0.0945361060000014
203942.0,2.7496865934999994,0.17475450299999998,9.808807463,-0.029632200040359727,-0.5432878348900468,0.18274295400081428,10.188425754011114,0.5739640459607992,-0.49915848500000015,-0.300475756,-0.1675956484999972
203952.0,2.0852860559999997,0.17240090699999996,9.777622316,0.005274384999526864,-0.6522696840430768,0.23177274334783898,9.999001858306842,0.692244295330602,-0.6644005374999997,-0.0023535960000000133,-0.031185147000000413
203962.0,1.43765489,0.2058415835,9.708191234,0.02552718563966906,-0.7180860501357831,0.24003164136827618,9.816221237123434,0.7575713837416519,-0.6476311659999998,0.033440676500000044,-0.06943108200000125
203972.0,0.9719370815,0.1603387275,9.613655128,0.03192207201897629,-0.7695139218750479,0.20406040548467302,9.66399167622012,0.7967504902590717,-0.4657178084999999,-0.04550285600000001,-0.09453610599999962
203982.0,0.7073536644999999,0.08737725149999999,9.486757077,0.031655036643421154,-0.7913636987807648,0.13291380385637616,9.513492725007513,0.8030719920084629,-0.2645834170000001,-0.07296147600000001,-0.1268980509999995
203992.0,0.6236048734999999,-0.041972461999999995,9.338284395999999,0.04098033083682685,-0.7548583921460515,0.050577896393543674,9.359177324230819,0.7576600182881593,-0.08374879099999999,-0.1293497135,-0.14847268100000122
204002.0,0.5984017829999999,-0.161613592,9.316807832499999,0.06283185307179587,-0.6837135358470067,-0.02429847384626506,9.337403913012976,0.6870243494171873,-0.025203090500000025,-0.11964113000000001,-0.021476563500000267
204012.0,0.605658704,-0.147295883,9.352700171499999,0.09773843811168245,-0.6408115975037341,-0.08371995355966401,9.37344755364086,0.6536064078662565,0.007256921000000083,0.014317709000000012,0.035892339000000106
