timestamp,ax,ay,az,gx,gy,gz,acc_mag,gyro_mag,dax,day,daz
125832.0,-2.692709957,-0.9033885979999999,10.4526140355,-0.014557791290884702,-0.09390045908654691,-0.0652212088177761,10.831617517557335,0.11525203505181669,0.0,0.0,0.0
125842.0,-3.1260658204999996,-1.017145738,10.489781239,-0.04946437633077129,-0.16930915474821392,-0.09186889583722553,10.992833274843491,0.19887737033080916,-0.43335586349999966,-0.11375714000000003,0.037167203499999246
125852.0,-3.120083764,-1.049507683,10.376024098999999,-0.06012310207270066,-0.16478002533928865,-0.1329033318808642,10.885690845053482,0.22006939764241673,0.005982056499999722,-0.032361945000000114,-0.11375714000000059
125862.0,-3.458805455,-0.99439431,10.319733927999998,-0.05799205505601559,-0.16877682932635565,-0.17127439548595955,10.92927552786608,0.24735321933655646,-0.33872169099999994,0.05511337300000008,-0.056290171000000555
125872.0,-3.58334991,-1.0088100855,10.212056911,-0.06998246701721662,-0.1876961984179742,-0.20458225893101933,10.869415840771131,0.2863237839574177,-0.12454445500000011,-0.01441577549999995,-0.10767701699999854
125882.0,-3.7378046474999995,-1.0721610444999998,10.0803536015,-0.09396503626887072,-0.1956898063921082,-0.25147925593210696,10.804362156994273,0.3322134020941316,-0.1544547374999996,-0.06335095899999987,-0.13170330949999887
125892.0,-3.8084125274999994,-1.205041152,9.9642428655,-0.11421609157976093,-0.20688085755589586,-0.3058375354854703,10.735095064334551,0.38649916288479275,-0.07060787999999985,-0.13288010750000012,-0.11611073600000132
125902.0,-3.8419512704999996,-1.2422083555,9.789488362499998,-0.11767882481571766,-0.1964891671895216,-0.366590701418141,10.589511488397068,0.43225575878070693,-0.03353874300000026,-0.037167203500000134,-0.17475450300000084
125912.0,-3.8886309244999997,-1.2290674444999998,9.682890077,-0.11128393843641045,-0.16424769991743038,-0.43613683612235904,10.506684419614617,0.4791416927224206,-0.04667965400000007,0.013140911000000255,-0.10659828549999872
125922.0,-3.8898077224999996,-1.1978822974999999,9.57521306,-0.10275800504041814,-0.1061579064233031,-0.5072834377506559,10.404337137034682,0.5283608567183881,-0.0011767979999999234,0.03118514699999997,-0.10767701700000032
125932.0,-3.8527385854999996,-1.153654306,9.5105872365,-0.0976948048803826,-0.019825194973403588,-0.5773618978767322,10.325976101513579,0.5859044925379662,0.03706913700000003,0.0442279914999999,-0.06462582350000012
125942.0,-3.7916431559999997,-1.1404153285,9.542851115,-0.10115928344559134,0.07556926595285048,-0.6429129739231352,10.331655837617518,0.6551953957580654,0.06109542949999991,0.013238977499999915,0.03226387850000023
125952.0,-3.7532991545,-1.1056997874999999,9.5966896235,-0.1118180091875207,0.15604116177455304,-0.7052648614506327,10.36370002909388,0.7309245078279923,0.038344001499999614,0.03471554100000018,0.05383850850000016
125962.0,-3.6803376785,-1.1068765855,9.637387221,-0.12220969955389496,0.20800135893567623,-0.7588237802065827,10.375417757893366,0.7962495245782878,0.07296147600000014,-0.0011767980000001454,0.04069759749999946
125972.0,-3.5509879649999996,-1.088930416,9.6961290545,-0.12540714274354856,0.2258543318543262,-0.8014569378450481,10.38316924739185,0.8420631531473315,0.12934971350000035,0.017946169500000053,0.05874183350000095
125982.0,-3.4061437445,-1.0350919075,9.736826652,-0.11341673078234753,0.2117311275471881,-0.8342324758682497,10.367209061086113,0.8681228305873708,0.14484422049999957,0.05383850849999994,0.04069759749999946
125992.0,-3.1954969024999995,-0.9393790034999999,9.766736934499999,-0.0875684045603115,0.17575989166358497,-0.8472892840024193,10.319049554771514,0.8697464548822064,0.2106468420000005,0.0957129040000001,0.029910282499999497
126002.0,-2.9895572525,-0.8603374045,9.8122397905,-0.06785142000053156,0.12752946311397367,-0.8390286406527301,10.293574827135062,0.8513733840059806,0.20593964999999947,0.07904159899999996,0.04550285600000059
126012.0,-2.7538053865,-0.842391235,9.8469553315,-0.0611894982456692,0.05931501462902729,-0.8134490951355011,10.25941501256663,0.8179008839906973,0.2357518660000002,0.017946169499999942,0.03471554100000063
126022.0,-2.5550245909999996,-0.8794603719999999,9.8265574995,-0.062255894418637735,-0.020889845817120133,-0.7700148313703703,10.19131166717576,0.7728098230344045,0.19878079550000027,-0.03706913699999992,-0.02039783200000045
126032.0,-2.3623239185,-0.9033885979999999,9.785859901999999,-0.07477863180169705,-0.09097005127244845,-0.7105933516569714,10.107410117160827,0.7202848779626946,0.19270067249999956,-0.023928225999999997,-0.04069759750000124
126042.0,-2.239054328,-0.865142663,9.608653736499999,-0.08970119690624857,-0.12960640492384692,-0.6447769855642651,9.903941777849548,0.6637631249452159,0.12326959050000008,0.03824593499999995,-0.17720616549999946
126052.0,-2.206692383,-0.9118223169999998,9.429093974999999,-0.10222393428930789,-0.12214686770082316,-0.5896193452134884,9.726701619786162,0.6107540931346183,0.03236194499999989,-0.04667965399999985,-0.1795597615000002
126062.0,-2.206692383,-1.193077039,9.2926834735,-0.10195864424300474,-0.06325771340928248,-0.5765625370793187,9.625325461138406,0.5889154969984941,0.0,-0.28125472200000023,-0.13641050149999856
126072.0,-2.2425847219999997,-1.5114989644999999,9.1908904465,-0.09529672248814239,0.04252843788334583,-0.6207961616418631,9.580515777065312,0.629506161729216,-0.03589233899999966,-0.3184219254999998,-0.10179302700000115
126082.0,-2.3024052869999996,-1.7186154124999997,9.2220755935,-0.08623671834103983,0.17256070314467936,-0.7185869596311053,9.659264324673824,0.7440303665925831,-0.05982056499999988,-0.20711644799999984,0.031185147000000413
126092.0,-2.3144674665,-1.7856928985,9.3489736445,-0.06411990605976768,0.28500877619217,-0.8440918408127657,9.795344148461341,0.8932146441848987,-0.012062179500000436,-0.0670774860000003,0.1268980509999995
126102.0,-2.1767821005,-1.665953702,9.509312372,-0.026282913205782608,0.3590857856345654,-0.9626677648640083,9.896504627318524,1.0277950274639596,0.13768536599999992,0.11973919650000009,0.160338727500001
126112.0,-1.931321651,-1.4157860604999999,9.6147338595,0.020881119170860156,0.40331766486785764,-1.049267511689463,9.908459046579505,1.124305772919132,0.24546044950000012,0.25016764150000004,0.10542148749999924
126122.0,-1.6584025815,-1.1105050459999999,9.7212340785,0.06591235920156585,0.4387583206588545,-1.0953651478931372,9.92400688172409,1.1818113683079245,0.2729190694999999,0.3052810145,0.10650021900000084
126132.0,-1.42980957,-0.8902476869999999,9.773895789,0.1074808659963148,0.4606080975645715,-1.1017600342724445,9.917960236102196,1.1989942156730322,0.2285930115000001,0.22025735899999999,0.052661710499998904
126142.0,-1.1855259185,-0.6736187885,9.831362758000001,0.13945704322210292,0.4920502040392494,-1.0681868807810815,9.925468636545322,1.184307765098302,0.24428365149999998,0.2166288984999999,0.05746696900000181
126152.0,-1.051469013,-0.43659205799999995,9.9750301805,0.15197978060516223,0.5240246359357855,-1.0071666794728558,10.039792169775913,1.1454625236212679,0.13405690550000005,0.23702673050000006,0.1436674224999983
126162.0,-1.0431333605,-0.33842749149999996,10.198916,0.14718361582068182,0.5336187108339984,-0.9301592622163619,10.257706758815393,1.0824085173376432,0.008335652500000013,0.0981645665,0.2238858195000013
126172.0,-1.0287175849999999,-0.3396042895,10.342485356,0.12240343110086632,0.5051070121734189,-0.8483556801753878,10.399066990947286,0.9948985143108153,0.014415775500000061,-0.0011767980000000344,0.14356935599999865
126182.0,-1.074220441,-0.44129925,10.4406499225,0.07737044574090862,0.43849128528329934,-0.7884018750401306,10.505039999358026,0.9054492308850565,-0.04550285600000015,-0.10169496049999999,0.09816456650000127
126192.0,-1.166402951,-0.6640082715,10.444278383,0.033403856553919475,0.34443025590556897,-0.7585567448310275,10.53016399541446,0.833760369617371,-0.09218251,-0.2227090215,0.003628460499999875
126202.0,-1.2334804369999999,-0.8962297435,10.2970805665,0.005426228644450371,0.24477195561669277,-0.7550940115950707,10.409350120664966,0.7937945077666253,-0.06707748599999985,-0.23222147199999998,-0.1471978165000003
126212.0,-1.2394624935,-1.029109851,10.1235028615,-0.0009686577348568529,0.1488469145978324,-0.7726799491381655,10.250885061545524,0.7868866793149187,-0.005982056500000166,-0.13288010750000012,-0.17357770499999958
126222.0,-1.20229529,-0.9836069949999999,9.981012236999998,0.023012166187545237,0.06597693638388964,-0.8017239732206033,10.101168346291077,0.8047632230438203,0.037167203500000134,0.04550285600000015,-0.14249062450000238
126232.0,-1.0335228435,-0.9656608255,9.8948117835,0.06538003377970758,0.0012269664641520136,-0.8331660796952811,9.995397467276232,0.8357282875543602,0.1687724465,0.017946169499999942,-0.08620045349999828
126242.0,-0.7976729109999999,-0.8567089439999999,9.867255097000001,0.10481749355777147,-0.02861816374495102,-0.8542164958035847,9.936445815126518,0.8610990233154501,0.23584993249999997,0.10895188150000013,-0.02755668649999876
126252.0,-0.5594693824999999,-0.7118647235,9.817045049,0.12879831748017354,-0.016093681032639712,-0.8643428961236559,9.858708377298422,0.8740346991020053,0.23820352850000004,0.1448442204999999,-0.050210048000000285
126262.0,-0.3380352255,-0.57663102,9.8612730405,0.1322627960453823,0.03746523772331028,-0.8571486489469351,9.883899894586003,0.8681018935856336,0.2214341569999999,0.13523370349999997,0.044227991499999675
126272.0,-0.205155118,-0.43414039549999994,9.8026292735,0.1152091839241457,0.10834480397605199,-0.8315673581004542,9.814382669283159,0.8464726951693397,0.13288010749999998,0.14249062450000005,-0.05864376700000129
126282.0,-0.18720894849999997,-0.3778502245,9.7906651605,0.09868789722476737,0.17655925246099835,-0.7873354788671619,9.799741949030171,0.8129019786980568,0.017946169500000025,0.056290170999999944,-0.011964112999999443
126292.0,-0.217119231,-0.522694445,9.852937388,0.0904272538750782,0.20586856658973915,-0.7295127207485899,9.869180584787784,0.7633791749105497,-0.029910282500000024,-0.14484422049999995,0.062272227500001165
126302.0,-0.227906546,-0.7010774084999999,9.881670872499999,0.08989492845321993,0.1914800722362979,-0.672224033381128,9.909130645966558,0.704720417811503,-0.010787314999999992,-0.17838296349999994,0.02873348449999824
126312.0,-0.35951178899999997,-0.8231702009999999,9.924722066,0.09149365004804676,0.12966051013065874,-0.6213284870637213,9.965288053718853,0.641273751781055,-0.13160524299999998,-0.12209279250000005,0.043051193500000196
126322.0,-0.4529691635,-0.9596787689999999,9.957084011,0.09016196382877506,0.018278833256136613,-0.577096607830429,10.01347524113697,0.5843832562933806,-0.09345737450000002,-0.136508568,0.03236194499999989
126332.0,-0.5211253809999999,-1.0554897395,9.9175632115,0.08083492430611737,-0.10909005956665357,-0.5523146777813616,9.987176292977427,0.5687586741110512,-0.06815621749999995,-0.09581097050000009,-0.03952079949999998
126342.0,-0.57859235,-1.1870949825,9.782329507999998,0.06324898676302251,-0.23858999940612882,-0.5509829915620899,9.87106550520473,0.6037448791781803,-0.057466969000000034,-0.13160524299999987,-0.13523370350000086
126352.0,-0.4768973895,-1.29251647,9.669749165999999,0.052857296396648275,-0.34117870750910356,-0.5738991646407754,9.767398777499098,0.6697440223065267,0.10169496049999999,-0.10542148750000013,-0.11258034199999933
126362.0,-0.405014645,-1.2553492665000001,9.589530769,0.05525537878888848,-0.40299826961474267,-0.6159999968573826,9.679826393751298,0.7381847724830659,0.07188274449999998,0.03716720349999991,-0.08021839699999944
126372.0,-0.3044964825,-1.1512026434999998,9.429093974999999,0.06244962596560911,-0.42884485050752674,-0.6535716996650646,9.503988574469012,0.7841962944270706,0.10051816250000001,0.10414662300000033,-0.16043679400000066
126382.0,-0.1105209455,-1.0374455034999999,9.2950370695,0.06724579075008952,-0.4021989088173293,-0.6772854882119115,9.353406982244797,0.7905704213856616,0.193975537,0.11375713999999992,-0.1340569054999996
126392.0,0.0534462425,-0.8615142024999999,9.2220755935,0.06617939457712098,-0.33185166798644583,-0.6871448531564275,9.262383142268245,0.7659460105198987,0.16396718799999999,0.17593130099999998,-0.07296147599999969
126402.0,0.246146915,-0.7561907815,9.242375358999999,0.06591235920156585,-0.24871639972619997,-0.6847467707641873,9.27652494625223,0.7314932854512485,0.1927006725,0.10532342099999992,0.020299765499999012
126412.0,0.361080853,-0.693918554,9.324947351999999,0.07976852813314884,-0.17756979809790308,-0.6788842098067384,9.357699795332207,0.7062420417972712,0.11493393799999999,0.062272227499999944,0.08257199300000018
126422.0,0.4916073645,-0.6292927305,9.437527694,0.1168079055189725,-0.11974703997933095,-0.671956998005573,9.471252088108928,0.6924663511999715,0.1305265115,0.06462582350000001,0.11258034200000111
126432.0,0.6495924959999999,-0.564666907,9.567956139,0.1703668242749225,-0.04860218368028609,-0.6700912410351909,9.606591685116436,0.6931156457504742,0.15798513149999993,0.06462582350000001,0.13042844499999973
126442.0,0.776490547,-0.476014791,9.7428087085,0.2180631820734235,0.03320139836068813,-0.6628969938584703,9.785287383682432,0.6986317404009705,0.12689805100000007,0.088652116,0.1748525695000005
126452.0,0.833957516,-0.274978466,10.003763665,0.2519033709403416,0.10301456844046132,-0.644511695517962,10.042230118874533,0.69961606275265,0.057466969000000034,0.20103632500000002,0.2609549564999991
126462.0,0.833957516,-0.160044528,10.2970805665,0.28014977955461784,0.148047553800419,-0.6080063888832486,10.332035984375374,0.685619242797077,0.0,0.11493393799999999,0.2933169015000008
126472.0,0.8231702009999999,-0.05707470299999999,10.605891974999999,0.296402285549189,0.1541754048041711,-0.5595089249580821,10.637942060704518,0.6516706280269671,-0.010787315000000075,0.102969825,0.30881140849999866
126482.0,0.7980651769999999,0.044718324,10.9231371025,0.30359827805516165,0.1192688197642845,-0.5123466379106915,10.952343672258166,0.6073681282257193,-0.02510502400000003,0.10179302699999998,0.31724512750000144
