timestamp,ax,ay,az,gx,gy,gz,acc_mag,gyro_mag,dax,day,daz
128752.0,-0.5735909585,1.1964112999999998,10.5055699455,-0.17911441448591806,-0.06143908032870439,0.03750712562535814,10.589022923113987,0.19303760913600915,0.0,0.0,0.0
128762.0,-0.8285638584999999,1.251524673,10.042205733,-0.18257889305112682,-0.07849269244994099,0.04630183972615756,10.153754382426149,0.2040588525838627,-0.25497289999999995,0.05511337300000019,-0.46336421250000015
128772.0,-0.6298811295,1.113839307,10.1009475665,-0.18257889305112682,-0.0366588956088889,0.04923224754025605,10.181676187165879,0.1926207180261336,0.19868272899999995,-0.13768536600000014,0.05874183350000095
128782.0,-0.8262102625,1.068336451,10.105654758499998,-0.1482046334330985,0.01876578011744303,0.06308841647183903,10.195500197066805,0.16216323926025752,-0.196329133,-0.045502855999999925,0.004707191999997917
128792.0,-1.0141056765,0.996551773,10.031516484499999,-0.12129340169659793,0.07792022445528685,0.0644201026911107,10.131774214725384,0.15790376912863036,-0.1878954140000001,-0.07178467799999999,-0.07413827399999917
128802.0,-1.202099157,0.8683788575,10.088885387,-0.1047721149972196,0.1453353121428198,0.04630183972615756,10.197290452636683,0.18504974844259653,-0.18799348049999987,-0.12817291549999998,0.057368902500000374
128812.0,-1.501398115,0.8947587459999999,10.3212049255,-0.07839146335332532,0.18743614435942704,0.017523105690023067,10.468145042338422,0.20392299765359334,-0.29929895800000006,0.02637988849999995,0.23231953850000053
128822.0,-1.861694436,0.9462436585,10.529498171499998,-0.030162780132966003,0.17118189303560383,-0.018982200944690327,10.73459896679455,0.17485238849185664,-0.3602963210000001,0.05148491250000009,0.20829324599999843
128832.0,-2.0867570535,0.996551773,10.718570383499998,0.025261895593365925,0.10803064471069301,-0.06348111555353775,10.965191357319979,0.12782267247049608,-0.2250626174999999,0.050308114499999945,0.18907221199999924
128842.0,-2.291421839,1.1066804525,10.904112201499998,0.06842912398294168,0.03821747463091984,-0.1119768341494522,11.197098667560846,0.13668186332638185,-0.2046647854999999,0.11012867950000005,0.1855418180000008
128852.0,-2.4207715525,1.313698834,11.068177456,0.1020022774743046,-0.027598891461786332,-0.14981557233268927,11.405721885674438,0.18333267339248546,-0.12934971350000035,0.20701838149999996,0.1640652545000023
128862.0,-2.4649995439999994,1.5280722029999998,11.172324079,0.11346036401364737,-0.0747629238384291,-0.16207301966944543,11.542618972126935,0.21149565642762633,-0.04422799149999923,0.2143733689999998,0.10414662299999833
128872.0,-2.5141308605,1.6848805365,11.264506589,0.09161058710793037,-0.08728566122148841,-0.13489300722813774,11.663995246038958,0.1849524526038586,-0.049131316500000466,0.15680833350000012,0.09218251000000066
128882.0,-2.7415470739999996,1.9219072669999997,11.2620549265,0.018867009214058702,-0.07796036702808272,-0.08373217086442797,11.74919950760086,0.1159519698043397,-0.22741621349999974,0.23702673049999978,-0.0024516625000003955
128892.0,-2.9450350615,1.8883685239999999,11.264506589,-0.10050827563459745,-0.04918163299194821,-0.033637730673686715,11.795264977503585,0.11684281501089568,-0.2034879875000004,-0.033538742999999815,0.0024516625000003955
128902.0,-3.1797081959999995,1.7543116184999998,11.266860185,-0.21935123506139534,-0.015873769546888426,-0.005925392810520749,11.837664123248805,0.22000466168367025,-0.2346731344999995,-0.13405690550000005,0.002353596000000735
128912.0,-3.4406631524999995,1.5975032849999997,11.289611612999998,-0.31234586826615723,-0.0022846359908605773,-0.012054989143524835,11.909891269316503,0.31258676195226326,-0.2609549565,-0.15680833350000012,0.02275142799999763
128922.0,-3.6992645129999997,1.4442253455,11.253719273999998,-0.3786945597807217,-0.020404644285065707,-0.05388878598457692,11.933840215275415,0.3830534171245653,-0.25860136050000015,-0.15327793949999968,-0.035892339000000106
128932.0,-3.7974290795,1.2455426165,11.221357329,-0.42159649812399425,-0.0638371627209446,-0.1292974816462439,11.911788460531522,0.4455744935863544,-0.09816456650000038,-0.19868272899999995,-0.032361944999998116
128942.0,-3.9123630175,1.2442677519999998,11.0957341425,-0.4458443574219515,-0.11712904610133947,-0.2132338560331552,11.830896110625307,0.5079026302790436,-0.11493393800000007,-0.00127486450000025,-0.12562318650000037
128952.0,-3.9075577589999995,1.2933990685,10.910094257999999,-0.4602328517753927,-0.16376075305612395,-0.28784319089740884,11.660705189171122,0.5669969705746422,0.0048052585000006864,0.049131316500000244,-0.18563988450000046
128962.0,-3.8069415299999996,1.2538782689999999,10.683854842499999,-0.4778187893184876,-0.17708459656584866,-0.341667399699662,11.410949514475991,0.6135196506911601,0.10061622899999989,-0.0395207995000002,-0.22623941550000026
128972.0,-3.7878185624999996,1.2503478749999999,10.4755615965,-0.4879451896385587,-0.16003098444461208,-0.3811048594777258,11.209296589572524,0.6394852132702193,0.019122967499999977,-0.0035303939999999923,-0.20829324599999843
128982.0,-3.8190037094999996,1.1761115345,10.2900197785,-0.49300838979859424,-0.12698841104585543,-0.4237380171161913,11.038683559042713,0.6623724300582833,-0.03118514699999997,-0.07423634049999994,-0.1855418180000008
128992.0,-3.8919651854999997,1.1186445655,10.237358067999999,-0.4956717622371376,-0.08222246106145287,-0.4756982142773145,11.009189746821125,0.6919102687841087,-0.07296147600000014,-0.057466969000000034,-0.05266171050000068
129002.0,-4.0847639245,1.070690047,10.21460664,-0.4863464680437319,-0.04358610741005439,-0.5393835333533356,11.053047647846887,0.7275762721464344,-0.1927987390000001,-0.047954518499999876,-0.022751427999999407
129012.0,-4.1361507705,0.9151565779999999,10.227747550999998,-0.47382198533142056,-0.01907121273654204,-0.6153245544368608,11.070324056934869,0.7768495943434435,-0.051386845999999764,-0.1555334690000001,0.013140910999998923
129022.0,-4.1194794654999995,0.7295166934999999,10.2086245835,-0.47089157751732214,0.00944048592403733,-0.7221771019024577,11.032602664811776,0.8621877794677136,0.016671305000000025,-0.18563988450000002,-0.019122967499997756
129032.0,-4.12663832,0.6864655000000001,10.255304237499999,-0.4636973303406015,0.03821747463091984,-0.8388872689833186,11.075723168735669,0.9592745381768749,-0.007158854500000089,-0.04305119349999986,0.046679653999998294
129042.0,-4.091922779,0.618211216,10.2290224155,-0.4668947735302551,0.04621108260505386,-0.9502689458578406,11.034442292825167,1.0597817054314398,0.03471554099999974,-0.06825428400000011,-0.02628182199999962
129052.0,-4.0080759215,0.5547621905,10.213429841999998,-0.4882122250141138,0.04567875718319559,-1.0515242224122916,10.985744527248599,1.160233129948808,0.0838468575000002,-0.06344902549999998,-0.015592573500001095
129062.0,-3.9625730654999995,0.515241391,10.079372936499999,-0.5092626411224175,0.03661875303609303,-1.1413214124273998,10.842565092425053,1.2503215335193476,0.04550285600000015,-0.03952079949999998,-0.1340569054999996
129072.0,-3.7926238209999994,0.4243337455,9.9046184335,-0.5097949665442757,0.030223866656785805,-1.2292545908013783,10.6144015793833,1.331116538487833,0.16994924450000015,-0.09090764549999997,-0.17475450299999906
129082.0,-3.639443948,0.326169179,9.787232833,-0.49540647219083445,0.04860916499729407,-1.3206505024113133,10.44709840631917,1.4113497699470379,0.15317987299999958,-0.09816456650000005,-0.11738560050000046
129092.0,-3.4730250975,0.2758610645,9.667591703,-0.48421367569779483,0.08618086780497601,-1.4184430457298074,10.276202216319334,1.5012896788054064,0.16641885049999994,-0.0503081145,-0.11964112999999976
129102.0,-3.2180521974999996,0.257914895,9.5119601675,-0.498336880004933,0.13787402959054407,-1.528491291055806,10.044887568659195,1.613578173142544,0.2549729000000003,-0.017946169499999998,-0.15563153549999953
129112.0,-2.9773970065,0.316558662,9.3430896545,-0.5319117788255479,0.22607424334007747,-1.64173872490071,9.811137885731059,1.7405015785094125,0.24065519099999966,0.05864376700000001,-0.1688705129999999
129122.0,-2.6817265089999998,0.36206151799999997,9.2103076135,-0.5633538853002257,0.348112900627277,-1.744592723049988,9.599609989326954,1.8660530434542766,0.2956704975000002,0.04550285599999998,-0.13278204100000046
129132.0,-2.3884096075,0.468561737,9.1300892165,-0.5814738935944309,0.4962669195120677,-1.8373220662084466,9.44894595475222,1.9900113364778453,0.2933169014999999,0.10650021900000001,-0.08021839699999944
129142.0,-2.09273911,0.5092593344999999,9.138424869,-0.5793411012484938,0.6438868676457481,-1.9164622758108776,9.38880775917031,2.1031058139163323,0.29567049749999974,0.04069759749999996,0.008335652499999568
129152.0,-1.7695119259999998,0.5751600225,9.231784177,-0.5545609165286783,0.7744532036581919,-1.9838773634984106,9.417421122496647,2.200701017448524,0.3232271840000003,0.06590068800000004,0.09335930800000014
129162.0,-1.5241495429999998,0.7942405835,9.389867375,-0.508463280325004,0.8754431901663398,-2.036102850705837,9.545860844051463,2.2739064416329704,0.24536238300000002,0.21908056100000006,0.15808319799999992
129172.0,-1.1243324225,0.9786056035,9.644840275,-0.44690900826566804,0.9247382695596676,-2.0491596588400065,9.75934097435623,2.292143938821143,0.39981712049999985,0.18436502,0.2549729000000003
129182.0,-0.9782133375,1.1485548479999999,9.9320770535,-0.36510542622469383,0.9210085009481557,-2.032373082094325,10.046005881403238,2.260995129561112,0.14611908500000004,0.16994924449999982,0.2872367785000005
129192.0,-0.8250334644999999,1.0754953055,10.2398097305,-0.2910284167822985,0.8559914956528629,-2.006526501201541,10.329137122070744,2.2008106642846257,0.15317987300000002,-0.0730595424999998,0.30773267699999884
129202.0,-0.8597490054999999,1.128157016,10.489977371999998,-0.238535894199317,0.7304866144712027,-1.986540735936954,10.585439616297485,2.129989239944653,-0.03471554099999996,0.052661710500000014,0.25016764149999915
129212.0,-0.7411866069999999,1.044408225,10.564213712499999,-0.21082355633615105,0.5594181678369785,-1.986807771312509,10.641558038662234,2.0748012865236234,0.11856239849999994,-0.0837487910000001,0.07423634050000061
129222.0,-0.5700605645,0.9917465145,10.4169178295,-0.19163889719822938,0.40300525093175066,-2.006259465825986,10.4795375500437,2.0552896981725683,0.17112604249999996,-0.052661710500000014,-0.14729588299999996
129232.0,-0.3976596575,1.0419565625,10.130857849,-0.16792336332213043,0.2788338012986141,-2.036102850705837,10.192060019347645,2.061955713236462,0.172400907,0.05021004800000006,-0.28605998049999926
129242.0,-0.1450403535,1.2060218169999999,9.8255768345,-0.13168509206297216,0.2322020943438296,-2.056620941392282,9.900378046210479,2.0738728197897216,0.252619304,0.16406525449999987,-0.3052810145000002
129252.0,0.0512887795,1.3963688934999998,9.571780732499999,-0.09970891483718405,0.2788338012986141,-2.061949431598621,9.673234361716625,2.0831048017117433,0.196329133,0.19034707649999993,-0.2537961020000008
129262.0,0.2487947105,1.5005155165,9.461652053,-0.08505338510818766,0.41126589428143984,-2.060617745379349,9.58312606591759,2.102978651030425,0.197505931,0.1041466230000001,-0.11012867949999894
129272.0,0.39481572899999995,1.552000429,9.529906337,-0.08025722032370725,0.5897956234679398,-2.060085419957491,9.663524180312002,2.14435352411804,0.14602101849999996,0.05148491250000009,0.068254284
129282.0,0.5265190385,1.659677446,9.669945299,-0.09198234223860516,0.7558008699421285,-2.056353906016727,9.82545640712513,2.192780676009169,0.1317033095000001,0.10767701699999987,0.1400389620000002
129292.0,0.7695278255,1.8380604095,9.794489753999999,-0.12955229971703508,0.8765095863393083,-2.029974999702085,9.99513224947029,2.214915653636083,0.24300878699999995,0.17838296350000005,0.12454445499999878
129302.0,1.016165073,2.0559641725,9.853133520999998,-0.18204656762926855,0.9580461330047274,-1.9495031038803823,10.116512260499789,2.1798063441026487,0.24663724750000005,0.21790376300000003,0.058643766999999514
129312.0,1.12384209,2.1038206245,9.906972029499999,-0.21268931330653298,0.9908216710279288,-1.8056129243582135,10.19005284856867,2.070556051012095,0.10767701699999987,0.047856451999999994,0.05383850850000016
129322.0,1.1274705505,1.9745689775,9.9883672245,-0.21428803490135978,0.9793635844885861,-1.6350768031458478,10.24390512942286,1.9179542603278796,0.003628460500000097,-0.12925164700000003,0.0813951950000007
129332.0,0.9646801604999999,1.6943929869999999,9.974049515499999,-0.21402099952580464,0.9066182612654624,-1.4781315608187617,10.162836176191313,1.7471790323222585,-0.16279039000000006,-0.2801759905000001,-0.014317709000000178
129342.0,0.6989199454999999,1.5040459105,9.8040022045,-0.21535443107432833,0.7739208782363336,-1.3608873229867906,9.943294344277975,1.5802991370685484,-0.265760215,-0.19034707649999993,-0.17004731099999937
129352.0,0.5014140145,1.3340966659999998,9.666316838499998,-0.16819039869768557,0.5975221960665187,-1.2849463019032652,9.770819369450953,1.4270276044215537,-0.1975059309999999,-0.16994924450000015,-0.13768536600000125
129362.0,0.35529492949999997,1.2742761009999999,9.4652805135,-0.060006165012817046,0.42192462002336917,-1.2492403560659653,9.557277293651733,1.3199327983065008,-0.14611908500000004,-0.05982056499999988,-0.20103632499999868
129372.0,0.31940259049999997,1.3400787225,9.200697096499999,0.06789505323183141,0.33585719861977287,-1.2657598974360917,9.303260506879234,1.3113191503503256,-0.035892338999999995,0.06580262150000005,-0.26458341700000076
129382.0,0.49180349749999996,1.3640069485,9.0414371005,0.14996567064836078,0.3963433291768883,-1.3363724283132783,9.156962950564305,1.4019518551333923,0.172400907,0.023928225999999997,-0.1592599959999994
129392.0,0.716866115,1.5220901464999999,8.913362251499999,0.14836694905353395,0.5905949842653532,-1.4197747319490792,9.070759729337599,1.5448545162868659,0.2250626175,0.15808319799999992,-0.12807484900000077
129402.0,0.9766442734999999,1.844042466,8.945724196499999,0.08121889674155613,0.8879659275493991,-1.476532839223935,9.185875464713053,1.7248852782093291,0.25977815849999997,0.32195231950000025,0.03236194499999989
129412.0,1.1143296395,2.1481466824999997,9.200697096499999,-0.009644689446520664,1.2066560676465559,-1.472534289907616,9.5136266363857,1.9038038555945032,0.13768536600000003,0.30410421649999964,0.2549729000000003
129422.0,1.1035423245,2.4054731785,9.622088847,-0.07466169474181343,1.4267543036278045,-1.3968603041996457,9.979413843207803,1.9981043318683105,-0.010787314999999964,0.2573264960000001,0.42139175050000155
129432.0,0.9982189035,2.5204071165,10.200288931,-0.07865849872888045,1.4765817084429906,-1.2652275720142334,10.554372898855227,1.9460939109189297,-0.10532342100000003,0.11493393800000007,0.5782000839999988
129442.0,0.720396509,2.5551226574999997,10.742596676,-0.029363419335552598,1.3604038667839882,-1.1090799451553086,11.065758278051057,1.755454133807433,-0.2778223945,0.03471554099999974,0.5423077450000005
129452.0,0.5348546909999999,2.338493759,11.2393034985,0.061767202228079326,1.072358217693348,-0.9686542441983489,11.492456905847462,1.446394959590572,-0.18554181800000003,-0.21662889849999978,0.4967068225000002
129462.0,0.33734875999999997,2.1469698845,11.514674230499999,0.18034312627932209,0.6849230490186388,-0.8599376850916222,11.717977918794872,1.114062856626109,-0.19750593099999997,-0.19152387450000008,0.27537073199999895
129472.0,0.22123802399999998,1.9900634844999998,11.5517433675,0.2805320066608046,0.25591762821992853,-0.7842619540544,11.723995639891033,0.8713546073626266,-0.11611073599999999,-0.1569064,0.03706913700000136
129482.0,0.164947853,1.9086682894999998,11.256072869999999,0.3514115729135463,-0.13871353296075334,-0.728571988281765,11.417941972540506,0.820700115701753,-0.05629017099999997,-0.08139519500000003,-0.2956704975000015
129492.0,0.2117255735,1.8895453219999998,10.784471071499999,0.414297531192154,-0.4304889506629053,-0.6896685992548113,10.950800223471632,0.9124724422100958,0.04677772050000001,-0.019122967499999977,-0.47160179850000006
129502.0,0.324207849,1.8812096694999998,10.2301992135,0.45266684946799735,-0.5797093657206646,-0.661156900594232,10.406778391888123,0.9889887120260317,0.11248227549999998,-0.008335652500000013,-0.5542718579999981
129512.0,0.4821929805,1.8931737825,9.7202534135,0.43667963351972927,-0.5589242396586641,-0.6369090412962747,9.914632795209677,0.9532777847479089,0.1579851315,0.01196411300000011,-0.5099458000000006
129522.0,0.5935965245,1.9159252104999998,9.2246253225,0.36366902025030245,-0.3889221891974084,-0.6073309464627268,9.440171533750654,0.8076920849378376,0.11140354400000002,0.02275142799999985,-0.4956280910000004
129532.0,0.5935965245,1.911119952,8.974457680999999,0.26587822226106017,-0.11846247764986312,-0.5652301142461196,9.194869600646376,0.635774857740008,0.0,-0.004805258499999798,-0.2501676415000009
129542.0,0.542111612,1.8021680704999998,9.010350019999999,0.18354056946897568,0.17198125383301724,-0.5148686386798232,9.20478691970156,0.5730221700833109,-0.05148491249999998,-0.10895188150000013,0.035892339000000106
129552.0,0.29312076849999996,1.7111623585,9.216289669999998,0.14090566650125821,0.4024711801806404,-0.45731291593680623,9.378378947527231,0.6252779868272876,-0.24899084350000006,-0.09100571199999985,0.20593964999999947
129562.0,0.038049802,1.6046621394999998,9.495190796,0.1494333452265025,0.5031941313132332,-0.39389463223634025,9.629903250906525,0.6562679633794904,-0.25507096649999994,-0.10650021900000017,0.27890112600000094
129572.0,-0.22888721099999998,1.4334380304999998,9.77526872,0.2155167466947638,0.47228435026041354,-0.3291446623166026,9.88245984008301,0.6146838084237345,-0.266937013,-0.17122410899999996,0.2800779240000004
129582.0,-0.5280881024999999,1.438243289,9.9871904265,0.325032666598904,0.3427844104209383,-0.27558574356065263,10.104028573669456,0.5468956833235223,-0.29920089149999995,0.004805258500000242,0.21192170650000008
129592.0,-0.7699200915,1.4837461449999998,10.250498979,0.4587964458010014,0.16798444984595023,-0.2502714880897269,10.385904336579351,0.5489524312910218,-0.24183198900000002,0.0455028559999997,0.26330855249999985
129602.0,-0.925551627,1.4669767734999999,10.481543653000001,0.577105334476689,-0.01107760476240801,-0.2595985276123846,10.62409638595092,0.6329017901280113,-0.15563153550000008,-0.016769371499999908,0.2310446740000014
129612.0,-1.041662363,1.4513842,10.6240342775,0.6463861791346039,-0.15683354125495846,-0.2915729595089207,10.773192697802974,0.7262414494888003,-0.11611073599999988,-0.015592573499999984,0.14249062449999883
129622.0,-1.0225393955,1.5076743709999998,10.616875422999998,0.6586436264713601,-0.25915346865312605,-0.3499280430493511,10.772033817799734,0.7895705049700374,0.019122967499999977,0.05629017099999989,-0.0071588545000018655
129632.0,-0.933985346,1.5435667100000001,10.525869710999999,0.6176074450984694,-0.29725924221191824,-0.4186765622854077,10.679366085480456,0.8031762428810938,0.0885540494999999,0.03589233900000033,-0.0910057119999994
129642.0,-0.8466080945,1.6429080745,10.396618064,0.5480613103942513,-0.2639513787668584,-0.4719684456658026,10.559619281755444,0.7699322983277056,0.08737725150000009,0.09934136449999986,-0.12925164699999847
