timestamp,ax,ay,az,gx,gy,gz,acc_mag,gyro_mag,dax,day,daz
181762.0,0.23330020349999997,0.25732649599999996,9.915307682,-0.011245156370599465,-0.10548944531978928,0.05963790054064624,9.921389637506683,0.12170109201059807,0.0,0.0,0.0
181772.0,0.5541737914999999,0.05619210449999999,10.054169845999999,-0.024568999880324176,-0.15665028168349907,0.05084318643984682,10.069587749059504,0.16651719464966971,0.32087358799999993,-0.20113439149999995,0.13886216399999896
181782.0,0.548191735,0.045502855999999994,10.079274869999999,-0.02323556833180051,-0.1467909167389831,0.036721727461960695,10.094273950772287,0.15308804702054093,-0.005982056499999944,-0.010689248499999998,0.025105024000000142
181792.0,0.42727574049999995,0.281254722,9.994349280999998,-0.018706438922875226,-0.1414624265326444,0.01913578991886583,10.00743155498414,0.1439712729453277,-0.12091599450000001,0.23575186600000003,-0.08492558900000091
181802.0,0.4727785965,0.24418558499999998,9.95963374,-0.026167721475150986,-0.10975328468241143,0.009541715020653,9.973838300081702,0.1132324046875049,0.045502856000000036,-0.03706913700000003,-0.03471554099999885
181812.0,0.457186023,0.18554181799999997,10.007490192,-0.03709173726338349,-0.07031582490434755,-0.004846779332788253,10.019645940292977,0.07964674177325447,-0.015592573499999984,-0.05864376700000001,0.047856452000001326
181822.0,0.338721691,0.22976980949999998,10.0805497345,-0.05334598858720668,-0.047399651825662005,-0.025630160065536728,10.088855708108802,0.07582497343570523,-0.118464332,0.04422799150000001,0.07305954249999935
181832.0,0.19142580799999998,0.3052810145,10.170280582,-0.07173303225696695,-0.060723495335386714,-0.04827929776866714,10.176661901350013,0.10565917563355026,-0.14729588300000002,0.07551120500000003,0.08973084750000027
181842.0,0.1016949605,0.3219523195,10.230101147,-0.0861215266104082,-0.10469008452237588,-0.07412762399070318,10.235671186535509,0.15450513189378703,-0.08973084749999997,0.01667130499999997,0.05982056499999899
181852.0,0.08492558899999998,0.338721691,10.275604003,-0.09837897394716438,-0.15958068949759754,-0.09890780871051866,10.281535992549484,0.21196031137772475,-0.01676937150000002,0.01676937150000002,0.04550285600000059
181862.0,0.0716866115,0.44414317849999996,10.233729607499999,-0.10637258192129839,-0.2038143140601418,-0.10823484823317635,10.243613806303834,0.25410663740341016,-0.013238977499999985,0.10542148749999997,-0.041874395500000716
181872.0,0.06099736299999999,0.43570945949999995,10.177439436499998,-0.11623194686581437,-0.22886153415551244,-0.09571036552086504,10.18694443368649,0.27394879331066574,-0.010689248500000005,-0.008433719000000006,-0.056290171000000555
181882.0,-0.028831550999999997,0.34715541,10.1380167035,-0.11863002925805458,-0.22113321622768156,-0.0751922748344197,10.143999744551966,0.2619672906218262,-0.08982891399999998,-0.08855404949999995,-0.039422732999998544
181892.0,-0.19642719949999998,0.26330855249999996,10.103301162500001,-0.11116874670577882,-0.20461367485755522,-0.060536745105423326,10.108640334817386,0.2406032911055165,-0.16759564849999997,-0.08384685750000004,-0.03471554099999885
181902.0,-0.3831458155,0.14837461449999997,10.159493266999998,-0.0970455423986407,-0.19688535692972434,-0.06213546670025012,10.167798148290586,0.22812824747244523,-0.186718616,-0.11493393799999999,0.05619210449999734
181912.0,-0.5112206645,0.0310870805,10.250498979,-0.07812791863627416,-0.20967687501759077,-0.08691739674931762,10.263286135194022,0.24004790656295452,-0.12807484900000005,-0.11728753399999997,0.09100571200000118
181922.0,-0.6369419175,0.007158854499999999,10.3355226345,-0.05920854954465563,-0.2309925811721975,-0.1335473583748501,10.355132755485473,0.27330957141065665,-0.12572125299999992,-0.023928226,0.08502365550000057
181932.0,-0.6812679755,0.07178467799999999,10.450456572499998,-0.05361302396276182,-0.2464474716986073,-0.19137011649342225,10.472885068983897,0.31659632678187144,-0.044326058,0.06462582349999998,0.11493393799999829
181942.0,-0.6345883215,0.1664188505,10.493507766,-0.06560343592396285,-0.24538282085489077,-0.24306327827899032,10.513995568131472,0.3515626499266707,0.04667965399999996,0.0946341725,0.04305119350000197
181952.0,-0.653711289,0.312439869,10.618052221,-0.09011833059747522,-0.2363228167077882,-0.27983562028925885,10.642743541445965,0.377197244938312,-0.019122967499999977,0.1460210185,0.12454445499999878
181962.0,-0.6704806605,0.46679654,10.6395287845,-0.11543258606840097,-0.23179194196961092,-0.29795562858346397,10.67084889228896,0.3947527617294772,-0.01676937150000002,0.154356671,0.021476563500000267
181972.0,-0.687250032,0.5984998495,10.677872786,-0.13781468839597624,-0.22113321622768156,-0.29635690698863715,10.716691742806402,0.39461399364030453,-0.01676937150000002,0.13170330950000003,0.0383440015000005
181982.0,-0.7387349444999999,0.6200744794999999,10.680226381999999,-0.16019853605280351,-0.2144730398020712,-0.28063498108667223,10.723686737737232,0.3878379150688069,-0.05148491249999987,0.021574629999999928,0.0023535959999989586
181992.0,-0.7590347099999999,0.612915625,10.6742443255,-0.18631215232114268,-0.20248088251161817,-0.2585181688054001,10.718735521264758,0.3775478373500737,-0.02029976550000001,-0.007158854499999978,-0.0059820564999988335
182002.0,-0.8583760744999999,0.5674127689999999,10.5893187365,-0.2158885018254386,-0.18596134114149182,-0.23853414887006502,10.639193486298113,0.37160194536188995,-0.09934136449999997,-0.045502856000000036,-0.08492558900000091
182012.0,-1.0093004179999998,0.5302455655,10.4767383945,-0.2438678750641597,-0.16890772902025522,-0.23267158791261605,10.538590754000168,0.3770111791881864,-0.15092434349999995,-0.03716720349999991,-0.11258034199999933
182022.0,-1.081085096,0.4608144834999999,10.410935773,-0.26065445180984115,-0.15185411689901862,-0.24892583923643924,10.477054864919236,0.39110674950329766,-0.07178467800000021,-0.06943108200000009,-0.0658026214999996
182032.0,-1.139728863,0.432080999,10.3486635455,-0.2579893340420458,-0.14119539115708926,-0.2838324242763258,10.420197361317717,0.4087242102372185,-0.05864376699999996,-0.028733484499999906,-0.062272227500001165
182042.0,-1.1337468065,0.427373807,10.274427205,-0.24599892208084476,-0.1236094536139944,-0.3288654096362836,10.345621517482781,0.4288906904363026,0.005982056499999944,-0.004707192000000027,-0.07423634049999883
182052.0,-1.081085096,0.395011862,10.1870499535,-0.2369389179337422,-0.10469008452237588,-0.36776879866323714,10.251866469624856,0.4498376972854937,0.052661710500000014,-0.032361945,-0.08737725149999953
182062.0,-1.0392107005,0.30165255399999996,10.141547097499998,-0.23747124335560046,-0.0895022293715212,-0.3997432305597733,10.199114210272334,0.4734953968748707,0.04187439550000005,-0.09335930800000003,-0.04550285600000237
182072.0,-1.0128308119999998,0.177108099,10.0817265325,-0.24360083968860455,-0.07857646825403672,-0.43278580395852995,10.13402207460505,0.502811279277128,0.02637988850000017,-0.12454445499999997,-0.05982056499999899
182082.0,-0.9518334489999999,0.09453610599999998,10.041028935,-0.24546659665898649,-0.0644532639468986,-0.48101448717888917,10.08648531766542,0.5438593661827695,0.060997362999999916,-0.08257199300000001,-0.04069759749999946
182092.0,-0.8656329955,0.046679654,10.009843788,-0.24573188670528964,-0.05406157358052436,-0.5345734059348392,10.047311686872167,0.5908261505845168,0.08620045349999994,-0.04785645199999998,-0.031185147000000413
182102.0,-0.6980373469999999,0.047856451999999994,9.971597853,-0.25452485547683706,-0.05113116576642588,-0.5870676738470726,9.996114751230053,0.6419078998145694,0.16759564850000008,0.0011767979999999928,-0.038245934999999065
182112.0,-0.42747187349999993,0.09698776849999999,9.902166771000001,-0.2601221263879829,-0.04153883619746504,-0.6312995530803649,9.911863880752641,0.6840527181940833,0.27056547349999993,0.049131316499999994,-0.06943108199999948
182122.0,-0.235947999,0.22623941549999999,9.8877509955,-0.25026276144346693,-0.02501754949808672,-0.645422757387503,9.89315295951544,0.6926960829266225,0.19152387449999994,0.129251647,-0.014415775500001615
182132.0,-0.10061622899999999,0.39981712049999996,9.8387177455,-0.23081106692999012,-0.004499458811641381,-0.6363627532404006,9.847352143139783,0.6769427948199619,0.13533177000000002,0.17357770499999997,-0.04903324999999903
182142.0,0.019024901,0.465619742,9.817143115499999,-0.22308274900215924,0.01841496893779217,-0.6107814623939196,9.828197324087832,0.6505067400015124,0.11964112999999998,0.06580262150000005,-0.021574630000001704
182152.0,0.052563644,0.4165864919999999,9.756047685999999,-0.23454083554150199,0.045862016754655,-0.587867034644486,9.76507929785997,0.6345867777845765,0.033538742999999996,-0.049033250000000084,-0.06109542949999991
182162.0,0.04893518349999999,0.28370638449999996,9.697403919,-0.2555912516498056,0.07943517024601793,-0.5804057520922103,9.70167649084563,0.6391460484534442,-0.0036284605000000067,-0.13288010749999996,-0.058643766999999514
182172.0,0.032263878499999996,-0.023928225999999997,9.63993695,-0.26838102440842004,0.11141134747180603,-0.601456168200514,9.640020638869538,0.6679748385039974,-0.016671304999999997,-0.30763461049999996,-0.057466969000000034
182182.0,0.035794272499999995,-0.241831989,9.598062554499998,-0.26518358121876645,0.1265992026226607,-0.6680718950906336,9.60117538330295,0.7298422753326188,0.003530393999999999,-0.217903763,-0.041874395500000716
182192.0,0.10404855649999999,-0.29812215999999997,9.575311126499999,-0.24120275729636437,0.11327710444218798,-0.7586684459031551,9.58051596176675,0.8041071342347883,0.068254284,-0.05629017099999997,-0.022751427999999407
182202.0,0.2752726655,-0.17720616549999998,9.5382419895,-0.20070064667458393,0.08210028801381326,-0.8508654636397556,9.543858617756426,0.8780622096881538,0.171224109,0.12091599449999998,-0.037069136999999586
182212.0,0.48827310349999997,-0.014415775499999998,9.596885756499999,-0.15726638290945305,0.06851115445778541,-0.9265394493477257,9.609309791108691,0.9422854369436832,0.21300043799999996,0.16279038999999998,0.058643766999999514
182222.0,0.6965663495,0.15082627699999998,9.7237838075,-0.15300428887608292,0.0831666841867818,-0.9811647642766442,9.749867936546044,0.996499525554901,0.208293246,0.1652420525,0.1268980510000013
182232.0,0.8534727495,0.25497289999999995,9.8051790025,-0.20682849767833603,0.1002202963080184,-1.0325926360159092,9.845555453347485,1.0578609016303744,0.1569064,0.10414662299999997,0.08139519499999892
182242.0,1.0749069064999999,0.24653918099999997,9.751340493999999,-0.29183126823821587,0.10847919432845556,-1.07549282902993,9.813503342605722,1.1196508607679798,0.2214341569999999,-0.008433718999999978,-0.05383850850000016
182252.0,1.3131104349999998,0.23820352849999998,9.580116385,-0.36564124230505607,0.10288366874656174,-1.0866838801937175,9.672622699435827,1.151156124442732,0.23820352849999993,-0.008335652499999985,-0.17122410899999885
182262.0,1.5381730525,0.25732649599999996,9.3083741135,-0.3960169526067654,0.0770370878537777,-1.0682985818532091,9.43811537871082,1.1419395779315635,0.22506261750000012,0.019122967499999977,-0.27174227150000085
182272.0,1.6793888125,0.2705654735,9.0892935525,-0.37283548948177664,0.03973242042165091,-1.0245990280417752,9.247097368499938,1.0910490986723875,0.14121576000000013,0.013238977500000026,-0.21908056100000017
182282.0,1.7919691544999998,0.21064684199999997,9.010350019999999,-0.29822615461752305,-0.0010367255756846318,-0.9691743523154432,9.189229185608442,1.01402112368724,0.11258034199999978,-0.059918631500000014,-0.0789435325000003
182292.0,1.912885149,0.11611073599999999,9.0210392685,-0.21402274485505668,-0.027947957312185197,-0.9193452021710051,9.222351152504345,0.9443423237301518,0.12091599450000023,-0.09453610599999998,0.010689248500000303
182302.0,2.005067659,0.035892338999999995,9.058206471999998,-0.15247021812497266,-0.039940114602638244,-0.8849726878822287,9.27753679952547,0.8988987921156893,0.09218250999999977,-0.080218397,0.037167203499999246
182312.0,2.078029135,-0.020397831999999998,9.152742578,-0.12289386862067672,-0.030346039704425405,-0.86365523639837,9.385697515720034,0.8728826681912197,0.07296147600000014,-0.05629017099999999,0.0945361060000014
182322.0,2.11039108,-0.1424906245,9.1563710385,-0.1226268332451216,0.005625196179177724,-0.8599254677868582,9.397509493652855,0.8686430758442895,0.03236194499999989,-0.12209279249999999,0.003628460499999875
182332.0,2.2085556465,-0.2944936995,9.165883489,-0.1468746925430788,0.057852428715856045,-0.8769790799080948,9.432807891431642,0.891073165017551,0.09816456649999994,-0.152003075,0.009512450500000824
182342.0,2.3175075279999997,-0.404622379,9.179122466499999,-0.17725214817404011,0.1180732692266684,-0.8990941468601149,9.475803378443926,0.9239750569448848,0.1089518814999999,-0.11012867949999999,0.013238977499998583
182352.0,2.4851031765,-0.484840776,9.197068636,-0.2065632076320329,0.15884066989475193,-0.9217432845632453,9.539228473583048,0.9578671096750778,0.1675956485000003,-0.080218397,0.017946169500000053
182362.0,2.6155316214999997,-0.4932744949999999,9.2246253225,-0.22414914517512777,0.16870003483926793,-0.933201371102588,9.60093941919186,0.9744574593409714,0.13042844499999973,-0.00843371899999995,0.027556686500000538
182372.0,2.7269351654999996,-0.401091985,9.197068636,-0.22468147059698604,0.12793263417118436,-0.9220103199388004,9.60120417825632,0.9575758728107405,0.11140354399999985,0.09218250999999994,-0.027556686500000538
182382.0,2.8585404085,-0.28615804699999997,9.2293325145,-0.20070064667458393,0.06904347987964368,-0.8881701310718824,9.666111853175355,0.9131779308643697,0.13160524300000054,0.11493393800000001,0.03226387850000023
182392.0,2.850204756,-0.25742456249999995,9.2389430315,-0.14420957477528348,0.01281944335589835,-0.8348765023622355,9.672021655052564,0.8473367180651521,-0.008335652500000013,0.028733484500000017,0.009610517000000485
182402.0,2.8298069239999997,-0.277724328,9.331125541499999,-0.08585449123485307,-0.026083945671055254,-0.7842497367496359,9.75473433265689,0.7893662112599191,-0.02039783200000045,-0.020299765500000067,0.09218250999999889
182412.0,2.8693277235,-0.3627479835,9.4329185685,-0.058941514169100505,-0.03514394981815782,-0.7546716419160882,9.866335713137431,0.7577852508552089,0.039520799500000425,-0.08502365549999996,0.10179302700000115
182422.0,2.874132982,-0.4106044355,9.539418787499999,-0.06480407512654945,-0.02741563189032693,-0.7421489045330287,9.971446595353175,0.7454771502363624,0.004805258499999798,-0.047856451999999994,0.10650021899999906
182432.0,2.9005128704999996,-0.380694153,9.6208139825,-0.07812791863627416,-0.0271485965147718,-0.7397508221407886,10.055742868427576,0.7443603272751247,0.026379888499999726,0.029910282499999996,0.0813951950000007
182442.0,2.9603334355,-0.308909475,9.6759273555,-0.08292408342075458,-0.035676275240016084,-0.7338882611833396,10.123367488242105,0.7394194886049997,0.059820565000000325,0.07178467799999999,0.055113373000001076
182452.0,2.987890122,-0.1760293675,9.8040022045,-0.08212472262334118,-0.061789891508355246,-0.7173669744839614,10.250704021929835,0.7246915459965347,0.027556686500000094,0.13288010749999998,0.128074848999999
182462.0,2.966315492,-0.0646258235,9.904520367,-0.08745321282967987,-0.09110095096634802,-0.684858471836315,10.339377534235805,0.6964040308234717,-0.021574629999999928,0.11140354400000001,0.10051816250000023
182472.0,2.9364052094999997,-0.019221033999999998,9.894909849999998,-0.105573221123885,-0.1236094536139944,-0.6515506083912551,10.321438172180937,0.6715230430418881,-0.029910282500000385,0.0454047895,-0.009610517000002261
182482.0,2.8968844099999997,0.0538385085,9.843523004,-0.13168683739222414,-0.154519234666814,-0.6073187291579628,10.261080985947618,0.6403543205214024,-0.03952079949999998,0.07305954249999999,-0.05138684599999799
182492.0,2.8550100145,0.13288010749999998,9.7261374035,-0.1554023712683231,-0.18569430576593668,-0.5542921358238712,10.13738073161042,0.6048735768951226,-0.04187439549999983,0.07904159899999999,-0.11738560050000046
182502.0,2.825099732,0.13042844499999998,9.589726901999999,-0.1716566225921463,-0.20781111804720884,-0.4932719345156454,9.998052916941083,0.5621108949705392,-0.02991028249999994,-0.002451662500000007,-0.13641050150000034
182512.0,2.7987198435,0.035892338999999995,9.4017334215,-0.1692585401999061,-0.21127559661241757,-0.42772260379849436,9.809521514903244,0.5061940902012784,-0.02637988850000017,-0.09453610599999998,-0.18799348049999942
182522.0,2.6814323095,-0.005982056499999999,9.2389430315,-0.1468746925430788,-0.1934226236937676,-0.3659030416928552,9.620196638049187,0.43916912754232634,-0.11728753399999992,-0.041874395499999995,-0.16279038999999962
182532.0,2.5580646525,-0.136508568,9.210209547,-0.1188970646336097,-0.16224580726539287,-0.3184737192699093,9.5598268423208,0.37667721436170887,-0.12336765699999974,-0.1305265115,-0.028733484500000017
182542.0,2.4168488925,-0.21427530250000001,9.262871257499999,-0.09065065601933349,-0.13639922637260884,-0.28303306347891244,9.575377611742502,0.3270015373267224,-0.14121576000000013,-0.07776673450000002,0.052661710499998904
182552.0,2.2564120985,-0.20113439149999998,9.353876969499998,-0.06240599273430925,-0.12307538286288414,-0.2625149727924671,9.624285166299039,0.29657405270223813,-0.16043679400000022,0.013140911000000033,0.0910057119999994
182562.0,2.216891299,-0.14964947899999997,9.438900625,-0.03309493327631648,-0.1345334694022269,-0.24572839604678565,9.696898834512623,0.2820939092247291,-0.03952079949999998,0.05148491250000001,0.08502365550000235
182572.0,2.1702116449999997,-0.07541313849999999,9.560993417499999,-0.008314748556500986,-0.14279411275191606,-0.21321989339913927,9.804493911213894,0.2567528317688143,-0.04667965400000007,0.07423634049999998,0.12209279249999838
182582.0,2.0541009089999998,0.003530394,9.624442443,0.0034103733583969197,-0.13693155179446712,-0.17325010819921713,9.841200909780078,0.22085624400121662,-0.11611073599999999,0.0789435325,0.06344902550000064
182592.0,1.9786877704999999,-0.044326057999999995,9.643565410499999,0.00394269878025519,-0.126806896803648,-0.14474015486788974,9.844568244424744,0.1924714170515289,-0.07541313849999987,-0.047856451999999994,0.019122967499999532
182602.0,1.879346406,-0.0155925735,9.717801751,-0.0016528268016386303,-0.10469008452237588,-0.12741950737109803,9.89787133245488,0.16491960614927423,-0.09934136449999986,0.028733484499999996,0.07423634050000061
182612.0,1.843454067,-0.0946341725,9.812337857,-0.006448991586119048,-0.08124158602183205,-0.1178271778021372,9.984450547909931,0.14326558770562114,-0.035892339000000106,-0.079041599,0.09453610599999962
182622.0,1.823056235,-0.1209159945,9.969146190499998,-0.014442599560253077,-0.0753790250643831,-0.11676078162916864,10.135187737839834,0.13972711343318134,-0.020397832000000005,-0.026281821999999996,0.156808333499999
182632.0,1.8170741785,-0.1340569055,10.100849499999999,-0.02643301152145412,-0.09056688021523775,-0.11596142083175524,10.263863329455138,0.14949285939914986,-0.005982056499999944,-0.013140910999999991,0.13170330950000064
182642.0,1.8099153239999999,-0.08865211599999999,10.0732928135,-0.04641877678604119,-0.1297373046177465,-0.11356333843951505,10.23498318436489,0.17855840188946054,-0.007158854500000089,0.0454047895,-0.02755668649999876
182652.0,1.879346406,-0.049131316499999994,10.0026849335,-0.0504155807731082,-0.1539851639157037,-0.10290461269758566,10.17782209899908,0.19194405644686174,0.06943108200000014,0.039520799499999995,-0.07060788000000073
182662.0,1.8338435499999999,0.0538385085,9.9309002555,-0.041887902047863905,-0.15585092088608565,-0.06906442383066762,10.098943540567204,0.17553917089377646,-0.04550285600000015,0.10296982499999999,-0.07178467800000021
182672.0,1.7931459525,0.04903325,9.917661277999999,-0.044553019815659255,-0.14519219514415627,-0.027228881660363535,10.07858035100744,0.15429568076244832,-0.040697597499999905,-0.0048052584999999995,-0.01323897750000036
182682.0,1.693804588,-0.0479545185,9.939235907999999,-0.057342792574273695,-0.1414624265326444,0.004745550236172582,10.082642711762178,0.15271651589714857,-0.09934136449999986,-0.0969877685,0.021574629999999928
182692.0,1.55729602,-0.13288010749999998,9.983561966,-0.058941514169100505,-0.1547845247131171,0.02153387231110604,10.105163904946759,0.1670211329141401,-0.13650856800000022,-0.08492558899999998,0.04432605800000111
182702.0,1.4962986569999999,-0.216726965,10.007490192,-0.04268726284527732,-0.19075750592597226,0.023132593905932843,10.12105430235775,0.196839389800761,-0.06099736300000003,-0.08384685750000001,0.023928226000000663
182712.0,1.4699187685,-0.29567049749999996,9.9679693925,-0.022970278285497372,-0.22832920873365417,0.01913578991886583,10.080103969647203,0.23027817895160793,-0.02637988849999995,-0.07894353249999997,-0.03952079949999998
182722.0,1.4699187685,-0.336368095,9.950023223,-0.01977283509584376,-0.24351706388450883,0.006344271830999388,10.06363586481356,0.24440084941694656,0.0,-0.040697597500000016,-0.017946169500000053
182732.0,1.5321909959999997,-0.3256788465,9.9093256255,-0.042421972798974174,-0.22166728697879182,-0.013906783479890817,10.032368130779092,0.22611812956826685,0.06227222749999983,0.01068924849999997,-0.04069759750000124
182742.0,1.5524907614999999,-0.336368095,9.891379456,-0.08239175799889631,-0.16917301906655838,-0.03815464277784804,10.018121510665342,0.1919991899247182,0.020299765500000122,-0.01068924849999997,-0.017946169500000053
