timestamp,ax,ay,az,gx,gy,gz,acc_mag,gyro_mag,dax,day,daz
146862.0,-1.6019162774999998,1.3161504965,10.033870080499998,0.16675399272329422,-0.2191854287824559,0.04949928291581118,10.245825329465152,0.27982016597966813,0.0,0.0,0.0
146872.0,-1.569652399,1.204845019,10.140370299499999,0.1473022982098174,-0.2191854287824559,0.04630183972615756,10.331629589976465,0.26811206539518095,0.03226387849999979,-0.11130547749999997,0.10650021900000084
146882.0,-1.7132217549999997,1.2251447844999999,9.969244257,0.08281761833638293,-0.11180055589500078,0.03324503159198799,10.189305156904483,0.1430501811634444,-0.14356935599999976,0.0202997654999999,-0.1711260424999992
146892.0,-1.804227467,1.2730012365,10.030241619999998,-0.007513642429835588,0.04514643176133732,-0.006457718232379019,10.270419458638871,0.04622074478103218,-0.0910057120000003,0.047856452000000216,0.06099736299999847
146902.0,-1.9000384375,1.33174307,10.142821962000001,-0.10530444041907787,0.2082212704214275,-0.05069134279492331,10.404831715184057,0.23877758450541536,-0.09581097049999987,0.05874183349999984,0.11258034200000289
146912.0,-1.9359307765,1.2442677519999998,10.303258756,-0.21641908191804488,0.3142727117603589,-0.07573856289029393,10.557138400303261,0.38902555993680676,-0.035892339000000106,-0.08747531800000008,0.16043679399999888
146922.0,-2.0663592215,1.126980218,10.422899886,-0.3096807504983619,0.34544952818873365,-0.07147472352767179,10.685352913105875,0.46941045989454105,-0.13042844499999995,-0.11728753399999992,0.11964112999999976
146932.0,-2.2686704109999996,1.0994235315,10.5127288,-0.3408575669267365,0.3121416647436739,-0.056019833001262,10.810784631917901,0.46556902977931863,-0.2023111894999996,-0.027556686499999872,0.08982891399999993
146942.0,-2.511679198,1.024010393,10.582159882,-0.29635865231788916,0.21621487839556153,-0.05229006438975011,10.92424997182178,0.37055576540807883,-0.2430087870000004,-0.07541313850000009,0.06943108199999948
146952.0,-2.763121704,1.0419565625,10.6456089075,-0.1924382579956428,0.06939429105929454,-0.06987600193284497,11.047601732534352,0.21617286235357716,-0.25144250600000007,0.017946169500000053,0.06344902550000064
146962.0,-3.0109357495,1.146201252,10.7173935855,-0.046417031456789194,-0.08675333579963014,-0.09732130442045582,11.191158861539765,0.13839117882192845,-0.2478140455000002,0.10424468949999999,0.07178467800000021
146972.0,-3.1953007694999997,1.3030095855,10.8658662665,0.1121286777943757,-0.24396561350227136,-0.1221032344695233,11.40065045113369,0.29495976136309504,-0.18436501999999955,0.1568083334999999,0.14847268099999944
146982.0,-3.307783045,1.474135628,10.974818147999999,0.23869820981975248,-0.38972154999482184,-0.13702579957407482,11.556865401318756,0.47711192780147044,-0.11248227550000012,0.17112604250000008,0.10895188149999946
146992.0,-3.3102347075,1.587892768,11.0753363105,0.2957216071409112,-0.5082974740460646,-0.1484821407841656,11.667996042683768,0.606518373327191,-0.0024516624999999515,0.11375713999999992,0.10051816250000023
147002.0,-3.2898368755,1.6536953895,11.056213343,0.28293183438229674,-0.5834391343321765,-0.16393703131057535,11.653222240847565,0.6688250867096235,0.020397832000000005,0.06580262150000005,-0.019122967499999532
147012.0,-3.29699573,1.8380604095,10.971189687499999,0.20912011498620459,-0.6140818800094409,-0.17939192183698516,11.602398462029988,0.6730596106350014,-0.007158854500000089,0.18436502,-0.08502365550000057
147022.0,-3.2778727625,1.8619886355,10.723375641999999,0.09054419093496183,-0.6050218758623384,-0.20124169874270217,11.366716178620342,0.6440092717476187,0.019122967499999977,0.023928225999999997,-0.2478140455000002
147032.0,-3.214423737,1.7794166425,10.5055699455,-0.047481682300505736,-0.5392072550988841,-0.2262906641673248,11.129503287586013,0.5866910931611696,0.06344902549999976,-0.08257199299999995,-0.21780569649999926
147042.0,-3.374860531,1.8632635,10.2290224155,-0.1724542380603077,-0.437684943168878,-0.24547532330524646,10.931346396987669,0.5306285970935986,-0.16043679399999977,0.08384685749999998,-0.2765475300000002
147052.0,-3.4718482995,1.7973628119999998,10.0230827655,-0.2579875887127938,-0.3196413445394935,-0.26999021797875883,10.758551566859023,0.4915515261628983,-0.09698776850000002,-0.06590068800000015,-0.20593964999999947
147062.0,-3.6213997119999997,1.750683158,9.942864368499999,-0.2990237700856845,-0.18827564772963631,-0.30622848923791707,10.725669174655977,0.4675883042006157,-0.1495514124999997,-0.04667965399999985,-0.08021839700000122
147072.0,-3.8572496445,1.7973628119999998,9.933351918,-0.3107471466713304,-0.06836803745912187,-0.35339252161455986,10.806496574967772,0.4755252380720527,-0.2358499325000003,0.04667965399999985,-0.009512450499999048
147082.0,-4.047596721,1.8260962964999998,10.0781961385,-0.3022212132753381,0.004110250388446646,-0.4056197541512382,11.0130697040388,0.5058477447509122,-0.1903470764999997,0.028733484500000017,0.14484422049999957
147092.0,-4.1218330615,1.761470473,10.304435554,-0.2678469536573098,0.022762584104510045,-0.45864460215607794,11.237156139373724,0.531615459618626,-0.07423634050000061,-0.0646258234999999,0.22623941550000026
147102.0,-4.152920142,1.58671597,10.503118283000001,-0.24093397659155724,-0.025733134491404394,-0.5100724738953428,11.405257863896425,0.5646993039775142,-0.031087080499999864,-0.17475450299999995,0.1986827290000015
147112.0,-4.206856716999999,1.498063854,10.628839536,-0.23453909021225,-0.11020183430017395,-0.5697609889842968,11.528836395320475,0.6259238082139685,-0.05393657499999893,-0.088652116,0.12572125299999826
147122.0,-4.275012934499999,1.4334380304999998,10.621680681499999,-0.24200037276452577,-0.20106542048825077,-0.6398394491103732,11.539089248167565,0.7130119244249372,-0.06815621750000034,-0.06462582350000012,-0.007158854500000089
147132.0,-4.2822698555,1.4334380304999998,10.5904955345,-0.2505263061605181,-0.2783398731202997,-0.7184455879616938,11.513087134599136,0.8101855206733097,-0.007256921000000638,0.0,-0.031185146999998636
147142.0,-4.198422998,1.3389019245,10.5522495995,-0.25692119253982526,-0.33616263123887186,-0.8031813231460185,11.435444269625602,0.9078072767212856,0.0838468575000002,-0.09453610599999984,-0.03824593500000084
147152.0,-4.05603044,1.2442677519999998,10.4612438875,-0.27024503604954997,-0.3726679378735852,-0.8967100271018906,11.28880900904209,1.0079695650829177,0.14239255800000006,-0.09463417250000017,-0.0910057119999994
147162.0,-3.875195814,1.2108270755,10.388184344999999,-0.28410120498113295,-0.37932811429919555,-0.9947678604666881,11.153368046886557,1.101892194902472,0.18083462599999978,-0.03344067649999993,-0.07305954250000113
147172.0,-3.723192739,1.2023933564999998,10.2996302955,-0.29316120912823557,-0.35241688256269504,-1.0946914508018675,11.017726543143057,1.1867984353340861,0.1520030750000001,-0.008433719000000117,-0.08855404949999901
147182.0,-3.5783485185,1.1761115345,10.269720013,-0.30515162108943655,-0.31218006198721776,-1.1940809703859365,10.938691220015667,1.2713784907704213,0.1448442205,-0.026281821999999844,-0.029910282499999497
147192.0,-3.4490968715,1.2000397605,10.205094189499999,-0.3227375586325314,-0.2762070807743626,-1.286010952746982,10.838833519910647,1.3543537402788026,0.1292516469999998,0.023928225999999997,-0.0646258235000019
147202.0,-3.3018009884999997,1.2742761009999999,10.108106420999999,-0.34165692772415,-0.26021986482609455,-1.3723454095261334,10.709784534130495,1.4379762714869349,0.1472958830000004,0.07423634049999994,-0.09698776850000002
147212.0,-3.1139055744999995,1.3269378115000001,9.964438998499999,-0.34778652405715405,-0.24689776664562185,-1.4426909050277648,10.52365033803947,1.5044171698502329,0.1878954140000002,0.052661710500000236,-0.14366742250000009
147222.0,-2.9067891265,1.3544944979999998,9.798020147999999,-0.34645309250863043,-0.22691200138103476,-1.5010459885681953,10.309475117175696,1.5571312923052478,0.2071164479999994,0.02755668649999965,-0.1664188504999995
147232.0,-2.7128135894999996,1.2850634159999998,9.6388582185,-0.35551309665573294,-0.19333884788967187,-1.5514074641344915,10.095461025176732,1.6033198657065493,0.19397553700000048,-0.06943108199999992,-0.15916192949999974
147242.0,-2.5463947389999997,1.2239679865,9.459298457,-0.38722223850596593,-0.14430905854264714,-1.6062998144389653,9.872211054135052,1.6586034065555548,0.16641885049999994,-0.06109542949999991,-0.1795597615000002
147252.0,-2.448328239,1.1880756474999998,9.3156310345,-0.4383830748696757,-0.06943268830283843,-1.665454258776809,9.70498925712991,1.7235830431444148,0.09806649999999983,-0.035892339000000106,-0.1436674224999983
147262.0,-2.3441816159999997,1.0695132489999999,9.070170585,-0.49780455458307465,0.027558748888990462,-1.7435280722062714,9.42905300014684,1.8134108739541892,0.1041466230000001,-0.11856239849999994,-0.24546044950000123
147272.0,-2.2256192175,0.9582077715,8.754200321999999,-0.5545609165286783,0.16025787724737134,-1.8423852663684823,9.083367564530965,1.9307003566303667,0.11856239849999994,-0.11130547749999986,-0.31597026300000053
147282.0,-2.1202957965,0.9390848039999999,8.594940326,-0.5849366268303876,0.32626312372156,-1.964690959031237,8.90227688522775,2.0757189231221416,0.10532342099999958,-0.019122967500000088,-0.1592599959999994
147292.0,-1.8964099769999998,0.9282974889999999,8.568658504,-0.5852036622059427,0.5109224492410641,-2.093925608824409,8.82496547229055,2.2333896952140724,0.22388581950000042,-0.010787315000000075,-0.02628182199999962
147302.0,-1.7396016435,0.9821359975,8.6954584885,-0.5641532460976391,0.6985121825746665,-2.2109028112808247,8.921984270378418,2.386268927681283,0.1568083334999999,0.05383850850000016,0.12679998449999985
147312.0,-1.515715824,1.0384261685,8.888257227499999,-0.5279149748384808,0.8344070087934491,-2.3089606446456226,9.076168790230575,2.5112205270554546,0.22388581949999997,0.056290171,0.19279873899999878
147322.0,-1.270353441,1.2982043269999999,9.10253253,-0.4802168717107278,0.9055536104217459,-2.3547929908029936,9.281984205944884,2.56820669237474,0.24536238300000002,0.25977815849999986,0.21427530250000082
147332.0,-0.9758597415,1.379599522,9.370646340999999,-0.4277243491277463,0.915678265412565,-2.384369340307289,9.521796570200381,2.5897165782346017,0.29449369949999993,0.08139519500000003,0.2681138109999992
147342.0,-0.66096821,1.6214315109999997,9.5957089585,-0.3749647911692097,0.8895646491442258,-2.3721118929705334,9.75415550089968,2.5610229777172844,0.31489153150000004,0.2418319889999998,0.22506261750000078
147352.0,-0.31861805849999997,1.783045103,9.765756269499999,-0.3246033156029134,0.8424023620968352,-2.319886405763107,9.93230903777229,2.4893537289447636,0.3423501515,0.16161359200000036,0.17004731099999937
147362.0,-0.045698988999999995,1.8991558389999998,9.878238545,-0.29422760530120406,0.7518040659550614,-2.2234255486638843,10.059248383966226,2.3654598723629063,0.2729190695,0.11611073599999977,0.11248227550000145
147372.0,0.10149882749999999,1.9206324025,9.9416875705,-0.282235448010751,0.6364255850934724,-2.1024515422204013,10.126020076365194,2.214722750337013,0.14719781649999997,0.021476563500000045,0.06344902549999887
147382.0,0.19730979799999998,1.8392372074999999,9.8973615125,-0.2561218317424119,0.5119888454140326,-1.9862754458906506,10.068738231325487,2.0671287133295753,0.0958109705,-0.08139519500000003,-0.044326057999999335
147392.0,0.303810017,1.6740932215,9.790861293499999,-0.22068292128066702,0.39820908614727024,-1.9020720361281842,9.93759797482562,1.955798931039699,0.10650021900000001,-0.1651439859999999,-0.10650021900000084
147402.0,0.33617196199999994,1.6274135674999999,9.630424499499998,-0.18284592842668196,0.33452376707124915,-1.8541086429541282,9.77274590625827,1.8928966279633321,0.03236194499999995,-0.04667965400000007,-0.16043679400000066
147412.0,0.41158510049999997,1.6094673979999998,9.49872119,-0.14554126099455517,0.3438508065939069,-1.8511782351400297,9.642898518885984,1.888458761557509,0.07541313850000003,-0.017946169500000053,-0.13170330949999887
147422.0,0.6235068069999999,1.611820994,9.3766283975,-0.11729485238027892,0.44403968697538937,-1.887683541774743,9.534562798570152,1.9427502361063687,0.21192170649999997,0.002353596000000069,-0.12209279250000016
147432.0,0.8078718269999999,1.6956678514999999,9.353876969499998,-0.10956827978170001,0.647618381586512,-1.9369786211680708,9.5405954065778,2.045311945636952,0.18436502,0.08384685749999998,-0.022751428000001184
147442.0,0.949087587,1.8033448685,9.450864738,-0.15619998673648453,0.9276704227030181,-1.9846767242958239,9.668074485569221,2.196340717870539,0.14121576000000002,0.1076770170000001,0.09698776850000179
147452.0,1.0352880405,1.9063146935,9.517942223999999,-0.2683792790791681,1.2229103189703787,-2.005992430450431,9.762022393790048,2.3646443108230284,0.08620045350000005,0.10296982499999996,0.06707748599999874
147462.0,1.097560268,2.0403715989999998,9.5598166195,-0.4080056192387144,1.4925706697205108,-1.9846767242958239,9.836556745242028,2.51658051518363,0.062272227500000055,0.13405690549999982,0.041874395500000716
147472.0,1.0843212905,2.1242184565,9.577762789,-0.5228517746784453,1.6902850580449322,-1.92498820920687,9.870237927948843,2.6145778170327674,-0.013238977500000138,0.0838468575000002,0.017946169500000053
147482.0,1.038916501,2.1182364,9.5921785645,-0.6025243097027345,1.8272462804366834,-1.8109431598938044,9.87806471711885,2.6422300508317984,-0.04540478949999982,-0.005982056500000166,0.014415775499999839
147492.0,0.8185610755,2.0727335439999997,9.7465352355,-0.5849366268303876,1.8253822687955534,-1.6561272192541514,9.998060595715028,2.533165736977232,-0.2203554255000001,-0.04550285600000015,0.1543566710000004
147502.0,0.4929802955,1.9063146935,10.041028935,-0.4341192355070536,1.6703010381095973,-1.4994472669733685,10.232268925116877,2.286199285928751,-0.32558078,-0.16641885049999972,0.29449369950000026
147512.0,0.095516771,1.5747518569999999,10.366707781499999,-0.19563570118529638,1.3961098126212883,-1.401389433608571,10.486066807515574,1.98778476729888,-0.3974635245,-0.33156283650000007,0.3256788464999989
147522.0,-0.19770206399999998,1.3975456915,10.7138631915,0.07828848892745764,1.0238624990974334,-1.3968603041996457,10.806437181241495,1.7336788093546374,-0.293218835,-0.1772061654999999,0.34715541000000094
147532.0,-0.20731258099999997,1.3784227239999998,10.997569576,0.33888883553048693,0.6129770865929285,-1.46081091332197,11.085556562087502,1.6200478622607828,-0.009610516999999985,-0.0191229675000002,0.2837063845000003
147542.0,0.0536423755,1.6010336789999997,11.138785336,0.5704434127218266,0.2340678513142115,-1.5228957654739121,11.253387272605089,1.6429865972170767,0.26095495649999995,0.22261095499999994,0.1412157599999997
147552.0,0.45708795649999995,2.1780569649999997,11.174677674999998,0.7204631885769992,-0.04038866422040078,-1.5351532128106684,11.394133696025587,1.6962882529496461,0.40344558099999994,0.577023286,0.03589233899999833
147562.0,0.9646801604999999,2.6916312254999997,11.0992645365,0.7428452909045745,-0.18934029857335286,-1.4549483523645208,11.461638613974683,1.644549659612376,0.507592204,0.5135742605,-0.07541313849999831
147572.0,1.342922651,2.9836732625,10.9221564375,0.6402565828015998,-0.21252350702759354,-1.2836128703547416,11.40172130115225,1.4500885261943246,0.37824249050000014,0.2920420370000003,-0.1771080989999998
147582.0,1.5116950975,3.0842894915,10.688660100999998,0.44707132388610354,-0.14803882715415903,-1.0627152735760792,11.226999531927138,1.1623906467613774,0.1687724465,0.10061622899999989,-0.2334963365000018
147592.0,1.432751565,3.008876353,10.493507766,0.26081502210102464,-0.037723546452605436,-0.8450151199870706,11.009987247483751,0.8851542773535487,-0.07894353250000008,-0.07541313850000009,-0.19515233499999773
147602.0,1.1897427779999998,2.7838137355,10.3953431995,0.14596886666129377,0.05580515750326669,-0.6766117911206417,10.827200331902633,0.6944239638159313,-0.24300878700000017,-0.2250626174999999,-0.09816456650000127
147612.0,1.0017492975,2.4641169455,10.450456572499998,0.09880483428465099,0.1250842568319296,-0.5750894791906356,10.783664337777322,0.5967716277278687,-0.18799348049999987,-0.31969679000000006,0.0551133729999993
147622.0,0.785120399,2.2438595865,10.5342053635,0.09240994790534376,0.15572700250919405,-0.5233963174050675,10.799111191447473,0.5538358988505107,-0.2166288985,-0.22025735899999965,0.08374879100000143
147632.0,0.544465208,2.2104189099999996,10.748578732499999,0.13131333693229738,0.13814106496609918,-0.4980820619341418,10.987007731368871,0.5333028095808509,-0.240655191,-0.0334406765000006,0.2143733689999987
147642.0,0.39726739149999996,2.2164009664999997,11.0417975675,0.19686441297870041,0.09124406796501155,-0.4868910107703541,11.269052672975677,0.533051529784156,-0.14719781650000002,0.005982056500000166,0.2932188350000011
147652.0,0.2595820255,2.2044368535,11.2728422415,0.2504233317346504,0.013702579957407481,-0.4791626928425232,11.489294881357097,0.5408294481504037,-0.13768536599999998,-0.011964112999999887,0.23104467399999962
147662.0,0.149453346,2.0810691965,11.363847953499999,0.27147374784295397,-0.082489496437008,-0.4642418730672237,11.553797021478172,0.5440799844685478,-0.11012867949999999,-0.12336765699999974,0.0910057119999994
147672.0,0.05246557749999999,1.876404411,11.372183606,0.2629460691177097,-0.17601820039288013,-0.44345674700522325,11.526066376653304,0.5447723640186404,-0.09698776849999999,-0.2046647855000001,0.008335652500001345
147682.0,-0.08521978849999999,1.647713333,11.252542476,0.22963820567264992,-0.26208562179647654,-0.4285341819006717,11.372859526710165,0.5523261026914064,-0.13768536599999998,-0.228691078,-0.11964112999999976
147692.0,-0.161809725,1.498063854,11.0765131085,0.1704837613348061,-0.33456390964404503,-0.4144127229227856,11.17852943550887,0.5592277062480447,-0.0765899365,-0.14964947900000003,-0.17602936749999998
