timestamp,ax,ay,az,gx,gy,gz,acc_mag,gyro_mag,dax,day,daz
27962.0,-4.655020621999999,-0.035794272499999995,10.691700162499998,0.1463650564014965,-0.059124773740559904,0.06067637144558287,11.661172779184414,0.1691156132859648,0.0,0.0,0.0
27972.0,-4.767600964,-0.5314223634999999,11.073571113499998,0.1357063306595671,-0.2938785394508052,0.03802723374245245,12.067990963126515,0.3259246456420952,-0.11258034200000022,-0.49562809099999994,0.3818709509999998
27982.0,-3.9786559715,-0.9384964049999999,11.12858642,0.13277417751621662,-0.44203081300634384,0.014578735241908636,11.855627969414313,0.46177133018780064,0.7889449924999998,-0.40707404149999993,0.055015306500001415
27992.0,-4.0098411185,-0.568589567,10.837721181,0.14183418166331918,-0.47027722162062013,-0.008337437836776913,11.569715652876289,0.4912709162295234,-0.03118514699999997,0.3699068379999999,-0.2908652390000004
28002.0,-3.9176586085,-0.22976980949999998,10.429470341499998,0.11092440061049962,-0.3871402080311222,-0.01846209282759602,11.143369990372747,0.40314093341752577,0.09218250999999977,0.3388197575,-0.40825083950000085
28012.0,-3.7392756449999993,-0.11248227549999999,10.191266813,0.04724082686373052,-0.1654432504550465,-0.0038065630985996326,10.856185051174608,0.17209780581554146,0.1783829635000007,0.11728753399999998,-0.23820352849999793
28022.0,-3.79909621,0.027654752999999997,10.087120189999998,-0.021240656996770992,0.10901326507956584,0.020973621621215858,10.778863136978105,0.11302632559219157,-0.05982056500000077,0.14013702849999998,-0.10414662300000188
28032.0,-4.086431055,0.11738560049999999,10.1637101265,-0.04735427326511015,0.33817150520791733,0.05854532442889779,10.955076525610938,0.3464533866821626,-0.28733484500000017,0.08973084749999999,0.07658993650000134
28042.0,-4.412011835,0.08267005949999999,10.5528379985,-0.002855358656262723,0.47593208839708173,0.11237127856040291,11.438315985909083,0.4890263899672115,-0.3255807800000001,-0.034715541,0.38912787199999954
28052.0,-4.736415817,-0.1028717585,11.072394315499999,0.09520422003778668,0.4932527358938734,0.15287338918218332,12.043343940456959,0.5251022548988358,-0.32440398199999976,-0.18554181799999997,0.5195563169999993
28062.0,-4.899304273499999,-0.31351860049999997,11.4709365715,0.2071182223341671,0.3999893219843045,0.16353211492411268,12.477333934161216,0.47919950786272963,-0.16288845649999928,-0.21064684199999997,0.3985422560000007
28072.0,-4.923232499499999,-0.37461402999999993,11.707963302,0.28225988262027896,0.2654261819847937,0.14701082822473438,12.706492773247248,0.4144078703827436,-0.023928225999999775,-0.061095429499999965,0.23702673050000023
28082.0,-4.858606676,-0.38059608649999993,11.734343190499999,0.278263078633212,0.1561772974562086,0.1200978511589818,12.706129321141217,0.34094747839537265,0.06462582349999924,-0.005982056499999999,0.026379888499999282
28092.0,-4.710133995,-0.4368862575,11.603816679,0.20551950073934028,0.09595645694539624,0.08785638388689057,12.5309534103629,0.24323784862422637,0.14847268100000033,-0.056290171000000055,-0.1305265114999994
28102.0,-4.5880412024999995,-0.457186023,11.374046869499999,0.09866695327374343,0.07543836625895091,0.056414277412212714,12.27306332278323,0.1364136557243621,0.12209279250000016,-0.02029976550000001,-0.22976980950000048
28112.0,-4.504194344999999,-0.45846088749999997,11.123781161499998,-0.004187044875534397,0.08636412737643541,0.03909362991542099,12.009848475806825,0.09489260109327174,0.0838468575000002,-0.0012748644999999725,-0.2502657080000006
28122.0,-4.437214925499999,-0.4404166515,10.952655119,-0.08066213671016993,0.11673983767814472,0.040160026088389526,11.825544269831951,0.14746998913402637,0.06697941949999997,0.01804423599999999,-0.1711260424999992
28132.0,-4.408481440999999,-0.36147311899999995,10.654532958999999,-0.1331546592931514,0.1415217677272122,0.05667956745851585,11.53622312569492,0.2024133083554406,0.028733484500000017,0.07894353250000002,-0.29812216000000014
28142.0,-4.468302006,-0.2740958675,10.269131614,-0.172058048320105,0.17189747802892152,0.08918807010616224,11.202495948093821,0.25905062592800054,-0.05982056500000077,0.08737725149999997,-0.38540134499999823
28152.0,-4.5089996034999995,-0.385401345,9.901578371999998,-0.1837831702350029,0.22119430275150137,0.12196360812936376,10.886728887868435,0.3123752470015573,-0.04069759749999946,-0.11130547750000003,-0.36755324200000317
28162.0,-4.4132866994999995,-0.652338358,9.6274825045,-0.1587359501396323,0.2888746804853375,0.12516105131901736,10.610893656980798,0.3525776108313166,0.09571290399999999,-0.26693701299999995,-0.27409586749999804
28172.0,-4.2420625905,-0.9204521689999999,9.5017612515,-0.10863976461963903,0.3818710590193513,0.0897221408572725,10.446329216411055,0.4070358297904298,0.17122410899999974,-0.268113811,-0.12572125300000003
28182.0,-4.133110708999999,-1.04735022,9.4909739365,-0.08359254452426843,0.4868561041853142,0.030300661143873555,10.404716857248294,0.4949087893221328,0.10895188150000035,-0.12689805100000007,-0.010787314999999964
28192.0,-4.016999973,-1.1204097625,9.524512679499999,-0.10784040382222564,0.5795854473437729,-0.032318261759179,10.39749722774397,0.5904179142881395,0.11611073599999955,-0.07305954250000002,0.03353874299999937
28202.0,-3.9439404305,-1.181505192,9.574820793999999,-0.16193339332928589,0.6427366956686837,-0.09546951008408983,10.422466784560662,0.6696620873171271,0.0730595424999998,-0.06109542949999991,0.050308114499999945
28212.0,-3.8649968980000002,-1.2006281595,9.5808028505,-0.22401824548122817,0.6584586215706487,-0.16021948000382746,10.400552497780245,0.7137381959807836,0.07894353249999986,-0.019122967499999977,0.00598205650000061
28222.0,-3.7668323315,-1.2066102159999998,9.565210277,-0.29303205476358796,0.6440701272172075,-0.21138031636753724,10.350757540886354,0.7384956005557517,0.09816456650000038,-0.005982056499999944,-0.015592573499999318
28232.0,-3.647093135,-1.2197511269999999,9.468222508499998,-0.3657773779867116,0.5929092908534978,-0.24735329758039237,10.219408917234299,0.7392686732515624,0.11973919649999987,-0.013140911000000033,-0.09698776850000179
28242.0,-3.417225259,-1.3491008405,9.368881144,-0.4222667045567601,0.5025780300872792,-0.27906243943062536,10.063470347697367,0.7132809342780779,0.22986787600000014,-0.12934971350000013,-0.09934136449999897
28252.0,-3.1323420765,-1.4843345439999998,9.241983093,-0.44598223843285906,0.38853298077421367,-0.31050454590530324,9.870616364443604,0.6680352589307974,0.2848831824999998,-0.13523370349999975,-0.1268980509999995
28262.0,-2.731348158,-1.5801455144999998,8.998974306,-0.447846250073989,0.2944702060672313,-0.34514584089888667,9.536176443798249,0.6374987195723699,0.4009939185000002,-0.09581097050000009,-0.24300878700000084
28272.0,-2.4810824499999997,-1.6148610555,8.687711235,-0.45157776401475286,0.24357640507907663,-0.3661962570071903,9.178228198024595,0.6303583430953273,0.25026570800000014,-0.03471554100000018,-0.31126307099999906
28282.0,-2.33986669,-1.6434964734999997,8.456666560999999,-0.43825392050502815,0.2020078982843277,-0.3709924217916707,8.926996477500932,0.6086945595568665,0.1412157599999997,-0.02863541799999969,-0.2310446740000014
28292.0,-2.166288985,-1.818349043,8.2890709125,-0.36124650324853436,0.15031473649875962,-0.3784537043439465,8.758304504935012,0.5443535270847798,0.17357770500000003,-0.17485256950000028,-0.16759564849999897
28302.0,-1.937597907,-2.0266422889999998,8.226798684999999,-0.21629167288264928,0.11833855927297153,-0.39124347710256085,8.69147750502132,0.46244735997135894,0.228691078,-0.20829324599999977,-0.062272227500001165
28312.0,-1.706553233,-2.06135783,8.1849242895,-0.052949798847003966,0.1204713516189086,-0.4082970892237975,8.611301043699038,0.4289796508314241,0.23104467400000006,-0.03471554100000018,-0.04187439549999894
28322.0,-1.46119085,-2.0445884585,8.1047058925,0.060030599622344964,0.18255620377085088,-0.4224202935309356,8.485380266592614,0.46407902862875033,0.24536238300000002,0.01676937150000013,-0.08021839699999944
28332.0,-1.2324997719999997,-2.0110497155,8.073618812,0.10373015343377899,0.34056958760015754,-0.43760814868179027,8.411105597225193,0.5641351615723315,0.22869107800000021,0.033538742999999815,-0.031087080500000752
28342.0,-1.18464332,-2.062534628,8.1837474915,0.0882752629073692,0.5521401448561621,-0.46452112574754284,8.522391207399028,0.726932691429484,0.04785645199999977,-0.05148491249999987,0.11012867950000071
28352.0,-1.1666971505,-2.2110073089999998,8.5189387885,0.06482676440682539,0.7242749876633549,-0.5172806837060794,8.87817850933659,0.8923878489051943,0.017946169500000053,-0.14847268099999988,0.3351912969999997
28362.0,-1.139140464,-2.3175075279999997,8.941507336999999,0.07095461541057747,0.8162049700244002,-0.5886925753806793,9.306934812100256,1.0088528430097878,0.027556686499999872,-0.10650021899999995,0.42256854849999925
28372.0,-1.1894485785,-2.27318147,9.396437830499998,0.10293079263636558,0.8340579429430501,-0.6625025494475195,9.740389407970225,1.070120099934398,-0.050308114499999945,0.04432605799999978,0.45493049349999914
28382.0,-1.081673495,-2.015854974,9.690931529999999,0.12717865193432282,0.799950718700577,-0.7267201939453989,9.957300976928144,1.088217718172903,0.10777508349999998,0.2573264960000001,0.29449369950000026
28392.0,-0.9991015019999999,-1.7285201289999998,9.868039628999998,0.12238248714984239,0.7471911607420404,-0.7549648572304233,10.067978534302268,1.0692259066749983,0.08257199300000007,0.28733484499999995,0.1771080989999998
28402.0,-0.8027723689999999,-1.5154216244999998,10.082314931500001,0.12664632651246455,0.6909671242182951,-0.7395099667040135,10.22712181184814,1.0199754161861811,0.196329133,0.2130985045,0.2142753025000026
28412.0,-0.711766657,-1.3993108885,10.374455035,0.17327628813799706,0.6067654597850806,-0.7357801980925015,10.492568799389808,0.9693098034808701,0.09100571199999996,0.11611073599999977,0.2921401034999995
28422.0,-0.5645688405,-1.3095800409999998,10.685718106,0.2444228897662939,0.47992889238414876,-0.7355131627169464,10.780459605246211,0.9116215790099897,0.14719781649999997,0.08973084750000027,0.31126307099999906
28432.0,-0.4353171935,-1.1874872484999999,11.0172809425,0.3224967031957562,0.3309755127019447,-0.7299176371350525,11.089639596951764,0.8639031604186114,0.12925164700000003,0.12209279249999994,0.33156283649999985
28442.0,-0.119248864,-1.0390145675,11.233909841,0.38538091614511194,0.1665689878225828,-0.7437738060666355,11.282486511348424,0.8540861507037417,0.31606832949999997,0.14847268099999988,0.21662889849999978
28452.0,0.28900197549999995,-0.869065323,11.311774642,0.4082970892237975,0.04639434217651327,-0.7624261397826989,11.348790342097178,0.8661134837182508,0.40825083949999996,0.16994924450000004,0.07786480100000048
28462.0,0.6648908699999999,-0.664302471,11.310597843999998,0.4056319714560021,-0.009829694347232064,-0.7674875946134825,11.349581544298603,0.8681423426165965,0.37588889449999996,0.204762852,-0.0011767980000012557
28472.0,1.027540787,-0.4931764285,11.3667899485,0.40083580667152174,-0.018090337696921227,-0.7525667748381829,11.423789948694662,0.8528501362011631,0.36264991700000004,0.17112604249999996,0.056192104500000895
28482.0,1.3088935755,-0.2860599805,11.478193492499999,0.39870475965483665,0.0024277529895241124,-0.7104659426215757,11.556122124471434,0.8146982478078392,0.2813527885,0.207116448,0.11140354399999985
28492.0,1.440596885,-0.011866046499999998,11.569101138,0.39151051247811597,0.02241351825411118,-0.6438502157314562,11.658454500035765,0.7538739599421425,0.13170330949999998,0.274193934,0.09090764550000152
28502.0,1.5100279669999999,0.214373369,11.674522625499998,0.387513708491049,0.024277529895241123,-0.558315119749718,11.773725788201878,0.6800529726921588,0.06943108199999992,0.2262394155,0.10542148749999747
28512.0,1.5422918454999999,0.320873588,11.8037742725,0.39843772427928154,0.0093567101199416,-0.44853216447002275,11.908430252233275,0.6000177253359146,0.03226387850000001,0.10650021899999998,0.12925164700000202
28522.0,1.5626896774999999,0.365199646,11.971369920999999,0.4216209327335222,-0.012227776739472273,-0.31716646766016554,12.078454685721477,0.5277388536493238,0.020397832000000005,0.044326058,0.16759564849999897
29072.0,-5.530166068,0.20593965,10.7168051865,0.0976023024300269,0.26409449576552196,0.5184587809511756,12.06130429449875,0.5899759483899889,-7.0928557455,-0.159259996,-1.2545647344999988
29082.0,-6.0209889005,-0.20819517949999997,11.116622307,0.18446908463103667,0.13565920676976326,0.5283181458956915,12.64416640546941,0.575805806543035,-0.49082283250000014,-0.41413482949999997,0.39981712049999985
29092.0,-5.8868339285,-0.22496455099999998,11.394346634999998,0.28865476899958614,-0.010094984393535202,0.509400522133325,12.82718043801837,0.585587206422591,0.13415497200000015,-0.01676937150000002,0.2777243279999979
29102.0,-5.977839640499999,-0.10522535449999999,11.541642518,0.40643133225341554,-0.12547346525512434,0.4739598663423281,12.998274930007758,0.6368421886336149,-0.0910057119999994,0.11973919649999999,0.14729588300000174
29112.0,-5.76238754,0.06707748599999999,11.5715528005,0.4583915294145387,-0.16224580726539287,0.4502443324662292,12.927120474608207,0.6626963521343385,0.2154521004999994,0.1723028405,0.029910282499999497
29122.0,-5.7216899425,0.2909633055,11.526049944499999,0.39790539885742326,-0.10335839830310418,0.43052734790644925,12.871372217691539,0.5952860339660498,0.04069759749999946,0.2238858195,-0.04550285600000059
29132.0,-5.775528451,0.37000490449999995,11.49731646,0.2692030744861094,-0.01196074136391714,0.41187501419038586,12.871748843846024,0.49219343957541617,-0.05383850849999927,0.07904159899999996,-0.02873348449999824
29142.0,-6.006573125,0.332837701,11.441026289,0.1365056914569805,0.08769581359570709,0.40094925307290136,12.926205328199314,0.43253284622335775,-0.2310446740000005,-0.03716720349999997,-0.056290171000000555
29152.0,-6.3142077355,0.2227090215,11.494962864,0.04910483850486046,0.14312048932203902,0.37989883696459775,13.116897113267475,0.40892283618724734,-0.30763461050000007,-0.11012867949999999,0.05393657499999982
29162.0,-6.5117136664999995,-0.0106892485,11.547624574499999,0.021127210595391358,0.12793263417118436,0.33273480458795496,13.257079710408044,0.3571072221304194,-0.19750593099999936,-0.23339827,0.052661710499998904
29172.0,-6.6219404125,-0.256149698,11.542819316000001,0.0331176225565924,0.0629156288758916,0.2661190776978354,13.309860452172625,0.2754532933101298,-0.11022674600000038,-0.24546044949999998,-0.004805258499997578
29182.0,-6.653027493,-0.3458805455,11.425531781999998,0.0602976349979001,-0.03301115747222075,0.19044509198986526,13.225928499574662,0.20247191006908583,-0.031087080499999864,-0.08973084750000004,-0.11728753400000258
29192.0,-6.573985893999999,-0.339898489,11.205176356499999,0.09280613764554649,-0.11428241409133671,0.11317063935781632,12.995722323041612,0.18569071858303743,0.07904159900000085,0.005982056499999999,-0.2203554254999993
29202.0,-6.4626804165,-0.21182364,11.034050313999998,0.11651992619239343,-0.16091412104612118,0.04229107310507459,12.78911153099225,0.20312257977956394,0.1113054774999993,0.12807484900000002,-0.17112604250000096
29212.0,-6.255563968499999,-0.1005181625,10.859295810999999,0.10719463199898772,-0.15824900327832586,-0.0237923283631867,12.532617044168786,0.19261233360541502,0.20711644800000073,0.11130547750000001,-0.17475450299999906
29222.0,-6.096402038999999,0.010885381500000001,10.673753992999998,0.05869891340307329,-0.1260075360062346,-0.07735124711913668,12.2920812157965,0.15908072477817592,0.15916192949999974,0.111403544,-0.1855418180000008
