timestamp,ax,ay,az,gx,gy,gz,acc_mag,gyro_mag,dax,day,daz
100002.0,0.0638412915,1.4952199254999998,9.7224108765,0.00916297857297023,0.05213473008632261,-0.00865508776063988,9.83692185531623,0.05363674861181279,0.0,0.0,0.0
100012.0,0.1368027675,1.5742615245,9.727216134999999,-0.012421508286443643,0.07904770715207518,-0.008922123136195012,9.85473226839375,0.08051358988001872,0.07296147600000001,0.07904159900000018,0.004805258499999354
100022.0,0.1595541955,1.605348605,9.854114185999999,-0.001762782544514273,0.09743475082183545,-0.009189158511750145,9.985297595745633,0.09788298475305336,0.02275142799999999,0.031087080500000086,0.1268980509999995
100032.0,0.056584370499999995,1.7131236885,9.891183323,0.016357225749690858,0.10036515863593391,-0.008922123136195012,10.038600604281358,0.10208000873579487,-0.102969825,0.10777508349999998,0.03706913700000136
100042.0,-0.042756994,1.7107700924999998,10.0217098345,0.03474252409019912,0.08011410332504372,-0.013185962498817158,10.16677089723391,0.08831297831436816,-0.0993413645,-0.002353596000000291,0.1305265114999994
100052.0,-0.09904716499999999,1.6760545515,10.10673349,0.04993037924105378,0.050803043867050944,-0.02171189589480946,10.245244313259981,0.07446743221476083,-0.05629017099999999,-0.03471554099999974,0.08502365550000057
100062.0,-0.172008641,1.672426091,10.148607885499999,0.046732936051400165,0.024157102176853518,-0.032103586261183696,10.286925586202564,0.061629320525188824,-0.072961476,-0.003628460500000097,0.04187439549999894
100072.0,-0.273801668,1.7250878015,10.153413144,0.03261147707351405,0.0031066860685499066,-0.04063126498642799,10.30255763143481,0.05219252465288668,-0.10179302700000001,0.052661710500000014,0.0048052585000011305
100082.0,-0.38746074150000004,1.7490160275,10.1378205705,0.01795594734451766,-0.009683086690064539,-0.05262167694762904,10.29488168024813,0.05643774532763538,-0.11365907350000004,0.023928225999999997,-0.015592573499999318
100092.0,-0.482094914,1.705964834,10.17734137,0.0096953039948285,-0.01927716158827737,-0.06914296364700735,10.33058608610677,0.07243174235336379,-0.09463417249999995,-0.04305119349999997,0.03952079949999998
100102.0,-0.5730025595,1.6676208325,10.1725361115,0.007829547024446562,-0.03233396972244695,-0.0896593090042007,10.32423276151565,0.09563252111980987,-0.09090764550000002,-0.03834400150000006,-0.0048052585000011305
100112.0,-0.6951934184999999,1.6592851799999997,10.212056911,0.012093386387068708,-0.058712876037089246,-0.10404954868689395,10.369311816663448,0.12008230672667752,-0.12219085899999993,-0.008335652500000235,0.03952079949999998
100122.0,-0.784924266,1.6317284935,10.2300030805,0.02061931978306101,-0.09575050809366092,-0.1152405998506816,10.389013764881385,0.15124057657406384,-0.08973084750000004,-0.02755668649999965,0.017946169500000053
100132.0,-0.8950529455,1.5814203789999999,10.190482281,0.02461786909938002,-0.13145645393096092,-0.1277633372337409,10.351228879207516,0.18496029060368516,-0.11012867950000005,-0.05030811450000017,-0.03952079949999998
100142.0,-0.9920407139999999,1.5264050725,10.1174227385,0.03074572010313211,-0.15836943099671347,-0.14828142792018625,10.279897863943212,0.2191199622237379,-0.0969877684999999,-0.05501530649999986,-0.07305954249999935
100152.0,-1.0303847154999999,1.5048304424999999,10.073194746999999,0.03074572010313211,-0.17089391370902476,-0.17546144036149394,10.236965357643793,0.2468536937158888,-0.03834400149999995,-0.02157463000000015,-0.04422799150000145
100162.0,-1.0805947635,1.4485402715,10.032497149500001,0.021685715956029545,-0.16929519211419797,-0.20743587225803004,10.193966500621167,0.26862757388056524,-0.05021004800000006,-0.05629017099999989,-0.040697597499997684
100172.0,-1.075789505,1.3910733025,9.969048123999999,0.0067648961807300215,-0.15037582302257943,-0.24767269283350732,10.122960460785386,0.28982825042679167,0.00480525850000002,-0.057466969000000034,-0.06344902550000242
100182.0,-1.0686306504999998,1.3395883899999999,9.881670872499999,-0.012688543661998775,-0.11094010857376756,-0.29803416839980373,10.029151896059094,0.31826572602839964,0.007158854500000089,-0.05148491250000009,-0.08737725149999953
100192.0,-1.0303847154999999,1.255839599,9.899617042,-0.031340877378062175,-0.061643283851187725,-0.3545234949698522,10.032010931942276,0.36120500207558537,0.03824593499999995,-0.08374879099999988,0.017946169500000053
100202.0,-1.002828029,1.231911373,9.923545267999998,-0.03826808917922767,-0.016345008444926895,-0.41847410409217645,10.049876634701539,0.42053796706866287,0.027556686499999872,-0.023928225999999997,0.023928225999998887
100212.0,-0.9189811714999999,1.267803712,9.9187400095,-0.03666936758440086,0.018561576594959692,-0.4821594231681975,10.041576371356669,0.48390792925371595,0.0838468575000001,0.035892339000000106,-0.004805258499997578
100222.0,-0.8196398069999999,1.3443936484999999,9.9905246875,-0.03027448120509364,0.03534815334064116,-0.5341196203293207,10.113841368485721,0.536143455595206,0.09934136449999997,0.07658993649999979,0.07178467800000021
100232.0,-0.6807776429999999,1.4485402715,10.086335658000001,-0.02387959482578642,0.03561518871619629,-0.5674274837743805,10.212536125919373,0.5690453637969989,0.13886216400000007,0.1041466230000001,0.09581097050000054
100242.0,-0.5598616485,1.520423016,10.143802627,-0.026010641842471493,0.030284953180605607,-0.5844810958956171,10.272383508639841,0.5858428828086507,0.1209159944999999,0.0718827445000001,0.05746696899999826
100252.0,-0.46885593649999996,1.5551385569999998,10.176164572,-0.03080680662695191,0.01243198026195561,-0.5866121429123021,10.304979729096377,0.5875520569957586,0.09100571200000002,0.03471554099999974,0.03236194499999989
100262.0,-0.3862839435,1.5838720414999998,10.1941107415,-0.023612559450231285,-0.01980948701013564,-0.5791508603600263,10.323650504488079,0.5799704197587616,0.08257199299999995,0.028733484500000017,0.017946169500000053
100272.0,-0.3407810875,1.6101538635,10.200092797999998,-0.0038938295611993493,-0.059779272210057785,-0.5666281229769671,10.332019178338427,0.5697860590107631,0.04550285599999998,0.026281822000000066,0.0059820564999988335
100282.0,-0.310870805,1.604171807,10.275505936499998,0.019020598188234206,-0.10907435160338563,-0.5530389894209392,10.404615807170474,0.5640134051180619,0.02991028250000005,-0.005982056499999944,0.07541313850000009
100292.0,-0.30253515249999996,1.613782324,10.289823645499999,0.031812116276100644,-0.14557965823809904,-0.5402474713330728,10.419994796699465,0.5604219641631342,0.008335652500000013,0.00961051700000004,0.014317709000000178
100302.0,-0.3515684025,1.5312103309999998,10.3712188405,0.03074572010313211,-0.1671641450975129,-0.5415809028815964,10.489536961035968,0.5676257790806261,-0.04903325000000003,-0.08257199300000018,0.0813951950000007
100312.0,-0.3827535495,1.3875429085,10.422703753,0.020886355158616143,-0.18688112965729284,-0.5655617268039985,10.521621981680571,0.5960040799183496,-0.031185147000000024,-0.14366742249999986,0.0514849125000012
100322.0,-0.4055049775,1.348022109,10.4024039875,0.004899139210348083,-0.19993793779146243,-0.6084619198180191,10.497218994204417,0.6404881641388345,-0.022751427999999962,-0.03952079949999998,-0.020299765500000788
100332.0,-0.41619422599999994,1.381560852,10.362883188,-0.013487904459412179,-0.19381008678771033,-0.6572246737894887,10.462852191905787,0.6853382705971306,-0.01068924849999997,0.03353874300000004,-0.03952079949999998
100342.0,-0.324011716,1.450991934,10.292275307999999,-0.03666936758440086,-0.155439023182615,-0.6995925413816511,10.399100547658186,0.7175901730123139,0.09218250999999994,0.06943108199999992,-0.07060788000000073
100352.0,-0.298906692,1.461779249,10.179694966,-0.07157595262428745,-0.06617415858936501,-0.7267725538229587,10.288456316869656,0.7332806292610149,0.02510502400000003,0.010787314999999964,-0.11258034199999933
100362.0,-0.34921480650000003,1.4437350129999997,10.0780000055,-0.10808125925900085,0.03934495732770817,-0.7464895383827387,10.186874195733397,0.7552987588928005,-0.050308114500000056,-0.018044236000000158,-0.10169496049999971
100372.0,-0.4616970819999999,1.3395883899999999,10.038479206,-0.13366080477622974,0.14619575946405303,-0.7632778604576721,10.137984317380083,0.7885629353980202,-0.1124822754999999,-0.10414662299999988,-0.03952079949999998
100382.0,-0.607816167,1.257016397,10.068389488500001,-0.14352016972074572,0.22986509847540917,-0.7797974018277984,10.164742869710514,0.8255422402949265,-0.14611908500000004,-0.08257199299999995,0.029910282500001273
100392.0,-0.6832293054999999,1.1121721764999999,10.162925594499999,-0.13446191090289514,0.267169765907536,-0.7976503747464485,10.246403558001115,0.8518836831586196,-0.07541313849999998,-0.1448442205,0.09453610599999784
100402.0,-0.7693316925,1.069120983,10.273054274,-0.10781422388344572,0.2501161537862994,-0.8168367792136221,10.357148982510846,0.8610483848962991,-0.08610238700000006,-0.04305119349999997,0.11012867950000071
100412.0,-0.7418730724999999,1.060687264,10.403580785499999,-0.07770380362803954,0.19549258418663287,-0.8373531245708155,10.483793506557499,0.8633744765736014,0.0274586200000001,-0.008433718999999895,0.1305265114999994
100422.0,-0.6604778774999999,1.1181542329999998,10.4538889,-0.048394489499298775,0.10676004501524115,-0.8528080150972253,10.534243829007659,0.8608259083227127,0.08139519500000003,0.05746696899999981,0.05030811450000172
100432.0,-0.5682953675,1.211513541,10.450260439500001,-0.0276093634372983,0.026022859147235455,-0.8578712152572608,10.535590535804202,0.8587097810754104,0.09218250999999988,0.09335930800000014,-0.003628460499999875
100442.0,-0.5371102205,1.2618216555,10.467029811,-0.018284069243892597,-0.03153460892503355,-0.8608016230713593,10.556485889898068,0.8615730804931505,0.03118514699999997,0.050308114499999945,0.016769371499998798
100452.0,-0.495235825,1.2259293165,10.4981168915,-0.02387959482578642,-0.06484247237009333,-0.8759912235514661,10.58105001779196,0.8787123562413952,0.041874395499999995,-0.035892338999999884,0.031087080500000752
100462.0,-0.42815833899999994,1.231911373,10.4406499225,-0.045729371731503425,-0.06510776241639647,-0.9050352476339036,10.521791482365598,0.9085257264522504,0.06707748600000007,0.005982056499999944,-0.057466969000000034
100472.0,-0.32165812,1.257016397,10.377200896999998,-0.0774385135817364,-0.031267573549478414,-0.9444709620827154,10.458004237194894,0.9481559907308875,0.10650021899999995,0.02510502399999992,-0.06344902550000242
100482.0,-0.22829881199999996,1.3048728490000001,10.3245391865,-0.10461678069379211,0.02522349834982205,-0.9801769079200154,10.409174939119433,0.9860667657371781,0.09335930800000003,0.047856452000000216,-0.052661710499998904
100492.0,-0.06668521999999999,1.3707735369999998,10.143802627,-0.13552656174661168,0.09663539002442205,-1.0121530851458036,10.236219944092547,1.0257483684189797,0.16161359199999997,0.06590068799999971,-0.18073655949999967
100502.0,0.0889463155,1.4030374155,10.053973713,-0.15018209147560804,0.16724792090160862,-1.0326711758322489,10.15178865314034,1.0568520639335754,0.15563153549999997,0.03226387850000023,-0.08982891399999993
100512.0,0.23496733399999997,1.4342225624999998,9.8971653795,-0.1395233657336787,0.22746701608316897,-1.0364009444437607,10.003303782051434,1.070203219316478,0.1460210185,0.031185146999999747,-0.156808333499999
100522.0,0.33911395699999997,1.4820790144999998,9.8697067595,-0.10355212985007556,0.26610511506381945,-1.023078846263288,9.986123772494183,1.062179505324329,0.104146623,0.047856451999999994,-0.027458620000000877
100532.0,0.32116778749999997,1.5071840385,9.996506744,-0.055854026722322536,0.27463104845981173,-0.9958988338219804,10.114588452155346,1.0345802879850428,-0.017946169499999998,0.025105024000000142,0.12679998449999985
100542.0,0.2721345375,1.511989297,10.246772452,-0.015351916100542123,0.22187149050127516,-0.9689858567562278,10.361298882080806,0.99418118581012,-0.04903324999999997,0.00480525850000002,0.2502657080000006
100552.0,0.24820631149999997,1.4450098775,10.572353232,0.007564256978143424,0.11608708453789884,-0.9543303270272314,10.673533284780717,0.9613947172020674,-0.023928226000000025,-0.06697941949999997,0.32558077999999924
100562.0,0.25055990749999996,1.4317708999999998,10.731613227999999,-0.0033615041393410786,-0.028070130359824804,-0.9543303270272314,10.82960159252028,0.9547489748684723,0.0023535959999999856,-0.013238977500000138,0.1592599959999994
100572.0,0.34391921549999993,1.511989297,10.6681642025,-0.03453832056771579,-0.18021920790243046,-0.9639226565961924,10.78026528024868,0.9812332782697898,0.09335930799999997,0.08021839700000011,-0.06344902549999887
100582.0,0.4912150985,1.6113306615,10.4490836415,-0.06917787023204724,-0.2865376846169171,-0.971383939148468,10.583998664056383,1.0151237262871262,0.14729588300000007,0.09934136450000008,-0.21908056100000017
100592.0,0.6754820519999999,1.775395916,10.154589942,-0.09076061176220912,-0.3243764228001541,-0.9759148138866452,10.330731026955021,1.0324084832465685,0.18426695349999989,0.16406525449999987,-0.29449369950000026
100602.0,0.8012033049999999,1.9465219585,9.9163864135,-0.09582381192224468,-0.29133559473064946,-0.9703192883047514,10.137336631123235,1.0176336044690202,0.12572125300000003,0.17112604250000008,-0.2382035284999997
100612.0,0.9173140409999999,2.0411561309999997,9.852937388,-0.09662317271965808,-0.21912434225863608,-0.9548643977783416,10.103868495422084,0.9844376735077177,0.11611073599999999,0.09463417249999972,-0.06344902549999887
100622.0,0.8634755325,2.1105872129999996,9.8516625235,-0.09502445112483127,-0.13492093249616965,-0.9458043936312392,10.112142347486987,0.9600933576217302,-0.05383850849999994,0.06943108199999992,-0.0012748645000009162
100632.0,0.8083621595,2.0351740745,9.969048123999999,-0.09715549814151635,-0.06084392305377432,-0.9559290486220582,10.206728339338532,0.9627780220752721,-0.055113372999999966,-0.07541313849999964,0.11738560049999869
100642.0,0.8060085634999999,1.9322042495,10.1162459405,-0.10568317686676064,-0.003022910264454179,-0.9841737119070826,10.33060961390488,0.9898363334754302,-0.002353596000000069,-0.10296982499999996,0.14719781650000208
100652.0,0.8430777005,1.8855245955,10.1725361115,-0.11900702037648535,0.042809435892916914,-1.020946053917351,10.380099900727705,1.0287498061772695,0.03706913700000003,-0.04667965400000007,0.05629017099999878
100662.0,0.9340834124999999,1.93583271,10.190482281,-0.1323291185569581,0.07398450699203962,-1.0494577525779303,10.414695829547234,1.0603519591809303,0.09100571199999996,0.050308114499999945,0.017946169500000053
100672.0,1.0968738025,2.0243867595,10.202446393999999,-0.14485360126926938,0.09343620150551644,-1.0523881603920289,10.459024156827123,1.0664116136303912,0.16279039000000006,0.08855404950000012,0.011964112999999443
100682.0,1.1770921994999999,2.1740362385,10.234808338999999,-0.15684401323047042,0.09343620150551644,-1.0134847713650752,10.529163373625604,1.0297969460174847,0.08021839699999989,0.1496494789999998,0.03236194499999989
100692.0,1.2584873945,2.294952233,10.2335334745,-0.1653699466264627,0.05719793024635817,-0.9431392758634438,10.562944837855547,0.9592343384949934,0.08139519500000003,0.12091599450000023,-0.0012748644999991399
100702.0,1.3614572195,2.3380034265,10.182146628499998,-0.16270657418791937,-0.008618435846348,-0.8541414466457489,10.53546087018163,0.8695431660351883,0.10296982500000018,0.04305119349999975,-0.05138684600000154
100712.0,1.3901907039999999,2.3966471934999998,10.0564253755,-0.1488504052563364,-0.06564183316750674,-0.7526191347157427,10.431118794098731,0.7700005554198254,0.028733484499999795,0.05864376699999996,-0.12572125299999826
100722.0,1.3051670485,2.40262925,9.9905246875,-0.13446191090289514,-0.09122137868473564,-0.6572246737894887,10.357927971799802,0.6770122725996197,-0.0850236554999999,0.005982056500000166,-0.06590068799999926
100732.0,1.0741223745,2.2422905225,9.9858174955,-0.1309974323376864,-0.08482649230542841,-0.6007353472194403,10.290683005327136,0.6206760978761557,-0.23104467400000006,-0.1603387275000001,-0.00470719200000147
100742.0,0.8323884519999999,1.9418147664999998,10.012099317499999,-0.1395233657336787,-0.0645754369945382,-0.6111270375858145,10.232577772287115,0.6301690350351269,-0.24173392250000003,-0.300475756,0.02628182199999962
100752.0,0.7413827399999999,1.6473210669999998,10.037302407999999,-0.16004145642012405,-0.05258502503333716,-0.6830712546822727,10.198566305838998,0.7035373420111014,-0.09100571199999996,-0.29449369950000004,0.025203090499999803
100762.0,0.8203262725,1.532387129,10.026515093,-0.17283122917873847,-0.04858822104627014,-0.784860601987834,10.176057705056285,0.8051320472795628,0.07894353250000008,-0.11493393799999985,-0.010787314999998188
100772.0,1.057353003,1.7131236885,9.9642428655,-0.1730982645542936,-0.04858822104627014,-0.8725267449862573,10.165575440068338,0.8908573090750632,0.2370267305,0.18073655950000012,-0.062272227500001165
100782.0,1.3531215669999999,1.9908480164999998,9.8169469825,-0.1637712250316359,-0.04885351109257328,-0.9111630986376558,10.107762455513997,0.9270522488044616,0.29576856399999985,0.2777243279999997,-0.14729588299999996
100792.0,1.6702686279999999,2.2446441185,9.636210423,-0.15124848764857662,-0.041659263915852646,-0.8925107649215922,10.03418037633027,0.9061937236523534,0.317147061,0.25379610200000036,-0.18073655949999967
100802.0,1.9396573034999998,2.3738957655,9.459102324,-0.1208710320176153,-0.023006930199789253,-0.8240310263903429,9.943453541721906,0.8331664045508216,0.2693886754999999,0.1292516469999998,-0.1771080989999998
100812.0,2.1575610665,2.4265574759999997,9.345345184,-0.07130891724873233,0.01243198026195561,-0.7249067968525769,9.89336785670684,0.7285117568958536,0.21790376300000025,0.05266171049999979,-0.11375714000000059
100822.0,2.1826660904999997,2.4517605665,9.4195815245,-0.021214477057991076,0.07744898555724837,-0.6111270375858145,9.975152993050518,0.616380284782945,0.025105023999999698,0.025203090500000247,0.07423634050000061
100832.0,2.036645072,2.2566082315,9.6529797945,0.0014346606451393388,0.1493949479829586,-0.5165336827862258,10.12028768231421,0.5377061969018945,-0.14602101849999993,-0.19515233499999995,0.23339827000000035
100842.0,1.8918008514999998,1.9537788794999997,9.943845033499999,-0.005492551156026155,0.1725764111079473,-0.47150069742626816,10.309035668867335,0.5021211939985785,-0.1448442205,-0.3028293520000003,0.2908652389999986
100852.0,1.7110642919999999,1.6999827775,10.168907651,-0.036402332208845735,0.13367302208099371,-0.4784279092274336,10.451046132790745,0.4980831968157955,-0.1807365594999999,-0.2537961019999997,0.22506261750000078
100862.0,1.7325408555,1.614959122,10.1725361115,-0.0734417095946694,0.05453281247856282,-0.520795776819596,10.444629324273754,0.5287681472045535,0.021476563500000045,-0.08502365550000013,0.003628460499999875
100872.0,1.8343338824999997,1.6556567195,10.0217098345,-0.08916189016738232,-0.01128355361414334,-0.5660940522258568,10.321852933084594,0.5731837726295771,0.10179302699999981,0.04069759750000013,-0.15082627700000018
100882.0,1.9731960464999998,1.799324142,9.7428087085,-0.08330107453918537,-0.055248397471880505,-0.6004683118438852,10.10214786747505,0.6087311787408619,0.13886216400000007,0.14366742249999986,-0.27890112599999917
100892.0,2.143145291,2.0303688159999997,9.505781978,-0.06251594847718489,-0.05631479364484904,-0.6041998257846489,9.953660647248846,0.6100303511100609,0.16994924450000037,0.23104467399999984,-0.23702673050000023
100902.0,2.328687109,2.2195390945,9.3154349015,-0.03160616742436531,-0.03233396972244695,-0.5783514995626129,9.855275990438876,0.5801162749514894,0.18554181799999991,0.18917027850000023,-0.19034707650000016
100912.0,2.479513386,2.306916346,9.296213867499999,0.0009023352232810684,0.010300933245270531,-0.5269253731526,9.893909334994659,0.5270268231376706,0.15082627699999973,0.08737725149999997,-0.01922103400000097
100922.0,2.5274679045,2.3164287965,9.356132499,0.016889551171549128,0.04813792609925561,-0.45844388929209856,9.964494553983961,0.46127358096598126,0.0479545185000001,0.009512450499999936,0.05991863150000043
100932.0,2.4854954425,2.2817132554999997,9.346521982,0.022485076753442947,0.0777160209328035,-0.3835675190522898,9.936869533963998,0.39200688802387756,-0.04197246199999993,-0.03471554100000018,-0.009610516999998708
100942.0,2.2904411739999997,2.2434673204999998,9.4782252915,0.032344441697958914,0.09023875831586282,-0.3174858629132805,10.005799371671221,0.33164208050386446,-0.1950542685000003,-0.03824593499999995,0.13170330949999887
100952.0,2.1155886045,2.0710664134999996,9.658961850999999,0.03847229270171101,0.07585026396242157,-0.2783154385107718,10.102503416069274,0.29102038272660274,-0.1748525694999996,-0.1724009070000001,0.18073655949999967
100962.0,1.9851601595,1.9345578454999999,9.728392933,0.03207740632240379,0.03774623573288137,-0.2673896773932873,10.11558223609971,0.2719392908074541,-0.13042844500000017,-0.13650856799999977,0.06943108200000125
100972.0,1.9133754815,1.8723836844999997,9.7798778455,0.016090190374135727,-0.013147565255273283,-0.27218758750701966,10.139666516611326,0.2729795514160522,-0.07178467799999999,-0.06217416100000017,0.051484912499999425
100982.0,1.9527982144999998,1.835216481,9.7343749895,-0.004693190358612751,-0.0653747977919516,-0.2865760818604609,10.096509141029463,0.2939757488579191,0.03942273299999988,-0.03716720349999969,-0.04550285600000059
100992.0,2.058219702,1.9094528214999997,9.572761397499999,-0.025211281045058088,-0.10481051224076349,-0.3012316115894573,9.97597309502694,0.3199395817789443,0.10542148750000035,0.07423634049999972,-0.16161359200000014
101002.0,2.280830657,1.962114532,9.418306659999999,-0.03986681077405447,-0.11706795957751964,-0.3020309723868707,9.887192840457647,0.3263693889473961,0.22261095499999994,0.052661710500000236,-0.15445473750000005
101012.0,2.4939291614999997,1.9944764769999999,9.2112882785,-0.04999321109412557,-0.10241242984852326,-0.2804464855274569,9.749125644360007,0.30271745603397665,0.21309850449999956,0.03236194499999989,-0.2070183814999993
101022.0,2.6339681235,2.0494917835,9.0771333065,-0.04466297555853489,-0.0723020095931171,-0.24420821426829858,9.671222968695313,0.25857303396343695,0.1400389620000002,0.055015306500000305,-0.13415497199999926
101032.0,2.6890814965,2.1200996635,9.0161359435,-0.025211281045058088,-0.0357967029584037,-0.1922480171071754,9.644516018425401,0.1971707704409198,0.05511337300000019,0.07060787999999985,-0.06099736300000025
101042.0,2.653091091,2.0806769304999997,9.047223024,-0.004427900312309613,0.0015079644737231008,-0.11976972925960688,9.65506878651075,0.11986103747652653,-0.03599040550000021,-0.03942273300000032,0.031087080499998976
101052.0,2.533449961,2.0411561309999997,9.113123712,0.01475850415486405,0.02815390616392053,-0.04276231200311307,9.676451356061603,0.05328293540175475,-0.11964112999999976,-0.03952079949999998,0.06590068800000104
101062.0,2.3334923675,1.996830073,9.2375701005,0.04193677126691975,0.05053600849149582,0.03424510525338074,9.734742848748985,0.07406286635259,-0.1999575935000002,-0.04432605799999978,0.12444638849999912
101072.0,2.120393863,1.915434878,9.448315009,0.05792398721518781,0.07158642459979943,0.10485763613056732,9.870948151793808,0.1395526006091555,-0.2130985045,-0.08139519500000003,0.2107449085000006
101082.0,1.8331570845,1.8556143129999998,9.613458994999998,0.04327020281544342,0.08277922109283906,0.16347975504655285,9.96104227596738,0.18828260728624846,-0.28723677849999985,-0.0598205650000001,0.16514398599999858
101092.0,1.5697504654999999,1.7011595755,9.763108474,0.010494664792241903,0.07158642459979943,0.2039818656683333,10.03376038683122,0.2164332592223715,-0.2634066190000002,-0.15445473749999983,0.1496494790000007
101102.0,1.3925442999999997,1.593384492,9.850485725499999,-0.018284069243892597,0.03641454951360969,0.21757099922436113,10.075223213164453,0.22135371311067167,-0.17720616550000012,-0.10777508349999998,0.08737725149999953
101112.0,1.262115855,1.4928663295,9.864901501,-0.03214023817547558,-0.01661204382048203,0.22156780321142816,10.056732468034996,0.22450221898637898,-0.13042844499999973,-0.10051816250000001,0.014415775500001615
101122.0,1.2429928875,1.4701149014999997,9.803806071499999,-0.04413065013667663,-0.05844584066153411,0.21490588145656578,9.991040117503692,0.2270417768974307,-0.019122967499999977,-0.022751428000000296,-0.061095429500001686
101132.0,1.2082773464999998,1.427063708,9.676908020499999,-0.0555887366760194,-0.09282010027956243,0.2002503517275694,9.855911617398617,0.22760905524200725,-0.03471554100000018,-0.04305119349999975,-0.1268980509999995
101142.0,1.2010204254999999,1.4521687319999999,9.625423108,-0.04386361476112149,-0.1351879678717248,0.185596567327825,9.808160586811733,0.2337646020274893,-0.007256920999999972,0.02510502399999992,-0.051484912499999425
