timestamp,ax,ay,az,gx,gy,gz,acc_mag,gyro_mag,dax,day,daz
74692.0,-3.3102347075,1.5375846535,10.2517738435,-0.3517833280442211,-0.38279259286440437,-0.1740634316306465,10.882126966897928,0.548251545618212,0.0,0.0,0.0
74702.0,-2.9893611195,1.2000397605,10.0470109915,-0.37762990893700515,-0.3505511255923131,-0.1927157653467099,10.550772729657341,0.5501179927897075,0.320873588,-0.337544893,-0.204762852
74712.0,-3.0431996279999995,1.2251447844999999,9.892654320499998,-0.34991757107383914,-0.2386371232959327,-0.23375020139034855,10.422411104142562,0.4837655835331839,-0.053838508499999715,0.02510502399999992,-0.15435667100000217
74722.0,-3.015741008,1.2467194144999998,9.826753632500001,-0.3270013979951536,-0.13498201901998946,-0.2865097593488852,10.354423696163686,0.45523389806961184,0.027458619999999545,0.021574629999999928,-0.06590068799999749
74732.0,-2.8983554074999995,1.232303639,9.760951011,-0.3349950059692876,-0.037191221030747165,-0.32141634438877176,10.25647117511764,0.46573952740385094,0.11738560050000046,-0.014415775499999839,-0.06580262150000138
74742.0,-2.751157591,1.0324441119999999,9.7704634615,-0.3552460612801778,0.028358109686403867,-0.34353315667004386,10.202782227776252,0.49499391528760317,0.1471978164999994,-0.1998595270000001,0.009512450500000824
74752.0,-2.637400451,0.8181688095,9.8147895195,-0.35471373585831956,0.049408525794707475,-0.3501950784249062,10.195850854728146,0.5008988218999902,0.11375714000000015,-0.21427530249999982,0.044326057999999335
74762.0,-2.6529930244999997,0.7475609295,9.8471514645,-0.31421162523653917,0.002778564169174973,-0.35792165102348517,10.2256350069893,0.47628203212383213,-0.015592573499999762,-0.07060788000000007,0.03236194499999989
74772.0,-2.6325951925,0.742755671,9.911777288,-0.2329403686174232,-0.09447990839820904,-0.375509333895832,10.282294123457538,0.4518793293186207,0.02039783199999956,-0.00480525850000002,0.06462582350000012
74782.0,-2.5679693689999996,0.7846300664999999,9.9991545395,-0.13061869589000363,-0.20106542048825077,-0.4002895186156475,10.35341501757664,0.46660502113208036,0.06462582350000057,0.04187439549999994,0.08737725149999953
74792.0,-2.4614691499999997,0.897112342,10.055444710499998,-0.03575830571485982,-0.26768114737837034,-0.4242720878673016,10.391131278955763,0.5029300723089418,0.10650021899999995,0.11248227550000012,0.05629017099999878
74802.0,-2.415966294,1.0600007985,10.1750858405,0.02632829176633446,-0.2767411515254729,-0.4461218647730186,10.511558718292369,0.525645852379274,0.0455028559999997,0.16288845649999995,0.11964113000000154
74812.0,-2.3980201245,1.252701471,10.339151095,0.03698527217901184,-0.2301094445706884,-0.472767806463216,10.687273125460594,0.5270936023770608,0.017946169500000053,0.1927006725,0.16406525450000053
74822.0,-2.3836043489999996,1.3819531179999998,10.4528101685,-0.025631905394788723,-0.1664258708239193,-0.4980820619341418,10.80983832125248,0.5257759080389987,0.014415775500000283,0.1292516469999998,0.11365907349999915
74832.0,-2.3824275509999997,1.3855815784999999,10.5102771375,-0.13674829222300772,-0.10913543812720543,-0.5100724738953428,10.865621144393797,0.539244441702315,0.0011767979999999234,0.003628460500000097,0.057466969000000034
74842.0,-2.427930407,1.3724406674999998,10.500764687,-0.2502610161142149,-0.08115781021773633,-0.5180660818694769,10.864828505723835,0.5810418500671436,-0.04550285600000015,-0.013140911000000033,-0.009512450499999048
74852.0,-2.4554870935,1.3747942635000001,10.418094627499999,-0.33206459815518913,-0.08035844942032291,-0.5292571330332645,10.791486079351719,0.6299503874177684,-0.027556686500000094,0.002353596000000291,-0.08267005950000161
74862.0,-2.451858633,1.379599522,10.3474867475,-0.3669711831950757,-0.09474694377376418,-0.5335209723958866,10.723123965850968,0.6544382787064912,0.003628460499999875,0.004805258499999798,-0.07060787999999896
74872.0,-2.448328239,1.3699890049999999,10.2217654945,-0.37363310494993807,-0.12165992083951674,-0.5220628858565438,10.599795793516805,0.6534160162117788,0.0035303940000002143,-0.00961051700000004,-0.12572125300000003
74882.0,-2.5476696035,1.403527748,10.121247332000001,-0.37176734797955613,-0.14271033694782034,-0.5092731130979294,10.530914400161125,0.6464799339654475,-0.0993413645000003,0.03353874300000004,-0.10051816249999845
74892.0,-2.6158258209999996,1.335273464,10.043480597499999,-0.3738983949962412,-0.1533690626897497,-0.5114041601146145,10.464081539334057,0.6518100138488453,-0.06815621749999945,-0.068254284,-0.0777667345000026
74902.0,-2.6410289115,1.2563299315,9.8746100845,-0.3885539247252376,-0.14297737232337548,-0.5316552154255046,10.298607815091843,0.6738500942383421,-0.025203090500000247,-0.07894353249999986,-0.1688705129999981
74912.0,-2.6158258209999996,1.1641474214999998,9.680732614,-0.40614160759758444,-0.11393160291168584,-0.5609662748834975,10.095264626970344,0.7018650704520377,0.025203090500000247,-0.09218251000000022,-0.19387747050000037
74922.0,-2.5428643449999995,1.081477362,9.540693652,-0.40853968998982465,-0.07716100623066931,-0.586013494978868,9.932803618460593,0.7185195303378045,0.07296147600000014,-0.08267005949999984,-0.1400389620000002
74932.0,-2.4578406895000002,1.044408225,9.35750543,-0.39281776408785973,-0.03559249943592036,-0.6051998994460418,9.731119014167332,0.7223846206063501,0.08502365549999924,-0.03706913700000003,-0.18318822200000007
74942.0,-2.3548708645,1.022833595,9.251005210999999,-0.3640407753809773,0.006508332780686855,-0.6057322248679,9.600661579572563,0.7067386877615965,0.10296982500000018,-0.021574629999999928,-0.10650021900000084
74952.0,-2.2699452755,1.0048874255,9.171963611999999,-0.32540267640032683,0.04514643176133732,-0.5886786127466634,9.501966469712722,0.6741421298321394,0.08492558900000002,-0.017946169500000053,-0.07904159899999996
74962.0,-2.220813959,0.9749771429999999,9.143230127499999,-0.289963765938582,0.08218406381790899,-0.5617656356809109,9.45945306211122,0.637505949254506,0.04913131650000002,-0.02991028250000005,-0.028733484500000017
74972.0,-2.2352297345,0.8947587459999999,9.137248071,-0.2678469536573098,0.1280164099752801,-0.5385841725559222,9.44913474824704,0.6149821970872063,-0.014415775499999839,-0.080218397,-0.0059820564999988335
74982.0,-2.2819093885,0.8779893744999999,9.197068636,-0.25985334568317575,0.18184061877753321,-0.5364531255392371,9.516514450908707,0.6231947751714167,-0.04667965400000007,-0.01676937150000002,0.05982056499999899
74992.0,-2.3513404705,0.7618786384999999,9.306020517499999,-0.258254624088349,0.2361988983308966,-0.5564371454745721,9.62866963500902,0.6573489691934062,-0.06943108199999992,-0.11611073599999999,0.10895188149999946
75002.0,-2.34771201,0.675678185,9.382610454,-0.2641171850457979,0.2801654875178857,-0.601735420880833,9.695445921828105,0.7143781243678198,0.003628460499999875,-0.08620045349999994,0.07658993650000134
75012.0,-2.2686704109999996,0.722357839,9.403008286,-0.28090376179147936,0.3196029472959497,-0.6568930612316098,9.699754177704522,0.7826630572622534,0.0790415990000004,0.04667965399999996,0.02039783200000045
75022.0,-2.137065168,0.8145403489999999,9.401831488,-0.30515162108943655,0.35077801839507233,-0.6976622072289453,9.675999113330684,0.8383885050728264,0.13160524299999965,0.09218251,-0.0011767980000012557
75032.0,-1.9610358005,0.862396801,9.3658410825,-0.3115465074687438,0.37795803083638,-0.7032577328108391,9.607724435882956,0.8570209671577047,0.17602936749999998,0.047856452000000105,-0.03599040549999977
75042.0,-1.8867994599999998,0.8875998914999998,9.3395592605,-0.2926271383771253,0.39980780774209707,-0.6787428381373268,9.569493871153187,0.8403384827371886,0.07423634050000016,0.025203090499999803,-0.02628182199999962
75052.0,-1.8066791295,0.846902294,9.337107598,-0.26305078887282934,0.40300525093175066,-0.6446356138948536,9.547927066603654,0.8044650548698656,0.08012033049999978,-0.040697597499999794,-0.0024516625000003955
75062.0,-1.7659815319999999,0.742755671,9.377805195499999,-0.23347269403928148,0.389681407422026,-0.6113277504497938,9.571499727990096,0.761631614773426,0.04069759750000013,-0.1041466230000001,0.04069759749999946
75072.0,-1.7839277014999997,0.672147791,9.3874157125,-0.20496099537870208,0.3678316305163089,-0.590012044295187,9.579026801111745,0.7248609042073524,-0.01794616949999983,-0.07060787999999996,0.009610517000000485
75082.0,-1.8724817509999998,0.6122291595,9.4352721645,-0.17298656348216598,0.3382552810120131,-0.5806850047725294,9.638743344946924,0.6939279941359606,-0.08855404950000012,-0.059918631499999986,0.047856452000001326
75092.0,-1.9382843724999999,0.47219019749999996,9.467634109499999,-0.14234381780490152,0.3038810213939847,-0.5921430913118723,9.675536446247342,0.680616542716313,-0.06580262150000005,-0.14003896200000004,0.032361944999998116
75102.0,-1.9681946549999998,0.37402563099999997,9.505978111,-0.11196636217394022,0.27057315794892495,-0.6289154333221406,9.71479825932719,0.6937441331872262,-0.02991028249999994,-0.0981645665,0.0383440015000005
75112.0,-1.989769285,0.37883088949999993,9.5370651915,-0.07572809091478196,0.23913105147424707,-0.669150508568366,9.749784978002833,0.7146193438818175,-0.02157463000000015,0.004805258499999965,0.031087080500000752
75122.0,-1.943089631,0.44826197149999997,9.5586398215,-0.02723062698961553,0.1956967877091162,-0.7141834939283237,9.76443195205734,0.7410106630579498,0.04667965399999985,0.06943108200000003,0.021574629999999928
75132.0,-1.884445864,0.5404444814999999,9.56344508,0.017268287619231895,0.1522642692732373,-0.7421611218377928,9.762310087786943,0.7578164238271329,0.05864376700000018,0.09218250999999994,0.004805258499999354
75142.0,-1.7994222084999998,0.6924475565,9.6423886125,0.05936911983583912,0.10589959769400793,-0.7496224043900686,9.833263042216226,0.7593899962110262,0.08502365550000013,0.1520030750000001,0.0789435325000003
75152.0,-1.7180270135,0.792965719,9.763304607,0.1012029166768912,0.056869808346983235,-0.7376319924288675,9.944975027605265,0.74671089566171,0.08139519499999981,0.10051816250000001,0.12091599450000068
75162.0,-1.6761526179999997,0.8827946329999999,9.912954086,0.14996567064836078,-0.007613126197199265,-0.7171139017424222,10.092347233127978,0.732666370277596,0.04187439550000027,0.08982891399999993,0.14964947899999892
75172.0,-1.6570296505,0.9007408025,10.0015081355,0.20405866015542104,-0.07609461005770077,-0.6987286034019139,10.177781990217573,0.731882495812168,0.019122967499999755,0.017946169500000053,0.08855404950000079
75182.0,-1.6821346744999999,0.9007408025,10.132034647,0.24216268838496124,-0.12059352466654821,-0.7027254073889808,10.31014244055105,0.7529997105094678,-0.02510502399999992,0.0,0.1305265114999994
75192.0,-1.678506214,0.8911302855000001,10.154786075,0.24536013157461484,-0.13898056833630845,-0.7397630394455526,10.331078187933041,0.791685889144879,0.003628460499999875,-0.00961051699999993,0.022751428000001184
75202.0,-1.6127035925,0.9138817134999999,10.087708588999998,0.2131186643025236,-0.13018585423550905,-0.788258758041467,10.256600666893316,0.8268735038361048,0.06580262150000005,0.02275142799999985,-0.0670774860000023
75212.0,-1.501398115,1.058725934,9.993172483,0.15156439224318757,-0.08302182185886627,-0.8260974962247041,10.160639407932855,0.8439795383595132,0.11130547749999997,0.1448442205,-0.09453610599999784
75222.0,-1.2906532065,1.184447187,9.788409631,0.08041953594414272,-0.011344640137963142,-0.8426170375948303,9.943925982351965,0.8465219871133997,0.21074490849999994,0.12572125300000003,-0.204762852
75232.0,-1.040485565,1.3149736984999998,9.605319475499998,0.009539969691401005,0.08724726397794454,-0.8165051666557432,9.750586047266067,0.8212087330690493,0.25016764150000004,0.13052651149999983,-0.18309015550000218
75242.0,-0.8262102625,1.437066491,9.452041536,-0.06879913378436447,0.21008528206255747,-0.7432275180107613,9.596294737849844,0.7754071769575128,0.21427530250000004,0.12209279250000016,-0.1532779394999988
75252.0,-0.6981354135,1.5148332254999999,9.3299487435,-0.14554126099455517,0.3214669589370796,-0.6323781665580974,9.477871929552476,0.7241722239077663,0.128074849,0.07776673449999993,-0.12209279250000016
75262.0,-0.6394916465,1.5136564274999997,9.3623106885,-0.19750145815567835,0.4008724585858136,-0.4919524656011377,9.505417759070701,0.6646222855406615,0.05864376699999996,-0.0011767980000001454,0.03236194499999989
75272.0,-0.6549861535,1.4310844345,9.5119601675,-0.21455507027691495,0.41899246688001873,-0.3323421055062562,9.641286000739296,0.5762289827629873,-0.01549450699999999,-0.08257199299999973,0.1496494790000007
75282.0,-0.8956413444999999,1.3580248919999998,9.705837638,-0.2073608231001943,0.36649994429703725,-0.1860538435918475,9.841223972681792,0.4603658901806487,-0.24065519099999988,-0.07305954250000024,0.19387747050000037
75292.0,-1.1733656725,0.9857644579999999,9.875884949,-0.18337825384854023,0.25591762821992853,-0.08879537102446351,9.994079351993467,0.32711776829396677,-0.277724328,-0.37226043399999986,0.17004731099999937
75302.0,-1.4163744594999998,0.5739832244999999,9.920112940500001,-0.14767230801124023,0.1352106571520007,-0.06641326869688823,10.037141729785771,0.21094964948974804,-0.24300878699999995,-0.41178123349999995,0.04422799150000145
75312.0,-1.6163320529999998,0.232809871,9.867451229999999,-0.09544507547456191,0.029157470483817272,-0.12396899143990524,10.001666037116951,0.15914845697017233,-0.19995759349999997,-0.34117335349999994,-0.05266171050000246
75322.0,-1.7108681589999999,0.016082905999999998,9.801648608499999,-0.030428070179269143,-0.039322268047432246,-0.22895403660586813,9.949856479460164,0.23429054419107453,-0.09453610600000006,-0.216726965,-0.0658026214999996
75332.0,-1.720478676,-0.09885103199999999,9.762127808999999,0.040716786119775715,-0.03559249943592036,-0.3528601961927016,9.913070047182623,0.35698039266207804,-0.00961051700000004,-0.11493393799999999,-0.03952079949999998
75342.0,-1.607898334,-0.0701175475,9.833912487,0.0942757048757257,0.004110250388446646,-0.4812937398592083,9.964742260837552,0.49045740560800377,0.112580342,0.02873348449999999,0.07178467800000021
75352.0,-1.4271617744999998,0.096301303,9.986013628499999,0.12811589374264376,0.06379876547740072,-0.5881462873248052,10.08793997108137,0.605309854537219,0.18073655950000012,0.1664188505,0.15210114149999931
75362.0,-1.2200453265,0.40756437399999995,10.1523344125,0.13984101565754167,0.11042872710293322,-0.6510305002741608,10.233499564709046,0.6749746111646948,0.20711644799999984,0.31126307099999995,0.1663207840000016
75372.0,-1.0248929915,0.6565552174999999,10.316399666999999,0.14650293741240403,0.12588361762934303,-0.6579594574045784,10.387953238580254,0.6857262160994289,0.19515233499999995,0.24899084349999995,0.16406525449999876
75382.0,-0.810617689,0.8062046965,10.430058740499998,0.15209846299429786,0.1202880920474492,-0.6161239152342742,10.492530313544906,0.6459193807722869,0.21427530250000004,0.14964947900000014,0.11365907349999915
75392.0,-0.66096821,0.8181688095,10.529498171499998,0.142506133425337,0.12295320981524453,-0.5604339494616393,10.581900156356186,0.5911951467805556,0.14964947900000003,0.011964112999999998,0.09943943100000041
75402.0,-0.6250758710000001,0.7211810409999999,10.513905598,0.09960419508206439,0.1562610732603043,-0.5132699170849965,10.557131848284362,0.5456963683944097,0.035892338999999884,-0.09698776850000013,-0.015592573499999318
75412.0,-0.705294268,0.5739832244999999,10.478013258999999,0.03645294675715357,0.21301743520590793,-0.49088781475742116,10.5173979007291,0.5363544459648855,-0.08021839699999989,-0.14719781649999997,-0.035892339000000106
75422.0,-0.7855126649999999,0.406387576,10.4288819425,-0.018704693593623232,0.27616868353081875,-0.5084737523005161,10.466315472954422,0.5789339894186067,-0.080218397,-0.16759564849999997,-0.04913131649999869
75432.0,-0.7903179234999999,0.328522775,10.431333605,-0.04774871767606086,0.32759655527008363,-0.5694939536087418,10.466386693252899,0.6587281732713797,-0.004805258499999909,-0.07786480099999998,0.0024516625000003955
75442.0,-0.7316741564999999,0.314205066,10.565390510499999,-0.042952552891580446,0.3409186534505564,-0.6379736921399912,10.595355045214554,0.7246246489964144,0.05864376699999996,-0.014317709000000012,0.13405690549999782
75452.0,-0.6526325574999999,0.510534199,10.768878498,-0.005914920835008782,0.30814486075660685,-0.6787428381373268,10.800709167834503,0.7454395225783957,0.07904159899999996,0.196329133,0.20348798750000086
75462.0,-0.508965135,0.73549875,10.950889921999998,0.0460452763261144,0.23326849051679813,-0.6886022030818428,10.98735609706258,0.7284966370746685,0.14366742249999997,0.224964551,0.1820114239999988
75472.0,-0.310282406,0.9582077715,11.0741595125,0.08441633993120974,0.14666874369134347,-0.6694175439439211,11.119867185049037,0.6904764202804394,0.19868272899999995,0.22270902150000005,0.12326959050000141
75482.0,-0.092378643,1.0970699355,11.055036544999998,0.09960419508206439,0.08111766764494047,-0.6209200800187546,11.109722285833522,0.634068464325894,0.21790376300000003,0.13886216399999995,-0.01912296750000131
75492.0,0.072765343,1.299381125,10.998746373999998,0.09853954423834785,0.034487706019407954,-0.5556377846771587,11.075473258634426,0.5653607621741388,0.165143986,0.20231118950000004,-0.056290171000000555
75502.0,0.218884428,1.450207402,10.905387066,0.09960419508206439,-0.02360208747471932,-0.4674393162568773,11.003566647270173,0.47851600662235655,0.14611908499999998,0.15082627699999995,-0.09335930799999836
75512.0,0.3158721965,1.5495487665,10.7377914175,0.1012029166768912,-0.07849269244994099,-0.35632292942865834,10.853618804344478,0.37864120635315357,0.09698776849999999,0.09934136450000008,-0.16759564849999897
75522.0,0.34215401849999993,1.5915212284999998,10.579708219499999,0.10466739524209995,-0.09128246520855543,-0.24307724091300628,10.704215767766346,0.2799540982575479,0.026281821999999955,0.04197246199999971,-0.1580831980000017
75532.0,0.30861527549999995,1.4812944824999998,10.3786718945,0.08388401450935146,-0.04758291139712141,-0.15487877249272483,10.488389153051154,0.18245025490824782,-0.03353874299999998,-0.11022674599999993,-0.20103632499999868
75542.0,0.2858638475,1.3496892395,10.2086245835,0.029258699580432937,0.03928387080388837,-0.1111774733520388,10.301426846285429,0.12148960691111778,-0.022751427999999962,-0.13160524299999987,-0.17004731099999937
75552.0,0.17573516799999997,1.1916060415,10.1021243645,-0.03815638810710003,0.15332892011695384,-0.10611601852125524,10.173678021405818,0.19033201802222935,-0.11012867950000002,-0.15808319799999992,-0.10650021900000084
75562.0,0.10748088399999998,1.000082167,10.072214081999999,-0.08825082829784128,0.2673757147592713,-0.12769876005141712,10.12231263075864,0.30916816598245633,-0.06825428399999998,-0.19152387450000008,-0.029910282500001273
75572.0,0.0871811185,0.8864230934999999,10.0458341935,-0.10024124025904232,0.3614367441370017,-0.17486279242805988,10.08524323412216,0.4138379180751399,-0.020299765499999983,-0.11365907350000004,-0.026379888499999282
75582.0,0.09914523149999999,0.8540611484999999,10.106929623000001,-0.09091594606563662,0.4451060831483579,-0.2348165975633171,10.143435149227368,0.5113941425123048,0.011964112999999985,-0.032361945,0.061095429500001686
75592.0,0.0763938035,0.9917465145,10.200288931,-0.07386233394440003,0.5090566922706821,-0.2827799907373733,10.248672667136814,0.5869913828010688,-0.02275142799999999,0.13768536600000003,0.09335930799999836
75602.0,0.08237586,1.232303639,10.387007547,-0.06160488660764385,0.5402335086990568,-0.31209105019536604,10.46017608945654,0.6269355864738267,0.005982056499999999,0.2405571245,0.18671861600000028
75612.0,0.059624432,1.3951920955,10.652767761999998,-0.05414360405536809,0.5186490218396429,-0.3166201796042913,10.743908834653404,0.610062845818344,-0.022751427999999997,0.16288845649999995,0.26576021499999847
75622.0,0.026085689,1.498063854,10.8574325475,-0.0496144746464428,0.457363530485114,-0.300100638234165,10.960324689412458,0.549275330031127,-0.033538742999999996,0.10287175850000008,0.2046647855000021
75632.0,-0.039716932499999996,1.566318138,11.0429743655,-0.04028743512378511,0.3377212102609028,-0.2777167905773377,11.153573991382544,0.4390960134839748,-0.06580262149999999,0.068254284,0.18554181799999903
