timestamp,ax,ay,az,gx,gy,gz,acc_mag,gyro_mag,dax,day,daz
38642.0,-4.014646377,-0.1375872995,9.566387075,-0.007916813487046278,0.1561772974562086,-0.5226091739124181,10.375551911395846,0.5455037789364376,0.0,0.0,0.0
38652.0,-3.9427636325,-0.23692866399999998,9.586784907,-0.01884257460453078,0.21719749876443434,-0.5236755700853867,10.368604781101093,0.567244126273255,0.07188274449999987,-0.09934136449999997,0.02039783200000045
38662.0,-3.8852966634999997,-0.36980877149999997,9.625030842,-0.022839378591597796,0.25849897018362816,-0.5367323782195562,10.386217184342613,0.5961753103154033,0.05746696900000048,-0.13288010749999998,0.038245934999999065
38672.0,-3.8590148415,-0.491901564,9.6155183915,-0.017243853009703977,0.28701066884420756,-0.5612472728930685,10.37266391207474,0.6306115887191783,0.02628182199999962,-0.12209279250000005,-0.009512450499999048
38682.0,-3.7811500405,-0.5888893325,9.6070846725,-0.009515535081873085,0.32431533627633435,-0.6036133951559789,10.341177987990047,0.6852883433735424,0.07786480100000004,-0.09698776849999996,-0.008433719000001005
38692.0,-3.6638625064999997,-0.6942127535,9.5808028505,-0.011114256676699892,0.3738774510452173,-0.6635672002912361,10.280933959218268,0.7617278414262497,0.11728753400000036,-0.10532342100000003,-0.02628182199999962
38702.0,-3.5286288029999997,-0.730203159,9.614243527,-0.019641935401944186,0.4290350913959941,-0.7261861231942887,10.267331516963704,0.8436843016172896,0.13523370349999997,-0.03599040549999999,0.03344067649999971
38712.0,-3.4100664044999998,-0.72176944,9.690931529999999,-0.03136531198759009,0.47566505302152656,-0.7808114381232072,10.298721179193345,0.914826501237301,0.11856239849999994,0.008433719000000006,0.07668800299999923
38722.0,-3.3178838945,-0.7146105855,9.774680320999998,-0.042024037729519466,0.4988482614757673,-0.8237116311372278,10.347144398530242,0.9639068725739225,0.09218250999999977,0.007158854499999978,0.08374879099999966
38732.0,-3.2245245865,-0.7493261265,9.876473348,-0.04735427326511015,0.5028450654628343,-0.8492929219837086,10.416514496056385,0.9881265376400001,0.09335930800000014,-0.03471554099999996,0.10179302700000115
38742.0,-3.079680366,-0.790023724,9.9662041955,-0.043090433902488005,0.4881895357338379,-0.8652801379319768,10.46106087868771,0.9944322628482574,0.1448442205,-0.040697597500000016,0.08973084750000027
38752.0,-2.986321058,-0.800811039,9.9877788255,-0.032166418114255496,0.47006952743963276,-0.8735407812816659,10.455387972177055,0.9925087080946968,0.0933593079999997,-0.010787314999999964,0.021574629999999928
38762.0,-2.9468002584999997,-0.9013292015,9.9758147125,-0.01298001364708183,0.44155782877905336,-0.8778046206442881,10.440924541011862,0.982691583832289,0.039520799500000425,-0.10051816250000001,-0.011964112999999443
38772.0,-2.8102916904999997,-0.997140172,9.9530632845,0.014732324216084135,0.41624357330812767,-0.9007190483937216,10.390163456537701,0.9923560640397265,0.136508568,-0.09581097050000009,-0.022751427999999407
38782.0,-2.6953577524999996,-1.0366609715,9.9746379145,0.042177626703694966,0.4066512437391668,-0.9428198806103288,10.384267952493046,1.0276446435918607,0.11493393800000007,-0.03952079949999987,0.021574629999999928
38792.0,-2.57326496,-1.06892485,10.0236711645,0.06189635659272691,0.39599251799723745,-0.9865211797510148,10.403762612792551,1.0648310999245751,0.12209279249999971,-0.03226387850000001,0.04903324999999903
38802.0,-2.4476417735,-1.0964815365,10.0321048835,0.07175397620799089,0.3800053020489694,-1.0326188159546892,10.384428265668369,1.1026578262319864,0.12562318649999993,-0.027556686500000094,0.008433719000001005
38812.0,-2.3350614315,-1.1012867949999998,10.0668204245,0.07735124711913668,0.357356164345839,-1.0744526127957412,10.392604002503441,1.1349603785024616,0.11258034200000022,-0.004805258499999798,0.03471554099999885
38822.0,-2.1184325329999996,-1.0366609715,10.0595635035,0.07468612935134136,0.3408348776464607,-1.1064287900215293,10.332339534086813,1.16014270636257,0.21662889850000022,0.0646258234999999,-0.00725692099999975
38832.0,-1.8993519719999998,-0.9360447424999999,10.0020965345,0.053901003289340874,0.347496799401323,-1.1154887941686318,10.223778790592013,1.1696044603478344,0.21908056099999973,0.100616229,-0.057466969000000034
38842.0,-1.6982175804999997,-0.8115983539999999,9.956691745,0.02352529298763157,0.373343380294107,-1.0955030289040448,10.133032386402697,1.1576120271306447,0.20113439150000012,0.1244463885,-0.045404789499999154
38852.0,-1.625158038,-0.915744977,9.948258026,-0.010848966630396754,0.3837350706604813,-1.0808474991750483,10.121638467325837,1.146996783345406,0.0730595424999998,-0.1041466230000001,-0.008433719000001005
38862.0,-1.5389575844999999,-1.0366609715,9.925506597999998,-0.02656914720310968,0.36934657630704,-1.0733879619520246,10.097461940689001,1.1354666573159926,0.08620045350000005,-0.1209159944999999,-0.022751428000001184
38872.0,-1.4336341634999998,-1.159930562,9.919524541499998,-0.010314895879286487,0.33257423429677146,-1.0888428524784344,10.08948526699141,1.1385476607452398,0.10532342100000003,-0.12326959050000008,-0.00598205650000061
38882.0,-1.3139930334999999,-1.1778767314999998,9.871668089499998,0.01926145362500942,0.2888746804853375,-1.106161754645974,10.028150485306261,1.143421799714661,0.11964112999999998,-0.01794616949999983,-0.04785645199999955
38892.0,-1.1248227549999998,-1.1419843925,9.7435932405,0.04350931292296664,0.25929833098104155,-1.1168204803879036,9.874561449461776,1.1473520253934493,0.1891702785,0.035892338999999884,-0.128074848999999
38902.0,-0.8482752249999999,-1.1180561665,9.581979648499999,0.04750611691003366,0.26862362517444727,-1.125880484535006,9.684211606169375,1.1584568824960693,0.27654753,0.023928225999999997,-0.16161359200000014
38912.0,-0.6088948985,-1.0665712539999999,9.449099540999999,0.0331176225565924,0.3240483009007792,-1.1320083355387582,9.52857855994297,1.1779418279226324,0.23938032649999985,0.05148491250000009,-0.13288010750000012
38922.0,-0.46640427399999995,-1.0258736565,9.446647878499999,0.022725932190218165,0.3864001884282766,-1.1261475199105613,9.513627375836972,1.1908105685674906,0.14249062450000005,0.040697597499999905,-0.0024516625000003955
38932.0,-0.38020382049999996,-0.9958653074999999,9.514902162499999,0.031251865586210466,0.4279686952230256,-1.1005662290640803,9.574427701839522,1.181261997928422,0.0862004535,0.030008349000000045,0.068254284
38942.0,-0.29645502949999997,-0.9611497665,9.681321013,0.057100191808246485,0.4343635816023328,-1.0597970830667447,9.733430588179802,1.1467789718179024,0.08374879099999999,0.03471554099999996,0.16641885050000127
38952.0,-0.1468055505,-0.8725957169999999,9.8022370075,0.08481078434216045,0.4101157223043756,-1.0038400819185547,9.842094569053222,1.0876960443470514,0.14964947899999997,0.08855404950000001,0.12091599450000068
38962.0,0.04118793,-0.7361852154999999,9.895596315499999,0.10026567486857024,0.3879989100231034,-0.9318958648220964,9.923028346046163,1.014409317094677,0.18799348049999998,0.1364105015,0.09335930799999836
38972.0,0.18720894849999997,-0.6104639625,10.0140606475,0.09866695327374343,0.38906530619607194,-0.8396988470854958,10.034397046744651,0.9306992714891729,0.1460210185,0.12572125299999992,0.11846433200000028
38982.0,0.2303582085,-0.47993745099999996,10.131446248,0.08880758832922747,0.4037208359250683,-0.7296506017594975,10.145423004350729,0.8386103396410555,0.04314926000000002,0.13052651150000005,0.11738560050000046
38992.0,0.2470295135,-0.503865677,10.315811268,0.08640950593698726,0.4058518829417534,-0.6227997996231526,10.33106317462024,0.7483728642957868,0.016671304999999997,-0.023928225999999997,0.18436501999999955
39002.0,0.213588837,-0.581730478,10.549209538,0.10906038896936968,0.3856008276308632,-0.5295381310428355,10.567395725388318,0.6640728867677825,-0.03344067649999999,-0.07786480100000004,0.23339827000000035
39012.0,0.1775984315,-0.6295869299999999,10.817323348999999,0.16634907633683155,0.3224495793059524,-0.4519966430352315,10.837084725244084,0.5796091025060089,-0.03599040550000002,-0.04785645199999988,0.2681138109999992
39022.0,0.22074769149999998,-0.6440027055,10.9442214,0.23109904625656916,0.23824791487273797,-0.3816511475336001,10.965375099840946,0.5057928790874948,0.043149259999999995,-0.014415775500000172,0.1268980510000013
39032.0,0.30812494299999993,-0.548191735,11.0639605965,0.28012883560359386,0.1820238783489926,-0.3089058243104764,11.081817506155103,0.4550029286925185,0.08737725149999995,0.09581097050000009,0.11973919649999942
39042.0,0.387166542,-0.362649917,11.104658193999999,0.2811934864473104,0.15377921506396838,-0.23536288561919133,11.117321912183511,0.3976348975292241,0.07904159900000007,0.18554181799999997,0.04069759749999946
39052.0,0.4386514545,-0.338721691,11.180071332499999,0.23856032880884492,0.14711729330910603,-0.1644833193664496,11.193799287207055,0.324975831134851,0.05148491249999998,0.023928225999999997,0.07541313850000009
39062.0,0.31175340349999997,-0.3794192885,11.370418409,0.1924626926051707,0.13406048517493643,-0.09973334944671197,11.381017703914083,0.2548741703704629,-0.126898051,-0.040697597500000016,0.19034707650000016
39682.0,-5.008158088499999,-0.315970263,11.0627837985,0.19779118281150937,0.18575364696050448,0.31648055326413177,12.147702252642775,0.41687613262391815,-5.319911491999999,0.06344902550000003,-0.3076346104999992
39692.0,-5.3517831045,-0.22741621349999996,11.129763217999999,0.2529488231622862,0.11247774364477456,0.3047571766784859,12.351717687047419,0.4117174840732987,-0.3436250160000007,0.08855404950000001,0.06697941949999908
39702.0,-5.1494719149999995,-0.3458805455,11.2830411575,0.29371796915962173,0.0178826435159339,0.2482661047791854,12.407405535282873,0.385001419644915,0.2023111895000005,-0.11846433200000006,0.15327793950000057
39712.0,-5.1805589955,-0.373437232,11.306969383499998,0.3153007106897836,-0.03754203221039803,0.19124445278727864,12.442877621816672,0.37067287878380695,-0.031087080500000752,-0.027556686499999983,0.023928225999998887
39722.0,-5.1782053994999995,-0.40217071649999997,11.268625382,0.3145013498923702,-0.09722880197010011,0.13448634551242306,12.407959963042906,0.3555996571229377,0.002353596000000735,-0.02873348449999996,-0.038344001499998726
39732.0,-5.035714774999999,-0.46444294399999997,11.137020138999999,0.29771477314668876,-0.10389072372496246,0.08252614835129987,12.231408263968472,0.32594161100967395,0.1424906245000006,-0.0622722275,-0.13160524300000098
39742.0,-4.871747587,-0.43325779699999994,11.0076704255,0.2484196937533609,-0.07084989565545781,0.043889794699901404,12.045349520314012,0.26202741466820295,0.1639671879999991,0.031185147000000024,-0.12934971349999813
39752.0,-4.863313868,-0.270467407,10.898718543999998,0.17221163729428052,0.01468520032628029,0.020174260823802453,11.937631268315329,0.17401006846727757,0.008433719000000117,0.16279038999999995,-0.10895188150000301
39762.0,-4.9004810715,-0.1962310665,10.955008715,0.08347909812288878,0.12260239863559368,0.032965778911668894,12.002726244871017,0.15194357687597376,-0.037167203500000134,0.0742363405,0.05629017100000233
39772.0,-4.977071007999999,-0.14955141249999998,11.1465325895,0.0008761552845011534,0.21106790243143025,0.06121044219669313,12.208144421345958,0.21976611503778518,-0.07658993649999957,0.046679654000000015,0.19152387449999964
39782.0,-5.127897285,-0.272821003,11.3656131505,-0.07053573639009884,0.23025256156935195,0.09265254867137099,12.47184525850152,0.2580233070725249,-0.15082627700000106,-0.12326959050000003,0.21908056100000017
39792.0,-5.276369965999999,-0.4176652235,11.552429833,-0.11450232557708799,0.16576962702516942,0.10304423903774522,12.707208950175351,0.22629287882187812,-0.14847268099999855,-0.1448442205,0.18681668249999994
39802.0,-5.4559297275,-0.46797333799999996,11.565570743999999,-0.1294248906816395,0.04746073834948181,0.056946602834070985,12.796428989017436,0.14915173343603397,-0.17955976150000108,-0.050308114499999945,0.013140910999998923
39812.0,-5.380516589,-0.6343921884999999,11.475741829999999,-0.13128890232276946,-0.07484669964252483,-0.016596335857214078,12.690353137802973,0.15203368930727648,0.07541313850000009,-0.16641885049999994,-0.08982891399999993
39822.0,-5.3039266525,-0.6343921884999999,11.243520358,-0.13901722025060034,-0.1531858031182903,-0.10319782801192072,12.447925185535544,0.23117411081169426,0.07658993649999957,0.0,-0.2322214719999991
39832.0,-5.1961515689999995,-0.5936945909999999,11.0423859665,-0.16006763635890398,-0.18862645890928714,-0.18606780622586347,12.218295798864911,0.3095526089760653,0.10777508350000087,0.040697597500000016,-0.20113439150000012
39842.0,-5.1075975195,-0.5445632745,10.7766257515,-0.19497422139879056,-0.19155686672338565,-0.2569456271493532,11.938164187555373,0.37514002120557594,0.0885540494999999,0.04913131649999991,-0.26576021500000024
39852.0,-5.02492746,-0.47042500049999997,10.548032739999998,-0.23334528500388588,-0.18143046640331456,-0.3177005384112758,11.69325405280623,0.4339362490962048,0.08267005949999984,0.074138274,-0.228593011500001
39862.0,-4.909993522,-0.4404166515,10.342093089999999,-0.2655867522759771,-0.16038005029501093,-0.36912666482128875,11.456914623720742,0.4821955808582442,0.11493393800000007,0.03000834899999999,-0.20593964999999947
39872.0,-4.81310382,-0.39020660349999997,10.125464191499999,-0.2922326939661746,-0.13186835163443159,-0.4112274970378959,11.21798799557489,0.5214376893796253,0.09688970199999947,0.05021004800000001,-0.21662889849999978
39882.0,-4.6910110275,-0.362649917,9.9303118565,-0.31248374927706474,-0.09083391559079289,-0.4402715211203336,10.988548265797952,0.5474814207746407,0.12209279250000016,0.027556686499999983,-0.1951523349999995
39892.0,-4.546166807,-0.373437232,9.7890960965,-0.328738000600888,-0.0396730792270831,-0.4599902510093655,10.799698624953566,0.5667747853231361,0.14484422050000045,-0.01078731500000002,-0.1412157599999997
