timestamp,ax,ay,az,gx,gy,gz,acc_mag,gyro_mag,dax,day,daz
71272.0,0.097281968,1.8830729329999998,9.6063001405,-0.0022951079663725434,0.02522349834982205,0.003335324200561164,9.789608257824494,0.025546365242508206,0.0,0.0,0.0
71282.0,-0.0703136805,1.9094528214999997,9.8026292735,-0.018549359290195733,-0.0072850042978243315,0.016924457756589014,9.98711643893666,0.02614550225279017,-0.1675956485,0.02637988849999995,0.196329132999999
71292.0,-0.2354576665,1.8770908764999998,9.793018756499999,-0.002562143341927676,-0.031267573549478414,0.010529571377281789,9.974072730660929,0.03309225902784363,-0.165143986,-0.03236194499999989,-0.009610517000000485
71302.0,-0.393442798,1.8160935134999998,9.7594800135,0.022218041377887812,-0.03606373833395883,-0.008122762338781609,9.934809661940223,0.04313019653678981,-0.1579851315,-0.06099736300000003,-0.03353874299999937
71312.0,-0.470130801,1.8664016279999998,9.8049828695,0.04007101429653781,-0.03713013450692737,-0.03769911184307752,9.992105237548211,0.06637436334167525,-0.076688003,0.050308114499999945,0.04550285600000059
71322.0,-0.5335798265,1.928575789,9.855290984,0.051263810789577445,-0.03792949530434077,-0.05981592412434966,10.056384657742385,0.08743322989322516,-0.06344902550000003,0.06217416100000017,0.050308114499999945
71332.0,-0.562313311,1.986042758,9.892360121,0.05019741461660891,-0.03259925976875008,-0.08513017959527543,10.105411958939781,0.10406555457780466,-0.028733484500000017,0.057466969000000034,0.037069136999999586
71342.0,-0.6173286175,2.051943446,9.935509381,0.035274849512057393,-0.02780309498426967,-0.10591356032802389,10.163951652162941,0.11504351072598824,-0.05501530649999997,0.06590068800000015,0.043149259999999856
71352.0,-0.73942141,2.102153494,9.9534555505,0.013159782560037244,-0.017144369242340297,-0.1176386822429218,10.199856407307019,0.1196075617743138,-0.12209279249999994,0.05021004799999984,0.017946169500000053
71362.0,-0.9189811714999999,2.1177460674999997,9.977383776499998,-0.0012304571226560022,-0.003555235686312449,-0.11497356447512647,10.240974652031348,0.11503510009397996,-0.17955976149999997,0.015592573499999762,0.023928225999998887
71372.0,-1.1812109924999998,2.0949946395,10.047991656499999,-0.010555751316061705,0.0025726153174396417,-0.09605594071275991,10.331814858844025,0.09666843322218123,-0.2622298209999999,-0.02275142799999985,0.07060788000000073
71382.0,-1.614566856,2.1165692695,10.246772452,-0.010288715940506572,-0.03259925976875008,-0.06541144970624348,10.586927660475988,0.0738053329092641,-0.4333558635000001,0.021574629999999928,0.19878079550000116
71392.0,-2.148440882,2.0938178415,10.420350157,0.014224433403753785,-0.1445132620651305,-0.028906143071530083,10.843595749165614,0.148060739312063,-0.5338740260000001,-0.02275142799999985,0.17357770499999958
71402.0,-2.7230125054999994,2.0375276705,10.6034403125,0.06432061892374702,-0.29426600254474794,-0.0027925268031909274,11.13549561420203,0.30122652685038553,-0.5745716234999994,-0.05629017100000011,0.1830901555000004
71412.0,-3.3431850515,1.8615963695,10.767505566999999,0.10775313735962591,-0.44455106844622366,-0.004391248398017733,11.427230787329213,0.45744472248569507,-0.6201725460000005,-0.17593130099999987,0.16406525449999876
71422.0,-3.8543076494999995,1.7083184299999998,10.890775157499998,0.11654610613117335,-0.5796465338675928,-0.0523546415720739,11.67831421252618,0.5935605340428165,-0.5111225979999996,-0.15327793950000013,0.12326959049999964
71432.0,-4.1918525424999995,1.5071840385,10.997373443,0.0952303999765666,-0.6886301283498746,-0.1525452672828084,11.865304636155557,0.7117235006104864,-0.337544893,-0.2011343914999999,0.10659828550000228
71442.0,-4.2589300285,1.279767825,10.9721703525,0.05072974003846718,-0.7656375456063685,-0.2817799170759805,11.839122134594447,0.8174192800722656,-0.06707748600000052,-0.22741621349999996,-0.02520309050000158
71452.0,-4.1906757445,1.2151420015,10.839290244999999,-0.021481512433546207,-0.7949486050643612,-0.42753410823927895,11.684543050316611,0.9028788145582782,0.068254284,-0.0646258234999999,-0.13288010750000012
71462.0,-3.9333492485,1.161303493,10.583140547,-0.11181102787051274,-0.7728317927830891,-0.5719566131833057,11.350009953787923,0.9679385586151126,0.2573264960000001,-0.05383850850000016,-0.25614969799999976
71472.0,-3.5609907479999996,1.048723151,10.246772452,-0.17949315093360085,-0.7000882148892175,-0.7041216707905764,10.898477922987736,1.0090236008814444,0.3723585005000003,-0.112580342,-0.3363680949999992
71482.0,-3.165978886,1.024794925,10.050443319000001,-0.20667316337490854,-0.5657903649360098,-0.8240310263903429,10.58702214285657,1.020715271742192,0.3950118619999996,-0.023928225999999997,-0.196329132999999
71492.0,-2.913359582,1.1827800565,9.9307041225,-0.19734612385225084,-0.4040489578244433,-0.9242199067718252,10.41659815317476,1.0278051804655628,0.252619304,0.15798513150000004,-0.1197391965000012
71502.0,-2.5781682850000003,1.3013424550000001,9.986994293499999,-0.17123250758391168,-0.2737479118583026,-1.008688606580595,10.396177129568677,1.059108679950154,0.3351912969999997,0.11856239850000017,0.05629017099999878
71512.0,-2.197474132,1.4413814169999999,10.130661715999999,-0.13526127170030855,-0.19087793364435987,-1.078501776660368,10.46598202530991,1.1035832906645042,0.3806941530000003,0.14003896199999977,0.14366742250000009
71522.0,-1.8180548435,1.5622974115,10.265895419499998,-0.0920940433107328,-0.14131581887547687,-1.133659417011145,10.54204464893146,1.14613923554506,0.37941928850000006,0.12091599450000001,0.13523370349999908
71532.0,-1.463740579,1.635356954,10.387988212,-0.06278298385274002,-0.11786732037493307,-1.1837556025311382,10.617307942329749,1.191264762677751,0.3543142644999999,0.07305954250000002,0.12209279250000193
71542.0,-1.1045229895,1.6029950089999998,10.528027174,-0.04199785779073955,-0.11387051638786605,-1.2482385370753206,10.706489630578986,1.2541250974290352,0.35921758950000005,-0.032361945000000114,0.1400389620000002
71552.0,-0.6759723845,1.6089770654999997,10.659730483499999,-0.03373895977030238,-0.11493691256083458,-1.3252459543318142,10.80164801513041,1.3306485827401013,0.428550605,0.005982056499999944,0.13170330949999887
71562.0,-0.33479903099999997,1.6999827775,10.6609072815,-0.046795767904471965,-0.08535881772728668,-1.4003893599471784,10.800785892688312,1.403768617369272,0.3411733535,0.0910057120000003,0.0011767980000012557
71572.0,0.11287454149999998,1.7478392294999998,10.696897687,-0.08942892554293745,-0.01421396142824182,-1.465671655288774,10.839340513169791,1.4684661965943182,0.44767357249999995,0.04785645199999977,0.03599040549999977
71582.0,0.47562252499999996,1.8963119104999997,10.613050829499999,-0.13126272238398953,0.06625793439346073,-1.5165672016061806,10.791620061776737,1.5236784743328713,0.3627479835,0.14847268099999988,-0.08384685750000109
71592.0,0.834742048,2.1476563499999997,10.564017579499998,-0.1557776170575019,0.14433174782292307,-1.5362841861659606,10.812385930236655,1.5508924592212516,0.359119523,0.25134443949999996,-0.049033250000000805
71602.0,1.2129845384999998,2.3894883389999997,10.548425005999999,-0.15444593083823022,0.20535194913114885,-1.514701444635799,10.883485476632158,1.5363409240615267,0.3782424904999998,0.24183198900000002,-0.015592573499999318
71612.0,1.6140765234999999,2.5798354155000003,10.5532302645,-0.12140510276872557,0.24372126740699215,-1.4624742120991205,10.983235534683786,1.4876054840648103,0.4010919850000001,0.1903470765000006,0.0048052585000011305
71622.0,1.8139360505,2.7690056939999996,10.633448661500001,-0.07104362720242918,0.28955361356436327,-1.3851997594670717,11.136785306607294,1.416921615941366,0.1998595270000001,0.18917027849999934,0.08021839700000122
71632.0,1.8846419969999997,2.7941107179999998,10.781823275999999,-0.05079257189153898,0.3460429401344117,-1.3012651304094123,11.29631104901923,1.3474481590753873,0.07070594649999973,0.025105024000000142,0.148374614499998
71642.0,1.8702262214999998,2.6265150695,10.9505957225,-0.08836252936996893,0.404132733628539,-1.2431753369152851,11.415422646907649,1.3101969780537455,-0.014415775499999839,-0.16759564849999986,0.16877244650000023
71652.0,1.6930200559999997,2.3738957655,11.048760288999999,-0.15311424461895853,0.41559082016788174,-1.2266557955451587,11.42702069391932,1.304164154720399,-0.17720616550000012,-0.252619304,0.0981645664999995
71662.0,1.5709272635,2.1524616085,11.020026804499999,-0.20827188496973534,0.3705578348079241,-1.2439746977126984,11.337631772780965,1.31459626332794,-0.12209279249999971,-0.22143415700000002,-0.028733484500000017
71672.0,1.6044660065,2.0159530405,10.821344075499999,-0.24317847000962192,0.28715553117212306,-1.2858102398830025,11.123842206174725,1.3397395419808094,0.03353874300000004,-0.136508568,-0.19868272899999972
71682.0,1.7182231465,2.1285333824999997,10.562742714999999,-0.2583663251604766,0.19655723503034941,-1.3239142681125426,10.911208860839883,1.3631349507410022,0.11375713999999992,0.11258034199999978,-0.25860136050000015
71692.0,1.8462979954999998,2.260236692,10.287470049499998,-0.263162489944957,0.1475291910125767,-1.3436329980015747,10.69343378954627,1.3770871401743443,0.12807484899999988,0.1317033095000002,-0.27527266550000107
71702.0,1.9635855294999998,2.3404550889999998,10.026515093,-0.273021854889473,0.14859558718554522,-1.3481621274105,10.48162215811296,1.3835326897338966,0.11728753399999992,0.08021839699999989,-0.26095495649999734
71712.0,2.0796962655,2.4421500495,9.773895789,-0.2927405847785049,0.1981559566251762,-1.334840029230027,10.286800878564696,1.3808550744945391,0.11611073600000021,0.10169496050000015,-0.2526193040000013
71722.0,2.1251991215,2.5570839874999995,9.698482650499999,-0.29940076120411524,0.25384766772706324,-1.3079270521642745,10.252595551722635,1.3655594560484,0.04550285600000015,0.11493393799999962,-0.07541313850000009
71732.0,2.1610914605,2.6396559805,9.717605618,-0.28341354525584717,0.2834240172313592,-1.278615992706282,10.29902708720686,1.3399668906291382,0.03589233899999966,0.08257199300000062,0.01912296750000131
71742.0,2.2125763729999997,2.7102638605,9.763108474,-0.24850696021596064,0.28076064479281587,-1.2498372586701474,10.371080535555627,1.304866055233396,0.05148491249999987,0.07060787999999985,0.045502855999998815
71752.0,2.1934534055,2.784500201,9.8122397905,-0.22239334394762147,0.2703689544264416,-1.2242577131529184,10.43286772262258,1.2733283626638754,-0.019122967499999532,0.07423634050000016,0.049131316500000466
71762.0,2.1575610665,2.7414490075,9.9163864135,-0.22239334394762147,0.2541147031026184,-1.2127996266135757,10.51215163124309,1.2589344764836514,-0.035892339000000106,-0.043051193500000196,0.1041466230000001
71772.0,2.1323579759999998,2.7090870624999996,9.959437606999998,-0.23624951287920443,0.22267085129868858,-1.2186621875710246,10.539283689973505,1.2611636165736544,-0.025203090500000247,-0.032361945000000336,0.04305119349999842
71782.0,2.2772021964999998,2.7210511755,9.9403146395,-0.24930632101337402,0.16324937158528963,-1.2357157996922612,10.554602051981513,1.2711402505739877,0.1448442205,0.011964113000000332,-0.019122967499997756
71792.0,2.5621834454999997,2.8348083154999997,9.8600962425,-0.24850696021596064,0.09450259767848497,-1.2429100468689818,10.574612054604405,1.271027865489822,0.2849812489999999,0.1137571399999997,-0.08021839700000122
71802.0,2.8387309755,3.0861527549999996,9.777524249499999,-0.23012166187545235,0.03934495732770817,-1.2199938737902962,10.638736430047404,1.2421308534197564,0.2765475300000002,0.25134443949999996,-0.08257199300000018
71812.0,3.1726474079999996,3.2178560644999994,9.7116235615,-0.21173461820569212,-0.008351400470792867,-1.1632375118446927,10.711485491173036,1.1823801433545664,0.3339164324999997,0.13170330949999975,-0.06590068799999926
71822.0,3.4850872769999994,3.2178560644999994,9.6159106575,-0.20507444178008175,-0.05631479364484904,-1.0835649768204036,10.722227788718573,1.1042372669161622,0.31243986899999987,0.0,-0.0957129039999991
71832.0,3.6778860159999995,3.2598285264999998,9.453022201,-0.1994771708689359,-0.0949511472962475,-0.9828420256878108,10.65424592833629,1.0073655292538393,0.1927987390000001,0.04197246200000038,-0.16288845650000106
71842.0,3.7568295485,3.197556299,9.3177884975,-0.18055954710656938,-0.11014074777635416,-0.8658648232313948,10.543211893246792,0.8913218422554215,0.0789435325000003,-0.06227222749999983,-0.13523370349999908
71852.0,3.7508474919999997,3.0993917325,9.202854559499999,-0.1637712250316359,-0.09548521804735778,-0.7502210523235026,10.409976852185693,0.7738023445062038,-0.005982056500000166,-0.09816456649999994,-0.11493393800000185
71862.0,3.6071800694999996,2.9425833989999997,9.159803365999998,-0.1637712250316359,-0.047254789497746474,-0.6516291482075949,10.274850014362901,0.6735536920488185,-0.14366742250000009,-0.15680833350000034,-0.043051193500000196
71872.0,3.4443896794999995,2.676823184,9.1681390185,-0.17016785674019513,0.015364133405306082,-0.5879455744608257,10.1530279072397,0.6122688580933363,-0.16279039000000006,-0.2657602149999998,0.008335652500001345
71882.0,3.2576710634999997,2.4852993094999998,9.194518906999999,-0.18002547635545912,0.07345218157018135,-0.5530389894209392,10.066196468723769,0.5862222436364578,-0.18671861599999984,-0.19152387450000008,0.026379888499999282
71892.0,3.0817397624999994,2.3331981679999996,9.195695704999999,-0.18668739811032148,0.11528772374048545,-0.5373170635189743,9.975056548906755,0.5803904466883631,-0.17593130100000032,-0.1521011415000002,0.0011767979999994793
71902.0,2.9895572525,2.3117216044999997,9.187360052499999,-0.17549634694653382,0.12914214734281643,-0.5277247339500134,9.934238474939093,0.5709378747591582,-0.09218250999999933,-0.021476563499999823,-0.008335652499999568
71912.0,2.9595489035,2.3703653715,9.230411246,-0.14778400908336786,0.13100790431319836,-0.5064072824661547,9.97888037191035,0.5435545235466677,-0.030008349000000045,0.0586437670000004,0.043051193500000196
71922.0,2.930815419,2.4780423885,9.2159954705,-0.11261038866792614,0.13367302208099371,-0.4653728464225161,9.983233224348083,0.4971131286292909,-0.028733484500000017,0.10767701699999987,-0.014415775499999839
71932.0,2.89492308,2.5391378179999995,9.2471806175,-0.08649851772883899,0.14699512026146644,-0.4083494491013573,10.016893224477446,0.44253681375830334,-0.035892339000000106,0.061095429499999465,0.031185147000000413
71942.0,2.7884228609999995,2.530704099,9.3501504425,-0.07370699964097252,0.15978663834933285,-0.33400540428340686,10.07993445344888,0.3775236438709195,-0.1065002190000004,-0.008433718999999673,0.10296982500000063
71952.0,2.6339681235,2.444601712,9.5249049455,-0.07130891724873233,0.1477962263881318,-0.25859670862173983,10.180259320210748,0.306269397628551,-0.1544547374999996,-0.08610238699999995,0.17475450299999906
71962.0,2.3993930555,2.294952233,9.6865185375,-0.06438170544756683,0.10835876661006795,-0.1930473779045888,10.23975264173234,0.23055133140675974,-0.23457506799999983,-0.1496494789999998,0.16161359200000014
71972.0,2.213753171,2.1943360039999997,9.7212340785,-0.06278298385274002,0.03534815334064116,-0.14348526313570584,10.208731831601463,0.16055907244117237,-0.18563988450000002,-0.10061622900000033,0.03471554100000063
71982.0,2.10842975,2.05547384,9.6757312225,-0.07024426640501578,-0.03766245992878564,-0.0997857093242718,10.113862932019137,0.12771024092066494,-0.10532342100000003,-0.13886216399999984,-0.04550285600000059
71992.0,2.0306630155,1.9992817354999999,9.5320638,-0.07983659597397662,-0.07816457055056605,-0.055019759339869245,9.948917530449927,0.12454218588046191,-0.07776673449999993,-0.056192104500000006,-0.14366742250000009
72002.0,1.8906240534999998,1.9106296194999999,9.321416958,-0.08809723932366578,-0.08082968831836139,-0.010253809355466686,9.70122564212757,0.11999876122857664,-0.1400389620000002,-0.088652116,-0.21064684199999917
72012.0,1.6655614359999997,1.8064829965,9.229234448,-0.08543212155587043,-0.06057863300747118,0.025984461903691577,9.550719565031939,0.1079055625582634,-0.22506261750000012,-0.10414662299999988,-0.09218251000000066
72022.0,1.4165705924999998,1.6413390104999999,9.2148186725,-0.06624746241794877,-0.03713013450692737,0.04783423880940859,9.466443321437021,0.08975236803447352,-0.2489908434999999,-0.16514398600000013,-0.014415775499999839
72032.0,1.2333823704999998,1.4402046189999997,9.202854559499999,-0.031873202799920446,-0.02780309498426967,0.0502323212016488,9.396166955719712,0.06566733770098186,-0.18318822200000007,-0.20113439150000012,-0.01196411300000122
72042.0,1.1782689975,1.3300759395,9.217270334999998,0.007564256978143424,-0.023539255621647524,0.04143935243010136,9.386985259590933,0.048254890619281315,-0.055113372999999743,-0.11012867949999983,0.014415775499999839
72052.0,1.1184484325,1.324093883,9.206483019999999,0.03953868887467954,-0.019010126212722238,0.028916615047042054,9.368216538098807,0.052543919175592105,-0.0598205650000001,-0.005982056499999944,-0.010787314999999964
72062.0,1.11011278,1.381560852,9.220800728999999,0.07098079534935739,-0.008883725892651137,0.023853414887006503,9.38958076039741,0.07540675895392122,-0.008335652500000013,0.057466969000000034,0.014317709000000178
72072.0,1.1184484325,1.4557971925,9.246003819499998,0.10242464715328722,0.018826866641262832,0.025984461903691577,9.426497705514024,0.10733336625871603,0.008335652500000013,0.07423634049999994,0.025203090499999803
72082.0,1.041858496,1.5299354665,9.275914102,0.12560611027827592,0.06945537758311435,0.036643187645620946,9.458792422134255,0.14813395159545156,-0.07658993650000001,0.07413827400000006,0.029910282500001273
72092.0,0.9232960975,1.5048304424999999,9.3980068945,0.13200099665758314,0.13207430048616692,0.04410447019789671,9.562401577710643,0.191867371532897,-0.11856239849999994,-0.025105024000000142,0.12209279250000016
72102.0,0.779628675,1.3839144479999999,9.564425745,0.12107698086935062,0.1912287448240107,0.03451214062893587,9.6954257205078,0.22895230069644448,-0.14366742249999997,-0.12091599450000001,0.1664188504999995
72112.0,0.6455717695,1.2606448575,9.739180248,0.10961889433000786,0.2221385258768303,0.009197885158010117,9.841626911712815,0.24788389976810632,-0.13405690550000005,-0.12326959049999986,0.17475450300000084
72122.0,0.6168382849999999,1.2199472599999999,9.822929039,0.10348929799700377,0.22666765528575558,-0.025708699881876476,9.917595257533588,0.2504979001953333,-0.028733484500000017,-0.04069759750000013,0.08374879099999966
72132.0,0.6420413755,1.24740588,9.934332583,0.1037563333725589,0.2058842745530071,-0.05422039854245584,10.032905981168565,0.23684079640390998,0.025203090500000025,0.02745862000000021,0.11140354399999985
72142.0,0.7126492554999999,1.3671450765,9.998958406499998,0.10082592555846043,0.17337577190536071,-0.06807656747403883,10.117120333201532,0.21180048297288473,0.07060787999999996,0.11973919649999987,0.06462582349999835
72152.0,0.7377542795,1.486884273,10.069566286499999,0.092031211457661,0.13580406909767878,-0.06034824954620793,10.205453023576792,0.1747981701538755,0.025105024000000142,0.11973919650000009,0.07060788000000073
72162.0,0.7820803375,1.56710267,10.135368908,0.08377231343722384,0.09503492310034324,-0.03530102945083731,10.285580359604332,0.1315127362182139,0.04432605799999989,0.08021839699999989,0.06580262150000138
72172.0,0.8012033049999999,1.6460462025,10.166554054999999,0.07711039168236147,0.05266880083743288,-0.0057246799465414016,10.33006370696447,0.09355633087905225,0.019122967499999977,0.07894353250000008,0.031185146999998636
72182.0,0.767664562,1.7143004864999998,10.162925594499999,0.06858271295711718,0.019360937392373097,0.031579987485585395,10.33504676704987,0.0779469692987447,-0.033538742999999926,0.06825428399999978,-0.003628460499999875
72192.0,0.6635179389999999,1.7023363734999999,10.2072516525,0.060856140358538285,-0.006485643500410928,0.06675360790102712,10.369483665129133,0.0905625615735145,-0.1041466230000001,-0.011964112999999887,0.04432605800000111
72202.0,0.5199485829999999,1.5611206135,10.253931306499998,0.05446125397923106,-0.0272707695624114,0.09739635357829157,10.385112004079643,0.11487285470407727,-0.14356935599999998,-0.1412157599999999,0.046679653999998294
72212.0,0.420509152,1.461779249,10.265895419499998,0.05712462641777441,-0.05285031507964029,0.11072019708801628,10.377968745560656,0.13533418190020108,-0.09943943099999991,-0.09934136450000008,0.011964112999999443
72222.0,0.3762811605,1.4473634734999998,10.241967193499999,0.059257418763711475,-0.07390073118794391,0.10645635772539414,10.350571990421566,0.14249812577296478,-0.04422799150000001,-0.014415775500000061,-0.023928225999998887
72232.0,0.35951178899999997,1.4234352474999998,10.2168621695,0.051263810789577445,-0.07603352353388097,0.09579763198346476,10.321806490184537,0.13261320179863761,-0.01676937150000002,-0.023928225999999997,-0.025105023999998366
72242.0,0.38706847549999995,1.4018606175,10.1713593135,0.03421019866834085,-0.06217735460229799,0.08354018464670859,10.274803427800775,0.10961443139054923,0.027556686499999983,-0.021574629999999928,-0.04550285600000059
72252.0,0.38706847549999995,1.3755787955,10.1174227385,0.015290829576722322,-0.0357967029584037,0.06915169029326733,10.217841352109161,0.0793547080030701,0.0,-0.026281821999999844,-0.05393657499999982
