timestamp,ax,ay,az,gx,gy,gz,acc_mag,gyro_mag,dax,day,daz
43212.0,-1.1381597989999999,0.20407638649999998,9.8928504535,0.023832470935982567,0.004656538444320871,-0.16788322074933457,9.960198039943872,0.1696303210819566,0.0,0.0,0.0
43222.0,-0.283412185,0.2005459925,10.108302553999998,0.03768863986756556,-0.023588124840703363,-0.16015490282150366,10.114263279394955,0.1662119914637116,0.8547476139999999,-0.0035303939999999923,0.21545210049999852
43232.0,-0.24634304799999998,0.3082230095,10.1238951275,0.06620033852814493,-0.027584928827770378,-0.14923088703327117,10.131581262246353,0.1655695345297893,0.037069137,0.10767701699999999,0.015592573500002871
43242.0,-0.17328350550000002,0.3764772935,10.133407578,0.06353522076034958,-0.035578536801904405,-0.14523408304620417,10.141879089580357,0.16246690566482316,0.07305954249999996,0.068254284,0.009512450499999048
43252.0,-0.142196425,0.2711538725,10.129877184,0.02649758870377791,-0.021722367870321425,-0.15455937723960986,10.13450324430252,0.15831166907623764,0.03108708050000003,-0.10532342099999997,-0.0035303940000002143
43262.0,-0.1373911665,0.22810267899999997,10.105948958,-0.016669639685797842,0.00705462083656108,-0.1681485107956377,10.109456538632555,0.1691199758904685,0.0048052584999999925,-0.04305119350000003,-0.023928225999998887
43272.0,-0.155337336,0.298710559,10.013766448,-0.05184326010123957,0.050488884601691965,-0.1828040405246341,10.019424941637329,0.19660663345467214,-0.017946169499999998,0.07060788000000001,-0.09218251000000066
43282.0,-0.187699281,0.3741236975,10.0017042685,-0.0707608838636061,0.09898460319760641,-0.19506148786139024,10.01045892232969,0.22990006177042588,-0.032361945,0.07541313850000003,-0.01206217950000088
43292.0,-0.1624961905,0.39324666499999994,10.054464045499998,-0.0816866449810906,0.14748032179352083,-0.19719428020732735,10.063463379657762,0.2594392750357454,0.025203090499999997,0.01912296749999992,0.052759776999998564
43302.0,-0.18407082049999998,0.4351210605,10.1370360385,-0.09341176689598851,0.18611667544491933,-0.18813427606022476,10.148039813190426,0.2806415523439193,-0.021574629999999984,0.04187439550000005,0.08257199300000195
43312.0,-0.25232510449999995,0.43639592499999996,10.266287685499998,-0.10593450427904783,0.20716883688247492,-0.17454339717494494,10.278656147725075,0.29087186813003363,-0.06825428399999997,0.0012748644999999725,0.12925164699999847
43322.0,-0.338525558,0.40403397999999996,10.453104368,-0.11792491624024887,0.19864115815723063,-0.1633523460111573,10.466385906257925,0.2829285855682746,-0.08620045350000005,-0.032361945,0.18681668250000172
43332.0,-0.45698989,0.3741236975,10.640999782,-0.12618555958993802,0.16053712992769043,-0.15296065564478303,10.657377006614588,0.25513119705306103,-0.118464332,-0.02991028249999994,0.18789541399999976
43342.0,-0.5671185695,0.33577969599999996,10.743969606999999,-0.14137341474079268,0.10591181499877189,-0.15003024783068455,10.764165290084376,0.23176028610601707,-0.11012867949999994,-0.03834400150000006,0.10296982499999885
43352.0,-0.6677347985,0.32028518899999997,10.779861945999999,-0.16055981920796636,0.048090802209451756,-0.1564251342099918,10.80527074803031,0.22926186646247432,-0.100616229,-0.01549450699999999,0.035892339000000106
43362.0,-0.7466783309999999,0.24124358999999998,10.700820347,-0.17921215292402976,-0.0038693949516714287,-0.16841554617119284,10.729551859163097,0.24595886681536616,-0.07894353249999997,-0.07904159899999999,-0.07904159899999819
43372.0,-0.7981632435,0.2688002765,10.633840927499998,-0.19679809046712463,-0.04437325090270384,-0.18173938968091755,10.667140714516469,0.27152841392527094,-0.05148491250000009,0.02755668650000001,-0.06697941950000263
43382.0,-0.828073526,0.2831179855,10.5200837875,-0.21838257732653849,-0.0659559924328657,-0.19159700929618154,10.556421005918436,0.29791031702313847,-0.02991028249999994,0.014317709000000012,-0.11375713999999704
43392.0,-0.872399584,0.24722564649999998,10.454281166000001,-0.23516915407221994,-0.070485121841791,-0.19452916243953197,10.493531162208127,0.3132319882571406,-0.044326058,-0.03589233900000002,-0.0658026214999996
43402.0,-0.9466359245,0.210058443,10.377593162999998,-0.24849125225269267,-0.06808703944955079,-0.19452916243953197,10.42279636085124,0.3228394994831671,-0.07423634050000005,-0.03716720349999997,-0.07668800300000278
43412.0,-1.024402659,0.19574073399999997,10.3106137435,-0.2634138173572442,-0.05876174525614509,-0.19586084865880365,10.363226862824348,0.33346852012987743,-0.07776673449999993,-0.01431770900000004,-0.06697941949999908
43422.0,-1.0890284824999998,0.18495341899999998,10.236377402999999,-0.2791357432592091,-0.03904301536711315,-0.19532852323694538,10.295805609059693,0.3429203292366226,-0.0646258234999999,-0.010787314999999992,-0.07423634050000061
43432.0,-1.1453186535,0.232809871,10.1933262095,-0.2956552846293355,-0.008932595111706979,-0.1876002053091145,10.260109866242649,0.3502651504456374,-0.05629017100000011,0.04785645200000002,-0.04305119349999842
43442.0,-1.218378196,0.21966896,10.1945030075,-0.31004552431202864,0.01984439359517553,-0.17427810712864178,10.26940073472655,0.35622308421468607,-0.07305954250000002,-0.013140911000000005,0.0011767979999994793
43452.0,-1.3093839079999998,0.126309652,10.2292185485,-0.32310233244619824,0.03370056252675851,-0.16175362441633045,10.313454923530434,0.36289816775317685,-0.09100571199999985,-0.093359308,0.03471554100000063
43462.0,-1.393132699,0.0281450855,10.2423594595,-0.34068826998929314,0.04409225289313275,-0.16068722824336193,10.336708284578314,0.37925322595071453,-0.0837487910000001,-0.0981645665,0.013140910999998923
43472.0,-1.4757046919999999,-0.0663910205,10.2088207165,-0.36466909391169516,0.05022184922613683,-0.1718800247364016,10.315140935888051,0.40626164610686005,-0.08257199299999995,-0.094536106,-0.03353874299999937
43482.0,-1.5283664024999999,-0.129840046,10.105948958,-0.376127180451038,0.04675737066092808,-0.18600148371428768,10.221690987284706,0.4222019179599822,-0.052661710500000014,-0.06344902549999999,-0.10287175849999919
43492.0,-1.487668805,-0.15739673249999997,10.0101379875,-0.3715980510421127,0.03636568029455385,-0.202522770413666,10.121304003613485,0.424762341524774,0.040697597499999905,-0.027556686499999983,-0.09581097050000054
43502.0,-1.4721742979999999,-0.150237878,9.901186106,-0.3601399645027699,0.03609864491899872,-0.21344678620189853,10.011161515494853,0.42019452249757294,0.015494507000000102,0.007158854499999978,-0.10895188149999946
43512.0,-1.4278482399999999,-0.055603705499999996,9.775464852999999,-0.35374507812346273,0.044891613690546145,-0.21531254317228046,9.879349951326489,0.4165457100050739,0.044326058,0.0946341725,-0.1257212530000018
43522.0,-1.4206893855,-0.05207331149999999,9.670141432,-0.3609393253001833,0.08592779506343683,-0.1998576526458707,9.774083347031882,0.42143073432502887,0.007158854499999867,0.003530394000000006,-0.10532342099999958
43532.0,-1.368027675,-0.119052731,9.60071035,-0.3838554983788689,0.14215183158718217,-0.18173938968091755,9.698418040944699,0.44786314050262366,0.052661710500000014,-0.0669794195,-0.06943108199999948
43542.0,-1.4050968119999998,-0.23398666899999998,9.6078692045,-0.40517120453347566,0.1935779579971951,-0.17214531478270473,9.712888214282184,0.480905541876061,-0.03706913699999981,-0.11493393799999999,0.007158854500000089
43552.0,-1.4278482399999999,-0.279489525,9.574428527999999,-0.4083703930523812,0.22555413522298318,-0.16761618537377942,9.684345441424322,0.49571789501409097,-0.022751428000000073,-0.045502856000000036,-0.03344067650000149
43562.0,-1.3668508769999999,-0.29145363799999996,9.5731536635,-0.39691230651303844,0.23941030415456618,-0.16441874218412583,9.674631652318478,0.4918233377731196,0.06099736300000003,-0.011964112999999943,-0.0012748644999991399
43572.0,-1.3153659645,-0.2746842665,9.595905091499999,-0.38065805518921525,0.2561968809002476,-0.1649510676059841,9.689532165791249,0.4875923004599285,0.05148491249999987,0.016769371499999963,0.022751427999999407
43582.0,-1.2758451649999998,-0.36931843899999994,9.6414079475,-0.36866589789876225,0.2828428225904451,-0.18307107590018923,9.732467529077887,0.4994292996968474,0.0395207995000002,-0.09463417249999995,0.04550285600000059
43592.0,-1.205237285,-0.557213853,9.73604212,-0.36653485088207716,0.3038932386987487,-0.23369958684204073,9.826169159623875,0.5303907939699762,0.07060787999999985,-0.1878954140000001,0.09463417250000106
43602.0,-1.1524775079999998,-0.7404020749999999,9.852152856,-0.37266444721508124,0.3198821999762687,-0.3187006120726686,9.946924928695257,0.5854686090776116,0.05275977700000012,-0.18318822199999985,0.11611073599999955
43612.0,-1.08069283,-0.7559946485,9.866470565,-0.3569425213131163,0.31055516045361103,-0.420755249424533,9.954228564353215,0.6331567350380422,0.07178467799999977,-0.015592573500000095,0.014317709000000178
43622.0,-0.9107435854999999,-0.6852887019999999,9.818614112999999,-0.3052493595275483,0.2849756149363821,-0.5078890670010979,9.884546402522526,0.6575253432222923,0.16994924450000015,0.07070594650000006,-0.047856452000001326
43632.0,-0.7287321615,-0.4794471185,9.717997883999999,-0.2386336326374287,0.2561968809002476,-0.5515886208125319,9.757069384608828,0.6533244668758564,0.18201142399999992,0.20584158349999992,-0.10061622899999989
43642.0,-0.5192621175,-0.242420388,9.540889785,-0.18480767850592356,0.23541350016749918,-0.5406628596950473,9.558084467125513,0.6179722663271292,0.20947004400000002,0.2370267305,-0.1771080989999998
43652.0,-0.3827535495,-0.10238142599999998,9.43791996,-0.1632249369757617,0.22662053139595173,-0.4796444037160737,9.446232868578408,0.5550297283182882,0.13650856799999994,0.140038962,-0.10296982499999885
43662.0,-0.42109755099999996,-0.000588399,9.3528963045,-0.16588830941430505,0.22102326048480592,-0.3895801783254103,9.362371108666935,0.47764309711303177,-0.03834400149999995,0.10179302699999998,-0.08502365550000057
43672.0,-0.45698989,-0.1658304515,9.32416282,-0.20479169844125866,0.2247547744255698,-0.3104399687229794,9.336827715668596,0.43454265907764295,-0.03589233900000005,-0.16524205250000001,-0.028733484500000017
43682.0,-0.46414874449999993,-0.44708517349999993,9.197264769,-0.2796680686810674,0.23941030415456618,-0.26887146192823047,9.21981553180285,0.4558765023716445,-0.007158854499999923,-0.2812547219999999,-0.1268980509999995
43692.0,-0.46660040699999994,-0.6757762515,9.1087107195,-0.3452173993982184,0.2700530498318306,-0.2691384973037856,9.145654730714371,0.5143337761626025,-0.002451662500000007,-0.22869107800000005,-0.08855404950000079
43702.0,-0.4510078335,-0.824150866,9.0512437505,-0.3660025254602189,0.2964337014757249,-0.30137996457587685,9.099870666485993,0.5591606844741627,0.015592573499999929,-0.1483746145,-0.057466969000000034
43712.0,-0.4282564055,-0.9031924649999999,9.0261387265,-0.3049823241519931,0.2993641092898234,-0.35334016173700006,9.081318213106927,0.554510917721527,0.022751428000000018,-0.07904159899999996,-0.025105024000000142
43722.0,-0.342055952,-0.9654646924999999,9.153036777499999,-0.18320895691109676,0.2916375366912445,-0.4215546102219464,9.210168651931967,0.5443585804404724,0.0862004535,-0.062272227499999944,0.1268980509999995
43732.0,-0.24987344199999997,-0.9678182885,9.2918989415,-0.0521085501475427,0.26019368488731465,-0.4879033017365108,9.345506669818432,0.5553968729648259,0.09218251000000002,-0.002353596000000069,0.13886216400000073
43742.0,-0.15170887549999998,-0.7787460764999999,9.344560651999998,0.05740736975659749,0.19251330715347856,-0.5233439575275076,9.378180783791505,0.5605763796433935,0.0981645665,0.18907221200000002,0.052661710499998904
43752.0,-0.014121576,-0.5488782004999999,9.32416282,0.11496309249961449,0.13442351365935126,-0.5206788397597123,9.340314715884213,0.5499023984627825,0.13758729949999998,0.22986787600000003,-0.020397831999998672
43762.0,0.08649465299999999,-0.507003805,9.193734375,0.0877830800583068,0.12376478791742189,-0.49509929424248345,9.208109791989814,0.5178290287654533,0.10061622899999999,0.04187439549999994,-0.13042844499999973
43772.0,0.0960071035,-0.37284883299999994,9.021333468,0.013973105991466603,0.14428287860386724,-0.4580599168566598,9.029545456834958,0.48044946058872534,0.009512450500000005,0.13415497200000004,-0.1724009070000001
43782.0,0.1067944185,-0.462677747,9.056049008999999,-0.06623175445468081,0.1983741227816755,-0.42581844958456855,9.068489366967444,0.47440519589708346,0.010787315000000006,-0.08982891400000004,0.03471554099999885
43792.0,0.08404299049999998,-0.775117616,9.117046371999999,-0.1522991758582772,0.25459815930542085,-0.43141397516646235,9.150322676937904,0.5235773865034165,-0.022751428000000018,-0.312439869,0.06099736300000025
43802.0,0.0373633365,-0.9535005794999999,9.1542135755,-0.18773808632002206,0.2801794501519017,-0.4735148073830696,9.203813642175168,0.5813453243585534,-0.04667965399999999,-0.17838296349999994,0.03716720350000102
43812.0,0.0685484835,-1.0133211444999999,9.199716431499999,-0.14590428947896997,0.25459815930542085,-0.5286724477338464,9.25560916722892,0.604651007940091,0.031185146999999996,-0.05982056499999999,0.045502855999998815
43822.0,0.2695848085,-0.995374975,9.299057796,-0.042783255954137,0.2154277349029121,-0.5880939274472454,9.356063445871806,0.6277690526425801,0.20103632500000002,0.01794616949999983,0.09934136450000075
43832.0,0.46954240199999997,-0.7930637854999999,9.2259982535,0.09257924484278722,0.20743412692877805,-0.6288630734445808,9.27191803289549,0.6686318858179958,0.19995759349999997,0.20231118950000015,-0.07305954249999935
43842.0,0.6587126804999999,-0.5739832244999999,9.263165457,0.1647904973148006,0.22555413522298318,-0.6640349485307706,9.304278232147666,0.7203977989914394,0.1891702784999999,0.21908056099999995,0.037167203499999246
43852.0,0.895739411,-0.163378789,9.253554939999999,0.23700174978681401,0.2660562458447636,-0.62113475551675,9.298242885013927,0.7160755126841538,0.23702673050000012,0.4106044354999999,-0.009610517000000485
43862.0,1.057353003,0.345390213,9.351719506499999,0.21275389048885676,0.32414429400963884,-0.5342679733157402,9.417640229932436,0.6601333263576836,0.16161359200000003,0.508769002,0.0981645664999995
43872.0,1.0992273984999998,0.2819411875,9.4199737905,0.07579266809710576,0.403816829033928,-0.4164914100619108,9.488081888376014,0.5850450022038077,0.04187439549999983,-0.06344902549999998,0.06825428400000177
43882.0,1.0405836314999999,0.09522257149999999,9.4786175575,-0.06969623301988956,0.46803447353180744,-0.30964060792556597,9.536040710568304,0.565500786372462,-0.05864376699999996,-0.18671861600000003,0.058643766999999514
43892.0,0.8095389574999999,-0.2268278145,9.504997445999999,-0.11872427703766227,0.4837563994337723,-0.23183382987165876,9.54210567063725,0.5494202695789483,-0.23104467399999995,-0.322050386,0.026379888499999282
43902.0,0.6442969049999999,-0.6661657345,9.5025457835,-0.07875623716699214,0.4480504535964723,-0.20305509583552428,9.547631730179383,0.49817981272376144,-0.16524205250000001,-0.43933792000000005,-0.002451662499998619
43912.0,0.48866536949999995,-1.0324441119999999,9.4786175575,0.008377580409572781,0.39582322105979395,-0.23556359848317068,9.547194639741,0.46069123620274116,-0.15563153549999997,-0.3662783774999998,-0.023928226000000663
43922.0,0.432473265,-1.2611351899999999,9.3887886435,0.10910053154216555,0.3361364513000919,-0.32269741605973556,9.482976710121704,0.47856479415752284,-0.05619210449999995,-0.228691078,-0.08982891399999993
43932.0,0.5773174855,-1.2372069639999999,9.320632426,0.22021517304113253,0.3068253918420991,-0.44686886569287215,9.42009370290109,0.5850883067044049,0.14484422049999995,0.023928225999999997,-0.06815621750000034
43942.0,0.7304973585,-1.00616229,9.208052084,0.32520196353634745,0.3417319768819857,-0.5625126366007644,9.291620532837653,0.7341372674419339,0.15317987300000002,0.23104467399999984,-0.11258034199999933
43952.0,0.874164781,-0.5895757979999999,9.1865755205,0.3891525726586717,0.42673300211261356,-0.6525786073206798,9.246887772638855,0.8714353783451213,0.14366742249999997,0.4165864920000001,-0.021476563500000267
43962.0,1.106386253,-0.18730701499999997,9.278659964,0.3931493766457387,0.5716895778077506,-0.7037394436843896,9.346266911779914,0.9882533128343922,0.23222147199999998,0.40226878299999996,0.09208444349999922
43972.0,1.2153381344999998,0.2962588965,9.496563727,0.3683691919259232,0.7440897106612465,-0.7215924166030396,9.578597952513586,1.1000277154558924,0.1089518814999999,0.48356591149999995,0.2179037630000007
43982.0,1.3086974425,0.660183678,9.774288055,0.3611731994199506,0.8823843646015211,-0.6898832747528066,9.883584292493252,1.1768547827392002,0.09335930800000014,0.3639247815,0.2777243279999997
43992.0,1.3900926374999998,0.899662071,10.152628611999999,0.3715666351155768,0.9641879466424954,-0.6120747513696474,10.286769031918075,1.2009811247667466,0.08139519499999981,0.23947839299999996,0.3783405569999996
44002.0,1.3254668139999999,1.019303201,10.633840927499998,0.379827278465266,0.9727156253677397,-0.5169490711482004,10.764497859257448,1.1651956022324625,-0.0646258234999999,0.1196411300000001,0.48121231549999877
44012.0,1.2440716189999999,1.0241084594999998,11.039640104499998,0.3547783130406434,0.8989039059716475,-0.4271501358038402,11.156619827120824,1.0565761317066973,-0.08139519500000003,0.004805258499999798,0.40579917700000045
44022.0,1.1052094549999998,0.9654646924999999,11.2455797545,0.30175346503580364,0.7664735583180738,-0.34667823998213765,11.340929151824634,0.893712857319954,-0.13886216400000007,-0.05864376699999996,0.20593965000000125
44032.0,0.942419065,0.8350362474999999,11.299418263,0.2479275109042985,0.5815471974230146,-0.28352699165722683,11.369357603265556,0.6928583899268024,-0.16279038999999984,-0.13042844499999995,0.05383850850000016
44042.0,0.7736466184999999,0.6387071145,11.17369701,0.21195452969144338,0.3777032127655888,-0.23796168087541086,11.218644336091252,0.4941762855046967,-0.1687724465,-0.196329133,-0.12572125300000003
44052.0,0.6598894785,0.41599809299999996,10.837328914999999,0.1773149800271119,0.2063694760850615,-0.21238213535818198,10.865367299318955,0.34515957790700086,-0.11375713999999992,-0.2227090215,-0.336368095000001
44062.0,0.610758162,0.3166567285,10.512924932999999,0.13947798717312684,0.10484716415505535,-0.2102493430122449,10.535411129284276,0.2732248578996879,-0.04913131650000002,-0.09934136449999997,-0.32440398199999976
44072.0,0.56290171,0.2603665575,10.302180024499998,0.12881926143119748,0.08699419123640537,-0.23050039832313513,10.320831475060142,0.278015871942016,-0.047856451999999994,-0.056290171,-0.2107449085000006
44082.0,0.560548114,0.345390213,10.189697749,0.12775286525822893,0.11364013292660279,-0.2606108185785413,10.210947497824128,0.31169355648367275,-0.002353595999999958,0.08502365550000002,-0.1124822754999979
44092.0,0.5318146295,0.48180071449999995,10.122620262999998,0.1429407204090836,0.16480096929031257,-0.27739914065347476,10.148024424366602,0.35290465038786417,-0.028733484500000017,0.13641050149999995,-0.0670774860000023
44102.0,0.56290171,0.6530248234999999,10.114284610499999,0.16558985811221402,0.2108986054939868,-0.2789978622483016,10.150963153190206,0.38695998507346174,0.031087080499999975,0.17122410899999996,-0.008335652499999568
44112.0,0.527009371,0.7104917924999999,10.195679805500001,0.17838137620008043,0.25379879850800746,-0.26194425012706496,10.233983787392484,0.40601543772838633,-0.035892338999999995,0.057466969000000034,0.08139519500000247
44122.0,0.45993188499999993,0.7404020749999999,10.2651108875,0.16106072870328872,0.28124410099561825,-0.23449894763945414,10.302049995227891,0.40003569730622707,-0.06707748600000007,0.02991028249999994,0.06943108199999948
44132.0,0.37020103749999994,0.7141202529999999,10.375239567,0.12695350446081555,0.2908364305645791,-0.20758597057370157,10.40637365351414,0.3792030548630288,-0.08973084749999999,-0.026281821999999955,0.11012867949999894
44142.0,0.28635417999999996,0.6362554519999999,10.50096082,0.08032179750603104,0.2777813677596615,-0.18733491526281135,10.524115063024457,0.3445409263143537,-0.08384685749999998,-0.07786480100000004,0.12572125300000003
44152.0,0.22653361499999997,0.5573119194999999,10.5451888115,0.042484804652045974,0.2396773395301213,-0.17401107175308667,10.562335022357818,0.2992157061439413,-0.05982056499999999,-0.07894353249999997,0.044227991499999675
44162.0,0.178677163,0.563293976,10.599125386499999,0.019036306151502154,0.1890488285882698,-0.16841554617119284,10.615586869821394,0.25390084035826255,-0.047856451999999966,0.005982056500000055,0.05393657499999982
44172.0,0.12601545249999999,0.507003805,10.620700016499999,-0.01347219649614423,0.14454991397942235,-0.17401107175308667,10.633541347690164,0.2266186903204301,-0.052661710500000014,-0.056290171,0.021574629999999928
44182.0,0.088848249,0.4794471185,10.5979485885,-0.05237558552309784,0.0965865208053662,-0.18573619366798455,10.60916009094393,0.21580104633306077,-0.03716720349999998,-0.027556686499999983,-0.022751427999999407
44192.0,0.066096821,0.5584887175,10.5296943045,-0.06649878983023595,0.05714906102730233,-0.19506148786139024,10.544702014923931,0.21386231148074572,-0.022751428000000004,0.07904159899999996,-0.068254284
44202.0,0.0218688295,0.7332432205,10.54999407,-0.07822216641588185,0.008920377806943018,-0.20731893519814645,10.575466833343485,0.22176433741858895,-0.0442279915,0.17475450300000006,0.020299765500000788
44212.0,0.1056176205,0.728437962,10.503314415999998,-0.09660921008564213,-0.035578536801904405,-0.1955938132832485,10.529073590188084,0.22103418638079153,0.08374879099999999,-0.00480525850000002,-0.04667965400000185
44222.0,0.227710413,0.728437962,10.419565624999999,-0.10540217885718957,-0.06702238860583425,-0.16282002058929904,10.447479203633428,0.20521203421576964,0.1220927925,0.0,-0.08374879099999966
44232.0,0.21574629999999997,0.7212791075,10.3920089385,-0.11765962619394572,-0.09153553795009461,-0.136973439696515,10.419243724702076,0.20244571007113754,-0.011964113000000026,-0.007158854499999978,-0.02755668649999876
44242.0,0.1630845895,0.540542548,10.377593162999998,-0.1514998150608638,-0.12404404059774099,-0.11325790582041603,10.392941002732337,0.22620006897018438,-0.052661710499999986,-0.1807365595,-0.014415775500001615
