timestamp,ax,ay,az,gx,gy,gz,acc_mag,gyro_mag,dax,day,daz
131592.0,-2.161189527,-0.7430498705,10.049266521,-0.0681167100468347,0.11180753721200876,0.07866722537514041,10.305853719695229,0.15273946416444706,0.0,0.0,0.0
131602.0,-2.4173392249999996,-0.9070170585,10.1150691425,-0.07477863180169705,0.1014158468456345,0.10744595941127492,10.439388518044975,0.16559484279216038,-0.25614969799999976,-0.16396718799999999,0.0658026214999996
131612.0,-2.8699161225,-1.0003763665,10.233631541,-0.07851014574246093,0.10834480397605199,0.1018504338293811,10.675410340674835,0.16815454321648501,-0.4525768975000002,-0.09335930800000003,0.11856239849999994
131622.0,-3.3247485494999998,-1.030286649,10.2407903955,-0.08810247531142176,0.08729264253849639,0.07200704894953006,10.816156037200788,0.14341222645148985,-0.45483242699999993,-0.02991028249999994,0.007158854500000089
131632.0,-3.5964908209999997,-1.1212923609999998,10.215587305,-0.10835353062231196,0.07237182276319687,0.02564237737030069,10.888079112977245,0.13279947230915032,-0.27174227149999997,-0.09100571199999985,-0.025203090499999803
131642.0,-3.8335175514999995,-1.235049501,10.2084284505,-0.12300906035130836,0.05851565383161389,-0.0388423025031338,10.974206828584775,0.1416475737017689,-0.23702673049999978,-0.11375714000000015,-0.007158854500000089
131652.0,-4.0011132,-1.308010977,10.1929339435,-0.12380842114872176,0.04465948490003091,-0.09453226827576887,11.027950939849216,0.16204735259866876,-0.1675956485000003,-0.07296147599999991,-0.015494506999999658
131662.0,-4.2238222215,-1.260154525,10.168907651,-0.10622248360562689,0.03693291230145201,-0.14302973220093532,11.083110862942837,0.1819471360804717,-0.22270902150000005,0.047856451999999994,-0.024026292500000324
131672.0,-4.4201513545,-1.1787593299999999,10.138997368499998,-0.08170758893211454,0.03799756314516854,-0.18139905047677865,11.12324049875755,0.20254767440764992,-0.19632913299999988,0.08139519500000003,-0.029910282500001273
131682.0,-4.5972594534999995,-1.1870949825,10.107910288,-0.06998246701721662,0.05984734005088556,-0.22030243950373227,11.167535062426625,0.23877272593886797,-0.1771080989999998,-0.008335652500000013,-0.031087080499998976
131692.0,-4.7732888209999995,-1.2470136139999999,10.051620116999999,-0.07504566717725218,0.08436223472439791,-0.2751947898082059,11.197070871378102,0.2974575787357853,-0.17602936749999998,-0.059918631499999986,-0.056290171000000555
131702.0,-4.9096993225,-1.3906810364999997,10.1031050295,-0.0822399143539728,0.10301456844046132,-0.3551326148787982,11.318651528329065,0.378806783168644,-0.13641050150000034,-0.14366742249999986,0.0514849125000012
131712.0,-4.986387325499999,-1.5079685704999999,10.119874401,-0.08623671834103983,0.09395456429335876,-0.45159172664876884,11.381998315829165,0.46925400298708486,-0.07668800299999923,-0.11728753400000014,0.016769371500000574
131722.0,-4.888222759,-1.536702055,10.0420096,-0.08570439291918155,0.0641111794135077,-0.5568455525195388,11.273780721387965,0.5670383193861125,0.0981645664999995,-0.028733484500000017,-0.07786480100000048
131732.0,-4.661983343499999,-1.480411884,9.921191671999999,-0.08037415738359087,0.03559948075292834,-0.6599665860443718,11.061453441294322,0.6657951808927903,0.22623941550000026,0.05629017099999989,-0.12081792800000102
131742.0,-4.3291456424999994,-1.3343908654999999,9.755949619499999,-0.07078182781463004,0.02387610416728243,-0.7449676112749997,10.756423845968916,0.7487034642285061,0.3328377009999999,0.14602101850000015,-0.16524205250000001
131752.0,-3.9544335459999997,-1.1763076675,9.5811951165,-0.06172182366752747,0.050255010481924725,-0.8009246124231899,10.4317085972909,0.8048697934328388,0.3747120964999997,0.15808319799999992,-0.17475450299999906
131762.0,-3.631206362,-1.0709842465,9.429093974999999,-0.055326937288220246,0.1184694589668711,-0.8302356718811826,10.160732261459394,0.8404685321661939,0.32322718399999983,0.10532342100000003,-0.1521011415000011
131772.0,-3.3702514054999995,-1.0698074485,9.3489736445,-0.05212949409856664,0.19894135478857367,-0.8446241662346239,9.995318440084658,0.8693015178795095,0.26095495650000045,0.0011767979999999234,-0.08012033049999978
131782.0,-3.1715686764999997,-1.1452205869999998,9.389671241999999,-0.04919908628446816,0.27088557188503193,-0.8419590484668285,9.976788265543494,0.8858298834662751,0.19868272899999972,-0.07541313849999987,0.04069759749999946
131792.0,-2.9908321169999996,-1.133256474,9.4554738635,-0.03720867432326711,0.3273766437843324,-0.8278375894889425,9.981749995430322,0.8909966480920405,0.18073655950000012,0.011964112999999887,0.06580262150000138
131802.0,-2.875898179,-1.0817715615,9.5823719145,-0.014557791290884702,0.3513574677067345,-0.799325890828363,10.06294547113538,0.8732616327018576,0.11493393799999962,0.05148491249999987,0.1268980509999995
131812.0,-2.750176926,-0.9776249385,9.651802996499999,0.010489428804485921,0.34469554595187213,-0.7540276154221022,10.083477809165164,0.8291457606083776,0.12572125300000003,0.1041466230000001,0.06943108199999948
131822.0,-2.6269073355,-0.8626910005,9.7080931675,0.032339205710202934,0.3329721693662262,-0.7073959084673177,10.094154291495032,0.7825121475828469,0.12326959050000008,0.11493393799999996,0.056290171000000555
131832.0,-2.5765992209999995,-0.8866192265,9.776249385,0.043797292249545705,0.326577282986919,-0.6687595548159193,10.148892020125652,0.7455268383694157,0.05030811450000039,-0.023928225999999997,0.06815621750000034
131842.0,-2.5347248254999997,-0.915352711,9.9091294925,0.04246386070102204,0.3199153612320566,-0.6466427425346472,10.269057786655715,0.7227003904043522,0.04187439549999983,-0.028733484500000017,0.13288010750000012
131852.0,-2.5011860825,-0.9513431164999999,9.893634985499999,0.036868335119128216,0.3095236708656824,-0.6450440209398203,10.24914624595206,0.71641186890701,0.033538742999999815,-0.03599040549999988,-0.015494507000001434
131862.0,-2.392234201,-0.9536967125,9.8469553315,0.03553664889985654,0.29673215277781595,-0.6581008290739899,10.178155588927874,0.722779029257948,0.1089518814999999,-0.002353596000000069,-0.046679653999998294
131872.0,-2.2629825539999997,-0.8626910005,9.752321159,0.04752706086105759,0.2836770899728983,-0.6700912410351909,10.048536897993218,0.7292144980742393,0.12925164700000025,0.09100571199999996,-0.09463417250000106
131882.0,-2.0953869055,-0.7262804989999999,9.658961850999999,0.07177492015901481,0.277015168218036,-0.6652950762507105,9.91028121124935,0.7242282658596932,0.16759564849999986,0.13641050150000011,-0.09335930800000014
131892.0,-1.8798367384999999,-0.6041877065,9.590707566999999,0.10348406200924778,0.29140366257147726,-0.6455763463616785,9.791858893172996,0.7158169211688832,0.21555016699999996,0.12209279249999994,-0.068254284
131902.0,-1.754213552,-0.553879592,9.559620486499998,0.12959767827758695,0.3244444906409819,-0.6002780709554177,9.735008558515242,0.6945455695576674,0.12562318649999993,0.050308114499999945,-0.031087080500000752
131912.0,-1.6428100079999999,-0.5060231399999999,9.636210423,0.1362596000324493,0.3673446836550025,-0.5389925796008889,9.788331597209723,0.6663496049938181,0.11140354400000008,0.047856452000000105,0.07658993650000134
131922.0,-1.7876542284999999,-0.540738681,9.741533844,0.12213639572531118,0.4203712769890942,-0.4830355784526986,9.91895093221057,0.6518839465191214,-0.1448442205,-0.03471554100000007,0.10532342099999958
131932.0,-2.033114678,-0.7789422094999999,9.8828476705,0.08216661052538904,0.4488829756496736,-0.45185876202432396,10.11983124058633,0.6422021632877696,-0.24546044950000012,-0.23820352849999993,0.14131382650000113
131942.0,-2.2581772955,-1.075789505,9.9163864135,0.025944319330895707,0.4334280851232638,-0.47344150355448583,10.22699404804888,0.6424016422512437,-0.2250626174999999,-0.2968472955,0.03353874299999937
131952.0,-2.3635007165,-1.3571422935000002,9.880396008,-0.009496336460101147,0.38759748429514473,-0.5515153169839482,10.249399792992993,0.6741595768851714,-0.10532342100000003,-0.28135278850000023,-0.03599040549999977
131962.0,-2.401844718,-1.5259147399999997,9.842150072999999,-0.0007016223593017205,0.32764193383063556,-0.6626299584829152,10.245252163933674,0.7392078131062222,-0.03834400150000006,-0.16877244649999956,-0.03824593500000084
131972.0,-2.3731112335,-1.5103221665,9.893634985499999,0.03420496268058487,0.26768812869537834,-0.7947967614194378,10.285754381643319,0.8393621421527422,0.028733484500000017,0.015592573499999762,0.051484912499999425
131982.0,-2.2450363844999996,-1.528268336,9.9665964615,0.053921947240364816,0.21199816292274323,-0.9394845564097677,10.329996974875325,0.9646149642262806,0.12807484900000032,-0.017946169500000053,0.07296147600000147
131992.0,-1.9193575379999999,-1.4086272059999998,10.1007514335,0.05498834341333334,0.15044563619265922,-1.0825753751345228,10.377540338900788,1.0943614805942365,0.3256788464999998,0.1196411300000002,0.13415497199999926
132002.0,-1.4273579075,-1.1404153285,10.1019282315,0.038734092089510154,0.10514561545714639,-1.2075461855650726,10.265809841992851,1.2127339859229713,0.49199963049999984,0.26821187749999975,0.0011767980000012557
132012.0,-0.9042711965,-0.7130415214999999,10.028868688999998,-0.0023020892833805207,0.08755967791405152,-1.2792251126152279,10.094768040396328,1.282220295252311,0.523086711,0.42737380700000016,-0.0730595425000029
132022.0,-0.402661049,-0.279685658,9.8349912185,-0.05745972963415731,0.09688671743670922,-1.2845536028215667,9.847203270758902,1.2894830805664566,0.5016101475,0.4333558634999999,-0.19387747049999682
132032.0,-0.0734518085,0.0614876955,9.567956139,-0.1147484170016192,0.12219922757838299,-1.2142081073199351,9.568435639261917,1.2257247563407496,0.3292092405,0.3411733535,-0.26703507950000116
132042.0,0.118072066,0.17161637500000002,9.358486095,-0.16004669240788003,0.14538243603262369,-1.0817760143371093,9.360804195326702,1.1031728521190884,0.1915238745,0.11012867950000002,-0.2094700439999997
132052.0,0.140823494,0.015984839499999997,9.321416958,-0.16164541400270682,0.12166690215652472,-0.9288258306678383,9.322494348426615,0.9506048067752823,0.02275142799999999,-0.15563153550000003,-0.037069136999999586
132062.0,0.0283412185,-0.3048887485,9.498525057,-0.10329033046227641,0.007087782092348972,-0.7915993182297841,9.503459298175839,0.798341161186027,-0.11248227549999999,-0.320873588,0.1771080989999998
132072.0,-0.1405292945,-0.6268410680000001,9.810964925999999,-0.00016929693744344997,-0.19755556336249017,-0.6898099709242229,9.831973910987875,0.71754165402672,-0.168870513,-0.3219523195000001,0.31243986899999854
132082.0,-0.241047457,-0.9656608255,9.959437606999998,0.1074808659963148,-0.44483206645579476,-0.6415795423746116,10.009046016187424,0.7880685332483884,-0.10051816249999998,-0.33881975749999993,0.14847268099999944
132092.0,-0.18956254449999999,-1.248190412,9.8624498385,0.17702874602978486,-0.6380173253712912,-0.6509065818972692,9.942928647024212,0.9284851440663985,0.05148491250000001,-0.28252958650000004,-0.09698776849999824
132102.0,0.03187161249999999,-1.4169628585,9.6661207055,0.19115020500767096,-0.6990375266795169,-0.715923587192562,9.769477418743934,1.0186944818145218,0.22143415699999996,-0.1687724465,-0.19632913300000077
132112.0,0.357550459,-1.4852171425,9.462632718,0.15757705151630802,-0.6252275526126766,-0.8046543810347017,9.585151550542696,1.0311201155195011,0.3256788465,-0.068254284,-0.20348798749999908
132122.0,0.7537391189999999,-1.34154972,9.359662893,0.10348406200924778,-0.4664148079859567,-0.8923205240331249,9.48531326743319,1.0121697692626772,0.3961886599999999,0.14366742250000009,-0.10296982500000063
132132.0,1.0625505275,-1.0721610444999998,9.4531202675,0.06111619441708544,-0.28628635720462986,-0.9456141527427717,9.572879698432082,0.989889485452267,0.3088114085000001,0.2693886755000001,0.0934573744999998
132142.0,1.2935952014999998,-0.683131239,9.673377626499999,0.050192178628852925,-0.15092385640770564,-0.9458811881183269,9.78336810816767,0.9591603032155898,0.23104467399999984,0.3890298054999999,0.22025735899999965
132152.0,1.4648193105,-0.32881697449999997,10.001312002499999,0.06697875537453439,-0.08937132967762162,-0.8963190733494439,10.113360370642567,0.9032503913588268,0.17122410900000018,0.3543142645,0.32793437599999997
132162.0,1.5354271904999999,-0.025987622499999998,10.214410506999998,0.09628981483252717,-0.09203644744541697,-0.7969278084361229,10.32920103489916,0.8079829007829665,0.07060787999999985,0.302829352,0.21309850449999956
