timestamp,ax,ay,az,gx,gy,gz,acc_mag,gyro_mag,dax,day,daz
80112.0,-0.0452086565,-0.846313895,9.928154393499998,0.11892498990164163,-0.0056653387519735934,0.018565067253463685,9.964263178613155,0.12049859338766493,0.0,0.0,0.0
80122.0,0.3354854965,-0.9636014289999999,9.613262862,0.11439411516346433,-0.08293804605477054,-0.005949827420048669,9.66725923342501,0.1414218282788889,0.380694153,-0.11728753399999992,-0.31489153149999893
80132.0,0.35107806999999996,-1.021068398,9.658765718,0.15116645717373287,-0.07361275186136483,-0.026733208152797148,9.718929554217443,0.1702492273967834,0.015592573499999984,-0.057466969000000034,0.04550285600000059
80142.0,0.284000584,-0.842783501,9.6157145245,0.2057917721026514,-0.09306444637484164,-0.06084043239527033,9.656754432931926,0.2339076802036411,-0.06707748599999996,0.17828489699999994,-0.043051193500000196
80152.0,0.29723956149999997,-0.8271909274999999,9.6504300655,0.2540204553230107,-0.12317486663024782,-0.08695404866360949,9.690376496120537,0.29539709895475,0.013238977499999971,0.015592573500000095,0.03471554100000063
80162.0,0.325973046,-0.8630832665,9.670729831,0.2966553582907282,-0.14289359651927977,-0.10480702158225949,9.714637750108034,0.3455538934837217,0.028733484500000017,-0.035892339000000106,0.020299765499999012
80172.0,0.3558833285,-0.7014696745,9.681517146,0.32729810396799264,-0.13756336098368907,-0.10960318636673991,9.71341787920397,0.3715650489590133,0.029910282499999996,0.16161359200000003,0.010787314999999964
80182.0,0.284000584,-0.4596376855,9.670729831,0.3251670569513076,-0.1130484663101767,-0.1104025471641533,9.685811199782773,0.36152772104195713,-0.07188274449999998,0.24183198899999997,-0.010787314999999964
80192.0,0.214569502,-0.34352694949999996,9.7353556545,0.29558896211775965,-0.08933467776332976,-0.10560638237967289,9.743777530086902,0.3263529181365688,-0.069431082,0.11611073600000005,0.06462582350000012
80202.0,0.17387190449999998,-0.2705654735,9.7233915415,0.25109004750891223,-0.064020422292404,-0.09041852722881824,9.728709070783157,0.2744455073320642,-0.040697597500000016,0.07296147599999997,-0.011964112999999443
80212.0,0.060212830999999994,-0.2023111895,9.762912341,0.20179322278633238,-0.0267157548602772,-0.07336491510758164,9.765193944846361,0.21637154870497985,-0.11365907349999999,0.068254284,0.03952079949999998
80222.0,-0.085906254,-0.1436674225,9.870687424499998,0.15889302977231176,0.005527457741066041,-0.056578338361900175,9.872106687275341,0.16875620305961406,-0.14611908499999998,0.058643766999999986,0.1077750834999982
80232.0,-0.261837555,-0.0789435325,9.946100562999998,0.12425348010798032,0.020448277516365566,-0.03392745532951777,9.949859667143091,0.13041522762878185,-0.17593130099999998,0.06472389,0.07541313850000009
80242.0,-0.46414874449999993,-0.0442279915,10.0250440955,0.10373538942153497,0.029241246287912998,-8.726646259971648e-05,10.035880593598772,0.10777796211815933,-0.20231118949999993,0.034715540999999996,0.07894353250000208
80252.0,-0.6126214255,-0.1016949605,10.131642380999999,0.08188561251581795,0.041498693624669174,0.031621875387633266,10.150656343924174,0.09709448034093313,-0.14847268100000005,-0.057466969,0.10659828549999872
80262.0,-0.8376840429999999,-0.256149698,10.2321605435,0.05177519226041179,0.04629485840914959,0.05693613085855902,10.269587947509896,0.08980872700282957,-0.2250626174999999,-0.1544547375,0.10051816250000023
80272.0,-1.0315615135,-0.42374534649999995,10.332776772499999,0.016603317174222056,0.037501889637602155,0.06865950744420493,10.39278379959529,0.07997618289253083,-0.19387747050000015,-0.16759564849999997,0.10061622899999989
80282.0,-1.2423064219999997,-0.592517793,10.5063544775,-0.012707742283770713,0.015385077356330015,0.06119822489192917,10.596126036814036,0.06436932537423498,-0.21074490849999972,-0.1687724465,0.17357770500000136
80292.0,-1.4110788684999997,-0.7660954979999999,10.585298009999999,-0.02576455041794029,-0.03870616682147824,0.037484436345082216,10.70638033350642,0.05972488908620267,-0.1687724465,-0.17357770499999992,0.07894353249999853
80302.0,-1.5559230889999998,-0.8715169855,10.609226235999998,-0.02976135440500731,-0.11784463109465712,-0.0011536626355682519,10.758072310666488,0.12155009761959462,-0.1448442205,-0.10542148750000013,0.023928225999998887
80312.0,-1.5559230889999998,-0.9816456649999998,10.517043726,-0.030827750577975842,-0.20204804085712355,-0.05098106745075436,10.676737966490165,0.21064859424719198,0.0,-0.11012867949999983,-0.09218250999999711
80322.0,-1.5044381765,-1.0103791494999999,10.4141719675,-0.025232224996082023,-0.26573161460389266,-0.10454173153595635,10.57067538151266,0.2866686760195132,0.05148491249999987,-0.028733484500000017,-0.10287175850000096
80332.0,-1.439812353,-0.913391381,10.258540431999998,-0.02256710722828668,-0.30676779597678333,-0.15037233236407546,10.399278591407926,0.34238515347152293,0.0646258234999999,0.0969877684999999,-0.1556315355000013
80342.0,-1.2865344134999999,-0.809244758,10.0717237495,-0.03295879759466092,-0.3150284393264725,-0.18474659198210377,10.185758055329638,0.3666885642781361,0.15327793950000013,0.104146623,-0.18681668249999817
80352.0,-1.1584595645,-0.6798950444999999,9.8934388525,-0.05320985290555113,-0.278256097316204,-0.1959376431458914,9.984208439444446,0.34445508290841326,0.12807484899999988,0.12934971350000002,-0.17828489700000105
80362.0,-1.10815145,-0.5710412294999999,9.7341788565,-0.08198858694168563,-0.20604484484419058,-0.18980804681288732,9.813680539545683,0.2918967302154722,0.050308114499999945,0.10885381500000002,-0.1592599959999994
80372.0,-0.9860586575,-0.547014937,9.6096344015,-0.1214243013904975,-0.10878637227680656,-0.17781763485168628,9.675567701578242,0.24124147036852092,0.12209279250000005,0.02402629249999988,-0.12454445500000055
80382.0,-0.8124809524999999,-0.5255383735,9.5054877785,-0.16778897296972686,0.006059783162924312,-0.16556018751493012,9.554612173574037,0.23579659902593214,0.17357770500000014,0.021476563500000045,-0.1041466230000001
80392.0,-0.664106338,-0.520733115,9.401341155499999,-0.20429427960444024,0.13316164061015937,-0.1602316973085914,9.439142743243552,0.2917916586050371,0.1483746144999999,0.00480525850000002,-0.1041466230000001
80402.0,-0.5168104549999999,-0.5529969935,9.4109516725,-0.22694341730757067,0.25600140402402427,-0.1583659403382095,9.441340482333421,0.37698780428644535,0.14729588300000007,-0.03226387850000001,0.009610517000000485
80412.0,-0.5132800609999999,-0.6428259074999999,9.506762642999998,-0.25465575517073663,0.3759090142945387,-0.16662658368789865,9.542285759644471,0.4836543797599378,0.0035303939999999923,-0.08982891399999993,0.09581097049999876
80422.0,-0.5204389155,-0.8571012100000001,9.6096344015,-0.29515786579251707,0.4697047536259659,-0.2025995649007538,9.661808965170163,0.5905821746514177,-0.007158854500000089,-0.21427530250000015,0.10287175850000096
80432.0,-0.5563312545,-0.99831697,9.7916458255,-0.32500299600162014,0.53125728035605,-0.2617540092385976,9.858116920048936,0.6755563682579091,-0.035892338999999995,-0.1412157599999999,0.1820114240000006
80442.0,-0.550349198,-1.0498018825,10.00474433,-0.3255353214234784,0.5349870489675619,-0.328102700753162,10.074714752334526,0.7069906437137813,0.005982056499999944,-0.05148491249999998,0.21309850449999956
80452.0,-0.5084748025,-0.99831697,10.1627294615,-0.28023704601721755,0.4726351614400644,-0.3899222628588012,10.224297213256639,0.6737626947693527,0.04187439550000005,0.05148491249999998,0.15798513150000026
80462.0,-0.387558808,-0.9456552595,10.240594262499998,-0.20642707195037735,0.3695141279152315,-0.43735333061099907,10.291464256782232,0.6086302346741362,0.12091599450000001,0.052661710500000014,0.0778648009999987
80472.0,-0.2797837245,-0.948106922,10.199896664999999,-0.14593919606400987,0.2634626865763,-0.47492328808942896,10.247686453278979,0.5623726217869127,0.10777508349999998,-0.0024516625000000625,-0.04069759749999946
80482.0,-0.113364874,-0.90025047,10.068193355499998,-0.10543708544222945,0.17046630804228616,-0.5026356259525949,10.10899698027092,0.5411268923652534,0.1664188505,0.047856451999999994,-0.13170330950000064
80492.0,0.0099047165,-0.8044394995,9.904128101,-0.06280392780376395,0.10411761652772172,-0.5183575518545599,9.936748686204286,0.5324278007238605,0.1232695905,0.09581097049999998,-0.16406525449999876
80502.0,0.1834824215,-0.7565830474999999,9.6994633155,-0.02496518962052689,0.06947806686339027,-0.5220873204660718,9.730656314735104,0.5272813600529658,0.173577705,0.047856452000000105,-0.20466478550000033
80512.0,0.33793715899999993,-0.7278495629999999,9.598945152999999,-0.006045820528908358,0.07667231404011089,-0.5188898772764181,9.632430355839302,0.524558767371273,0.15445473749999994,0.028733484500000017,-0.10051816250000023
80522.0,0.467188806,-0.8115983539999999,9.54383178,-0.017238617021947993,0.1257021033871356,-0.5300809284402058,9.58966539111794,0.545054106863539,0.12925164700000008,-0.08374879099999999,-0.0551133729999993
80532.0,0.5904583965,-1.0163612059999998,9.527062408499999,-0.06573433561786243,0.19391655187208198,-0.5679196666234428,9.599299419984405,0.6037030559031171,0.12326959049999997,-0.20476285199999988,-0.016769371500000574
80542.0,0.6718535915,-1.098933199,9.574918860499999,-0.11556348576230054,0.26132989423036296,-0.6281405071342553,9.66116517866424,0.6900787850404224,0.08139519500000003,-0.08257199300000018,0.04785645199999955
80552.0,0.7497183924999999,-1.0929511424999998,9.6671013705,-0.1222236621879109,0.30396479719808045,-0.7022157712473985,9.757533949490917,0.7748807720694026,0.07786480099999993,0.005982056500000166,0.09218251000000066
80562.0,0.8658291284999999,-1.0941279405,9.779681712499999,-0.08358730853651243,0.31941968772449025,-0.7720289413271718,9.878711982224644,0.8396692570894463,0.11611073599999999,-0.0011767980000001454,0.11258034199999933
80572.0,0.9005446694999999,-0.9145681789999999,9.8969692465,-0.0281626328101805,0.2927737460342928,-0.815995530514161,9.979850495972924,0.8673859037780361,0.03471554099999996,0.17955976150000008,0.1172875340000008
80582.0,0.9603652345,-0.6524364245000001,9.980816103999999,0.02592861136762776,0.2128341756344485,-0.8237238484419918,10.048117474110079,0.8511707570737695,0.0598205650000001,0.2621317544999998,0.08384685749999932
80592.0,1.024991058,-0.4094276375,9.998762273499999,0.07389200454168393,0.10012081254065472,-0.7821553416472429,10.059497237004226,0.7919919089904293,0.0646258234999999,0.24300878700000006,0.017946169500000053
80602.0,1.1184484325,-0.256149698,9.873041020499999,0.1040024247970901,-0.008063421144213804,-0.7158066501326784,9.939490860020088,0.7233675991488628,0.09345737450000002,0.15327793950000002,-0.12572125300000003
80612.0,1.2692747094999999,-0.31126307099999995,9.680340348,0.10347009937523183,-0.06775019090391589,-0.6571845312166928,9.768159101932227,0.6687209118180332,0.15082627699999995,-0.055113372999999966,-0.19270067249999911
80622.0,1.3901907039999999,-0.4596376855,9.5007805865,0.07549072613651074,-0.06535210851167568,-0.6230773069742197,9.61294589333754,0.6310270028182514,0.12091599450000001,-0.14837461450000006,-0.1795597615000002
80632.0,1.4870804059999998,-0.6416491095,9.348679445,0.024329889772800952,-0.01392423677241076,-0.625740679412763,9.487935975700761,0.6263682828640009,0.09688970199999991,-0.18201142399999998,-0.15210114149999931
80642.0,1.5624935444999999,-0.7146105855,9.232568708999999,-0.016439256224534588,0.040167007405397505,-0.6531877272296258,9.391079774547691,0.6546280200484281,0.07541313850000009,-0.07296147600000003,-0.11611073600000132
80652.0,1.634376289,-0.6918591574999999,9.2110921455,-0.02709798196646396,0.08972912217428047,-0.6862285552991304,9.380515628724991,0.6926003509245093,0.0718827445000001,0.022751428000000073,-0.02147656349999849
80662.0,1.7001789104999998,-0.6595952789999999,9.2709127105,-0.015905185473424326,0.11957250705413151,-0.7176706617738083,9.448571148353517,0.7277374101549338,0.06580262149999982,0.03226387850000001,0.05982056499999899
80672.0,1.7828489699999999,-0.5722180275,9.335538534,0.009142034621946299,0.11504337764520622,-0.7259313051234975,9.521463314040805,0.7350474918638596,0.08267005950000006,0.08737725149999997,0.06462582350000012
80682.0,1.8845439305,-0.39020660349999997,9.404969615999999,0.04777838827334477,0.07747167483752429,-0.7102093792215326,9.599855233141934,0.7160181541849091,0.10169496050000015,0.18201142399999998,0.06943108199999948
80692.0,2.025857757,-0.1903470765,9.401341155499999,0.1061334718137752,0.02684316389567279,-0.669441978553449,9.619020073959053,0.6783343069141733,0.1413138264999998,0.19985952699999998,-0.003628460499999875
80702.0,2.088031918,0.009610516999999999,9.3750593335,0.15223285334670142,-0.0014014993893514465,-0.6017598554903609,9.604775226899857,0.6207187201288492,0.06217416100000017,0.19995759349999997,-0.02628182199999962
80712.0,2.177860832,-0.0299102825,9.35946676,0.13304644887952774,0.00792554013330625,-0.5378092463680367,9.609557245789416,0.5540784756916777,0.08982891399999993,-0.039520799499999995,-0.015592573499999318
80722.0,2.2448402515,-0.16396718799999999,9.3199459605,0.061102231783069484,0.054023176336980484,-0.500769868982213,9.587887447197922,0.5073681582350937,0.06697941949999997,-0.1340569055,-0.03952079949999998
80732.0,2.2640612855,-0.290865239,9.208640483,-0.004447098934081553,0.11077953828258408,-0.4826516060172599,9.487340809568554,0.4952216226923783,0.01922103400000008,-0.126898051,-0.1113054775000002
80742.0,2.2903431075,-0.3447037475,9.135580940499999,-0.012175416861912442,0.15181397432622276,-0.46959479788309033,9.424613060706532,0.49367499204977444,0.026281822000000066,-0.05383850849999999,-0.07305954250000113
80752.0,2.2999536244999996,-0.33754489299999996,9.0745835775,0.03738669790697054,0.1837901515520109,-0.457070315170779,9.367592558105512,0.4940545091366068,0.009610516999999597,0.007158854500000034,-0.06099736299999847
80762.0,2.3119177375,-0.32205038599999997,9.0518321495,0.0861494518784401,0.20803801084996812,-0.44268182081733776,9.347959421114943,0.4966575646252865,0.011964113000000332,0.01549450699999999,-0.022751428000001184
80772.0,2.3370227614999997,-0.268113811,9.129598884,0.12425348010798032,0.22402522679823614,-0.41950035769234906,9.427785327750737,0.49153512556576684,0.025105023999999698,0.05393657499999999,0.07776673450000082
80782.0,2.283184253,-0.18191335749999998,9.255320136999998,0.15756134355304008,0.23548331333757894,-0.39578482381625013,9.534514861341492,0.48674797853298135,-0.053838508499999715,0.0862004535,0.12572125299999826
80792.0,2.3167229959999998,-0.106500219,9.340343792499999,0.17221687328203647,0.2429445958898547,-0.3699382429234661,9.623958120177765,0.4749052870756728,0.033538742999999815,0.07541313849999999,0.08502365550000057
80802.0,2.2544507685,0.007158854499999999,9.414580133,0.16742070849755605,0.2485401214717485,-0.3350316578835795,9.680749898508187,0.44949760555450685,-0.06227222749999983,0.11365907349999999,0.07423634050000061
80812.0,2.2305225425,0.0885540495,9.4564545285,0.16235750833752052,0.24667610983061855,-0.28706826470952335,9.716357593351104,0.4118461512240613,-0.023928225999999775,0.081395195,0.041874395500000716
80822.0,2.1958070015,0.10532342099999999,9.5354961275,0.165287916151619,0.23974715270020108,-0.23697207918953012,9.785619439177832,0.37543915454971805,-0.03471554100000018,0.01676937149999999,0.07904159899999996
80832.0,2.1981605975,0.089828914,9.579724119,0.17061815168720967,0.233619301696449,-0.19327252537809608,9.82909423305842,0.34791205911310824,0.002353595999999847,-0.01549450699999999,0.044227991499999675
80842.0,2.1539326059999997,0.065900688,9.683870742,0.161291112164552,0.23175354472606705,-0.151438728537044,9.920741964169437,0.32040320981115616,-0.04422799150000012,-0.023928225999999997,0.1041466230000001
80852.0,2.1059780875,-0.013140911,9.7808585105,0.14024069605624837,0.223759936751933,-0.12345935529832289,10.005024217411586,0.2915101619776704,-0.047954518499999654,-0.079041599,0.09698776850000002
80862.0,2.0461575224999997,-0.04903325,9.870687424499998,0.13064836648728753,0.19791335585914901,-0.1080044647719131,10.080656481532902,0.2605833005084826,-0.059820565000000325,-0.035892339,0.08982891399999815
80872.0,1.9815316989999998,0.007158854499999999,9.9054029655,0.13997540600994524,0.16327206086556553,-0.09201724882364504,10.10165961772004,0.23391890523856887,-0.0646258234999999,0.0561921045,0.0347155410000024
80882.0,1.9192594714999998,0.033538742999999996,9.887358729499999,0.14557093159183906,0.1334286759857145,-0.07336491510758164,10.071968249157873,0.21065734847984613,-0.062272227500000055,0.026379888499999997,-0.01804423600000149
80892.0,1.878561874,0.08737725149999999,9.887358729499999,0.1413070922292169,0.1030512203547532,-0.04591961261997081,10.06461584683419,0.18081996337254494,-0.04069759749999968,0.05383850849999999,0.0
80902.0,1.822271703,0.14964947899999997,9.864705368,0.13411284505249627,0.07001039228524855,-0.01447576081604097,10.032720524542059,0.15197782037920038,-0.05629017100000011,0.062272227499999985,-0.022653361499999747
80912.0,1.8402178725,0.19152387449999997,9.9436489005,0.13624389206918133,0.05455550175883875,0.010571459279329655,10.114308511667359,0.14714094144598883,0.017946169500000053,0.041874395499999995,0.0789435325000003
80922.0,1.833059018,0.275370732,9.972382384999998,0.13597860202287823,0.06254910973297279,0.02868972224428279,10.143192043739072,0.15239970964190802,-0.007158854500000089,0.08384685750000004,0.02873348449999824
80932.0,1.8235465675,0.324403982,10.038283072999999,0.11732626830681481,0.08120144344903618,0.05480333851262195,10.2077268322118,0.15284807347539173,-0.009512450499999936,0.04903324999999997,0.06590068800000104
80942.0,1.7948130829999998,0.3376429595,10.1484117525,0.08641648725399524,0.09905441636768618,0.08997695892806368,10.31143141708696,0.1592967036984925,-0.02873348450000024,0.013238977500000026,0.11012867950000071
80952.0,1.7900078245,0.3195987235,10.2082323175,0.06616543194310504,0.10251889493289493,0.12088673998088326,10.368909219579727,0.17176027510948302,-0.004805258499999798,-0.01804423599999999,0.05982056500000077
80962.0,1.8103075899999999,0.29331690149999995,10.3255198515,0.059503510188242674,0.09585697317803257,0.14673332087366728,10.487116313784153,0.1850942853958246,0.0202997654999999,-0.026281822000000066,0.11728753399999903
80972.0,1.817564511,0.3148915315,10.408189911,0.05630606699858907,0.08066911802717791,0.1755120549098018,10.570388576192421,0.20120228925833233,0.007256921000000194,0.02157463000000004,0.08267005949999984
80982.0,1.8821903344999997,0.31126307099999995,10.4979207585,0.041116466518482414,0.06254910973297279,0.21201736154451517,10.669857796915514,0.22484287078680215,0.06462582349999968,-0.0036284605000000414,0.08973084750000027
80992.0,1.9180826735,0.36873004,10.559016187999998,0.0032794736644973454,0.036437238793885614,0.2509207505714688,10.738148157071839,0.2535737572892511,0.03589233900000033,0.057466969000000034,0.06109542949999813
81002.0,1.934852045,0.336368095,10.606872639999999,-0.030827750577975842,-0.0011344640137963143,0.2946203043829028,10.78714712667604,0.29623092507192894,0.016769371499999908,-0.032361945,0.047856452000001326
81012.0,1.9851601595,0.22025735899999999,10.641588181,-0.03882135855210987,-0.04430169240337207,0.33858689356989197,10.827408423859266,0.343672551023418,0.050308114499999945,-0.11611073599999999,0.03471554100000063
81022.0,2.029388151,0.0646258235,10.615208292499998,-0.020169024836046472,-0.07734252047287672,0.37669092179943214,10.807647285956504,0.3850775319361548,0.04422799150000012,-0.15563153549999997,-0.02637988850000106
81032.0,1.9192594714999998,0.0946341725,10.591280066499998,-0.005246459731494954,-0.09572956414263697,0.400139420299976,10.764187196095552,0.41146473781923804,-0.11012867950000027,0.030008349000000004,-0.023928226000000663
