timestamp,ax,ay,az,gx,gy,gz,acc_mag,gyro_mag,dax,day,daz
89872.0,0.4847427095,-1.5861275709999998,10.234416072999998,-0.001635373509118687,0.1185933773437627,0.10712830948741195,10.367933666897203,0.15982345976090348,0.0,0.0,0.0
89882.0,0.7193177774999999,-1.703415105,10.244026589999999,-0.028815385950426382,0.09327912187283695,0.1215185491701052,10.409568764439605,0.15587841042699555,0.23457506799999994,-0.11728753400000014,0.009610517000000485
89892.0,0.817482344,-1.6698763619999997,10.3349342355,-0.010430087609918114,0.15296589163253904,0.12951215714423922,10.50083949497506,0.2007006466821728,0.09816456650000005,0.03353874300000026,0.09090764550000152
89902.0,0.7301050925,-1.4520706655,10.545679144000001,0.02740865057331895,0.2211803401174854,0.13670640432095985,10.670187967973979,0.26145863528119045,-0.08737725149999997,0.2178056964999997,0.2107449085000006
89912.0,0.642727841,-1.332331469,10.742008277,0.04446226269455554,0.2259765049019658,0.16228769516744077,10.843382684569457,0.2817438013060589,-0.08737725149999997,0.11973919649999987,0.196329132999999
89922.0,0.630763728,-1.3431187839999998,10.940691006,0.019415042599184924,0.18174462566867353,0.20358916658663453,11.04085823825591,0.27359934501020805,-0.011964112999999998,-0.010787314999999742,0.19868272899999972
89932.0,0.573296759,-1.3634185494999997,10.995804378999999,-0.02934771137228465,0.1279186715371684,0.23716232007799748,11.09483182640621,0.2710543132942242,-0.057466969000000034,-0.0202997654999999,0.0551133729999993
89942.0,0.5146529919999999,-1.4293192375,10.904798667,-0.07997622231413616,0.09008167868318333,0.2550152929966475,11.010106954642499,0.28203493512716893,-0.05864376700000007,-0.06590068800000015,-0.0910057119999994
89952.0,0.45600922499999996,-1.5346426585,10.780254212,-0.12367577612557018,0.08182103533349416,0.26434233251930517,10.898483994479085,0.30309610387640085,-0.05864376699999996,-0.10532342100000003,-0.12454445500000055
89962.0,0.3458805455,-1.6183914495,10.630604732999998,-0.15618427877321658,0.1084669770236916,0.26727274033340365,10.758651459400108,0.32801422494442967,-0.11012867949999994,-0.0837487910000001,-0.1496494790000007
89972.0,0.19740786449999997,-1.7190076785,10.526458109999998,-0.1705727731266578,0.16229293115519672,0.256081689169616,10.667721293945261,0.3478676443175299,-0.14847268100000005,-0.10061622899999989,-0.1041466230000001
89982.0,0.0477583855,-1.843454067,10.453496634,-0.168974051531831,0.22677586569937921,0.23076743369869024,10.614904410194834,0.3650111392966852,-0.14964947899999997,-0.1244463885,-0.07296147599999792
89992.0,-0.10189109349999999,-1.9045494964999998,10.482230118499999,-0.15058875319132276,0.2787360628605024,0.19293044084470518,10.654334274685656,0.3709351969431094,-0.14964947899999997,-0.06109542949999991,0.02873348449999824
90002.0,-0.215550167,-1.9464238919999999,10.4702660055,-0.12554153309595212,0.3053820045506998,0.15082960862809797,10.651830737848357,0.36299919569386224,-0.1136590735,-0.04187439550000005,-0.011964112999999443
90012.0,-0.28978650749999996,-1.9033726985,10.521750918,-0.1028923953928217,0.30644840072366836,0.11432430199338457,10.696450169554293,0.34288119423794794,-0.07423634049999997,0.04305119349999997,0.0514849125000012
90022.0,-0.34244821799999997,-1.807561728,10.685718106,-0.0810426184871047,0.2840662983960931,0.08927533656876195,10.842929568314918,0.308596263125739,-0.052661710500000014,0.09581097049999987,0.1639671879999991
90032.0,-0.39873838899999997,-1.7716693889999997,10.896364948,-0.05706004923545061,0.21878225772524518,0.09247452508766756,11.04665441691669,0.2442807059599618,-0.056290171,0.03589233900000033,0.21064684200000094
90042.0,-0.501708214,-1.7105739595,10.998157974999998,-0.04187219408459596,0.11406250260558543,0.11538895283710111,11.141689873891242,0.16756534717819793,-0.10296982500000001,0.06109542949999969,0.1017930269999976
90052.0,-0.6034031745,-1.7190076785,11.068765855,-0.04187219408459596,-0.005578072289373877,0.1401708828861686,11.217694074209392,0.14639765003923919,-0.10169496050000004,-0.008433718999999895,0.07060788000000251
90062.0,-0.633313457,-1.7776514454999999,11.020909403,-0.05812644540841915,-0.10123956859118308,0.1580238558048186,11.181304694249206,0.1964679946143109,-0.02991028249999994,-0.05864376699999996,-0.047856452000001326
90072.0,-0.6405703779999999,-1.7980492775,10.8772419805,-0.09169959889978206,-0.1550637773934362,0.16841554617119284,11.043446233664602,0.24661181579568167,-0.007256920999999972,-0.020397832000000227,-0.14366742250000009
90082.0,-0.6704806605,-1.8339416165,10.722787242999999,-0.13939770202753513,-0.16705593468388924,0.17880723653756705,10.899130810641676,0.28162285504175044,-0.02991028250000005,-0.035892338999999884,-0.15445473750000005
90092.0,-0.6920552904999999,-1.8362952124999998,10.556466459,-0.19162318923496144,-0.14920296176523926,0.19159700929618154,10.737313664625406,0.309338624202246,-0.021574629999999928,-0.002353595999999847,-0.16632078399999983
90102.0,-0.71000146,-1.935636577,10.403188519499999,-0.24012065316012784,-0.1060357333756635,0.20758597057370157,10.60552320273163,0.33465420960386394,-0.017946169500000053,-0.09934136450000008,-0.15327793950000057
90112.0,-0.7351064839999999,-1.9776090389999998,10.267954816,-0.27795764601411294,-0.04608192824040628,0.2195763825349026,10.482471805703602,0.35720832136888236,-0.02510502399999992,-0.04197246199999993,-0.13523370349999908
90122.0,-0.7842378004999999,-2.0278190869999997,10.178125901999998,-0.29874102674686137,0.019202112430441613,0.2278370258845918,10.407753170319609,0.37619759774285694,-0.04913131650000002,-0.05021004799999984,-0.0898289140000017
90132.0,-0.8344478485,-2.0541989755,10.1158536745,-0.30620230929913717,0.06769783102635606,0.23316551609093047,10.355990160612683,0.3907800000508566,-0.05021004800000006,-0.02637988850000017,-0.06227222749999761
90142.0,-0.9123126495,-2.063711426,10.083589796,-0.3000744582953851,0.1084669770236916,0.23343255146648562,10.332957098248109,0.3953486078261568,-0.07786480100000004,-0.009512450499999936,-0.03226387850000023
90152.0,-0.9985131029999998,-2.0924449105,10.0776077395,-0.2835531715960068,0.13671164030871583,0.23023510827683197,10.340867075423139,0.39000087025710434,-0.08620045349999983,-0.028733484500000017,-0.00598205650000061
90162.0,-1.060687264,-2.1020554275,10.0895718525,-0.266232524099215,0.15829612716812969,0.22384022189752478,10.360654161733915,0.3821542433413515,-0.06217416100000017,-0.00961051700000004,0.01196411300000122
90172.0,-1.116977435,-2.0781272014999996,10.057209907499999,-0.2558408337328408,0.18121055491756327,0.20758597057370157,10.330233413598627,0.37601028256907015,-0.05629017099999989,0.02392822600000022,-0.03236194500000167
90182.0,-1.126587952,-2.0900913144999995,10.0679972225,-0.25131170432391553,0.19773184161694157,0.18493683287057114,10.344189199198148,0.3694009827702357,-0.00961051700000004,-0.011964112999999887,0.01078731500000174
90192.0,-1.1002080635,-2.08293246,10.087120189999998,-0.24544914336646656,0.20466079874735907,0.15988786744594854,10.358525915564321,0.35734500791203516,0.02637988849999995,0.007158854499999645,0.019122967499997756
90202.0,-1.034405442,-2.0852860559999997,10.164984990999999,-0.22306704103889125,0.1870731158750122,0.13377599650686137,10.428103011624046,0.320392373071576,0.06580262150000005,-0.002353595999999847,0.07786480100000048
90212.0,-0.932612415,-2.0314475475,10.2535390405,-0.18176382429044546,0.13617931488685756,0.11512366279079797,10.494360767093609,0.2546298320270255,0.10179302699999992,0.053838508499999715,0.08855404950000079
90222.0,-0.8201301394999999,-1.9679985219999998,10.3468983485,-0.13033769788043256,0.05863782687925349,0.10899406645779389,10.564276457122016,0.17973874583099272,0.11248227550000012,0.0634490255000002,0.09335930800000014
90232.0,-0.7063729994999999,-1.8734624159999997,10.345721550499999,-0.0818419792845181,-0.02396511595913414,0.1145895920396877,10.537683741651543,0.14283980873679542,0.11375714000000003,0.09453610600000006,-0.0011767980000012557
90242.0,-0.5686876335,-1.8291363579999997,10.2894313795,-0.04986580205872999,-0.08631700348663156,0.11965279219972326,10.466209607785075,0.15573700262642068,0.13768536599999992,0.044326058,-0.05629017099999878
90252.0,-0.5040618099999999,-1.8746392139999999,10.1805775645,-0.0445373118523913,-0.09617636843114753,0.12071918837269179,10.364000677236941,0.16064429162905985,0.06462582350000001,-0.04550285600000015,-0.1088538149999998
90262.0,-0.49092089899999997,-1.96917532,10.051227850999998,-0.06505365720958464,-0.0407516927048156,0.10552958789258514,10.25406436895586,0.13049587233100024,0.013140910999999977,-0.09453610600000006,-0.12934971350000168
90272.0,-0.4861156405,-2.0661630884999997,9.9375687775,-0.09809623060834129,0.04451636790136737,0.06156474403484798,10.161722862377296,0.12407576386535413,0.004805258499999965,-0.0969877684999998,-0.11365907349999915
90282.0,-0.44424124499999995,-2.1810970265,9.910012090999999,-0.12021129756036145,0.14017611887392456,-0.0002548180707911721,10.156912629659294,0.18466230068953324,0.04187439550000005,-0.11493393800000007,-0.027556686500000538
90292.0,-0.39393313049999995,-2.2613154234999997,9.892065921499999,-0.11887961134108978,0.2310397050620014,-0.0626067055982886,10.154885472085153,0.2672663594499239,0.0503081145,-0.08021839699999989,-0.017946169500000053
90302.0,-0.330484105,-2.2768099305,9.908835293000001,-0.09809623060834129,0.3083141576940503,-0.12202818531168753,10.172418594763169,0.3457909314956367,0.06344902549999998,-0.015494507000000102,0.01676937150000235
90312.0,-0.2993970245,-2.248076446,9.927958260499999,-0.06638708875810831,0.35601051549255136,-0.16945925306388546,10.183704704456508,0.39983392945574175,0.031087080499999975,0.028733484500000017,0.019122967499997756
90322.0,-0.29341496799999994,-2.2493513105,9.978266375,-0.03680899392456041,0.38638797112351264,-0.20942903826380757,10.2328624300315,0.44103411243438545,0.005982056500000055,-0.001274864500000028,0.05030811450000172
90332.0,-0.317343194,-2.248076446,10.0321048835,-0.016290903238115072,0.4045062340884658,-0.24726603111779263,10.285800056552853,0.4743745114247724,-0.023928226000000052,0.001274864500000028,0.05383850850000016
90342.0,-0.320873588,-2.2121841069999997,10.120658933,-0.0013700834628155487,0.41063583042146984,-0.2835043023769509,10.36457696294702,0.49899734650683947,-0.0035303939999999923,0.035892339000000106,0.08855404949999901
90352.0,-0.3592175895,-2.1547171379999996,10.267954816,0.012753120844322566,0.39651262611433175,-0.31841088741683754,10.497749250425764,0.5086947984645919,-0.0383440015,0.057466969000000034,0.14729588299999996
90362.0,-0.3711817025,-2.121178395,10.4594786905,0.028208011370732356,0.3365588209790745,-0.3415940958710782,10.678851441831615,0.48036866906397574,-0.011964112999999998,0.033538742999999815,0.19152387449999964
90372.0,-0.4178613565,-2.098426967,10.598340854499998,0.040198423331933394,0.2337048228297967,-0.3546509040052478,10.812161334222338,0.4266276141601941,-0.046679654000000015,0.02275142799999985,0.13886216399999896
90382.0,-0.44178958249999994,-2.081755662,10.655807823499998,0.05059011369830764,0.10819994164813647,-0.3671736413883071,10.866237851383447,0.3861127683812295,-0.02392822599999994,0.016671305000000025,0.057466969000000034
90392.0,-0.42864867149999997,-2.0649862905,10.580394685,0.0588507570479968,-0.005845107664929009,-0.38023044952247664,10.788542985681984,0.38480225003604335,0.013140910999999977,0.01676937150000013,-0.07541313849999831
90402.0,-0.3915795345,-2.059004234,10.4127990365,0.056185639280201455,-0.0748589169472888,-0.3972840616437132,10.621639079822119,0.40816088634749376,0.037069136999999974,0.005982056499999722,-0.16759564850000075
90412.0,-0.352058735,-2.086462854,10.259521097,0.04845906668162256,-0.10470230182713983,-0.4191338385494303,10.475449667379426,0.4347229321863931,0.03952079949999998,-0.02745861999999999,-0.1532779394999988
90422.0,-0.317343194,-2.1116659445,10.175772305999999,0.04206418030231533,-0.10736741959493518,-0.44897896875853327,10.397412263996063,0.46355072262100566,0.034715541000000016,-0.025203090499999803,-0.08374879100000143
90432.0,-0.273017136,-2.1332405745,10.2164699035,0.04659330971124062,-0.10283829018600989,-0.4884146832073452,10.440378872165704,0.5012938790876674,0.044326058,-0.021574629999999928,0.04069759750000124
90442.0,-0.212019773,-2.1332405745,10.259521097,0.04686034508679575,-0.1254874278891403,-0.5201238250575781,10.48109922062682,0.537095689698225,0.060997363,0.0,0.043051193500000196
90452.0,-0.15808319799999998,-2.0661630884999997,10.2966883005,0.03700098014227979,-0.15799593053678668,-0.5406419157440235,10.503133349787735,0.5644691910609846,0.053936575000000014,0.06707748600000007,0.037167203499999246
90462.0,-0.053936574999999994,-2.0326243455,10.2392213315,0.02447649742996848,-0.20222780977007898,-0.5531646531270827,10.439163010485403,0.5894797023138696,0.104146623,0.033538742999999815,-0.057466969000000034
90472.0,0.13160524299999998,-2.014678176,10.0991823695,0.0223454504132834,-0.22461165742690628,-0.5544980846756065,10.299016099863879,0.5986800829450989,0.18554181799999997,0.017946169500000053,-0.1400389620000002
90482.0,0.259680092,-1.9524059484999998,10.0224943665,0.028475046746287487,-0.18890571158960626,-0.5465027313722205,10.2141918948316,0.5789312839669973,0.128074849,0.062272227500000055,-0.07668800299999923
90492.0,0.3231291175,-1.8662054949999998,10.051227850999998,0.0425965057241736,-0.12069126310465988,-0.5251870252176137,10.228114033821806,0.5405573556493651,0.06344902550000003,0.08620045350000005,0.02873348449999824
90502.0,0.308713342,-1.8686571575,10.172143845499999,0.05218883529313444,-0.06846403056798156,-0.4977399774007509,10.346965444677405,0.505129768588001,-0.014415775500000005,-0.0024516625000001735,0.12091599450000068
90512.0,0.3027312855,-1.9224956659999999,10.261972759499999,0.04579394891382722,-0.0338244809036501,-0.4822850868743411,10.444889694665486,0.48563369558435127,-0.005982056499999999,-0.05383850849999994,0.08982891399999993
90522.0,0.29076717249999995,-1.9787858369999998,10.322970122500001,0.021279054240314867,-0.007443829259755816,-0.4844178792202781,10.514934668714929,0.48494215165489857,-0.011964113000000054,-0.05629017099999989,0.060997363000002025
90532.0,0.30155448749999997,-2.0183066364999998,10.3553320675,-0.0040334559013588955,0.021867230198236953,-0.5017385267170699,10.554496625422983,0.5022310162816179,0.01078731500000002,-0.03952079949999998,0.032361944999998116
90542.0,0.350685804,-2.08293246,10.349350010999999,-0.017889624832941875,0.054108697470328204,-0.5251870252176137,10.562700119582798,0.5282700079273149,0.04913131650000002,-0.06462582350000012,-0.00598205650000061
90552.0,0.4284525385,-2.0804807975,10.4498681735,-0.019488346427768685,0.07808952139273029,-0.5465027313722205,10.663569607314502,0.5523975057828663,0.07776673449999999,0.0024516624999999515,0.100518162500002
90562.0,0.49906041849999994,-2.0170317719999997,10.521750918,-0.010163052234362981,0.08714952553983285,-0.5563620963167364,10.724957848448856,0.5632380577078309,0.07060787999999996,0.0634490255000002,0.07188274449999987
90572.0,0.5744735569999999,-1.935636577,10.593535596,-0.002701769682087222,0.06636614480708439,-0.5486355237181575,10.784234105843195,0.5526415679456865,0.07541313849999998,0.08139519499999981,0.07178467800000021
90582.0,0.6236048734999999,-1.8817980685,10.5732358305,-0.002701769682087222,0.03625572455167821,-0.5267857468124405,10.757479395110748,0.5280388244882406,0.04913131650000002,0.05383850849999994,-0.020299765500000788
90592.0,0.652338358,-1.9296545205,10.47742486,-0.010962413031776384,0.026663394982717373,-0.50413660910931,10.673590942075222,0.5049602279147506,0.028733484500000017,-0.047856451999999994,-0.09581097050000054
90602.0,0.652338358,-1.9787858369999998,10.351703607,-0.025083872009662504,0.04451636790136737,-0.4918791617725539,10.559304252137387,0.49452605334016253,0.0,-0.0491313164999998,-0.12572125300000003
90612.0,0.6259584694999999,-2.0924449105,10.287077783500001,-0.030414107545253186,0.07329335660824987,-0.48281915762545136,10.516373853795587,0.4892967126711856,-0.02637988850000006,-0.11365907350000004,-0.06462582349999835
90622.0,0.6236048734999999,-2.2433692539999996,10.2643263555,-0.025350907385217634,0.0999410436276993,-0.4769565966680024,10.525112074474903,0.4879738474670247,-0.002353595999999958,-0.15092434349999984,-0.022751428000001184
90632.0,0.592517793,-2.3307465054999996,10.240398129499999,-0.014426891596985129,0.1340482678701725,-0.48281915762545136,10.518992844307345,0.5012897488382294,-0.031087080499999975,-0.08737725149999997,-0.023928226000000663
90642.0,0.5829072759999999,-2.3606567879999996,10.247556984000001,-0.002701769682087222,0.17348398231898435,-0.4886817185829003,10.532089322801598,0.5185690057820711,-0.00961051700000004,-0.02991028249999994,0.0071588545000018655
90652.0,0.5529969935,-2.31633073,10.338562696,0.007689920684287016,0.20945696353183949,-0.484150843844723,10.60929179279584,0.5275731172526386,-0.02991028249999994,0.04432605799999978,0.0910057119999994
90662.0,0.5110245314999999,-2.2385639955,10.4845837145,0.01674992483138958,0.23796691686316684,-0.47402618885390396,10.733070879301149,0.530669050560305,-0.041972462000000044,0.07776673449999993,0.14602101849999904
90672.0,0.48591950749999996,-2.2110073089999998,10.6461973065,0.015683528658421046,0.24196546617948586,-0.45537385513784057,10.884217389281984,0.5159056191182011,-0.025105023999999976,0.027556686500000094,0.16161359200000014
90682.0,0.469150136,-2.176291768,10.814969752999998,0.007689920684287016,0.21904929310080032,-0.41886854850312716,11.041735301476766,0.4727500276184101,-0.016769371499999963,0.03471554099999974,0.16877244649999845
90692.0,0.40217071649999997,-1.993103546,10.8461549,-0.008032005217677905,0.17588206471122456,-0.36930643373424415,11.035093073693664,0.40912865432820256,-0.06697941950000003,0.18318822200000007,0.03118514700000219
90702.0,0.376967626,-1.959564803,10.7862362685,-0.02908242132598151,0.12205611057971945,-0.3237411229524282,10.969270333441203,0.34720569703063603,-0.02520309049999997,0.03353874300000004,-0.05991863150000043
90712.0,0.3949137955,-2.0757736055,10.6593382175,-0.04959876668317486,0.07329335660824987,-0.2872358163177148,10.86675131776847,0.30056009042303017,0.017946169499999998,-0.11620880249999987,-0.1268980509999995
90722.0,0.38177288449999996,-2.164327655,10.568430571999999,-0.050932198231698526,0.043717007103953966,-0.26591836483385606,10.794525903842256,0.27425871414187003,-0.013140911000000033,-0.08855404950000034,-0.09090764550000152
90732.0,0.29557243099999997,-2.155893936,10.521750918,-0.042404519506454234,0.042118285509127155,-0.26352028244161585,10.744416415314639,0.2702129391922426,-0.0862004535,0.008433719000000117,-0.046679653999998294
90742.0,0.2178056965,-2.1822738244999997,10.489388972999999,-0.03973940173865889,0.04824613651287925,-0.2890998279588447,10.716204523683732,0.29577968196750687,-0.07776673449999996,-0.026379888499999726,-0.03236194500000167
90752.0,0.1711260425,-2.278084795,10.4702660055,-0.042938590257564496,0.026663394982717373,-0.33413281331880246,10.716595759921189,0.3379340114602984,-0.046679654000000015,-0.09581097050000009,-0.019122967499999532
90762.0,0.18191335749999998,-2.315153932,10.431922004,-0.04427027647683617,-0.021299998191338796,-0.3863600458554808,10.687283419842078,0.3894709646889428,0.010787314999999992,-0.03706913700000003,-0.038344001499998726
90772.0,0.3027312855,-2.383408216,10.337385897999999,-0.04400324110128104,-0.0727278699306037,-0.42979256429135965,10.612908562664904,0.43811787981341593,0.12081792800000002,-0.068254284,-0.0945361060000014
90782.0,0.422470482,-2.248076446,10.2500086465,-0.03947411169235575,-0.10789974501679343,-0.45350809816745863,10.502142936969866,0.4678356074221531,0.11973919649999998,0.13533177000000007,-0.08737725149999953
90792.0,0.618799615,-2.1691329135,10.166161788999998,-0.022685789617422295,-0.1161603883664826,-0.46176874151714775,10.413399832911287,0.4766951347752024,0.19632913300000004,0.07894353249999986,-0.08384685750000109
90802.0,0.7648206335,-2.0997018315,10.151844079999998,0.00102799892942466,-0.09510997225817899,-0.44151768620625753,10.394885117559635,0.45164679876832714,0.14602101849999993,0.06943108199999992,-0.014317709000000178
90812.0,0.8211108045,-1.9979088044999997,10.145862023499998,0.020479693442901462,-0.030627037713996493,-0.3951530146270282,10.373253045417561,0.39686690243893874,0.056290171,0.10179302700000026,-0.00598205650000061
90822.0,0.790023724,-1.945247094,10.1852847565,0.01595056403397618,0.07489207820307668,-0.347189621452972,10.399430239786675,0.3555332292701144,-0.031087080499999975,0.05266171049999979,0.0394227330000021
90832.0,0.7360871489999999,-1.899744238,10.190090015,-0.017090264035528473,0.18574142965574056,-0.3098849540208452,10.391765344470583,0.3616913608919403,-0.05393657500000004,0.045502855999999925,0.004805258499999354
90842.0,0.5865357365,-1.9464238919999999,10.139879966999999,-0.06691941417996658,0.2803347844553292,-0.2781758121706122,10.341651506539366,0.40055908658596867,-0.14955141249999993,-0.04667965399999985,-0.050210048000000285
90852.0,0.44159344949999996,-2.0338011435,10.05966157,-0.11328408575919595,0.33336137778942093,-0.2520621959022731,10.27268916929146,0.4330109038939248,-0.14494228700000006,-0.08737725149999997,-0.08021839699999944
90862.0,0.281254722,-2.140399429,9.9399223735,-0.12980362712932228,0.3525460369273426,-0.2398047485655169,10.171650344241916,0.4456949710325147,-0.16033872749999994,-0.10659828550000006,-0.11973919649999942
90872.0,0.20456671899999998,-2.2277766805,9.864509235,-0.10955257181843207,0.34082266034169667,-0.2446009133499973,10.115007608899873,0.43357981803363166,-0.07668800300000003,-0.08737725149999997,-0.07541313850000009
90882.0,0.1375872995,-2.2708278739999996,9.924329799999999,-0.05919109625213569,0.31470904407335754,-0.25499260371637156,10.181744029265667,0.4093489907733383,-0.06697941949999997,-0.04305119349999975,0.05982056499999899
90892.0,0.0573689025,-2.2289534785,10.052404649,0.011953760046909163,0.25955140372258073,-0.26645069025571433,10.29671617689485,0.3721636654636879,-0.08021839700000001,0.04187439549999983,0.12807484900000077
90902.0,0.0573689025,-2.1930611394999997,10.193718475499999,0.0775030907640602,0.20039695938473692,-0.27657709057578544,10.4271139204628,0.3502292926641007,0.0,0.035892339000000106,0.14131382649999935
90912.0,0.08610238699999999,-2.188255881,10.315811268,0.11347607197691531,0.15296589163253904,-0.2883004671614313,10.545702420359392,0.34553225939085236,0.02873348449999999,0.004805258499999798,0.12209279250000016
90922.0,0.13160524299999998,-2.1583455985,10.360137326,0.11694055054212406,0.11326314180817201,-0.30322303226598285,10.583393646469352,0.3441625182234847,0.045502855999999994,0.02991028249999994,0.04432605800000111
90932.0,0.21898249449999999,-2.152363542,10.4163294305,0.10361670703239935,0.08395208235017924,-0.3181455973705344,10.63863435571167,0.34496520872897246,0.0873772515,0.005982056500000166,0.05619210449999912
90942.0,0.315970263,-2.1140195405,10.394852866999999,0.09082693427378491,0.053576372048469934,-0.32720385618838493,10.612345732744208,0.3437765598990132,0.09698776849999999,0.038344001499999614,-0.021476563500000267
90952.0,0.44404511199999996,-2.0553757735,10.4235863515,0.08496437331633595,0.019202112430441613,-0.33146769555100714,10.633574096180404,0.34272218931479204,0.128074849,0.0586437670000004,0.028733484500000017
90962.0,0.5948713889999999,-2.014678176,10.410347374,0.0767037299666468,-0.017835519626130055,-0.32906961315876687,10.620175731580442,0.3383613131780742,0.15082627699999995,0.040697597499999905,-0.013238977499998583
90972.0,0.7277514964999999,-1.965644926,10.387595946,0.06018244326726847,-0.02769488457064602,-0.31388175800791224,10.596958608634987,0.320796962453102,0.1328801075,0.04903324999999992,-0.022751428000001184
90982.0,0.8222876024999999,-1.935636577,10.2547158385,0.03593458396931125,-0.0023806290997202655,-0.28670174556660455,10.468144190248251,0.2889547587960717,0.09453610599999995,0.030008349000000045,-0.13288010750000012
90992.0,0.8989756055,-1.9979088044999997,10.1505692155,0.00555887366760194,0.04025252853874522,-0.25819179223527716,10.384307975452142,0.2613697930287266,0.07668800300000012,-0.06227222749999983,-0.1041466230000001
91002.0,0.9013292015,-2.0900913144999995,10.062015166,-0.014959217018843398,0.07702487054901375,-0.23953945851921377,10.316250541414695,0.2520630100680925,0.002353595999999958,-0.09218250999999977,-0.08855404949999901
91012.0,0.861808402,-2.1810970265,9.9518864865,-0.013360495424016593,0.09700889048434883,-0.22701497580690244,10.224477619954294,0.2472347607266989,-0.03952079949999998,-0.0910057120000003,-0.11012867950000071
91022.0,0.8163055459999999,-2.2385639955,9.875296549999998,0.003426081321664869,0.10127272984697097,-0.22381753261724885,10.15869112911802,0.2456871827156506,-0.045502856000000036,-0.057466969000000034,-0.07658993650000134
91032.0,0.7995361745,-2.2804383909999997,9.8334221545,0.02634225440035042,0.10287145144179778,-0.22994538362100092,10.125998647940467,0.2532811270845979,-0.016769371499999908,-0.04187439549999983,-0.04187439549999894
91042.0,0.7840416674999999,-2.336728562,9.738787982,0.048726102057177686,0.11273081638631374,-0.23101177979396947,10.04584556257911,0.2616274304968589,-0.015494507000000102,-0.05629017100000011,-0.09463417249999928
91052.0,0.7852184655,-2.2696510759999997,9.6992671825,0.0588507570479968,0.1295173931319952,-0.23847306234624524,9.992180338788508,0.27768249529566374,0.0011767980000000344,0.06707748600000007,-0.03952079949999998
91062.0,0.8270928609999999,-2.2744563345,9.667003304,0.05805139625058339,0.15083484461585397,-0.24966411351003287,9.965349321414239,0.29741096908433223,0.04187439549999994,-0.004805258500000242,-0.03226387850000023
91072.0,0.8342517155,-2.2852436495,9.6969135865,0.06018244326726847,0.1782801471034648,-0.24726603111779263,9.997422046029818,0.31071888818286575,0.007158854500000089,-0.010787314999999964,0.029910282499999497
91082.0,0.8163055459999999,-2.3199591905,9.651410730499999,0.06364692183247722,0.20945696353183949,-0.23820602697069007,9.95983405879969,0.3235201099095525,-0.017946169500000053,-0.03471554100000018,-0.04550285600000059
91092.0,0.8067930954999999,-2.3809565535,9.6059078745,0.0665790749758277,0.23743459144130857,-0.23873835239254834,9.929417671846732,0.3432258139194175,-0.009512450500000047,-0.060997362999999805,-0.045502855999998815
91102.0,0.7815900049999999,-2.3103486734999996,9.564033478999999,0.07483797299626485,0.256086925157372,-0.2573924314378638,9.870123115569124,0.3707183556289633,-0.025203090500000025,0.07060788000000029,-0.041874395500000716
91112.0,0.7960057805,-2.187079083,9.4550815975,0.08229925554854062,0.22864162266976115,-0.27737645137319883,9.737325512340064,0.3687653113530257,0.014415775500000172,0.12326959049999964,-0.10895188149999946
91122.0,0.8893650885000001,-2.130788912,9.355740232999999,0.09242565586861172,0.16415694279632667,-0.27524540435651373,9.636446801364059,0.3335416560946477,0.09335930800000003,0.05629017100000011,-0.09934136450000075
91132.0,1.0425449615,-2.0397831999999996,9.5113717685,0.1387903274478411,0.15829612716812969,-0.2541932429189581,9.783343417174422,0.33005245585385984,0.1531798729999999,0.0910057120000003,0.1556315355000013
91142.0,1.1682662145,-1.8829748664999997,9.9399223735,0.19900942262940144,0.23716755606575346,-0.22221881102242202,10.183933281744276,0.3810963131777962,0.12572125300000003,0.1568083334999999,0.42855060499999986
91152.0,1.1215865605,-1.7393074439999998,10.580394685,0.23125263523074469,0.31017991466443223,-0.174522453223921,10.780904344618975,0.4244378016172617,-0.04667965400000007,0.14366742249999986,0.6404723115
91162.0,0.9636014289999999,-1.6902741940000001,11.125056025999998,0.2189951878939885,0.24329715239875754,-0.12122882451427414,11.29391102083384,0.34906850986472593,-0.15798513150000004,0.049033249999999695,0.5446613409999976
91172.0,0.8689672564999998,-1.6519301924999998,11.4087624105,0.1808911596644483,0.028794441999402447,-0.07699694528098185,11.560442776684637,0.1986938879719464,-0.09463417250000006,0.03834400150000028,0.2837063845000021
91182.0,0.9216289669999999,-1.7010615089999999,11.4889808075,0.14252009605935298,-0.2374014301855207,-0.0439543718822252,11.650737753692605,0.2803629855071079,0.052661710500000014,-0.04913131650000002,0.08021839700000122
91192.0,1.0652963895,-1.7668641305,11.362082756499998,0.11267671117950191,-0.44337646185963153,-0.02556907354171693,11.547882482026038,0.45818392125343715,0.1436674225000002,-0.06580262150000005,-0.12689805100000306
91202.0,1.1826819899999998,-1.8303131559999999,11.1681072195,0.07457268294996172,-0.6187087478564778,-0.021839304930205045,11.37872584276223,0.6235692062284031,0.1173856004999998,-0.06344902549999998,-0.19397553699999825
91212.0,1.321544154,-1.9344597789999998,10.9551067815,0.023677136632555076,-0.7308897855284133,-0.033562681515850956,11.20281117316576,0.7320429898437804,0.13886216400000007,-0.10414662299999988,-0.2130004379999999
