timestamp,ax,ay,az,gx,gy,gz,acc_mag,gyro_mag,dax,day,daz
108362.0,0.482879446,-2.0575332365,9.4125207365,-0.05520301891132865,-0.36488376940969053,-0.07376459550628835,9.646873182213703,0.3763359589857911,0.0,0.0,0.0
108372.0,0.5320107625,-2.5064816734999997,9.613655128,-0.03761533603898179,-0.3947271542895415,-0.045254642174960974,9.949263829607087,0.3990894918150925,0.04913131650000002,-0.44894843699999987,0.20113439150000012
108382.0,0.561921045,-2.7638081695000003,9.7584993485,0.010081021759519247,-0.3406359101117333,-0.008482300164692442,10.157888579487556,0.34089059780734443,0.02991028249999994,-0.25732649600000057,0.14484422049999957
108392.0,0.30331968449999996,-2.695651952,9.8757868825,0.06150889349878416,-0.28334722274427143,0.019762363120331795,10.241567693760837,0.2906192416417681,-0.2586013605,0.06815621750000034,0.1172875340000008
108402.0,0.121406327,-2.7267390325,9.9918976185,0.1014769333694543,-0.2436444729199044,0.04960749332943483,10.357985483006848,0.2685537201099933,-0.18191335749999998,-0.031087080499999864,0.11611073599999955
108412.0,0.010002783,-2.8440265664999997,10.172634178,0.12332671027517131,-0.22179295068493543,0.0695915132647699,10.562720922472545,0.2631436283843994,-0.111403544,-0.11728753399999992,0.18073655949999967
108422.0,-0.2772339955,-2.7830292034999995,10.3833790865,0.14624288335385685,-0.18688636564504882,0.08877617240269157,10.753449283358353,0.2533667369291736,-0.2872367785,0.06099736300000025,0.2107449085000006
108432.0,-0.6723439239999999,-2.6034694419999997,10.535382161500001,0.16329649547509345,-0.1759623498568163,0.10716321607245183,10.873103364560642,0.262892466382304,-0.3951099284999999,0.17955976149999975,0.15200307500000143
108442.0,-1.011065615,-2.547179271,10.723375641999999,0.1715571388247826,-0.20287532692256888,0.12634787521037352,11.068024262526999,0.2942006725448823,-0.33872169100000005,0.05629017099999967,0.18799348049999764
108452.0,-1.3067361125,-2.5304098994999995,10.983153800499998,0.16942609180809753,-0.26895698306157817,0.13700660095230288,11.34637391119457,0.346141398892787,-0.2956704975000002,0.016769371500000574,0.25977815849999963
108462.0,-1.50434011,-2.4825534474999995,11.1614386975,0.15450352670354603,-0.38593418551799413,0.12954531840002712,11.53272841023751,0.43542912722351873,-0.1976039974999999,0.047856451999999994,0.17828489700000105
108472.0,-1.5629838769999997,-2.4166527595,11.16389036,0.13611822836303777,-0.5535398989162615,0.11488978867103074,11.528901818033747,0.5814931257769014,-0.058643766999999736,0.06590068799999971,0.0024516625000003955
108482.0,-1.4515803330000001,-2.2611192905,11.059743737,0.10520844731021818,-0.7134172943866981,0.12155171042589309,11.381462007893992,0.7313055938682022,0.11140354399999963,0.15553346899999987,-0.1041466230000001
108492.0,-1.2349514345,-2.048020786,10.944809799,0.05005080695944139,-0.7882936646265069,0.1644519034399137,11.20305117910956,0.8068186992829242,0.21662889850000022,0.2130985045,-0.11493393800000007
108502.0,-1.0709842465,-1.736757715,10.796337117999999,-0.04321086162087561,-0.7421942830935807,0.2361308304900688,10.987457839844835,0.7800495506868409,0.16396718799999999,0.31126307099999995,-0.14847268100000122
108512.0,-1.0087120189999998,-1.4099020705,10.747303868,-0.18550231954821733,-0.5852490407664945,0.32592802050517705,10.886223597593565,0.6950946876694527,0.062272227500000055,0.32685564449999993,-0.04903324999999903
108522.0,-1.125999553,-1.0592162664999998,10.719747181499999,-0.3768218214933317,-0.36301801243930854,0.4245199246210848,10.830641427350994,0.6737907159565423,-0.11728753400000014,0.35068580400000027,-0.027556686500000538
108532.0,-1.3402748555000001,-0.8796565049999999,10.6263878735,-0.5939896496604822,-0.14078872944137458,0.5199126402180868,10.7466390789466,0.8018443263502216,-0.21427530250000015,0.17955976149999986,-0.09335930799999836
108542.0,-1.5964245535,-0.9478127224999999,10.577256557,-0.7938368303308408,0.042270129154050665,0.6009168614616477,10.738960684561148,0.9965263425506289,-0.25614969799999976,-0.0681562175,-0.049131316500000466
108552.0,-1.865813229,-1.127372484,10.3976967955,-0.9401250922452496,0.1677750103357109,0.6438187998049203,10.62376234553196,1.1517318655592261,-0.2693886755000001,-0.17955976149999997,-0.1795597615000002
108562.0,-2.2812229229999996,-1.249563343,10.2576578335,-1.028323560665531,0.2541077217856104,0.635291121079676,10.58229326761236,1.2351578393928366,-0.4154096939999996,-0.12219085900000004,-0.1400389620000002
108572.0,-2.5792470165,-1.3764613940000001,10.036223676499999,-1.0890767265982018,0.3377770607969666,0.5462932918619812,10.453370118102377,1.2643645913864765,-0.2980240935000005,-0.12689805100000018,-0.2214341570000009
108582.0,-2.526585306,-1.5703388644999998,9.666316838499998,-1.1567588496612897,0.42171343518387794,0.3770888568688868,10.113717352196613,1.287683681522361,0.052661710500000236,-0.1938774704999997,-0.36990683800000035
108592.0,-2.2548430345,-1.6278058334999999,9.279640629,-1.2193777725643424,0.5251015040842659,0.18656871572118586,9.687404148955348,1.3406795394505684,0.27174227149999997,-0.057466969000000034,-0.38667620949999915
108602.0,-1.9747651105,-1.497279322,8.8474615635,-1.2401611532970909,0.6644608088682572,0.046942375561639486,9.187987740922749,1.4077327300636293,0.280077924,0.13052651149999983,-0.43217906549999974
108612.0,-1.7425436384999997,-1.3177195604999998,8.517075525,-1.1855358383681722,0.8211407611490401,-0.024204226066657362,8.792804937604105,1.4423429613775067,0.2322214720000002,0.1795597615000002,-0.33038603850000037
108622.0,-1.589265699,-1.239952826,8.240527995,-1.0445778119893543,0.9594336697600628,-0.03699399882527181,8.48348690746335,1.4188108851847778,0.15327793949999968,0.07776673449999993,-0.27654752999999843
108632.0,-1.5473913035,-1.2830040194999999,8.2429796575,-0.8140878856417311,1.0502990012773916,-0.02713463388075584,8.484529026066173,1.3291363233275784,0.04187439550000005,-0.04305119349999997,0.002451662499998619
108642.0,-1.8490438574999999,-1.5823029775,8.5434554135,-0.5116519968683977,1.1190457751841965,-0.013545500324727991,8.88331448852433,1.2305424386976929,-0.3016525539999999,-0.29929895800000006,0.30047575600000087
108652.0,-2.168642581,-2.213164772,9.060560068,-0.20522104943724925,1.1528859640511142,-0.08975355678380839,9.575743192984255,1.174443453808457,-0.31959872349999996,-0.6308617944999999,0.5171046544999989
108662.0,-2.151971276,-2.9386607389999995,9.511862101,0.03219783404079139,1.1001264060925777,-0.3447583778049439,10.185392871171402,1.1533313266211864,0.016671305000000025,-0.7254959669999996,0.45130203300000105
108672.0,-2.1830583564999997,-3.2522774059999997,9.952376819,0.204065641472429,1.0492326051044232,-0.7090120833546644,10.695459618961268,1.2826651862378935,-0.031087080499999864,-0.31361666700000024,0.4405147179999993
108682.0,-2.0585139015,-3.0463377560000002,10.226570753,0.3229086008992269,1.0140589846889814,-1.0919181226204484,10.867400911552627,1.5247526932162174,0.12454445499999967,0.20593964999999947,0.27419393400000125
108692.0,-1.6395738135,-2.5423740125,10.3259121175,0.4068432299568862,0.9783530388516815,-1.412472274358735,10.759940936997918,1.7657219509946092,0.41894008800000004,0.5039637435000004,0.09934136449999897
108702.0,-1.2025894895,-1.7307756585,10.2468705185,0.4843847179644903,0.9106726611178453,-1.6024600900845778,10.461365173017164,1.905736495693691,0.436984324,0.8115983539999998,-0.07904159899999996
108712.0,-0.7956135144999998,-0.7395194765,10.134388243,0.5835089475022562,0.8440569342277258,-1.6397647575167045,10.192434202899447,1.934358617223527,0.40697597500000016,0.991256182,-0.11248227549999967
108722.0,-0.5322068955,-0.186522483,10.2684451485,0.6834307925081835,0.8832256133009825,-1.5323816299585016,10.28391951466149,1.8961430832016697,0.26340661899999984,0.5529969935000001,0.1340569054999996
108732.0,-0.476014791,-0.150630144,10.527046509,0.6994197537857036,1.0465674873366277,-1.3794314462892303,10.538879813537173,1.8674374454174776,0.056192104500000006,0.035892338999999995,0.25860136050000015
108742.0,-0.628017866,-0.6162498859999999,10.9148995165,0.5712515001655001,1.2173706439245489,-1.2981601896701143,10.950306014778864,1.8691012383428973,-0.152003075,-0.4656197419999999,0.3878530075000004
108752.0,-0.8279754595,-1.204060487,11.234498239999999,0.3703379233221728,1.3212910382467953,-1.3285376453010758,11.32913305255314,1.9099666123217967,-0.19995759349999997,-0.5878106010000002,0.3195987234999986
108762.0,-1.0469579539999998,-1.6781139479999998,11.349432177999999,0.221918614391079,1.317294234259728,-1.4412510083948695,11.52049470044311,1.9651250444250128,-0.21898249449999985,-0.4740534609999998,0.11493393800000007
108772.0,-1.0769663029999998,-1.979766502,11.2967704675,0.19633732354459812,1.2005823218496154,-1.575281822972522,11.519390383853608,1.9903414475767975,-0.030008349000000045,-0.30165255400000013,-0.052661710499998904
108782.0,-0.9560503084999998,-1.9294583875,11.090830817499999,0.3069196396217068,1.0108615414993278,-1.6650790129876303,11.297936540974407,1.9719353033910054,0.12091599450000001,0.050308114499999945,-0.20593965000000125
108792.0,-0.778844143,-1.688901263,10.854980885,0.5043687378998253,0.7577224774485741,-1.7372902654596436,11.013155573629374,1.9613027922945265,0.1772061654999998,0.2405571245,-0.23584993249999897
108802.0,-0.40060165249999996,-1.2782968275,10.5449926785,0.7244669738810742,0.5424204062518057,-1.771931560453227,10.629741062358994,1.9896767949325296,0.3782424905000001,0.41060443550000003,-0.3099882064999999
108812.0,-0.15161080899999999,-0.860435471,10.2684451485,0.8739526789851365,0.4931253268584779,-1.7642032425253962,10.30554708906392,2.029625323558932,0.24899084349999998,0.4178613565,-0.2765475300000002
108822.0,0.15131660949999998,-0.7587405104999999,10.146352356,0.8803475653644438,0.6244910236683351,-1.7535445167834667,10.175807093822637,2.059106419500165,0.30292741849999993,0.10169496050000004,-0.12209279250000016
108832.0,0.42904093749999994,-0.8114022209999999,10.090062184999999,0.7391225036100706,0.9018779470170458,-1.7783264468325344,10.13172268607178,2.126530239183663,0.27772432799999996,-0.052661710500000014,-0.056290171000000555
108842.0,0.44934070299999995,-0.7934560514999999,10.072116015499999,0.5310146795900228,1.2282946597127813,-1.8252234438336221,10.113308093928815,2.263211209971111,0.02029976550000001,0.017946169500000053,-0.017946169500000053
108852.0,0.1285651815,-0.8102254229999999,10.366609715,0.37939792746927536,1.5024841398718385,-1.8460068245663706,10.399018762609385,2.4102162920119876,-0.3207755215,-0.01676937150000002,0.29449369950000026
108862.0,-0.04746418599999999,-1.1765038005,10.825070602499999,0.35141855423055424,1.5408552034769338,-1.882779166576639,10.88891948682941,2.458167437021827,-0.17602936749999998,-0.36627837750000003,0.45846088749999936
108872.0,-0.030694814499999997,-1.3165427625,11.2296929815,0.45427429770908406,1.3298169716427874,-1.988298282493712,11.306645456362318,2.434770702919624,0.016769371499999994,-0.140038962,0.404622379000001
108882.0,0.1417060925,-1.229165511,11.5062405115,0.630671234549647,0.9972724079432999,-2.1098046143590534,11.572575304510544,2.4173485417920517,0.172400907,0.08737725149999997,0.2765475300000002
108892.0,0.620564812,-0.9466359245,11.479860622999999,0.7924143869904655,0.5893174032528934,-2.208129483099406,11.535528604400948,2.418894660091476,0.47885871950000003,0.28252958649999993,-0.02637988850000106
108902.0,1.282513687,-0.453459496,11.211746812,0.8619622670239355,0.2634347613082681,-2.267018637390947,11.293968897081621,2.439620938899421,0.661948875,0.4931764285,-0.2681138109999992
108912.0,1.8404140055,0.07325567549999999,10.719747181499999,0.8001427049182964,0.11128393843641045,-2.24996502526971,10.876831787837425,2.3905972220607996,0.5579003185,0.5267151715,-0.4919996305000005
108922.0,2.261805756,0.5688837664999999,10.155864806499999,0.622677626575513,0.14006267247254495,-2.150306724980834,10.420219958598148,2.2430256330135117,0.4213917504999998,0.49562809099999994,-0.5638823750000004
108932.0,2.3324136359999996,0.8657310619999999,9.604044610999999,0.3732700764655233,0.3369776999995532,-1.9752414743595426,9.921054204629089,2.0382500833586703,0.07060787999999985,0.2968472955,-0.5518201954999995
108942.0,2.158835931,0.7652128994999999,9.298763596499999,0.1124026944869388,0.553079131993735,-1.7679330111369083,9.576697122814913,1.855833511886905,-0.17357770499999958,-0.10051816250000001,-0.3052810145000002
108952.0,2.043901993,0.24085132399999998,9.3766283975,-0.06399598768287608,0.6556678400967098,-1.6099213726368533,9.599828374615107,1.7394949350456648,-0.11493393800000007,-0.5243615755,0.07786480100000048
108962.0,2.2199313605,-0.583887941,9.835089284999999,-0.04321086162087561,0.5762605951187237,-1.5465030889363873,10.099406003171591,1.6509437471150832,0.17602936749999998,-0.8247392649999999,0.45846088749999936
108972.0,2.7753800164999998,-1.253093737,10.422899886,0.1614307385047115,0.34630473952221086,-1.6093890472149952,10.858628835321474,1.6541221119510232,0.5554486559999998,-0.669205796,0.587810601000001
108982.0,3.6372864849999997,-1.5560211554999999,11.027381791999998,0.4060438691594728,0.08703607913845322,-1.7671353956687466,11.715553934699814,1.8152725441043633,0.8619064685,-0.30292741849999993,0.6044819059999984
108992.0,4.506351808,-1.379991788,11.4020938885,0.5174255460339949,-0.10241766583627926,-1.8995657433223205,12.33771976479371,1.9714382027260224,0.8690653230000001,0.17602936749999976,0.3747120965000015
109002.0,5.2545011365,-0.9238844964999999,11.403270686499999,0.420432363512914,-0.21992893904380548,-1.9376697715518607,12.58959598660509,1.9949176058433664,0.7481493285000003,0.4561072915000002,0.0011767979999994793
109012.0,5.7705270595,-0.452282698,11.166243956,0.19500563732532644,-0.26256209668227093,-1.8542674679160596,12.577302821679949,1.8828897726034528,0.5160259229999999,0.47160179849999995,-0.23702673049999845
109022.0,5.9140964154999995,-0.0679600845,10.6862084385,-0.05440365811391525,-0.20713742095593904,-1.656286044216083,12.2137711529234,1.670074587987439,0.14356935599999954,0.38432261349999997,-0.48003551750000106
109032.0,5.580179982999999,-0.014121576,10.161944929499999,-0.2694386939351286,-0.08616341451245606,-1.3778327246944035,11.593262388636484,1.406571847090904,-0.3339164325000006,0.05383850850000001,-0.5242635090000007
109042.0,4.9887409215,-0.4019745835,9.63993695,-0.4461026661512466,0.012159708898644494,-1.1036432445353463,10.861744977102157,1.1904553156151039,-0.5914390614999991,-0.38785300749999996,-0.5220079794999997
109052.0,4.2561841665,-1.045977289,9.280817426999999,-0.5606817862154223,0.043336525327019204,-0.9011309460971922,10.263661347763573,1.0622048304518092,-0.7325567550000001,-0.6440027055000002,-0.3591195230000004
109062.0,3.6552326545,-1.9366172419999998,9.1587246345,-0.5780024337122142,-0.009423032631517387,-0.7932137477878789,10.049549692953011,0.9815109049831845,-0.600951512,-0.8906399529999998,-0.12209279249999838
109072.0,3.5678554029999994,-3.09301741,9.2401198295,-0.49193501230861775,-0.15837641231372143,-0.8124001522550526,10.3767125496854,0.9628484572851942,-0.08737725150000042,-1.156400168,0.08139519499999892
109082.0,3.8191998424999998,-3.9729681144999995,9.486757077,-0.3432486680019688,-0.2926725169376771,-0.9680137083628669,10.971295407279639,1.0679547695638567,0.2513444395000004,-0.8799507044999997,0.2466372475000007
109092.0,4.111339946,-4.3775904935,9.7859579685,-0.1985591276823869,-0.36461673403413536,-1.172390018442151,11.481785054668352,1.2437320632943805,0.2921401035000004,-0.4046223790000001,0.29920089149999995
109102.0,4.36984324,-4.254222836499999,9.976305045,-0.10662914532134157,-0.39925802902771884,-1.309085950787599,11.692758623851955,1.3727646465889667,0.2585032939999996,0.12336765700000019,0.19034707650000016
109112.0,4.573429293999999,-3.7753641169999996,10.0589751045,-0.08211599597708122,-0.3979245974791951,-1.3594474263538954,11.677012026888526,1.4188672690193813,0.20358605399999963,0.4788587194999998,0.08267005949999984
109122.0,4.730237627499999,-3.22834918,10.020631103,-0.10369873750724308,-0.3531603928240446,-1.3415944534352453,11.54168246587275,1.3911690654656048,0.1568083334999999,0.5470149369999997,-0.0383440015000005
109132.0,4.751714191,-2.630928062,9.924918198999999,-0.13194340079226732,-0.25536784950555036,-1.2632536046302276,11.313910529839417,1.2955429244857084,0.021476563500000267,0.5974211179999998,-0.09571290400000088
109142.0,4.622462543999999,-2.132946375,9.817143115499999,-0.15938870327987817,-0.13359448226465395,-1.1334866294151975,11.058612894912164,1.1524079935022264,-0.12925164700000025,0.49798168700000023,-0.10777508349999998
109152.0,4.402205185,-1.8959196445,9.727314201499999,-0.17857510774705182,-0.052857296396648275,-0.9826692380918634,10.84410269980626,1.000160884248768,-0.22025735899999965,0.2370267305,-0.08982891399999993
109162.0,4.135268172,-1.797755078,9.677104153499998,-0.18710104114304413,-0.02141344459271843,-0.8030731127323949,10.676081255428787,0.8248586300693194,-0.2669370129999997,0.09816456649999994,-0.050210048000000285
109172.0,3.8695079569999997,-1.9881021544999997,9.6794577495,-0.16391957801805543,-0.031805134959092665,-0.6312053053007572,10.612141364040033,0.6529175538360151,-0.26576021500000024,-0.1903470764999997,0.002353596000000735
109182.0,3.7366278494999996,-2.3077989445,9.7369247185,-0.11169234548137712,-0.04006577830878183,-0.4953087337527228,10.681574164308863,0.5093242467842518,-0.13288010750000012,-0.3196967900000003,0.057466969000000034
109192.0,3.5558912899999995,-2.5232510449999994,9.790763227,-0.06452831310473435,-0.02940705256685246,-0.41696963027695727,10.717751782419992,0.42295667686669125,-0.18073655950000012,-0.2154521004999994,0.05383850850000016
109202.0,3.3355358644999997,-2.7124213234999996,9.801550542,-0.03628364981971011,-0.006492624817418906,-0.362876640769897,10.702963232998782,0.36474390171420823,-0.22035542549999976,-0.18917027850000023,0.010787314999999964
109212.0,3.0650684575,-2.846478229,9.799196946,-0.0314874850352297,0.02361779543798727,-0.31438092217398256,10.654639540774157,0.3168353297884535,-0.27046740699999994,-0.1340569055000005,-0.0023535959999989586
109222.0,2.7765568144999997,-2.9122808504999997,9.766835001,-0.0485410971564663,0.0798418319617326,-0.2808060233533677,10.56322457553062,0.2959442160199978,-0.2885116430000001,-0.0658026214999996,-0.03236194499999989
109232.0,2.4892219695,-2.9087504564999995,9.71054483,-0.08584576458859308,0.16590925336532897,-0.27041433298699347,10.437994832680754,0.3286628776342738,-0.28733484499999973,0.0035303940000002143,-0.056290171000000555
109242.0,2.1863926175,-2.7878344619999997,9.697403919,-0.1271472360077869,0.22932753706579492,-0.2746781723496156,10.324339031318658,0.37974417341995986,-0.30282935199999983,0.12091599449999979,-0.013140911000000699
109252.0,1.9110218854999999,-2.6896698955,9.673475692999999,-0.16178678567211838,0.23785347046178723,-0.26561816820251305,10.220687881775902,0.39153831065183237,-0.2753707320000003,0.09816456649999994,-0.023928226000000663
109262.0,1.6189798484999998,-2.6129818925,9.546577641999999,-0.18763511189415438,0.15818268076675007,-0.23684117949563052,10.029252952992872,0.3410607570726496,-0.2920420370000001,0.07668800299999967,-0.1268980509999995
109272.0,1.4920817975,-2.5855232724999997,9.4268384455,-0.1969604060875601,0.03134611336581816,-0.20193459445574394,9.888201138762641,0.2838195920427712,-0.12689805099999973,0.027458620000000433,-0.11973919649999942
109282.0,1.5470971040000001,-2.6094514985,9.3874157125,-0.1791074331689101,-0.05925218277595549,-0.1766203389848182,9.865410297170662,0.2584280130388014,0.05501530650000008,-0.02392822600000022,-0.03942273300000032
109292.0,1.5482739019999998,-2.6333797244999997,9.396928162999998,-0.1559259700439214,-0.06378131218488077,-0.1638305662262037,9.880996900596848,0.23499237934061099,0.0011767979999997014,-0.023928225999999775,0.009512450499999048
109302.0,1.4454021435,-2.6082747004999995,9.4352721645,-0.1426021265341967,-0.022746876141242094,-0.14810864032423882,9.895283982175108,0.2068549158346371,-0.10287175849999985,0.025105024000000142,0.03834400150000228
109312.0,1.347237577,-2.6680952654999994,9.441254221,-0.14713125594312199,-0.01102175422634419,-0.13478479681451408,9.903083494559391,0.19984000348768075,-0.09816456649999994,-0.05982056499999988,0.0059820564999988335
109322.0,1.384306714,-2.803328969,9.443607816999998,-0.16098742487470497,-0.02461088778237204,-0.12918927123262028,9.947697572210544,0.20787620009717517,0.03706913700000003,-0.1352337035000004,0.0023535959999989586
109332.0,1.4681535715,-2.9338554804999997,9.465182447,-0.1628531818450869,-0.026743680128309112,-0.13132206357855736,10.01761756332138,0.2109072489185825,0.08384685749999998,-0.13052651149999983,0.021574630000001704
