timestamp,ax,ay,az,gx,gy,gz,acc_mag,gyro_mag,dax,day,daz
32302.0,0.11061901199999999,0.43198293249999997,9.822144506999999,-0.12517152329452932,0.27470086162989155,-0.027166049807291738,9.83226161857878,0.3030948166600841,0.0,0.0,0.0
32312.0,0.25899362649999996,0.04412992499999999,9.5396149205,-0.16167682992924273,0.33172425895105023,-0.002118829711921116,9.543232051054526,0.3690323437748253,0.14837461449999997,-0.38785300749999996,-0.28252958649999904
32322.0,0.42658927499999993,-0.113953273,9.4809711535,-0.14116048457204938,0.42711697454805236,0.0005462880558742252,9.49124742968339,0.44983940554639873,0.16759564849999997,-0.15808319799999998,-0.058643766999999514
32332.0,0.299691224,0.0501119815,9.5156866945,-0.08813389123795766,0.4846726972910693,0.006408849013323179,9.520536713248722,0.4926624398407293,-0.12689805099999996,0.16406525449999998,0.03471554099999885
32342.0,0.18240368999999998,0.33136670349999997,9.648566802,-0.036706019498692746,0.48387333649365594,0.02079734336676443,9.655978268977751,0.48570903546058963,-0.117287534,0.28125472199999996,0.13288010750000012
32352.0,0.14651135099999998,0.3864800765,9.795862685,-0.007129669994396836,0.4319131393325327,0.04344648106989485,9.8045784289218,0.4341513432429635,-0.035892338999999995,0.05511337300000002,0.14729588299999996
32362.0,0.007649186999999999,0.4200188195,10.026907358999999,0.008859291283123218,0.3538393259030704,0.07515562292012783,10.035703538106548,0.3618412956726898,-0.13886216399999998,0.03353874299999998,0.23104467399999962
32372.0,-0.271251939,0.3625518505,10.1945030075,0.023513075682867608,0.23606276264924103,0.11219325497669949,10.204553543817523,0.26242297746182,-0.278901126,-0.05746696899999998,0.16759564850000075
32382.0,-0.4627758135,0.31106693799999996,10.268739348,0.03870267616297426,0.07618536717880448,0.13697518502576697,10.283867555090389,0.16144444439864883,-0.19152387450000002,-0.051484912500000035,0.07423634050000061
32392.0,-0.5526047274999999,0.149453346,10.201661862,0.05522221753310059,-0.08155923594569502,0.14656751459472783,10.217710753102734,0.1765883309049451,-0.08982891399999987,-0.16161359199999997,-0.06707748600000052
32402.0,-0.5406406145,0.0057859235,10.092709980499999,0.0786724613628964,-0.21798813291558777,0.14123902438838912,10.10718162998182,0.2713975760376359,0.011964112999999887,-0.14366742249999997,-0.10895188150000124
32412.0,-0.40776050699999994,-0.1415099595,9.913150219,0.10744945006977889,-0.31897811942373566,0.12125325912380207,9.922542061597236,0.3577635781344221,0.13288010750000007,-0.14729588300000002,-0.17955976149999842
32422.0,-0.22820074549999997,-0.14749201599999998,9.702503377,0.1330307409162598,-0.3549511006365908,0.09327563121433295,9.706307292463334,0.39036880670756535,0.17955976149999997,-0.0059820564999999715,-0.21064684200000094
32432.0,-0.0881617835,-0.0193191005,9.57913572,0.13889155654445676,-0.33523237074755885,0.06582858339747012,9.579560891287969,0.3687885698723436,0.140038962,0.12817291549999998,-0.1233676569999993
32442.0,0.055505638999999996,0.070411747,9.5109795025,0.12477009756657062,-0.2726134478445063,0.0493090420273438,9.511402093647998,0.3038372110490999,0.14366742249999997,0.08973084749999999,-0.06815621750000034
32452.0,0.1297419795,0.149453346,9.4809711535,0.10078752831491655,-0.1908098658035321,0.044512877242863375,9.483036607404523,0.22033594121756497,0.0742363405,0.07904159899999999,-0.030008348999999157
32462.0,0.13454723799999999,0.1805404265,9.5516771,0.07121117881062064,-0.09914691881804187,0.04504520266472165,9.554330600702418,0.13011615496092488,0.0048052584999999925,0.031087080500000003,0.07070594649999862
32472.0,0.0938496405,0.186522483,9.613851260999999,0.049893727326761894,-0.02533694475120168,0.05970073239371804,9.61611847162449,0.08182617090044632,-0.04069759749999999,0.005982056499999999,0.06217416099999973
32482.0,0.0614876955,0.232025339,9.645036408,0.039235001584832535,0.035950291932579204,0.08368155631612012,9.648022792587168,0.09916860242479705,-0.032361944999999996,0.04550285600000001,0.031185147000000413
32492.0,-0.004314926,0.21643276549999999,9.700051714499999,0.035505232973320644,0.07512071633508793,0.11059453338187268,9.70246695560169,0.13832893553100403,-0.0658026215,-0.015592573500000012,0.05501530649999964
32502.0,-0.09286897549999999,0.16622271749999998,9.841365541,0.03790331536556085,0.09243961850262768,0.12844750630052268,9.843207320279591,0.1627283203976349,-0.0885540495,-0.05021004800000001,0.14131382650000113
32512.0,-0.1958388005,0.12905551399999998,9.9287427925,0.04349884094745468,0.07805112414918643,0.12978093784904635,9.93151255353865,0.1575665541087375,-0.102969825,-0.037167203499999996,0.08737725149999953
32522.0,-0.2772339955,0.10277369199999999,10.0232788985,0.056555649081624255,0.03141941719440192,0.1161900589637665,10.027638854543156,0.1329881612094973,-0.081395195,-0.026281821999999996,0.09453610599999962
32532.0,-0.32391364949999996,0.10395048999999999,10.0915331825,0.07547327284399079,-0.02427054857823315,0.09540667823101803,10.097265359006974,0.12404720348782096,-0.04667965399999996,0.0011767980000000067,0.068254284
32542.0,-0.3443114815,0.0536423755,10.1945030075,0.1050513676775387,-0.08395731833793522,0.07702137989050976,10.200456826567551,0.15497391430062363,-0.02039783200000006,-0.050308114499999994,0.10296982500000063
32552.0,-0.350293538,0.09914523149999999,10.271092944,0.1338301017136732,-0.13698391167202695,0.07089178355750568,10.27754278045002,0.20420757370290168,-0.005982056499999999,0.04550285599999999,0.07658993649999957
32562.0,-0.3909911355,0.199663394,10.339347228,0.14342243128263402,-0.17055881049264185,0.07728666993681291,10.348663712774439,0.23586761325287678,-0.04069759749999996,0.10051816250000001,0.068254284
32572.0,-0.4376707895,0.24997150849999997,10.339347228,0.12823283080252737,-0.18974346963056352,0.09300859583877781,10.351625117641897,0.24717775398076441,-0.046679654000000015,0.05030811449999997,0.0
32582.0,-0.45444016099999995,0.25840522749999995,10.2890391135,0.09332624576264079,-0.18921114420870525,0.10766412556777422,10.302311148507497,0.23685904917311,-0.016769371499999963,0.008433718999999978,-0.050308114499999945
32592.0,-0.4843504435,0.20809711299999997,10.2555003705,0.05175948429714383,-0.16043241017257076,0.11965453752897524,10.269040247748727,0.20672399667130859,-0.02991028250000005,-0.05030811449999997,-0.03353874299999937
32602.0,-0.6196822135,0.1566122005,10.284233854999998,0.01818458547652892,-0.10554180519734911,0.1308455886927629,10.304076834505935,0.1690867229371486,-0.13533176999999996,-0.05148491249999998,0.02873348449999824
32612.0,-0.9033885979999999,0.1434712895,10.359646993499998,-0.0017994344588061538,-0.0581107374451512,0.13058029864645976,10.39995099987691,0.14293813404892852,-0.28370638449999996,-0.013140911000000005,0.07541313850000009
32622.0,-1.193077039,0.11954306349999999,10.584709611,-0.010060077808495316,-0.04345520771615481,0.12178558454566032,10.652408221346745,0.12969691147554485,-0.28968844100000013,-0.023928225999999997,0.22506261750000078
32632.0,-1.4659961085,0.0512887795,10.8265416,6.45771823237902e-05,-0.0658390553729821,0.11778878055859332,10.92546466497285,0.13494066180399267,-0.2729190694999999,-0.068254284,0.24183198900000136
32642.0,-1.7018460409999998,0.023732092999999996,10.986978394,0.020849703244324263,-0.11540117014186507,0.1279151808786644,11.118027585400585,0.1735351079600595,-0.23584993249999986,-0.027556686500000004,0.16043679399999888
32652.0,-1.889741455,0.024908891,10.991783652499999,0.03337244062738357,-0.17055881049264185,0.13617582422835356,11.153073615957288,0.2207892269436274,-0.1878954140000002,0.0011767980000000032,0.004805258499999354
32662.0,-2.0286036189999996,0.004609125499999999,11.009729821999999,0.04083372317965933,-0.20466603473511505,0.1380398358694835,11.195061618432206,0.2502210522913336,-0.13886216399999962,-0.0202997655,0.017946169500000053
32672.0,-2.1591301305,0.0405014645,11.052781015499999,0.04962669195120677,-0.2251823800923084,0.13377774183611338,11.261769464238592,0.26658281465395817,-0.13052651150000028,0.035892339,0.043051193500000196
32682.0,-2.2848513835,0.0883579165,11.149768783999999,0.04562988796413975,-0.24383471380837182,0.1145913373689397,11.381814306284868,0.27325561098289036,-0.12572125300000003,0.047856451999999994,0.09698776850000002
32692.0,-2.429695604,0.069234949,11.342469456499998,0.01871691089838719,-0.26382047907295886,0.08101818387757678,11.599992568010348,0.2766143778813468,-0.1448442205,-0.01912296749999999,0.19270067249999911
32702.0,-2.487162573,0.1446480875,11.395131166999999,-0.026314329132318508,-0.30379026427288097,0.04397880649175312,11.664300881188042,0.3080829498773178,-0.057466969000000034,0.07541313849999999,0.05266171050000068
32712.0,-2.4978518215,0.139842829,11.447890944,-0.07774220087158341,-0.34056086095389754,0.016266468628587154,11.71806412359613,0.3497000826589298,-0.01068924849999986,-0.0048052584999999925,0.05275977700000034
32722.0,-2.4775520559999995,0.1577889985,11.403564886,-0.12037535851004891,-0.3618783124377563,0.0072082098107365804,11.670666376323574,0.38144212960539214,0.020299765500000344,0.017946169499999998,-0.044326057999999335
32732.0,-2.4476417735,0.1230734575,11.279020431,-0.15554897892549063,-0.36933959499003205,0.006941174435181449,11.542200795785813,0.40081841421609266,0.029910282499999497,-0.034715541,-0.12454445500000055
32742.0,-2.411651368,0.070411747,11.1198585015,-0.18512707375903853,-0.35308534366620886,0.0029443704481144336,11.378588367116269,0.39868529276586695,0.03599040550000021,-0.0526617105,-0.15916192949999974
32752.0,-2.421261885,0.015396440499999999,11.0612147345,-0.20457876827251534,-0.3235072488326609,-0.006382669074543264,11.32312755244123,0.38281869199360136,-0.00961051700000004,-0.0550153065,-0.058643766999999514
32762.0,-2.4463669089999995,-0.027752819499999998,11.024047530999999,-0.215769819436303,-0.3123161976688733,-0.025834363588020066,11.292258642016114,0.380480533862004,-0.025105023999999698,-0.043149259999999995,-0.03716720350000102
32772.0,-2.4895161689999994,-0.049327449499999995,11.037188442,-0.21816790182854318,-0.32936980979010994,-0.05381199149748917,11.314576998598092,0.3987197454583456,-0.043149259999999856,-0.021574629999999997,0.013140911000000699
32782.0,-2.4356776605,-0.09953749749999999,11.031206385499999,-0.20457876827251534,-0.3839951247190284,-0.10044369845227366,11.297342506039342,0.44653517755564676,0.05383850849999927,-0.05021004799999999,-0.00598205650000061
32792.0,-2.2872049795,-0.0960071035,10.965403764,-0.18512707375903853,-0.4681967891522429,-0.16306262135532623,11.201812518057844,0.5292161045303939,0.14847268100000033,0.0035303939999999923,-0.0658026214999996
32802.0,-2.062142362,-0.033734876,10.8301700605,-0.16887282243521537,-0.5428061240164964,-0.21928491254981955,11.02479717284469,0.6092966365400599,0.2250626174999999,0.0622722275,-0.13523370349999908
32812.0,-1.8095230579999997,0.1230734575,10.599125386499999,-0.1678064262622468,-0.5691867756603908,-0.2531268467459896,10.75318463210427,0.6451401265036508,0.2526193040000002,0.1568083335,-0.2310446740000014
32822.0,-1.589265699,0.28831551,10.3106137435,-0.17952980284789274,-0.532147398274567,-0.25285981137043445,10.436361773289367,0.6159138639511905,0.22025735899999965,0.16524205250000001,-0.28851164299999965
32832.0,-1.4360858259999998,0.3541181315,10.037694673999999,-0.1933859717794757,-0.4151701958181512,-0.2179532263305479,10.146085773299134,0.507215964303835,0.15317987300000024,0.06580262149999999,-0.27291906950000033
32842.0,-1.4349090279999999,0.31940259049999997,9.8628421045,-0.2072421407110587,-0.2414366314161316,-0.16252855060421598,9.971792031112162,0.3572904723576861,0.0011767979999999234,-0.034715541000000016,-0.17485256949999872
32852.0,-1.4492267369999998,0.1554354025,9.864116969,-0.2213653450181968,-0.029599038784571836,-0.10790498100454943,9.97121967853982,0.24803669889270027,-0.014317708999999956,-0.16396718799999999,0.0012748644999991399
32862.0,-1.658696781,0.04412992499999999,10.041225068,-0.23655320016905146,0.20089088756305132,-0.05860815628196959,10.177397669729324,0.31583141262208486,-0.20947004400000013,-0.1113054775,0.1771080989999998
32872.0,-1.9986933364999997,-0.027752819499999998,10.350134543,-0.2655972242514891,0.37435741658951577,-0.012777555453850486,10.541386546871408,0.45918256370320537,-0.33999655549999974,-0.07188274449999998,0.3089094750000001
32882.0,-2.372228635,-0.23839966149999997,10.633840927499998,-0.3074327664217932,0.4604248379931121,0.005342452840354643,10.89783813270739,0.5536555599947424,-0.3735352985000002,-0.21064684199999997,0.2837063844999985
32892.0,-2.649952963,-0.555644789,10.709254065999998,-0.3426063868372349,0.43670930411701314,-0.02476796741505153,11.046226255504312,0.555614618970653,-0.27772432800000013,-0.31724512750000006,0.07541313850000009
32902.0,-2.8007792400000002,-0.8034588345,10.5871612735,-0.3540627280473257,0.35730380446827914,-0.09804561606003347,10.9807966141373,0.5124835284264386,-0.15082627700000018,-0.24781404549999997,-0.12209279249999838
32912.0,-2.8067612965,-1.018910935,10.2435362575,-0.33434574348754575,0.2621763789175802,-0.2011666495848664,10.669869892726437,0.47009738433198583,-0.005982056499999722,-0.21545210050000008,-0.34362501599999895
32922.0,-2.6127857595,-1.0333267105,9.7694827965,-0.26826234201928445,0.21687810351131936,-0.2909638395999747,10.16549101749582,0.45128788138293485,0.19397553700000003,-0.014415775499999839,-0.47405346100000045
32932.0,-2.4847109104999996,-0.7004890094999999,9.277483166,-0.1584793867395891,0.2683059752505843,-0.3205419344335226,9.629961944712004,0.4470469148835591,0.12807484900000032,0.332837701,-0.4919996305000005
32942.0,-2.3434951505,-0.26840801049999996,8.9494507235,-0.031110493916798924,0.4137931310383276,-0.27364319210318294,9.255089444887728,0.4970645981265103,0.1412157599999997,0.43208099899999997,-0.32803244249999963
32952.0,-2.1495196135,-0.113953273,8.7831299395,0.08426798694479022,0.6173718256494501,-0.1806485588984211,9.043052109293072,0.6487549356741256,0.19397553700000003,0.15445473749999997,-0.16632078399999983
32962.0,-2.0669476205,-0.1330762405,8.978184208,0.17246645536507169,0.8427985518370379,-0.09111665892961597,9.213998774932456,0.8650759057674052,0.08257199299999973,-0.019122967500000004,0.19505426849999985
32972.0,-2.4499953695,-0.6275275335,9.439096758,0.18419157727996957,0.9986791433204074,-0.047949430540040215,9.772042556331717,1.0166541773549056,-0.3830477489999997,-0.494451293,0.46091254999999975
32982.0,-2.6463245024999997,-1.1494374465,9.6737698925,0.11491073262205466,0.9573776719012136,-0.0844547371747536,10.094853329741238,0.9679406416500868,-0.19632913299999988,-0.5219099129999999,0.2346731344999995
32992.0,-2.5852290730000003,-1.4726646305,9.8808863405,0.0413660486015176,0.7948351586629816,-0.18810984145069687,10.31911165496767,0.8178382430984238,0.061095429499999465,-0.32322718400000006,0.20711644800000073
33002.0,-2.364971714,-1.5636703425,9.7910574265,-0.03377561168459427,0.5819311698584533,-0.29549471433815194,10.193280221648719,0.6535302629559572,0.2202573590000001,-0.09100571200000007,-0.08982891399999993
33012.0,-2.1148040725,-1.239168294,9.3995759585,-0.09106429905205614,0.37835422057658274,-0.36290805669643295,9.713905626756349,0.5321154765698298,0.25016764150000004,0.3245020485000001,-0.3914814680000003
33022.0,-1.7113584915,-0.8692614559999999,8.767537365999999,-0.1350308882390453,0.2286032254262173,-0.35864596266306276,8.975192189002005,0.4462283070227734,0.40344558100000016,0.369906838,-0.6320385925000007
33032.0,-1.2505440079999999,-0.5820246775,8.0348825445,-0.18352660683495972,0.15719133375161728,-0.281638545406569,8.152419919574461,0.3710948680347039,0.4608144835000001,0.28723677849999996,-0.7326548214999988
33042.0,-0.8411163705,-0.25399223499999996,7.612313996,-0.20617748986734216,0.17237918890247195,-0.1737213470972556,7.662852809356374,0.32000445080023066,0.4094276374999999,0.3280324425,-0.42256854850000014
33052.0,-0.6052664379999999,-0.030106415499999997,7.554847026999999,-0.18139555981827465,0.20968385633459874,-0.05168094448080409,7.579113896663263,0.28203295685355967,0.23584993250000008,0.22388581949999997,-0.05746696900000092
33062.0,-0.6256642699999999,0.30263321899999995,7.818253645999999,-0.12836896648418294,0.14813132960451472,0.06263114020781652,7.849084833099283,0.20577692312392523,-0.020397832000000005,0.33273963449999994,0.2634066189999995
33072.0,-0.9225115654999999,0.1566122005,8.258768364,-0.04070282348575976,-0.015477579806685715,0.10393261162701034,8.311606936088468,0.11268657007823163,-0.2968472955,-0.14602101849999996,0.4405147180000011
33082.0,-0.8914244849999999,-0.29468983249999997,8.407241045,-0.013257520998148928,-0.33310132373087376,0.044512877242863375,8.459502449823457,0.33632372793889365,0.031087080499999975,-0.45130203299999994,0.14847268099999944
33092.0,-0.429335137,-0.717258381,8.4024357865,-0.044167302050968506,-0.6427297143516758,-0.08658752952069068,8.4439158801609,0.6500381808398218,0.46208934799999996,-0.4225685485,-0.004805258499999354
33102.0,0.241047457,-0.9483030549999999,8.360561391,-0.090799009005753,-0.8292530515123099,-0.218220261706103,8.417622546380203,0.8622790534960156,0.670382594,-0.23104467399999995,-0.041874395500000716
33112.0,0.851609486,-0.7531507199999999,8.5401211525,-0.108651981924403,-0.9470296147661392,-0.3346633934114087,8.615459594418606,1.0102821048152058,0.610562029,0.19515233499999995,0.1795597615000002
33122.0,1.6452616704999998,-0.543680676,8.851286157,-0.08706749506498912,-1.0855913040819691,-0.41433592843569783,9.019298269542487,1.1652310885776924,0.7936521844999999,0.2094700439999999,0.3111650045000012
33132.0,2.401844718,-0.25399223499999996,9.3648604175,-0.02684665455417678,-1.2369410208271612,-0.4780212475117189,9.671296745735964,1.3263665198346763,0.7565830475000002,0.2896884410000001,0.5135742604999987
33142.0,2.6292609315,0.072765343,9.759970346,0.027244589623631483,-1.405079059647287,-0.5465009860429685,10.108181290215045,1.5078636408074177,0.22741621350000019,0.32675757799999994,0.39510992850000015
33152.0,2.9285598895,0.0883579165,9.5516771,-0.02524793295934997,-1.5404415604442112,-0.6341671290413916,9.990936170873121,1.6660629060209933,0.2992989579999996,0.015592573499999998,-0.2082932460000002
33162.0,3.488813804,0.014121576,8.609552234499999,-0.21683447028001954,-1.4810200807308123,-0.7695313751675678,9.289586150979687,1.68303779054328,0.5602539145000001,-0.0742363405,-0.9421248655000003
33172.0,4.033475145,0.2283968785,7.506990574999999,-0.46197992635663904,-1.091452119710166,-0.9110217269682441,8.525021664053419,1.4948758373137556,0.5446613409999999,0.21427530250000001,-1.1025616595
33182.0,4.5123338644999995,0.7431479369999999,6.894074949999999,-0.6474386126735565,-0.41596955661556456,-1.0271995686272466,8.272949605624245,1.2834899232170116,0.4788587194999998,0.5147510584999999,-0.6129156249999994
33192.0,4.9672643579999995,1.260350658,6.940754603999999,-0.6818128722915848,0.3322565843729085,-1.130587637527635,8.627645881486176,1.3614299970295833,0.45493049350000003,0.517202721,0.04667965400000007
33202.0,5.1611418285,1.599072349,7.6649757065,-0.5307284455926957,0.9192736436716733,-1.2451667575918104,9.37796726015099,1.6362081069113232,0.19387747050000037,0.33872169100000016,0.7242211025000005
33212.0,5.291668339999999,1.6015240115,8.720857711999999,-0.22296406661302362,1.215845226158306,-1.3397601123913994,10.325695725369757,1.8228959783069285,0.1305265114999994,0.0024516624999999515,1.055882005499999
33222.0,5.541835981499999,1.5236592105,9.653372060499999,0.11837521118726341,1.255815011358228,-1.3720015796634903,11.234815333330207,1.86372540036761,0.25016764150000004,-0.07786480100000004,0.9325143484999998
33232.0,5.8650631655,1.7463682319999998,10.2770750005,0.3803072440095644,1.1889339944218054,-1.3421581947836396,11.96106343528642,1.8329174184241956,0.3232271840000003,0.22270902149999983,0.6237029400000011
33242.0,6.0147126445,2.185706152,10.467422077,0.48182955593957055,1.1119248318360593,-1.2254480277027786,12.26870019671464,1.723444058050972,0.1496494790000007,0.43933792000000005,0.19034707650000016
33252.0,6.066197557,2.7124213234999996,10.3704343085,0.4021570209152814,1.089275694132929,-0.9957574621525689,12.316732114633497,1.529635489498316,0.051484912499999425,0.5267151714999998,-0.09698776850000002
33262.0,5.970386586499999,2.6884930975,10.176556838,0.1937839068489304,1.1601552603856706,-0.6839962791858297,12.101066903567174,1.3606481325802926,-0.09581097050000054,-0.023928225999999775,-0.19387747050000037
33272.0,5.608913467499999,2.312604203,10.2280417505,-0.011925834778877254,1.2824609530484254,-0.3562478802708226,11.89205140148693,1.3310750819643884,-0.36147311900000023,-0.37588889450000007,0.051484912499999425
33282.0,4.9636358975,1.9390689044999998,10.481739786,-0.12543855867008447,1.3160358518690403,-0.08472177255030874,11.758594239141209,1.3247124118652942,-0.6452775699999993,-0.3735352985,0.25369803550000114
33292.0,4.0933937765,1.6050544055,10.700820347,-0.1584793867395891,1.1561584563986036,0.12285198071862886,11.568907828869287,1.1734183829691132,-0.8702421209999995,-0.3340144989999998,0.21908056100000017
33302.0,3.3475980439999997,1.180132261,10.688856234,-0.14036112377463597,0.8350719792384589,0.2726047211982463,11.262804819793613,0.8895840542613662,-0.7457957325000004,-0.4249221445,-0.01196411300000122
33312.0,2.7873441294999997,0.8185610755,10.480562987999999,-0.08360476182903237,0.48946886207554974,0.36799743679524843,10.875731243278187,0.6180547197699372,-0.5602539145000001,-0.3615711855,-0.2082932460000002
33322.0,2.334767232,0.5624113774999999,10.084374327999999,-0.01912008195559788,0.21527938191649257,0.43248211666868286,10.366390411921975,0.48347861488442284,-0.45257689749999974,-0.2561496980000001,-0.39618865999999997
33332.0,2.0055579915,0.3745159635,9.682105544999999,0.016053538459843843,0.06099751202794982,0.49350231797690863,9.894730559682035,0.49751678405784805,-0.3292092405,-0.18789541399999993,-0.40226878300000024
33342.0,1.6429080745,0.17936362849999998,9.369665675999999,0.01765226005467065,0.05646838261902454,0.5406646050242994,9.514302556283276,0.5438919889525198,-0.36264991699999993,-0.195152335,-0.3124398690000003
33352.0,1.3555732294999998,-0.1570044665,9.2379623665,-0.014856242592975733,0.14653260800968793,0.5518574015173391,9.33821063522923,0.5711734454292949,-0.28733484500000017,-0.336368095,-0.13170330949999887
33362.0,1.0203819324999999,-0.36294411649999997,9.332596538999999,-0.05882283177996488,0.2848255166207106,0.5329380324257205,9.39522569604526,0.6071314905872262,-0.33519129699999994,-0.20593964999999997,0.09463417249999928
33372.0,0.6049722385,-0.4359055925,9.498917323,-0.09506110303912316,0.3911439933351972,0.4985637728076922,9.528139136479798,0.6407777090297849,-0.41540969399999983,-0.07296147600000003,0.1663207840000016
33382.0,0.1428828905,-0.3533335995,9.646213205999999,-0.11371343675518655,0.428448660767324,0.4593950937344355,9.653739657176489,0.6383908307293112,-0.462089348,0.08257199300000001,0.14729588299999818
33392.0,-0.155141203,-0.415605827,9.6857340055,-0.12996768807900974,0.39087870328889407,0.4122310613577927,9.69588779955728,0.5827625662116453,-0.29802409350000003,-0.0622722275,0.03952079950000176
33402.0,-0.34548827949999994,-0.45993188499999993,9.701228512499998,-0.1390276922261123,0.3184004154413255,0.37359296237714223,9.718268062872852,0.5101756808165754,-0.19034707649999993,-0.044326057999999946,0.015494506999997881
33412.0,-0.5047482755,-0.425216344,9.752713425,-0.1249062332482262,0.228069154675107,0.3370876557424288,9.77501912586365,0.425729014835029,-0.15925999600000007,0.034715540999999905,0.0514849125000012
33422.0,-0.580161414,-0.4096237705,9.915601881499999,-0.08520348342385918,0.1324094037025498,0.3099093886303731,9.941002945983842,0.34761431635891565,-0.07541313849999998,0.01559257350000004,0.16288845649999928
33432.0,-0.6758743179999999,-0.40481851199999996,10.199308266000001,-0.03457497248200767,0.03515093113516579,0.2941874627284082,10.229690768849556,0.2982905964129263,-0.09571290399999988,0.00480525850000002,0.2837063845000021
33442.0,-0.8650445964999999,-0.40481851199999996,10.4482991095,0.011257373675363426,-0.09648180105024654,0.2731370466201046,10.491860390949274,0.28989534772451814,-0.1891702785,0.0,0.24899084349999967
33452.0,-1.0027299625,-0.5041598764999999,10.607461039,0.03683691919259231,-0.2536940787528878,0.24036150859690306,10.666671188926314,0.35141328805959676,-0.13768536600000003,-0.09934136449999997,0.15916192949999974
33462.0,-1.0601969315,-0.567608902,10.600302184499999,0.030174997437729965,-0.4026474584350918,0.19879474713140613,10.66829901164694,0.45006094891875004,-0.057466969000000034,-0.06344902550000009,-0.0071588545000018655
33472.0,-1.0841251575,-0.5975191845,10.477032593999999,-0.002598795256219557,-0.5172265784992676,0.14736687539214122,10.549908459731217,0.5378169606898667,-0.023928225999999997,-0.02991028249999994,-0.12326959049999964
33482.0,-1.0050835585,-0.669401929,10.249518314,-0.04603305902135044,-0.5923682387853794,0.1028679607832938,10.320412664769629,0.6029933583384386,0.07904159899999996,-0.07188274449999998,-0.2275142799999994
33492.0,-0.9236883634999999,-0.646650501,9.982581301,-0.08253836565606383,-0.6139527256447934,0.0647639325537536,10.046058256569275,0.6228522281341475,0.08139519500000003,0.022751427999999962,-0.2669370129999997
33502.0,-0.8746551135,-0.6215454770000001,9.811357192,-0.10145773474768238,-0.5921012034098243,0.03651926926872935,9.869856650253892,0.6018398159372768,0.04903324999999992,0.02510502399999992,-0.17122410900000062
33512.0,-0.7824726034999999,-0.5508395304999999,9.725254805,-0.10758558575143447,-0.5294840258360237,0.025326472775689716,9.772219225220294,0.5408968682662713,0.0921825100000001,0.07070594650000017,-0.08610238699999861
33522.0,-0.732164489,-0.517398854,9.74192611,-0.11398047213074168,-0.4372870080994233,0.024794147353831446,9.783092085111582,0.4525773140831248,0.050308114499999945,0.03344067649999993,0.016671304999999137
33532.0,-0.7512874565,-0.555644789,9.782721773999999,-0.12357280169970251,-0.35468406526103563,0.031721359154996936,9.827248815478866,0.37693138380433233,-0.019122967499999977,-0.038245935000000064,0.04079566399999912
33542.0,-0.7357929495,-0.6179170165,9.825772967499999,-0.1334321666442185,-0.3005928210832274,0.03252071995241034,9.872640331373766,0.3304811407756375,0.01549450699999999,-0.062272227499999944,0.043051193500000196
33552.0,-0.7872778619999999,-0.6322347254999999,9.866470565,-0.13396623739532876,-0.27687728720712845,0.02079734336676443,9.91800224793959,0.30828641621737957,-0.05148491249999998,-0.014317708999999956,0.04069759750000124
33562.0,-0.8052240315,-0.6657734685,9.89883251,-0.12783664106232465,-0.26888367923299444,0.0024120450262561633,9.953819624309883,0.297735549972082,-0.017946169500000053,-0.03353874300000004,0.03236194499999989
33572.0,-0.768056828,-0.634686388,9.886868397,-0.12410687245081278,-0.25822495349106506,-0.019439477208712842,9.936946452595349,0.28715942552723756,0.03716720350000002,0.031087080499999975,-0.011964112999999443
33582.0,-0.683131239,-0.5880067339999999,9.920309073499999,-0.126504954843053,-0.23877325897758825,-0.03276157538918556,9.961172236373258,0.2721938530250134,0.08492558900000002,0.04667965400000007,0.033440676499997934
