timestamp,ax,ay,az,gx,gy,gz,acc_mag,gyro_mag,dax,day,daz
151402.0,0.44090698399999995,1.6604619779999998,10.220392563499999,0.07844207790163314,0.05320112625929115,-0.05422039854245584,10.363781023399218,0.10919418958390445,0.0,0.0,0.0
151412.0,0.236144132,2.0591023004999998,10.1282100535,0.06698399136229037,0.0039060468659633096,-0.059016563326936264,10.338099691085441,0.08935920236810964,-0.20476285199999994,0.3986403224999999,-0.09218250999999889
151422.0,0.474445727,1.8436502,10.212056911,0.07364591311715273,-0.055782468222990766,-0.08486314421972029,10.387985904944781,0.12544782790772116,0.23830159499999998,-0.21545210049999985,0.08384685749999932
151432.0,0.36902423949999996,1.926222193,10.1941107415,0.07391294849270785,-0.05151862886036862,-0.11577292527253986,10.381059899456796,0.14669922733504492,-0.10542148750000002,0.08257199300000018,-0.017946169500000053
151442.0,0.37863475649999995,2.0255635575,10.1150691425,0.055260614776644464,-0.04912054646812841,-0.14028781994605222,10.322833707943646,0.1585788007775195,0.009610516999999985,0.09934136449999986,-0.07904159899999996
151452.0,0.430119669,2.0471381875,10.033673947499999,0.028879963132750174,-0.01687907919603716,-0.15067951031242646,10.249409279227836,0.15434788762094456,0.051484912500000035,0.021574629999999928,-0.0813951950000007
151462.0,0.4684636705,2.0890125829999997,10.003763665,0.008363617775556827,0.0100338978697154,-0.1525452672828084,10.230284416754252,0.15310351981303025,0.0383440015,0.04187439549999983,-0.029910282499999497
151472.0,0.43374812949999997,2.07704847,10.014550980000001,0.002234021442552742,0.02122494903350304,-0.14908078871759967,10.236869595613351,0.15060070012434265,-0.034715541000000016,-0.011964112999999887,0.01078731500000174
151482.0,0.325973046,2.0506685814999996,10.032497149500001,0.012093386387068708,0.008435176274888595,-0.14535102010608775,10.245120746608865,0.14609695834950057,-0.10777508349999998,-0.02637988850000017,0.017946169500000053
151492.0,0.21584436649999997,2.0459613895,10.119874401,0.028347637710891903,-0.019542451634580505,-0.15147887110983985,10.326877780330785,0.15534266758488915,-0.11012867950000002,-0.004707191999999694,0.08737725149999953
151502.0,0.0912999115,1.9836891619999997,10.158120336,0.040338049672092945,-0.047254789497746474,-0.16666847158994652,10.350399370359238,0.17787229352530814,-0.12454445499999997,-0.06227222750000028,0.038245934999999065
151512.0,0.049425515999999996,1.9273989909999998,10.1509614815,0.047799332224368704,-0.0723020095931171,-0.1962448210942424,10.3324405999278,0.21453294982032475,-0.0418743955,-0.05629017099999989,-0.007158854500000089
151522.0,0.018338435499999996,1.9513272169999998,10.1713593135,0.045933575253986766,-0.08082968831836139,-0.23061908071227072,10.356860744952822,0.24865335758406712,-0.0310870805,0.023928225999999997,0.02039783200000045
151532.0,-0.0032361944999999997,2.0506685814999996,10.180871763999999,0.041404445845061484,-0.07043799795198716,-0.26072950096767694,10.38534553970731,0.2732319753727126,-0.021574629999999997,0.09934136449999986,0.009512450499999048
151542.0,-0.04393379199999999,2.1273565845,10.232356676499998,0.03074572010313211,-0.055248397471880505,-0.2839109640926656,10.451253483233918,0.2908661552327769,-0.040697597499999995,0.07668800300000056,0.051484912499999425
151552.0,-0.11699333449999999,2.19080561,10.258736565,0.012360421762623842,-0.04698949945144333,-0.3028303331842841,10.490709822085105,0.30670344598871346,-0.07305954249999999,0.06344902549999976,0.02637988850000106
151562.0,-0.18877801249999998,2.1943360039999997,10.3245391865,-0.00602662190713642,-0.045923103278474806,-0.32494714546555625,10.556839349446793,0.3282314715753966,-0.07178467799999999,0.00353039399999977,0.0658026214999996
151572.0,-0.261837555,2.099799898,10.304239421,-0.018549359290195733,-0.058180550615230975,-0.3497273301853718,10.519271294255113,0.35501867652076596,-0.07305954250000002,-0.09453610599999962,-0.020299765499999012
151582.0,-0.3037119505,1.9609377339999998,10.287470049499998,-0.02334552407467615,-0.07789753517501091,-0.3801047858163331,10.47709681948492,0.3887064286593982,-0.041874395499999995,-0.1388621640000003,-0.01676937150000235
151592.0,-0.32881697449999997,1.8591447069999998,10.3006109605,-0.023612559450231285,-0.10241242984852326,-0.42406962967407025,10.472207303327135,0.436899198400698,-0.025105023999999976,-0.10179302700000004,0.013140911000002475
151602.0,-0.3360738955,1.824429166,10.265895419499998,-0.01721767307092406,-0.12719435989759076,-0.4760298268351934,10.432166419737515,0.49303067804395223,-0.007256921000000027,-0.03471554099999974,-0.0347155410000024
151612.0,-0.2234935535,1.8053061984999998,10.210880113,-0.019083430041306,-0.14131581887547687,-0.5306551417641119,10.371651388320833,0.5494808617661562,0.112580342,-0.0191229675000002,-0.05501530649999786
151622.0,-0.103754357,1.9094528214999997,10.17734137,-0.028675759610266836,-0.13651965409099645,-0.5778191741407547,10.355435886800917,0.5944198122093971,0.11973919649999999,0.10414662299999988,-0.03353874299999937
151632.0,0.024320492,2.0112458484999998,10.105458625499999,-0.04519530098039316,-0.11466987718527945,-0.6129927945561964,10.303688435756001,0.6252615150016916,0.128074849,0.10179302700000004,-0.07188274450000165
151642.0,0.13199750899999999,2.0339972765,10.0576021735,-0.06997723102946066,-0.07843160592612118,-0.6367065831030434,10.262062645666491,0.64532441658243,0.10767701699999999,0.022751428000000296,-0.04785645199999955
151652.0,0.23496733399999997,1.9908480164999998,10.014550980000001,-0.0928934041081462,-0.04619013865402993,-0.6577587445405989,10.213222645368505,0.6658898403304429,0.10296982499999999,-0.0431492600000003,-0.04305119349999842
151662.0,0.28047019,1.986042758,9.970224922,-0.10515085144490237,-0.019010126212722238,-0.6758770075055521,10.169976123833958,0.6842717411473834,0.045502856000000036,-0.004805258499999798,-0.04432605800000111
151672.0,0.30322161799999997,1.9429915645,9.947473493999999,-0.10541614149120551,-0.0027558748888990466,-0.6926653295804855,10.139989570170831,0.7006464276196231,0.022751427999999962,-0.04305119349999997,-0.022751428000001184
151682.0,0.30086802199999996,1.902293967,9.991799552,-0.09475741574927614,-0.0011571532940722405,-0.7118499887184073,10.175721212321719,0.7181300114057508,-0.0023535960000000133,-0.040697597499999905,0.04432605800000111
151692.0,0.34509601349999997,1.9298506534999997,10.0097457215,-0.08036892139583489,-0.00622035345410779,-0.733432730248569,10.199922755219056,0.7378491892814507,0.04422799150000001,0.02755668649999965,0.017946169500000053
151702.0,0.37863475649999995,1.938186306,9.984542631,-0.06624746241794877,-0.01607971839862376,-0.7526191347157427,10.177967478129027,0.755700235252623,0.03353874299999998,0.008335652500000235,-0.025203090499999803
151712.0,0.45885315349999994,1.9705482509999999,9.9893478895,-0.061184262257913215,-0.013946926052686688,-0.7686063506640108,10.192187100100456,0.7711638950154582,0.080218397,0.03236194499999989,0.004805258499999354
151722.0,0.51386846,1.9740786449999999,9.9750301805,-0.06757914863722043,-0.000890117918517108,-0.784860601987834,10.181467202359082,0.7877651288253026,0.05501530650000003,0.0035303939999999923,-0.014317709000000178
151732.0,0.5845744065,2.0135994445,9.935509381,-0.08756316857255551,0.018027505843849427,-0.796851013949035,10.154341762003313,0.8018502590191144,0.07070594650000006,0.0395207995000002,-0.03952079949999998
151742.0,0.6407665109999999,2.066261155,9.8624498385,-0.10541614149120551,0.042010075095503516,-0.8045793318768659,10.096926943343194,0.8125424977069493,0.056192104499999895,0.05266171049999979,-0.07305954249999935
151752.0,0.685092569,2.042332929,9.831362758000001,-0.1147431810138632,0.060929444187122046,-0.8112395083024764,10.064599808256965,0.8215764934496211,0.04432605800000011,-0.023928225999999775,-0.031087080499998976
151762.0,0.7605057074999999,2.063907559,9.782231441499999,-0.1107463770267962,0.08144578954431539,-0.8109742182561732,10.02647172829548,0.8225432264235537,0.07541313849999987,0.021574629999999928,-0.04913131650000224
151772.0,0.8275831935,2.1105872129999996,9.764285272,-0.10195340825524876,0.10462899799855606,-0.8069774142691063,10.024008140401666,0.8200940627863954,0.06707748600000007,0.046679653999999626,-0.017946169499998277
151782.0,0.8777932415,2.0878357849999998,9.7941955545,-0.09715549814151635,0.12914214734281643,-0.7973850847001454,10.052653669541053,0.8135968647565561,0.05021004800000006,-0.02275142799999985,0.029910282499999497
151792.0,0.8622987344999999,2.039979333,9.796647216999999,-0.09662317271965808,0.15658919515967926,-0.7872586843800743,10.043872334958326,0.8084753859450604,-0.015494507000000102,-0.047856451999999994,0.002451662499998619
151802.0,0.8383705085,1.9465219585,9.822929039,-0.09422509032741787,0.18403449764729007,-0.7829948450174521,10.048967496697095,0.8098320759857591,-0.023928225999999997,-0.0934573744999998,0.026281822000001398
151812.0,0.7701162245,1.9429915645,9.797824015,-0.09529148650038641,0.2229378866742437,-0.7864593235826609,10.01826585032894,0.8229824034354123,-0.068254284,-0.0035303939999999923,-0.025105024000000142
151822.0,0.7209849079999999,1.904647563,9.782231441499999,-0.10408445527193383,0.2679691267049494,-0.792587174586413,9.991974457126917,0.8431105835032209,-0.04913131650000002,-0.03834400150000006,-0.015592573500001095
151832.0,0.624095206,1.8496322564999998,9.807434532,-0.10914765543196939,0.3154001944571473,-0.8019142141090706,9.99982031888091,0.8685947847760028,-0.09688970199999991,-0.05501530650000008,0.02520309050000158
151842.0,0.4864098399999999,1.8016777379999998,9.878042412,-0.1115457378242096,0.3567016658763411,-0.8131052652728582,10.052778675437175,0.8948847425675271,-0.1376853660000001,-0.0479545185000001,0.07060787999999896
151852.0,0.38108641899999995,1.7586265444999998,9.937862976999998,-0.1107463770267962,0.37748679193834156,-0.8296265519722367,10.099461110940203,0.918172779954734,-0.10532342099999997,-0.04305119349999997,0.05982056499999899
151862.0,0.28047019,1.6664440344999998,9.9858174955,-0.10515085144490237,0.3790855135331684,-0.8477465602664417,10.127795925127696,0.9345783854625986,-0.10061622899999995,-0.09218251,0.04795451850000099
151872.0,0.2146675685,1.604171807,10.034850745499998,-0.08996125096479572,0.36602870539899884,-0.8658648232313948,10.164530428691785,0.944347357681882,-0.06580262150000002,-0.06227222749999983,0.04903324999999903
151882.0,0.13797956549999998,1.604171807,10.055248577499999,-0.07317467421911425,0.35003974412147876,-0.8847841923230134,10.183340782974168,0.9543193503206309,-0.076688003,0.0,0.02039783200000045
151892.0,0.10934414749999999,1.6305516955,10.094671310499999,-0.05958554066308641,0.34071444992807304,-0.9007714082712814,10.226096217096835,0.9648968354207248,-0.028635417999999996,0.02637988849999995,0.03942273300000032
151902.0,0.0518771785,1.6305516955,10.1833234265,-0.04306425396370809,0.3303227595616988,-0.9146275772028645,10.313169545879227,0.9734019007757733,-0.057466968999999986,0.0,0.08865211600000045
151912.0,-0.04873905049999999,1.6365337519999998,10.293452105999998,-0.021481512433546207,0.30980466887525343,-0.9210224635821717,10.422848673706946,0.971968500856026,-0.100616229,0.005982056499999944,0.11012867949999894
151922.0,-0.1791674955,1.593384492,10.4263322135,0.00010297442586766544,0.285022738826186,-0.9308818285266877,10.548904140101836,0.9735393936214919,-0.130428445,-0.043149259999999856,0.1328801075000019
151932.0,-0.29410143349999995,1.5825971769999998,10.597458256,0.01022762941668677,0.2578444717141303,-0.951399919213133,10.71901259284164,0.9857739001798436,-0.11493393799999996,-0.010787315000000186,0.1711260424999992
151942.0,-0.38991240399999993,1.570633064,10.735143622,0.0014346606451393388,0.235462369386555,-0.9887045866452598,10.85643719133908,1.016356898585173,-0.09581097049999998,-0.011964112999999887,0.13768536600000125
151952.0,-0.42462794499999995,1.5790667829999998,10.814185221,-0.018017033868337463,0.19762363120331794,-1.0419964700256545,10.937109434898407,1.0607244489806589,-0.034715541000000016,0.008433718999999895,0.07904159899999996
151962.0,-0.3156760635,1.7143004864999998,10.797415849499998,-0.03560297141143232,0.15472343818929732,-1.0899598631997107,10.937214753405675,1.1014623993967168,0.10895188149999996,0.13523370349999997,-0.01676937150000235
151972.0,-0.286942579,1.6903722604999998,10.835759850999999,-0.05931850528753128,0.11741877075717051,-1.1443181427530742,10.970569081467678,1.1518549668380638,0.028733484500000017,-0.023928225999999997,0.0383440015000005
151982.0,-0.185149552,1.775395916,10.7603467125,-0.094492125702973,0.09903347241666224,-1.1922815359271304,10.907399891283204,1.2001131827421634,0.10179302699999998,0.08502365550000013,-0.07541313849999831
151992.0,-0.03912853349999999,1.8184471095,10.687287170000001,-0.13366080477622974,0.10223091560631586,-1.2327836465489108,10.840958813049212,1.2442153712430837,0.1460210185,0.043051193500000196,-0.07305954249999935
152002.0,0.13327237349999999,1.8986655065,10.5867690075,-0.16164017801495084,0.12141557474423753,-1.2538340626572144,10.756503625680313,1.270027222392762,0.172400907,0.08021839699999989,-0.100518162500002
152012.0,0.236144132,1.939363104,10.451437237499999,-0.18002547635545912,0.14379767707181282,-1.2596966236146632,10.632470720845468,1.2805945992446015,0.10287175850000002,0.040697597499999905,-0.13533177000000052
152022.0,0.30685007849999996,1.938186306,10.3688652445,-0.1829576294988096,0.16298408153898647,-1.255167494205738,10.55291853403794,1.2788599389837976,0.07070594649999995,-0.0011767979999999234,-0.0825719929999984
152032.0,0.32714984399999997,1.905824361,10.2982573645,-0.17816146471432917,0.18776426625880197,-1.2485055724508756,10.478229729343061,1.2750541524318684,0.02029976550000001,-0.03236194499999989,-0.07060788000000073
152042.0,0.33793715899999993,1.8160935134999998,10.273054274,-0.16936849594278175,0.22107212970386173,-1.2479715016997655,10.437817841376589,1.278667839200036,0.010787314999999964,-0.08973084750000027,-0.025203090499999803
152052.0,0.32479624799999995,1.7358751165,10.316203534,-0.15657697785491528,0.24345597736068902,-1.257298541222423,10.466270127304801,1.2901886624315297,-0.013140910999999977,-0.08021839699999989,0.043149259999999856
152062.0,0.33911395699999997,1.6652672364999999,10.392793470500001,-0.1432548796744426,0.24345597736068902,-1.2754185495166281,10.530824723888438,1.3063250935024893,0.014317709000000012,-0.07060788000000007,0.07658993650000134
152072.0,0.3678474415,1.6185875825,10.4059343815,-0.12913167536730447,0.2277340514587241,-1.2959348948738216,10.537485841249092,1.3221138527103462,0.028733484500000017,-0.04667965399999985,0.013140910999998923
152082.0,0.5007275489999999,1.6340820895,10.425155415499999,-0.112345098621623,0.20108810976852667,-1.3159206601384086,10.564318141313295,1.3359285283478628,0.13288010749999996,0.01549450699999988,0.019221033999999193
152092.0,0.6719516579999999,1.7214593409999999,10.4406499225,-0.09555677654668954,0.16698088552605347,-1.3236472327369875,10.602929411139375,1.3375558718824958,0.17122410899999996,0.08737725149999997,0.015494507000001434
152102.0,0.8897573545,1.8651267635,10.482622384499999,-0.08090124681769316,0.14246599085254114,-1.3132555423706134,10.684368865301836,1.3234355631663324,0.21780569650000015,0.14366742250000009,0.0419724619999986
152112.0,1.0765740369999999,2.051943446,10.444278383,-0.07877019980100809,0.13127493968875348,-1.280747039722967,10.698244458990734,1.2898646572125774,0.18681668249999983,0.18681668250000016,-0.038344001499998726
152122.0,1.2262235160000001,2.1404974955,10.4263322135,-0.08703084315069724,0.13340598670543857,-1.2391785329282181,10.714184853067497,1.2493738277307174,0.14964947900000025,0.0885540494999999,-0.017946169500000053
152132.0,1.2669211135,2.1476563499999997,10.396421931,-0.09955532586300855,0.15499047356485246,-1.1909498497078588,10.691263062562122,1.2051119675460529,0.040697597499999905,0.007158854499999645,-0.029910282499999497
152142.0,1.2202414595,2.0327224119999996,10.365236783999999,-0.11660893798424514,0.18030298370652623,-1.1533781469001767,10.632924490097558,1.1731956188539807,-0.04667965400000007,-0.11493393800000007,-0.03118514700000219
152152.0,1.1543407714999998,1.8855245955,10.287470049499998,-0.14005743648478894,0.195757874232936,-1.1429864565338024,10.522345063546535,1.1680561932794955,-0.06590068800000015,-0.14719781649999963,-0.07776673450000082
152162.0,1.0849096894999999,1.7442107689999997,10.239613597499998,-0.1549782562600885,0.19682427040590453,-1.153910472322035,10.443609858050683,1.1807910193885691,-0.06943108199999992,-0.14131382650000024,-0.04785645199999955
152172.0,1.0705919805,1.6940007209999999,10.1593952005,-0.15444593083823022,0.17710554051687258,-1.1810904847633426,10.355149273255401,1.2042402796920424,-0.014317708999999956,-0.05021004799999984,-0.08021839699999767
152182.0,1.1519871755,1.7335215205,10.072017949000001,-0.1472516836615096,0.16564919930678182,-1.2096021834239221,10.284829453108655,1.2297398740042738,0.08139519500000003,0.0395207995000002,-0.08737725149999953
152192.0,1.2609390569999999,1.8280576265,10.070743084499998,-0.13925807568737555,0.16964600329384885,-1.2263887601696037,10.31269258076073,1.2458739780363282,0.1089518814999999,0.09453610599999984,-0.0012748645000026926
152202.0,1.3770497929999999,1.9669197904999998,10.062407432,-0.1371252833414385,0.18883066243177052,-1.2218596307606784,10.344906134046395,1.2439458668641945,0.11611073599999999,0.13886216399999984,-0.008335652499997792
152212.0,1.3961727604999998,2.0339972765,10.10673349,-0.15258017386784828,0.23732638102768494,-1.1906828143323036,10.403485239853959,1.2236543976693484,0.019122967499999977,0.0670774860000003,0.044326057999999335
152222.0,1.3267416785,2.0687128175,10.123404794999999,-0.18189123332584103,0.27996128399540243,-1.145651574301598,10.41744406494159,1.1933064447143826,-0.06943108199999992,0.03471554099999974,0.016671304999999137
152232.0,1.252505338,1.9980068709999999,10.184500224499999,-0.2010758924637627,0.29728018616294216,-1.1078128361183608,10.45393925279472,1.164498305487723,-0.07423634049999994,-0.07070594649999995,0.06109542949999991
152242.0,1.161499626,1.91425808,10.246772452,-0.21066996736197555,0.28475744877988285,-1.076370729643683,10.48855619525917,1.1331560295994538,-0.09100571200000007,-0.08374879099999988,0.062272227500001165
152252.0,1.157969232,1.824429166,10.3125750735,-0.21919590075796783,0.2455870243773741,-1.0595841528980015,10.536538291610944,1.1095397273303038,-0.0035303939999999923,-0.08982891399999993,0.0658026214999996
152262.0,1.1483587149999999,1.7897136249999999,10.253931306499998,-0.22878823032692866,0.19069641940215243,-1.0483913564049618,10.472101500474862,1.0898777981469139,-0.00961051700000004,-0.03471554100000018,-0.05864376700000129
152272.0,1.2118077404999998,1.8160935134999998,10.158120336,-0.23651654825475957,0.1408672692577143,-1.0342698974270759,10.39009539948355,1.0702793494552183,0.06344902549999998,0.02637988849999995,-0.09581097049999876
152282.0,1.2106309425,1.8149167155,10.104281827500001,-0.23012166187545235,0.08757538587731947,-1.021213089292906,10.337120547458394,1.050476844684852,-0.0011767979999999234,-0.0011767979999997014,-0.05383850849999838
152292.0,1.3159543635,1.7742191179999998,10.0252402285,-0.20454037102897146,0.021759019784613306,-1.011086688972835,10.26572116339744,1.0317977083424381,0.10532342100000003,-0.04069759750000035,-0.07904159900000174
152302.0,1.4787447535,1.8076597945,9.891183323,-0.18562100193735295,-0.023806290997202658,-1.0012273240283192,10.16316031103755,1.018566664598925,0.16279039000000006,0.033440676500000155,-0.1340569054999996
152312.0,1.6607561775,1.9190633385,9.778701047499998,-0.1824235587476993,-0.03499734216099029,-0.9809762687174289,10.102668427433256,0.9984075362953136,0.18201142399999992,0.11140354400000008,-0.11248227550000145
152322.0,1.877385076,2.029192018,9.682890077,-0.18055954710656938,-0.022474604777930982,-0.9426069504415855,10.069784268432343,0.9600076671214867,0.2166288985,0.11012867949999983,-0.09581097049999876
152332.0,2.005459925,2.1404974955,9.573938195499998,-0.17869379013618744,0.019093902016817967,-0.8839848315256,10.013185887132853,0.9020671982146381,0.12807484899999988,0.1113054775000002,-0.10895188150000124
152342.0,2.0426271285,2.1536384065,9.5943360275,-0.16936849594278175,0.05613153407338963,-0.8218982340444057,10.042995956417613,0.8410428905000416,0.037167203500000134,0.01314091099999981,0.020397832000002225
152352.0,2.062926894,2.1189228655,9.669749165999999,-0.13979040110923383,0.06385985200122052,-0.7688733860395659,10.111851977421589,0.7840827256736661,0.0202997654999999,-0.03471554099999974,0.07541313849999831
152362.0,2.015070442,2.1034283584999995,9.7906651605,-0.10168637287969363,0.05160240466446434,-0.727304879244817,10.214795349422943,0.7361897268842462,-0.047856451999999994,-0.015494507000000546,0.12091599450000068
152372.0,2.0426271285,2.0687128175,9.925898863999999,-0.07557275661135447,0.01456477260789268,-0.6958627727701392,10.342889662262158,0.7001059724572452,0.027556686500000094,-0.03471554099999974,0.13523370349999908
152382.0,2.0952888389999997,2.122551326,9.979835439,-0.06731211326166531,-0.01980948701013564,-0.6668170033584496,10.41597690280958,0.6704985103154955,0.05266171049999979,0.05383850850000016,0.053936575000001596
152392.0,2.2042407204999996,2.1943360039999997,9.943845033499999,-0.07610508203321274,-0.029668851954651607,-0.6332438498670867,10.418917491880988,0.6384904053171657,0.1089518814999999,0.07178467799999977,-0.03599040550000154
152402.0,2.323979917,2.2542546354999997,9.8948117835,-0.09902125511189828,-0.008883725892651137,-0.5860798174904439,10.411044464758712,0.5944524219980127,0.11973919650000031,0.059918631499999986,-0.04903324999999903
152412.0,2.3334923675,2.2518029729999998,9.795470418999999,-0.11820765957907195,0.032417745526542675,-0.5234608945873913,10.318286872727295,0.5376200044366071,0.009512450499999936,-0.0024516624999999515,-0.09934136450000075
152422.0,2.2497435765,2.2685723445,9.7571264175,-0.1107463770267962,0.066790259815319,-0.44805219892572434,10.266902286927134,0.46634372708650856,-0.0837487910000001,0.01676937150000013,-0.038344001499998726
152432.0,2.1958070015,2.2003180605,9.8265574995,-0.07450636043838595,0.06785665598828754,-0.3729087933103604,10.306512516180174,0.38628576421591904,-0.05393657499999982,-0.068254284,0.06943108199999948
152442.0,2.0642017585,2.056650638,10.0420096,-0.03826808917922767,0.03428175716767262,-0.31055690578286305,10.45622769229288,0.3147781397323497,-0.1316052430000001,-0.14366742250000009,0.2154521005000003
152452.0,1.9145522794999998,1.948973621,10.182146628499998,-0.02041511626057767,-0.03446501673913202,-0.26419223420363364,10.542301388718043,0.26721180917816706,-0.14964947900000003,-0.10767701699999987,0.1401370284999981
152462.0,1.8486515915,1.891506652,10.3341497035,-0.026810002639884898,-0.12319755591052374,-0.23408181394822747,10.667237703157499,0.2658772454445281,-0.06590068799999993,-0.057466969000000034,0.15200307500000143
152472.0,1.8019719374999998,1.836393279,10.3569011315,-0.056653387519735934,-0.20500113795149796,-0.2101009900258254,10.671684224449292,0.2989606978997448,-0.04667965400000007,-0.055113372999999966,0.022751428000001184
152482.0,1.8331570845,1.8016777379999998,10.225197822,-0.10408445527193383,-0.26762006085455053,-0.1861201661034233,10.543300150668712,0.3421911556884754,0.03118514700000019,-0.03471554100000018,-0.13170330950000064
152492.0,1.9085702229999997,1.7969705459999998,10.030045486999999,-0.15124848764857662,-0.292400245574366,-0.15707439669173368,10.36694535099915,0.3647552257665451,0.07541313849999964,-0.004707191999999916,-0.1951523350000013
