timestamp,ax,ay,az,gx,gy,gz,acc_mag,gyro_mag,dax,day,daz
47792.0,0.3027312855,0.7002928764999999,9.8722564885,0.0012775810124598492,0.06451435047071839,0.06416702994957152,9.901692002825955,0.09100077671345058,0.0,0.0,0.0
47802.0,0.42727574049999995,0.3099882065,10.033870080499998,-0.024301964504769045,-0.012227776739472273,0.05803917894581944,10.047746316410558,0.06409875424285782,0.12454445499999994,-0.39030466999999996,0.16161359199999836
47812.0,0.4164884255,0.12689805099999998,10.0458341935,-0.04828453375642313,-0.05645965597276457,0.06017022596250451,10.05526480840842,0.09560096780376727,-0.010787314999999964,-0.1830901555,0.01196411300000122
47822.0,0.31351860049999997,0.24418558499999998,9.905697165,-0.06480407512654945,-0.10096031591086399,0.05883853974323284,9.913665156614394,0.13362083408265685,-0.10296982500000001,0.117287534,-0.14013702849999987
47832.0,0.2680157445,0.28370638449999996,9.728589066,-0.07599512629033708,-0.11428241409133671,0.056173421975437496,9.73641448208737,0.14829424374148378,-0.04550285599999998,0.03952079949999998,-0.1771080989999998
47842.0,0.24408751849999996,0.22623941549999999,9.730942662,-0.06080727113948244,-0.09456368420230477,0.04631405703092153,9.73663227614892,0.12159278955598975,-0.023928226000000025,-0.05746696899999998,0.002353596000000735
47852.0,0.19024901,0.1352337035,9.8410713415,-0.024834289926627316,-0.07271390729658776,0.025530676298173054,9.843839087919962,0.08096832530526142,-0.053838508499999965,-0.09100571199999999,0.11012867949999894
47862.0,0.110030613,0.1675956485,9.9775799095,0.0002129301687433082,-0.06791774251210735,-0.007244861725028463,9.979593974087889,0.06830339016924751,-0.080218397,0.032361945,0.136508568
47872.0,-0.050406180999999994,0.2393803265,10.161944929499999,0.00394269878025519,-0.09003455479337948,-0.045081854579013536,10.16488900450905,0.10076775050975981,-0.160436794,0.07178467799999999,0.18436501999999955
47882.0,-0.065900688,0.2848831825,10.2541274395,-0.01497667031136334,-0.136666261748164,-0.08318588280855374,10.258295710002564,0.160691813271465,-0.015494507000000005,0.04550285600000001,0.09218251000000066
47892.0,-0.0479545185,0.27174227149999997,10.310319544,-0.04695110220789946,-0.17210517220990887,-0.10850013827947949,10.314011469712108,0.20879865015513194,0.017946169499999998,-0.013140911000000033,0.056192104500000895
47902.0,-0.08267005949999999,0.26929060899999996,10.274427205,-0.08345640884261285,-0.202215592465315,-0.1258207857762712,10.278288094895835,0.2523628105453774,-0.03471554099999999,-0.002451662500000007,-0.035892339000000106
47912.0,-0.10787314999999999,0.30165255399999996,10.191855211999998,-0.10237577793423139,-0.21607176139689802,-0.1490022489012599,10.196888914869927,0.28172588833550616,-0.025203090499999997,0.032361945,-0.08257199300000195
47922.0,-0.13297817399999998,0.3651015795,10.1272293885,-0.09837897394716438,-0.2166040868187563,-0.1700526650095635,10.134680924696735,0.29242719062757994,-0.02510502399999999,0.06344902550000003,-0.06462582349999835
47932.0,-0.19162194099999996,0.475230259,10.110460017,-0.07679448708775051,-0.21180792203427584,-0.1839088339411465,10.123436398906128,0.2908306178605354,-0.058643766999999986,0.11012867949999999,-0.016769371500000574
47942.0,-0.18328628849999998,0.544661341,10.139193501500001,-0.05627814173055715,-0.21420600442651605,-0.19270354804194592,10.155466247336548,0.29357469066145986,0.008335652499999985,0.06943108199999998,0.028733484500001794
47952.0,-0.19044514299999998,0.6798950444999999,10.1870499535,-0.04162261200156077,-0.206212396452382,-0.19430226963677272,10.211489283113032,0.28637277500919667,-0.007158854500000006,0.13523370349999997,0.04785645199999955
47962.0,-0.261053023,0.870242121,10.189403549499998,-0.045085345237517525,-0.20274791788717328,-0.19083779107156398,10.229829652762707,0.282061108740365,-0.07060788000000001,0.19034707650000005,0.0023535959999971823
47972.0,-0.35568719549999994,0.9768404065,10.191855211999998,-0.06533814587765972,-0.18862645890928714,-0.18204482230001656,10.244737342810955,0.27016537830305337,-0.09463417249999995,0.10659828550000006,0.0024516625000003955
47982.0,-0.43463072799999997,0.9097629205,10.21460664,-0.10157641713681798,-0.17503558002400732,-0.1692533042121501,10.264246745434882,0.26382172726942743,-0.07894353250000002,-0.06707748600000007,0.022751428000001184
47992.0,-0.4992565514999999,0.74334407,10.1882267515,-0.1508714965301458,-0.1710387760369403,-0.17058673576067376,10.227501251557005,0.28480924456720563,-0.06462582349999996,-0.16641885049999994,-0.026379888499999282
48002.0,-0.5806517465,0.6524364245000001,10.082903330499999,-0.19616977193640664,-0.18089814098145626,-0.19083779107156398,10.120660517522353,0.32806368182595663,-0.08139519500000003,-0.09090764549999997,-0.10532342100000136
48012.0,-0.6034031745,0.717062248,9.891379456,-0.21402274485505668,-0.18676070193890523,-0.2172166973862063,9.935676182378446,0.35758689675011307,-0.022751428000000073,0.0646258234999999,-0.19152387449999964
48022.0,-0.6106600955,0.8115983539999999,9.77526872,-0.19670384268751692,-0.16677493667431817,-0.23533670568041143,9.827892764405908,0.34912697728944814,-0.007256920999999972,0.09453610599999995,-0.11611073599999955
48032.0,-0.593890724,0.9181966395,9.728589066,-0.15513533589276798,-0.1422617873300578,-0.2462624667978959,9.789853751509114,0.32396078640830794,0.01676937150000002,0.10659828550000006,-0.04667965400000007
48042.0,-0.6238010064999999,1.0821638275,9.702209177499999,-0.11223514287874736,-0.12147666126805733,-0.24892583923643924,9.782283433290258,0.2988601344599389,-0.02991028249999994,0.1639671880000001,-0.02637988850000106
48052.0,-0.6681270644999999,1.1348255379999999,9.728589066,-0.07892727943368756,-0.13106899083701815,-0.24279798823268717,9.817314703680896,0.2869833773717179,-0.044326058,0.05266171049999979,0.02637988850000106
48062.0,-0.592713926,1.0007686325,9.750065629499998,-0.06160663193689584,-0.17610197619697585,-0.2252103053603403,9.819196883321336,0.2924499354754351,0.07541313849999998,-0.13405690549999982,0.02147656349999849
48072.0,-0.469346269,0.8870114925,9.812337857,-0.04375365901824584,-0.22779513798254392,-0.20922308941207227,9.863521152609074,0.31237686967684264,0.12336765699999996,-0.11375714000000003,0.062272227500001165
48082.0,-0.29822022649999996,0.790023724,9.903343568999999,-0.0208374859395603,-0.27256108796694645,-0.19030372032045373,9.939279985674524,0.3330754471014223,0.17112604250000002,-0.09698776850000002,0.0910057119999994
48092.0,-0.340094622,0.9325143484999999,9.920112940500001,-0.007248352383532451,-0.3106651161964867,-0.16259312778653973,9.969648344567991,0.3507162360613812,-0.04187439550000005,0.14249062449999994,0.01676937150000235
48102.0,-0.4598338185,1.0833406255,9.954828481499998,0.007674212721019067,-0.3551640308053341,-0.141275676302681,10.024155034095322,0.38230772818968706,-0.11973919649999998,0.15082627700000006,0.034715540999997074
48112.0,-0.4370823905,0.9529121805,10.0589751045,0.03991567999311032,-0.3738163645213975,-0.13994399008340933,10.113459486880899,0.40114368529714145,0.022751428000000018,-0.13042844499999995,0.10414662300000188
48122.0,-0.47650512349999996,0.9564425745,10.183421492999999,0.06443057466662268,-0.353032983788649,-0.1708520258069769,10.23933165959245,0.39745943354880336,-0.03942273299999999,0.0035303939999999923,0.12444638849999912
48132.0,-0.57466969,0.9876277214999999,10.2205886965,0.048176323342799476,-0.31439663013725055,-0.2164173365887929,10.284264051058955,0.38471114196066114,-0.09816456650000005,0.031185146999999858,0.03716720350000102
48142.0,-0.52563644,0.8187572084999999,10.23618127,0.007140141969908803,-0.27149469179397795,-0.26358136896543566,10.282318027848847,0.37846464480232583,0.04903325000000003,-0.168870513,0.015592573499999318
48152.0,-0.3688281065,0.5865357365,10.122424129999999,-0.040023890406733965,-0.22673048713882737,-0.31740732309694075,10.146109037948598,0.3921173731895412,0.1568083335,-0.23222147199999987,-0.11375714000000059
48162.0,-0.15092434349999997,0.4333558635,10.018277506999999,-0.07439640469551029,-0.17343685842918052,-0.3738966496669892,10.028781564534789,0.41882439461616966,0.217903763,-0.15317987300000002,-0.1041466230000001
48172.0,0.0346174745,0.4165864919999999,9.9775799095,-0.07679448708775051,-0.12520817520882122,-0.4082709092850175,9.986332836698146,0.43388894403361855,0.18554181799999997,-0.016769371500000074,-0.04069759749999946
48182.0,0.22976980949999998,0.5602539145,9.8542122525,-0.04641877678604119,-0.0753790250643831,-0.42612388220366754,9.872799893211214,0.4352220849661634,0.19515233499999998,0.14366742250000003,-0.1233676569999993
48192.0,0.3219523195,0.7720775544999999,9.906972029499999,0.0012775810124598492,-0.03301115747222075,-0.4245251606088407,9.942225698478659,0.42580861982921525,0.09218251,0.21182363999999998,0.052759776999998564
48202.0,0.4284525385,0.924178696,10.100849499999999,0.036718236803456705,0.0008290313946973066,-0.4088032347068758,10.152085424263213,0.4104497544326383,0.10650021900000001,0.1521011415000001,0.19387747050000037
48212.0,0.4763089905,0.9839992609999999,10.264816688,0.03538480525493304,0.03413689483975709,-0.3906849717419227,10.322867161710594,0.3937666303500299,0.047856451999999994,0.05982056499999988,0.16396718800000087
48222.0,0.46797333799999996,0.9265322919999999,10.312771206499999,-0.008580038602804124,0.057585393340300904,-0.3821572930166784,10.36487873015469,0.38656680042965175,-0.008335652500000013,-0.057466969000000034,0.04795451849999921
48232.0,0.47993745099999996,0.732556755,10.2074477855,-0.08425576964002625,0.06824411908223028,-0.39041793636636757,10.24494849425205,0.40519434786718805,0.011964112999999998,-0.19397553699999992,-0.10532342099999958
48242.0,0.5433864764999999,0.512299396,9.9297234575,-0.16712574785396903,0.08902749981497876,-0.4146657956643248,9.957767193322546,0.45585593493227883,0.06344902549999998,-0.22025735899999999,-0.2777243279999997
48252.0,0.665479269,0.3052810145,9.56932907,-0.23267507857112008,0.13086304198528284,-0.4445091805441758,9.597297432362405,0.5185086687161301,0.12209279250000005,-0.20701838149999996,-0.3603943874999995
48262.0,0.7456976659999999,0.093359308,9.419679591,-0.2531931692575654,0.20147557286246942,-0.45570197703721543,9.449610815614049,0.5588948732047712,0.08021839699999989,-0.2119217065,-0.1496494790000007
48272.0,0.6834254384999999,-0.08139519499999999,9.473616166,-0.22175106278288753,0.28994107665830604,-0.46342854963579433,9.49858404018486,0.5899198101408815,-0.062272227499999944,-0.174754503,0.05393657499999982
48282.0,0.465619742,-0.2682118775,9.6902450645,-0.1705902264191778,0.3621523291303194,-0.4919402482963737,9.705132083873913,0.6342401301858464,-0.21780569649999992,-0.1868166825,0.21662889849999978
48292.0,0.201036325,-0.3256788465,9.9895440225,-0.11942939005546799,0.3978582749676194,-0.5622857437980052,9.996873115754374,0.6990850047366964,-0.264583417,-0.057466969000000034,0.2992989580000014
48302.0,0.1507282105,-0.33401449899999996,10.203819325,-0.07652919704144737,0.3949278671535209,-0.663275730306153,10.21039732313225,0.7757315467785221,-0.0503081145,-0.008335652499999957,0.21427530249999904
48312.0,0.318323859,-0.170047311,10.365432917,-0.05467942013573035,0.3784065804541426,-0.7621329244683639,10.371713731298899,0.8526593538313398,0.1675956485,0.16396718799999996,0.16161359200000014
48322.0,0.5182814525,0.138862164,10.432412336499999,-0.0682685536917582,0.3712123332774219,-0.8284816159829284,10.446201487782707,0.9104070407362393,0.19995759350000003,0.308909475,0.06697941949999908
48332.0,0.697841214,0.4716017985,10.3737685695,-0.11703130766322778,0.3720116940748353,-0.8599254677868582,10.40790396524927,0.9442249931294134,0.17955976149999997,0.3327396345,-0.058643766999999514
48342.0,0.9288858879999999,0.5709431629999999,10.21460664,-0.17352063423327624,0.3850685022090049,-0.8580597108164763,10.272633250449179,0.9563752554435208,0.23104467399999995,0.09934136449999992,-0.15916192949999974
48352.0,1.082065761,0.5255383735,10.118795669499999,-0.2012329720964422,0.41198147927475753,-0.8306144083288654,10.19004821844536,0.9487590545800846,0.15317987300000002,-0.04540478949999993,-0.09581097050000054
48362.0,1.1323738755,0.4476735725,10.146352356,-0.1761857520010716,0.41704293410554105,-0.7850490975470493,10.21915595113102,0.9062385522890638,0.050308114499999945,-0.07786480099999998,0.027556686500000538
48372.0,1.1011887285,0.450125235,10.1727322445,-0.1226268332451216,0.3845344314578947,-0.7298914571962726,10.242055978232557,0.8340537203900427,-0.03118514699999997,0.002451662500000007,0.02637988850000106
48382.0,1.012634679,0.40217071649999997,10.1523344125,-0.07439640469551029,0.3259140578711611,-0.6832597502414881,10.210634862806293,0.7606567454836153,-0.0885540494999999,-0.04795451850000004,-0.02039783200000045
48392.0,0.886913426,0.3651015795,10.1750858405,-0.03682644721708035,0.2792823509163766,-0.6576802047242593,10.220190137669457,0.7154705238052467,-0.12572125300000003,-0.037069136999999974,0.022751427999999407
48402.0,0.725299834,0.3207755215,10.195385605999999,-0.01977283509584376,0.254235130821006,-0.6576802047242593,10.226184256086235,0.70538621934189,-0.16161359200000003,-0.044326058,0.020299765499999012
48412.0,0.6128175585,0.2621317545,10.231376011499998,-0.033629004027426745,0.2505053622094941,-0.7053765625227604,10.253063615594158,0.7492929609732178,-0.1124822755,-0.05864376700000001,0.03599040549999977
48422.0,0.640374245,0.21064684199999997,10.203819325,-0.07226535767882522,0.2651591466092385,-0.7831833405766675,10.226063762902486,0.8300046987263485,0.027556686499999983,-0.05148491250000001,-0.02755668649999876
48432.0,0.7360871489999999,0.19387747049999998,10.075744475999999,-0.12129514702584993,0.2862113080467941,-0.8671197149635788,10.104456418340124,0.9211547240417309,0.09571290399999999,-0.01676937149999999,-0.12807484900000077
48442.0,0.8367033779999998,0.1591619295,9.964438998499999,-0.15859981445797672,0.29553660224019984,-0.9395962574818952,10.000772451035292,0.9976657313367893,0.10061622899999989,-0.03471554099999999,-0.1113054775000002
48452.0,1.0282272525,0.152003075,9.829107228499998,-0.17192191263844944,0.2867436334686524,-0.9955550039593375,9.883911428525858,1.0501946587602433,0.1915238745000002,-0.007158854500000006,-0.13533177000000052
48462.0,1.2496614094999998,0.2154521005,9.5872752395,-0.17778447359589838,0.2675589743307307,-1.02433199266622,9.670776585359274,1.0735227780518828,0.2214341569999998,0.0634490255,-0.2418319889999978
48472.0,1.4423620819999998,0.39618865999999997,9.352700171499999,-0.17032319104362265,0.25130472300690754,-1.010475823734637,9.47155606687096,1.055094992673671,0.1927006725,0.18073655949999998,-0.2345750680000016
48482.0,1.62201991,0.47042500049999997,9.223350458,-0.13328555898705097,0.232385353915289,-0.9627794659361361,9.376696749955212,0.9993559390813146,0.17965782800000007,0.0742363405,-0.12934971349999813
48492.0,1.8135437845,0.40217071649999997,9.179122466499999,-0.06960023991102987,0.20040917668950087,-0.8950973428730479,9.365200029818569,0.9198952574697986,0.19152387450000008,-0.068254284,-0.04422799150000145
48502.0,1.7476430965,0.38902980549999994,9.280817426999999,0.005274384999526864,0.1593747406458622,-0.8204880080087943,9.451940155101404,0.8358401153206865,-0.06590068799999993,-0.013140911000000033,0.10169496049999971
48512.0,1.6291787645,0.25134443949999996,9.394574567,0.0553705705195201,0.09862157471319158,-0.7773207796192185,9.53810404477161,0.7855060213049907,-0.11846433200000006,-0.13768536599999998,0.11375714000000059
48522.0,1.6542837885,-0.037167203499999996,9.534613529,0.06469586471292581,0.05492027557250557,-0.7885135761122581,9.677132395565318,0.7930671165123764,0.02510502399999992,-0.288511643,0.1400389620000002
48532.0,1.777553379,-0.228691078,9.593257295999999,0.03245439744083456,0.03999945579720604,-0.8330124907211056,9.759230562478189,0.8346035310701125,0.12326959050000008,-0.1915238745,0.058643766999999514
48542.0,1.9823162309999998,-0.25742456249999995,9.525101078499999,-0.032562607854458206,0.03706730265385557,-0.8836392563337051,9.732594494825426,0.8850156177663189,0.20476285199999977,-0.02873348449999996,-0.06815621750000034
48552.0,2.246899648,-0.2119217065,9.3323023395,-0.1031751387316448,0.04053178121906431,-0.9121509549942844,9.601319481910055,0.9188619587500994,0.2645834170000001,0.04550285599999995,-0.19279873899999878
48562.0,2.5281543699999998,-0.041972461999999995,9.090470350499999,-0.1407468415393267,0.055187310948060696,-0.8988288568138117,9.435569797284954,0.9114541274985801,0.2812547219999999,0.1699492445,-0.24183198900000136
48572.0,2.5653215735,-0.037167203499999996,8.979164873,-0.12102811165029478,0.0661130720655452,-0.8676520403854371,9.338504055414745,0.8785435705146286,0.037167203500000134,0.0048052584999999995,-0.11130547749999842
48582.0,2.6311241949999995,-0.1760293675,9.091745215,-0.06187366731245098,0.04905945994430861,-0.8314137691262787,9.466447692889464,0.8351550974576424,0.0658026214999996,-0.138862164,0.11258034199999933
48592.0,2.6550524209999997,-0.07305954249999999,9.2975867985,0.0012775810124598492,0.012020082558484947,-0.8058324782797979,9.669527461600682,0.8059231338338149,0.02392822600000022,0.10296982500000001,0.20584158349999981
48602.0,2.6347526555,0.1016949605,9.629247701499999,0.04258079776090566,-0.029813714282567138,-0.7751897326025335,9.983720484744072,0.7769305653851347,-0.0202997654999999,0.174754503,0.3316609029999995
48612.0,2.6550524209999997,0.2825295865,9.790763227,0.030323350424149482,-0.07431262889141456,-0.7314901787910993,10.148308770070079,0.7358802579642515,0.0202997654999999,0.180834626,0.16151552550000048
48622.0,2.75566865,0.362649917,9.881768938999999,-0.036559411841525224,-0.10628880611720268,-0.6915203935911773,10.265212225506012,0.7005957148402461,0.10061622900000033,0.0801203305,0.0910057119999994
48632.0,2.8226480694999996,0.33156283649999996,9.842248139499999,-0.11703130766322778,-0.11641346110802178,-0.6448886866363928,10.244370379788657,0.6656799824631394,0.06697941949999953,-0.03108708050000003,-0.03952079949999998
48642.0,2.7496865934999994,0.3651015795,9.730942662,-0.17272127343586285,-0.12733922222550628,-0.5974593642134469,10.118563169588787,0.6348272266535512,-0.07296147600000014,0.03353874300000004,-0.11130547749999842
48652.0,2.6263189364999997,0.245362383,9.7249606055,-0.18178127758296542,-0.15105475610160524,-0.561753418376147,10.076339247650251,0.6094496495018248,-0.12336765699999974,-0.1197391965,-0.00598205650000061
48662.0,2.4299898035,0.1903470765,9.847053397999998,-0.15113853190570095,-0.20008280011937796,-0.544167480833052,10.144236939154634,0.5991612720515334,-0.19632913299999988,-0.0550153065,0.12209279249999838
48672.0,2.2216965575,0.2405571245,9.969146190499998,-0.10930298973539689,-0.26669852700949753,-0.542034688487115,10.216539487092275,0.6139029657832382,-0.20829324599999977,0.05021004800000001,0.12209279250000016
48682.0,2.234935535,0.29321883499999996,10.012295450499998,-0.07945960485554583,-0.3255876813010382,-0.5537598104020129,10.262893077437154,0.6472797653528645,0.013238977499999915,0.05266171049999996,0.043149259999999856
48692.0,2.378504891,0.41776328999999995,9.997879675,-0.07039960070844327,-0.33784512863779437,-0.5553585319968397,10.285397886263839,0.6538490145177868,0.14356935599999998,0.124544455,-0.014415775499998063
48702.0,2.3917438685,0.7194158439999999,9.9536516835,-0.08905193442450667,-0.2992070296571439,-0.5241817155684649,10.262220993797978,0.6100996349427663,0.013238977499999915,0.30165255399999996,-0.044227991499999675
48712.0,2.3917438685,0.8487655574999999,9.936882312,-0.11143578208133395,-0.23232601272072118,-0.4615627926654124,10.255850612535466,0.5286147191366144,0.0,0.12934971350000002,-0.016769371500000574
48722.0,2.234935535,0.8439602989999999,9.916484480000001,-0.12529195101291693,-0.16144644646797945,-0.371498567274749,10.20018971754814,0.42399789333551235,-0.1568083334999999,-0.00480525850000002,-0.020397831999998672
48732.0,1.9871214895,0.7481493284999999,9.916484480000001,-0.13541660600373603,-0.10788752771202947,-0.28250073805705417,10.141254541418856,0.33133675138771634,-0.24781404549999997,-0.09581097049999998,0.0
48742.0,1.683017273,0.6188976814999999,9.940412706,-0.1359506767548463,-0.0940313587804465,-0.2070920423953872,10.100860668625653,0.2649747100530362,-0.3041042165000001,-0.12925164700000003,0.023928225999998887
48752.0,1.368223808,0.5649611065,9.924918198999999,-0.13461724520632265,-0.12227602206547072,-0.1324827075311336,10.034700727848195,0.22499976905293606,-0.31479346499999994,-0.05393657499999993,-0.015494507000001434
48762.0,1.116781302,0.4129580315,9.891379456,-0.13488428058187776,-0.166509646628015,-0.07412762399070318,9.962786876916319,0.22674685489943236,-0.25144250600000007,-0.152003075,-0.03353874299999937
48772.0,0.9288858879999999,0.3292092405,9.809984261,-0.1343519551600195,-0.22566409096585885,-0.03682295655857636,9.859360979192509,0.2651992834388549,-0.18789541399999998,-0.08374879099999999,-0.08139519499999892
48782.0,0.8163055459999999,0.28723677849999996,9.6208139825,-0.13301852361149583,-0.259771315208332,-0.00884358331985527,9.659654310440976,0.2919816309201383,-0.112580342,-0.041972462000000044,-0.18917027850000068
48792.0,0.676266584,0.2848831825,9.462828851,-0.1226268332451216,-0.26163707217871396,0.01700299757292876,9.491239370262681,0.28944844048023727,-0.140038962,-0.002353595999999958,-0.15798513150000026
48802.0,0.5529969935,0.2023111895,9.408892276,-0.1002447309175463,-0.2293938595773707,0.03752108825937409,9.427300215522438,0.25313707937143753,-0.12326959049999997,-0.08257199300000001,-0.05393657499999982
48812.0,0.410506369,0.047856451999999994,9.3874157125,-0.07812791863627416,-0.1678413328472867,0.04231725304385451,9.396508898430282,0.18990901660418225,-0.1424906245,-0.1544547375,-0.021476563500000267
48822.0,0.25722842949999997,0.0048052584999999995,9.466359245,-0.058941514169100505,-0.11081793552612797,0.026595327141889596,9.469854640428714,0.12830443621560192,-0.15327793950000002,-0.043051193499999994,0.0789435325000003
48832.0,0.1758332345,0.038245934999999995,9.5957089585,-0.03735877263893862,-0.08150687606813518,0.003146828641345776,9.597396026742665,0.0897159476903201,-0.08139519499999998,0.033440676499999995,0.1293497134999999
48842.0,0.10404855649999999,0.13288010749999998,9.764481405,-0.011512191746154598,-0.06791774251210735,-0.005646140130201656,9.76593980800976,0.06911750288538365,-0.071784678,0.09463417249999999,0.16877244650000023
48852.0,0.0010787315,0.234575068,9.863822769499999,-0.0053825954131505125,-0.07271390729658776,-0.0035150931135165798,9.866611690661363,0.07299753781679982,-0.10296982499999999,0.10169496050000001,0.09934136449999897
48862.0,-0.0132389775,0.277724328,9.939235907999999,-0.01284387796542627,-0.07830943287848158,-0.001117010721276371,9.943124081885172,0.07936359487757357,-0.014317709000000001,0.04314926000000002,0.07541313850000009
48872.0,-0.006080123,0.22378775299999998,9.9320770535,-0.01497667031136334,-0.07084989565545781,0.003146828641345776,9.934599766621186,0.07248386647042586,0.007158854500000001,-0.05393657500000004,-0.007158854499998313
48882.0,-0.04314926,0.18554181799999997,9.906972029499999,-0.009379399400217528,-0.06631902091728054,-0.003248057737961447,9.908803278810243,0.06705770311906474,-0.037069137,-0.03824593500000001,-0.02510502400000192
48892.0,-0.13297817399999998,0.07178467799999999,9.9918976185,0.018865263884806707,-0.0668530916683908,-0.025097834643678457,9.99304029078948,0.07385888809660678,-0.08982891399999998,-0.11375713999999998,0.08492558900000091
48902.0,-0.24310685349999997,-0.05266171049999999,10.131936580499998,0.05643522136323664,-0.08390670378962739,-0.06533290988990374,10.134989544604645,0.1203896102902575,-0.11012867949999999,-0.12444638849999998,0.14003896199999843
48912.0,-0.318519992,-0.13170330949999998,10.202642527,0.07801970822265052,-0.11987793967323053,-0.11622845620731037,10.208462924494846,0.18430097483133637,-0.0754131385,-0.07904159899999999,0.07070594650000217
48922.0,-0.2874329115,-0.08139519499999999,10.2217654945,0.07908610439561906,-0.17157284678805057,-0.18337650851928822,10.226129897519066,0.26328463217619674,0.031087080499999975,0.05030811449999999,0.019122967499999532
48932.0,-0.14611908499999998,-0.05511337299999999,10.203819325,0.07775267284709539,-0.2208679261813784,-0.25052456083126606,10.205014311020252,0.34291496690904144,0.14131382650000002,0.026281821999999996,-0.017946169500000053
48942.0,0.0824739265,0.003530394,10.167926986,0.07855203364450879,-0.2549751504238516,-0.2918260322504599,10.168262073966286,0.39540508649029826,0.2285930115,0.05864376699999999,-0.035892339000000106
