timestamp,ax,ay,az,gx,gy,gz,acc_mag,gyro_mag,dax,day,daz
42102.0,0.6684212639999999,-2.9673942235,9.544224046,0.16862673101068415,0.1464575588518522,-0.05351354019539814,10.017206601846302,0.22967039413132434,0.0,0.0,0.0
42112.0,0.739029144,-3.045160958,9.571682666,0.19926947668794856,0.16164541400270682,-0.1124026944869388,10.071557893117316,0.2801284168654074,0.07060788000000007,-0.07776673449999993,0.0274586199999991
42122.0,0.8612200029999999,-3.0942922744999994,9.674652491,0.22245093981293726,0.21627072893162536,-0.14011503235010478,10.193882743842515,0.34042572039542857,0.12219085899999993,-0.04913131649999958,0.10296982500000063
42132.0,1.026363989,-3.11459204,9.7847811705,0.22937989694335476,0.27915494188098106,-0.14890800112165223,10.319692300069741,0.3907892161976376,0.16514398600000013,-0.020299765500000344,0.11012867950000071
42142.0,1.000082167,-3.0499662165,9.985915562,0.2429690304993826,0.3391104923454903,-0.14624288335385685,10.489088038239384,0.44205978863979534,-0.026281822000000066,0.06462582349999968,0.20113439150000012
42152.0,0.8923070835,-2.9673942235,10.1858731555,0.25016327767610325,0.35083386893113616,-0.14597584797830174,10.646767225259552,0.4549450706182286,-0.10777508349999998,0.08257199300000018,0.19995759349999886
42162.0,0.73549875,-2.9350322785,10.507825474999999,0.24190263432641407,0.30846600133897384,-0.13984799697454967,10.934796253252614,0.41620382114284854,-0.1568083335,0.03236194499999989,0.32195231949999936
42172.0,0.666067668,-2.9901456515,10.74612707,0.2171224496065986,0.23039393323876345,-0.14384480096161664,11.174250049114084,0.34772812563852934,-0.06943108200000003,-0.055113372999999743,0.23830159500000114
42182.0,0.47209213099999997,-2.9817119324999997,10.8693966605,0.1827481899885703,0.14485883725702536,-0.1494403265435105,11.28083599702848,0.27697183046834745,-0.19397553699999998,0.008433719000000117,0.12326959049999964
42192.0,0.2434991195,-2.966119359,10.9747200815,0.1510390481383373,0.05053077250373983,-0.1486409657460971,11.37108775536937,0.21785382652203308,-0.22859301149999997,0.015592573499999762,0.10532342099999958
42202.0,0.09865489899999999,-3.0368253055,10.987860992499998,0.1177311846932775,-0.050724504050711196,-0.14917503649720734,11.400224994083446,0.19668959981253809,-0.1448442205,-0.07070594649999995,0.013140910999998923
42212.0,-0.060605097,-3.0738944425,10.983153800499998,0.07749610944705222,-0.12506854886866164,-0.16116544845840838,11.40535696183387,0.21822486263563598,-0.159259996,-0.03706913700000003,-0.004707191999999694
42222.0,-0.2509521735,-3.0942922744999994,10.949615057499999,0.03486120647933474,-0.16290554172264674,-0.1883437155704641,11.381199039681428,0.2514495465019408,-0.1903470765,-0.02039783199999956,-0.03353874299999937
42232.0,-0.4627758135,-3.091840612,10.8909712905,-0.010170033551370958,-0.18768572644246223,-0.2187211712014254,11.330794123717382,0.28838916800808245,-0.21182364000000004,0.0024516624999995074,-0.058643766999999514
42242.0,-0.7489338604999999,-3.0272147885,10.783196207,-0.05893278752284053,-0.19568107974584825,-0.253627756241312,11.225072460424284,0.325716436723288,-0.28615804699999986,0.06462582350000012,-0.10777508349999998
42252.0,-1.0218529299999999,-3.021232732,10.668262269,-0.11116002005951885,-0.1850223540039189,-0.29466219228495066,11.134803566818176,0.36526104241070845,-0.2729190695,0.005982056499999722,-0.11493393800000007
42262.0,-1.238579895,-3.0224095299999996,10.495861361999998,-0.1644519034399137,-0.15544425917037097,-0.34289262083456196,10.992367590908588,0.4108317121119435,-0.2167269650000001,-0.0011767979999994793,-0.17240090700000188
42272.0,-1.3630262835,-3.11459204,10.3163016005,-0.20628744561021778,-0.12080470950603951,-0.3951198533712403,10.862071760839275,0.4618094700017937,-0.1244463885,-0.09218251000000022,-0.17955976149999842
42282.0,-1.4492267369999998,-3.1876515825,10.123600927999998,-0.23080059495447816,-0.09762150105179884,-0.44521429356198156,10.712080866762202,0.5108959182561961,-0.08620045349999983,-0.07305954250000024,-0.1927006725000009
42292.0,-1.4935527949999998,-3.2343312364999997,9.957182077499999,-0.234532108895242,-0.0787038772894323,-0.487847451200447,10.575304885597347,0.546986970636424,-0.044326058,-0.046679653999999626,-0.1664188504999995
42302.0,-1.5366039884999998,-3.22834918,9.7728170575,-0.22707082634296624,-0.05685410038371528,-0.5230210716158887,10.406312674758707,0.5730136039054847,-0.04305119349999997,0.005982056499999722,-0.18436501999999955
42312.0,-1.6191759815,-3.1936336389999997,9.6100266675,-0.20282296704500904,-0.006757914863722044,-0.5557966096390903,10.255419992827209,0.5916863161004768,-0.08257199300000018,0.03471554100000018,-0.16279038999999962
42322.0,-1.7688254605,-3.22834918,9.528631472499999,-0.16711702120770908,0.0705147924390749,-0.5933665671175202,10.214979181400087,0.6204710450157158,-0.14964947900000003,-0.03471554100000018,-0.0813951950000007
42332.0,-1.8814058024999998,-3.251100608,9.578939586999999,-0.12288339664516476,0.17123774357166766,-0.6469254858734702,10.289092601799945,0.6803934731221299,-0.11258034199999978,-0.02275142799999985,0.050308114499999945
42342.0,-1.9807471669999999,-3.2594362605,9.672298894999999,-0.08637809001045135,0.2818200596487764,-0.7135412127635897,10.397146242602291,0.772026413256974,-0.09934136450000008,-0.008335652500000013,0.09335930800000014
42352.0,-2.1267681855,-3.0966458704999997,9.763304607,-0.06586174465325802,0.35856218685896707,-0.7764271710421974,10.461093413750165,0.8577550717929013,-0.14602101850000015,0.16279039000000006,0.09100571200000118
42362.0,-2.0693012165,-2.8763885115,9.894909849999998,-0.06319662688546268,0.3889378971606764,-0.8283873682033206,10.510226416843956,0.9173288032631992,0.057466969000000034,0.22025735899999965,0.13160524299999743
42372.0,-1.8334512839999997,-2.6824129744999996,10.032595215999999,-0.0719895956570101,0.39027132870920006,-0.8534345882986913,10.545608078469124,0.9411932896062642,0.2358499325000003,0.19397553700000048,0.13768536600000125
42382.0,-1.470801367,-2.6214156115,10.1990140665,-0.08531343916673481,0.33084984899580105,-0.8497048196871794,10.632730806243984,0.9158265589524157,0.3626499169999997,0.060997362999999805,0.16641885050000127
42392.0,-1.1834665219999998,-2.4717661325,10.333070971999998,-0.09810321192534927,0.24504771763850786,-0.8185280032588047,10.690302920631284,0.860035299408552,0.28733484500000017,0.1496494789999998,0.13405690549999782
42402.0,-1.160715094,-2.2251288849999997,10.303160689499999,-0.12048531425292455,0.16004669240788003,-0.7910827007711938,10.604413151040413,0.8160536098570821,0.02275142799999985,0.24663724750000027,-0.029910282499999497
42412.0,-1.1786612635,-2.0659669555,10.167926986,-0.15166213068129927,0.10515608743265836,-0.7884175830033985,10.442423139670236,0.8097292694449528,-0.017946169500000053,0.15916192949999974,-0.13523370349999908
42422.0,-1.1092301814999999,-1.9653507264999999,10.006313394,-0.1721802213677446,0.12593946816540683,-0.8169292816639779,10.257646065869517,0.8443223492908701,0.06943108200000014,0.10061622900000011,-0.16161359200000014
42432.0,-1.0015531645,-1.9402457025,9.898538310500001,-0.1799067939663235,0.22852817626838154,-0.8702211650443727,10.136504467114188,0.9175382596682163,0.10767701699999987,0.02510502399999992,-0.1077750834999982
42442.0,-0.8854424284999999,-1.9246531289999997,9.768011798999998,-0.1799067939663235,0.3953327835399836,-0.9419000920945279,9.995116430865659,1.0372223714056656,0.1161107360000001,0.015592573500000206,-0.13052651150000294
42452.0,-0.6878384309999999,-1.990553817,9.659157983999998,-0.1713808605703312,0.6148986940993743,-1.0154430307858129,9.886089174461492,1.1994150041359415,0.19760399750000002,-0.06590068800000015,-0.1088538149999998
42462.0,-0.5549583235,-2.0144820429999997,9.665140040499999,-0.15485957387095287,0.8659067111334428,-1.0567462475342586,9.888430039438399,1.374950381534972,0.1328801074999999,-0.023928225999999775,0.00598205650000061
42472.0,-0.5059250734999999,-1.9259279935,9.6998555815,-0.12981235377558226,1.0990600099196093,-1.0658045063521093,9.902139017308311,1.5364645776449621,0.04903325000000003,0.08855404949999968,0.03471554100000063
42482.0,-0.5992843815,-1.9007249029999997,9.983561966,-0.08611279996414824,1.2949103866029008,-1.045553451041219,10.180540577776604,1.6665504320703715,-0.09335930800000003,0.025203090500000247,0.2837063845000003
42492.0,-0.752562321,-1.8827787335,10.461145820999999,-0.03868173221195032,1.4337373659650339,-1.019441580102132,10.655833036160736,1.7596477619718105,-0.15327793950000002,0.01794616949999983,0.4775838549999989
42502.0,-1.0194993339999998,-1.913865814,11.0213997355,-0.0128351513191663,1.4747735473379247,-1.0125126229717145,11.232698401350575,1.788939230022678,-0.26693701299999983,-0.031087080500000086,0.5602539145000005
42512.0,-1.1571847,-2.00251793,11.5517433675,-0.02349387706109567,1.3772480393949853,-1.0538140943909082,11.780998655396996,1.734326459987745,-0.13768536600000014,-0.08865211599999978,0.530343632000001
42522.0,-1.0756914384999998,-2.0887183835,11.908509294499998,-0.052270865767978174,1.1784672548975952,-1.1364170372292959,12.138057924298511,1.6379746630454997,0.08149326150000014,-0.08620045350000005,0.3567659269999979
42532.0,-0.884167564,-2.105487755,11.950383689999999,-0.07278895645442351,0.9207973161086644,-1.220086376240652,12.166614208805283,1.5302864748218516,0.19152387449999986,-0.01676937150000013,0.041874395500000716
42542.0,-0.48797890399999994,-1.9917306149999998,11.663048844999999,-0.06559470927770289,0.667925287433466,-1.2661857577735782,11.841951807634294,1.4330573012503565,0.39618866,0.11375714000000015,-0.28733484500000017
42552.0,-0.188679946,-1.9151406784999998,11.266860185,-0.03468492822488331,0.48273363649210366,-1.2904336170715356,11.430026350311106,1.3782067073248419,0.29929895799999995,0.07658993650000001,-0.3961886599999982
42562.0,0.102185293,-1.8025603364999998,10.876555515,-0.0008447393579652555,0.4051921484844996,-1.263785930052086,11.02538550218111,1.3271534454522143,0.290865239,0.112580342,-0.3903046700000008
42572.0,0.32371751649999997,-1.5368001214999998,10.552151533,0.02713463388075584,0.4017294152485428,-1.1907753167826591,10.668385520748938,1.25700782276429,0.22153222349999996,0.265760215,-0.32440398199999976
42582.0,0.27340940199999997,-1.3776381919999998,10.4983130245,0.03912504584195688,0.4662123497927253,-1.0895200402282081,10.59184667796628,1.1857228353920937,-0.0503081145,0.15916192949999997,-0.05383850850000016
42592.0,0.1979962635,-1.5512158969999998,10.574902961,-0.007239625737272479,0.5221693509409155,-1.0005222110105134,10.68990392445283,1.128608850739812,-0.07541313849999998,-0.17357770500000003,0.07658993649999957
42602.0,0.15729866599999998,-1.8241349665,10.627564671499998,-0.12208403584775136,0.5557442497615304,-0.9682807437384221,10.784124539954469,1.1230867204479416,-0.040697597500000016,-0.2729190695000001,0.052661710499998904
42612.0,0.272232604,-2.270631741,10.586867074,-0.284094223664125,0.5711991402879402,-1.0039866895757221,10.83104951223392,1.1895239630332048,0.11493393800000001,-0.4464967744999999,-0.040697597499997684
42622.0,0.32969957299999997,-2.428714939,10.3641580525,-0.4397077797719394,0.6066380507496851,-1.0706024164658416,10.650029586839596,1.3067295781269535,0.05746696899999998,-0.15808319799999992,-0.22270902150000005
42632.0,0.318912258,-2.3903709374999997,9.994349280999998,-0.5372332877148785,0.6431433573843985,-1.130556221601099,10.281176771059451,1.4072705332584658,-0.010787314999999964,0.03834400150000006,-0.36980877150000246
42642.0,0.3931485985,-2.397529792,9.655529523499998,-0.5428288132967724,0.6047722937793031,-1.1593332103079812,9.956503668618327,1.4157917009190553,0.0742363405,-0.007158854500000089,-0.3388197574999996
42652.0,0.5463284715,-2.3724247679999997,9.4592003905,-0.43437928956560073,0.49419172303144643,-1.154537045523501,9.767463647550818,1.328859140692662,0.15317987299999997,0.025105024000000142,-0.196329132999999
42662.0,0.646846634,-2.3077989445,9.315532968,-0.2491876386242384,0.35163322972854955,-1.1382827941996778,9.618913712787288,1.2171393211393184,0.10051816250000001,0.06462582349999968,-0.14366742250000009
42672.0,0.5439748754999999,-2.2837726519999997,9.416149197,-0.05573534433318692,0.25917092194564595,-1.130821511647402,9.704400645653603,1.1614789221482285,-0.10287175850000008,0.024026292500000324,0.10061622899999989
42682.0,0.479349052,-2.5304098994999995,9.6470958045,0.06843610529994966,0.2522437101444805,-1.1987706700860452,9.984949035139959,1.226931745972295,-0.0646258234999999,-0.24663724749999982,0.23094660749999996
42692.0,0.5582925845,-2.8356909139999997,9.8746100845,0.09934588635276922,0.31646135464235986,-1.3485216652364107,10.288865724197152,1.3887145407639674,0.07894353249999997,-0.3052810145000002,0.22751428000000118
42702.0,0.715100918,-2.954155246,10.072116015499999,0.07403163088184347,0.45528833400449276,-1.5624920502139075,10.520737786395275,1.6291560871915471,0.1568083335,-0.11846433200000028,0.19750593099999847
42712.0,0.8444506315,-2.6549543545,10.1666521215,0.038325685044543485,0.6172967764916144,-1.7386236970081672,10.541474984703028,1.8453553934674531,0.12934971350000002,0.29920089149999995,0.0945361060000014
42722.0,0.8923070835,-2.1736439725,10.2229422925,0.024736551488515633,0.7332075827750619,-1.8297525732425475,10.489494228333177,1.9713446516796898,0.047856451999999994,0.4813103820000002,0.056290171000000555
42732.0,0.9856663915,-1.8468863944999998,10.3402298265,0.03805864966898835,0.7518599164911253,-1.8257557692554802,10.55001803099701,1.974873647555797,0.09335930800000003,0.32675757800000005,0.11728753399999903
42742.0,1.0491154169999999,-1.6289826315,10.464774281499999,0.0812258780585641,0.6649931342901155,-1.7623374855550145,10.642637282866477,1.8853771306854623,0.06344902549999987,0.2179037629999998,0.12454445499999878
42752.0,1.046761821,-1.5236592105,10.665908673,0.14117968319382132,0.521369990143502,-1.6698751777721106,10.824918268533086,1.7550616738190088,-0.002353595999999847,0.10532342100000003,0.2011343915000019
42762.0,1.0491154169999999,-1.5823029775,10.8370347155,0.168359695635129,0.35456538287190004,-1.591002003545235,11.002074681429162,1.6387034427041405,0.002353595999999847,-0.05864376699999996,0.1711260424999992
42772.0,1.0874594185,-1.7391113109999998,10.8790071775,0.1294563066081754,0.2080100855819362,-1.5459707635145292,11.070676280473068,1.565264428991514,0.03834400150000006,-0.1568083334999999,0.04197246200000038
42782.0,1.2442677519999998,-1.877973475,10.7221007775,0.03699399882527181,0.09982585189706766,-1.5393088417596668,10.956205168503226,1.5429858933170926,0.1568083334999999,-0.13886216400000007,-0.15690640000000045
42792.0,1.3950940289999998,-1.808542393,10.438394393,-0.05360429731650184,0.05399525106894858,-1.545438438092671,10.685372732892542,1.5473102060553692,0.15082627699999995,0.06943108199999992,-0.2837063845000003
42802.0,1.498063854,-1.7259703999999998,10.148705952,-0.10876193766727864,0.08543735754362641,-1.541174598730049,10.402855455714922,1.547368037966374,0.10296982500000018,0.08257199300000018,-0.28968844099999913
42812.0,1.5375846535,-1.7643144014999999,10.032595215999999,-0.12208403584775136,0.16004669240788003,-1.5166597040565366,10.301938586602285,1.5299595136697046,0.03952079949999998,-0.03834400150000006,-0.11611073600000132
42822.0,1.5925999599999998,-1.979766502,9.9822871015,-0.11968595345551115,0.2152043327586568,-1.5038699312979222,10.300577935815378,1.5238971102258416,0.05501530649999986,-0.21545210050000008,-0.05030811449999817
42832.0,1.6919413245,-2.1676619159999997,9.960810537999999,-0.12048531425292455,0.2221332898890743,-1.5185254610269183,10.333400708457958,1.5394088102952328,0.09934136450000008,-0.18789541399999976,-0.021476563500002044
42842.0,1.7613724064999998,-2.2096343779999996,9.9667925945,-0.10849490229172351,0.19708606979370366,-1.5422392495737653,10.359626994279237,1.5585621468699509,0.06943108199999992,-0.04197246199999993,0.00598205650000061
42852.0,1.914650346,-2.174918837,9.934430649500001,-0.08931024315380183,0.14725691964926557,-1.5646230972305926,10.348384908994271,1.5740731737451834,0.15327793950000013,0.03471554099999974,-0.032361944999998116
42862.0,2.1648179874999998,-2.1377516334999997,9.799196946,-0.08291535677449462,0.09556375786369752,-1.5787463015377308,10.260637395017485,1.5838078396147484,0.2501676414999998,0.037167203500000134,-0.13523370350000086
42872.0,2.392234201,-2.027622954,9.570505868,-0.08664512538600651,0.0721152593631537,-1.565155422652451,10.071177780450716,1.569209828367304,0.22741621350000019,0.11012867949999983,-0.22869107800000066
42882.0,2.587386536,-1.8696378224999997,9.334655935499999,-0.0991696080983178,0.09556375786369752,-1.5126629000694696,9.865389810248857,1.518919383059543,0.19515233499999995,0.15798513150000026,-0.23584993250000075
42892.0,2.6257305374999995,-1.794224684,9.236491369,-0.11195938085693224,0.17763437528022688,-1.4215322785058375,9.768647597382476,1.4369561207904236,0.038344001499999614,0.07541313849999964,-0.0981645664999995
42902.0,2.5251143084999996,-1.943874163,9.279640629,-0.13753892637416115,0.30020710331853667,-1.334932531680383,9.811553354895334,1.3751676717003132,-0.10061622899999989,-0.14964947900000003,0.043149259999999856
42912.0,2.4916736319999995,-2.30652408,9.410069073999999,-0.1839035979533905,0.4027940660922593,-1.3024240290327367,10.003893781796922,1.3756351058406457,-0.033440676500000155,-0.36264991699999993,0.13042844499999973
42922.0,2.404198314,-2.5172689884999997,9.582469981,-0.21827785757141882,0.4683433968094104,-1.309085950787599,10.195123522070263,1.4073722986439718,-0.08747531799999964,-0.21074490849999972,0.1724009070000001
42932.0,2.3372188945,-2.549532867,9.696227121,-0.2158797751791786,0.44915873767148873,-1.3437255004519304,10.294636000497395,1.4331594012959092,-0.06697941949999997,-0.03226387850000023,0.11375714000000059
42942.0,2.4448959114999997,-2.5663022384999996,9.7620297425,-0.17697638615222502,0.33431432756100987,-1.390357207406715,10.38559809981371,1.4408955114982733,0.10767701699999987,-0.016769371499999686,0.0658026214999996
42952.0,2.647207101,-2.4885355039999997,9.708191234,-0.11942066340920801,0.19388862660405007,-1.4031469801653293,10.365784650771392,1.4215046754487244,0.20231118950000004,0.07776673449999993,-0.05383850850000016
42962.0,2.7896977255,-2.2874011125,9.5621702155,-0.06825982704549823,0.0867690437628981,-1.3607791125731667,10.220064406808865,1.365250183724296,0.14249062450000016,0.20113439149999968,-0.14602101849999904
42972.0,2.9669038909999994,-2.117451868,9.395751364999999,-0.03575132439785185,0.026282913205782608,-1.2821729737218464,10.078008971251561,1.2829405610804834,0.17720616549999946,0.16994924450000015,-0.16641885050000127
42982.0,3.1655866199999996,-2.0922487775,9.2185451995,-0.018163641525504988,0.005232497097479001,-1.188644269765974,9.968952762998617,1.1887945562404076,0.19868272900000017,0.025203090499999803,-0.17720616549999946
42992.0,3.324846616,-2.0719490119999997,9.1024344635,-0.005640904142445673,0.027349309378751144,-1.0977806835778974,9.909686720102052,1.0981357993252905,0.1592599960000003,0.020299765500000344,-0.11611073599999955
43002.0,3.4444877459999996,-2.063515293,9.029472987499998,0.017807594358098144,0.07744374956949239,-1.0133119837691278,9.882002511069361,1.0164230522840034,0.11964112999999976,0.008433718999999673,-0.07296147600000147
43012.0,3.4851853434999995,-2.0802846645,9.058206471999998,0.07216587391146154,0.13446714689065112,-0.9235147937540196,9.925986381880833,0.9360389421561723,0.040697597499999905,-0.01676937150000013,0.028733484500000017
43022.0,3.4732212304999996,-2.1090181489999997,9.1132217785,0.14544352255644347,0.16004669240788003,-0.8323841721903877,9.978077693270082,0.8600187045160159,-0.011964112999999887,-0.028733484499999573,0.055015306500001415
43032.0,3.428993239,-2.1402032959999997,9.143132061,0.2203198927962522,0.15391884140412793,-0.739921864407484,9.996765910343358,0.7872205728569269,-0.044227991499999675,-0.03118514699999997,0.029910282499999497
43042.0,3.4122238674999994,-2.1892365459999996,9.152742578,0.29279818064382074,0.12913691135506045,-0.6514563606116475,10.01043081367694,0.7258116189783883,-0.016769371500000574,-0.04903324999999992,0.009610517000000485
43052.0,3.3882956414999996,-2.259844426,9.1730423435,0.3642100723184207,0.08463799674621302,-0.570984464789945,10.036540739695882,0.682521667277209,-0.023928225999999775,-0.07060788000000029,0.020299765500000788
