timestamp,ax,ay,az,gx,gy,gz,acc_mag,gyro_mag,dax,day,daz
134872.0,-0.5735909585,1.425102378,9.684263007999999,-0.33126523735777574,-0.015608479500585288,0.08413883258014264,9.805349222927829,0.3421397744518649,0.0,0.0,0.0
134882.0,-0.6430220405,0.9450668604999999,9.9667925945,-0.3227375586325314,-0.0747629238384291,0.14169455532315964,10.032127557859505,0.3603142705211457,-0.06943108200000003,-0.4800355175000002,0.2825295865000008
134892.0,-0.48503690899999996,0.7798248079999999,9.8136127215,-0.26971271062769175,-0.07849269244994099,0.20004963886359003,9.856489343668523,0.34485635712805235,0.15798513150000004,-0.16524205250000001,-0.15317987299999913
134902.0,-0.6549861535,0.8313097205,9.707014436,-0.2110905917117062,-0.09527926919562245,0.23735430629571683,9.764538492595895,0.33162394932328254,-0.16994924450000004,0.05148491250000009,-0.1065982855000005
134912.0,-0.8848540295,0.777471212,9.630424499499998,-0.1668569671491619,-0.12938649343809563,0.265333679534438,9.702190689714408,0.3390930162443731,-0.22986787600000003,-0.05383850849999994,-0.07658993650000134
134922.0,-1.028521452,0.6193880139999999,9.5382419895,-0.12768828807590515,-0.183744772991459,0.28212025628011944,9.613509148036005,0.36008093467580093,-0.14366742249999986,-0.15808319800000015,-0.09218250999999889
134932.0,-1.145808986,0.42904093749999994,9.4197776575,-0.06773448294064793,-0.2514268960545471,0.27465897372784365,9.498903382769265,0.3784719224567303,-0.11728753400000014,-0.19034707649999993,-0.11846433200000028
134942.0,-1.317033095,0.4494387695,9.3754515995,0.017268287619231895,-0.2876651673137054,0.2384207024686854,9.478167759404876,0.3740238944353476,-0.17122410899999996,0.02039783200000006,-0.044326057999999335
134952.0,-1.4738414284999999,0.602716709,9.450864738,0.11852356417368293,-0.2644837041887167,0.19098963471648747,9.584065957809479,0.34709725670905994,-0.1568083334999999,0.15327793949999996,0.07541313850000009
134962.0,-1.5911289625,0.684111904,9.6867146705,0.1984631345735272,-0.18614285538369924,0.14755711628060858,9.84033239175287,0.30953171236594773,-0.11728753400000014,0.08139519500000003,0.23584993250000075
134972.0,-1.7647066674999998,0.7007832089999999,10.049462654,0.24615949237202825,-0.082489496437008,0.11931245299558436,10.227266808022366,0.2857174725968108,-0.1735777049999998,0.016671304999999914,0.3627479834999985
134982.0,-1.9922209475,0.7510913235,10.516259194,0.2669428731047767,0.013170254535549212,0.09532988374393027,10.729622077001794,0.28376000394804646,-0.22751428000000007,0.050308114500000056,0.4667965400000007
134992.0,-2.3285890425,0.8672020594999998,11.001099969999999,0.2621467083202963,0.08351575003718066,0.06735225583446118,11.278234209785948,0.2832527202930804,-0.3363680950000001,0.11611073599999988,0.48484077599999864
135002.0,-2.5667925709999997,0.858866407,11.397386696499998,0.21365098972438187,0.09417447577911003,0.03244567079457458,11.714371477683684,0.23572929145905483,-0.2382035284999997,-0.00833565249999979,0.39628672649999963
135012.0,-2.8098013579999996,0.8457254959999999,11.672659362,0.14277142347164012,0.05100724738953428,-0.0024609142453120045,12.035830335597513,0.15162939934359143,-0.24300878699999995,-0.013140911000000144,0.27527266550000107
135022.0,-3.0564386055,0.8827946329999999,11.855847584,0.08228529291452466,-0.028398252259199737,-0.04136430327226561,12.275270475565213,0.0963760122987366,-0.24663724750000027,0.03706913700000003,0.18318822200000007
135032.0,-3.203636422,0.872007318,11.9551889485,0.03458718978677163,-0.12485736402917036,-0.07946833150180582,12.407668027528262,0.15198964030926523,-0.1471978165000003,-0.010787314999999964,0.09934136450000075
135042.0,-3.4969533235,0.9869412559999998,11.9096860925,-0.002450442269800039,-0.233306887760342,-0.10211921453418822,12.451640791936638,0.254688913227125,-0.2933169014999999,0.11493393799999985,-0.04550285600000059
135052.0,-3.6824951415,1.1090340484999999,11.877422214,-0.028029987787028934,-0.3505511255923131,-0.1151742773391058,12.484545864288538,0.3700498426292922,-0.18554181799999991,0.12209279250000005,-0.03226387850000023
135062.0,-3.816552047,1.1880756474999998,11.83074256,-0.04055447049934024,-0.44754256278414195,-0.12237026984507843,12.48775651558909,0.4657397272327504,-0.13405690550000005,0.07904159899999996,-0.04667965400000007
135072.0,-3.9554142109999995,1.2407373579999998,11.7576830175,-0.06347064357802579,-0.5234853291969193,-0.12050451287469649,12.467070253757516,0.5409128858733018,-0.1388621639999994,0.052661710500000014,-0.07305954249999935
135082.0,-4.1577254004999995,1.368812207,11.569787603499998,-0.12662189190293663,-0.556793192641979,-0.12982980706810218,12.370137935936581,0.5855830783798893,-0.20231118950000004,0.1280748490000001,-0.18789541400000154
135092.0,-4.252359573,1.332919868,11.345901783999999,-0.23240804319556493,-0.5501312708871167,-0.17619447864733156,12.189697477983948,0.6226575367372266,-0.09463417250000017,-0.035892338999999884,-0.22388581949999953
135102.0,-4.198422998,1.1820935909999999,11.102892997,-0.35551309665573294,-0.49284258351965476,-0.24947212729231347,11.928886529381113,0.6569016032251929,0.05393657499999982,-0.15082627700000018,-0.24300878699999906
135112.0,-4.199599796,1.136590735,10.815558152,-0.46876053050063704,-0.4075745229134718,-0.33260914088181137,11.657820340215606,0.7046149780422777,-0.0011767980000003675,-0.045502855999999925,-0.28733484500000017
135122.0,-4.1589021985,1.100698396,10.572549365,-0.5537615557312648,-0.32150710150987544,-0.4088171973408918,11.414324532402565,0.7597040066821116,0.04069759750000035,-0.035892338999999884,-0.24300878699999906
135132.0,-4.185282087,1.0934414749999999,10.4145642335,-0.6049223920949747,-0.23970177413964924,-0.47516588885545624,11.277204821262702,0.8057112776394516,-0.02637988850000017,-0.007256921000000194,-0.15798513150000026
135142.0,-4.182928490999999,1.079123766,10.310417610499998,-0.6171798394317308,-0.1834794829451559,-0.5324545762229181,11.178824185310102,0.8355139439910779,0.002353596000000735,-0.014317708999999956,-0.10414662300000188
135152.0,-4.200874660499999,1.031267314,10.260109496,-0.6001262273104943,-0.1531020273141946,-0.5852141341814546,11.13466241320612,0.8520958293052449,-0.017946169500000053,-0.047856451999999994,-0.05030811449999817
135162.0,-4.290605508,0.9665434239999999,10.199112132999998,-0.5809398228433206,-0.15523481966013164,-0.647300731662649,11.106997349295863,0.8835084403734597,-0.08973084750000027,-0.06472389,-0.060997363000002025
135172.0,-4.3552313315,0.9738003449999999,10.120070534,-0.5662842931143243,-0.18454413378887244,-0.7240411135435876,11.060386732657065,0.9375339844748635,-0.06462582350000012,0.007256920999999972,-0.07904159899999819
135182.0,-4.291782305999999,0.9869412559999998,10.054169845999999,-0.5534945203557098,-0.22717903675658993,-0.811974291917566,10.97632815185047,1.0085974169808696,0.06344902550000064,0.013140910999999922,-0.06590068800000104
135192.0,-4.128991916,1.0480366855,9.9297234575,-0.5367079436100283,-0.2738089983821224,-0.8945772347559535,10.804923094542271,1.0785616409240293,0.16279038999999873,0.06109542950000024,-0.12444638849999912
135202.0,-3.929132389,1.0839290245,9.7106428965,-0.5177885745184098,-0.31591157592798164,-0.9627916832408999,10.531361209444308,1.1379248468264296,0.19985952700000054,0.035892338999999884,-0.21908056100000017
135212.0,-3.743590571,1.1964112999999998,9.4915623355,-0.49540647219083445,-0.32070774071246205,-1.01874868438909,10.273053388877623,1.1773401843078157,0.18554181799999991,0.1124822754999999,-0.21908056100000017
135222.0,-3.5735432599999997,1.2442677519999998,9.302392056999999,-0.4724902991121489,-0.2751424299306461,-1.0629823089516346,10.042555036040142,1.1953584519496137,0.17004731100000026,0.047856451999999994,-0.18917027850000068
135232.0,-3.4645913784999998,1.2227911884999998,9.212661209499998,-0.4597005263535344,-0.19200541634114818,-1.1090799451553086,9.91825278321115,1.2158326276999465,0.1089518814999999,-0.021476563500000045,-0.08973084750000027
135242.0,-3.4024172174999996,1.1568905005,9.1444069255,-0.4660954127328417,-0.0747629238384291,-1.1762279974672865,9.825223487087708,1.2674173466452838,0.06217416100000017,-0.06590068799999971,-0.06825428399999822
135252.0,-3.3688784744999998,1.0515670795,9.103709327999999,-0.4919419936256257,0.04701044340246726,-1.2694914113768556,9.763844479883515,1.362286809170834,0.033538742999999815,-0.10532342100000003,-0.04069759750000124
135262.0,-3.3018009884999997,1.0958931375,9.05938327,-0.5177885745184098,0.16425468123443834,-1.3848681469091926,9.704395744673393,1.4875968514799078,0.06707748600000007,0.044326058,-0.044326057999999335
135272.0,-3.1282232834999997,1.140121129,9.0618349325,-0.5289796256821974,0.2844293268805079,-1.5117047143101245,9.65414467698206,1.6266439775328934,0.17357770500000003,0.0442279914999999,0.0024516625000003955
135282.0,-2.8253939314999994,1.1964112999999998,9.05938327,-0.5465673085545443,0.4019388547587821,-1.635609128567706,9.564866758072514,1.7707365380539732,0.3028293520000003,0.05629017099999989,-0.0024516625000003955
135292.0,-2.4315588674999997,1.184447187,9.0151552785,-0.5929319801337736,0.5159856494010996,-1.7440603976281297,9.412142070770953,1.9129966529055982,0.3938350639999997,-0.011964112999999887,-0.044227991499999675
135302.0,-2.1538345394999996,1.2885938099999998,8.9337600835,-0.6422270595271015,0.6156422043607238,-1.8226665364794503,9.279630728657871,2.0281972840384523,0.27772432800000013,0.10414662299999988,-0.0813951950000007
135312.0,-1.8545355815,1.3580248919999998,8.851090024,-0.6486219459064086,0.685455374440497,-1.8831544123658177,9.144688537249012,2.1063784180136356,0.2992989579999996,0.06943108199999992,-0.08267005949999984
135322.0,-1.5073801715000001,1.3771478595,8.769694829,-0.5926649447582185,0.7299542890493445,-1.9319171663372874,9.004236702916364,2.148578352873241,0.34715540999999983,0.0191229675000002,-0.08139519499999892
135332.0,-1.2320094394999999,1.4681535715,8.792446257,-0.48927687585783036,0.7611311054777191,-1.9625599120145518,8.998912898276025,2.161100143265346,0.2753707320000003,0.09100571200000007,0.022751427999999407
135342.0,-0.8310155209999999,1.5100279669999999,8.93974214,-0.363506704629867,0.7693917488274084,-1.9780148025409616,9.104381406057021,2.153286638268515,0.4009939185,0.04187439549999983,0.14729588299999996
135352.0,-0.5376986195,1.681252076,9.146858587999999,-0.23480612558780514,0.7661925603085027,-1.9822786419035838,9.315618625584447,2.138133197495603,0.2933169014999999,0.17122410900000018,0.20711644799999895
135362.0,-0.26232788749999997,1.8009912725,9.3754515995,-0.13168509206297216,0.7667266310596129,-1.9740179985538946,9.550470050146666,2.121781739214093,0.275370732,0.11973919649999987,0.228593011500001
135372.0,-0.0013729309999999998,1.7817702384999998,9.577762789,-0.07652745171219535,0.7864436156193929,-1.9644256689849335,9.742086383834673,2.1173847596459576,0.26095495649999995,-0.01922103400000008,0.2023111894999996
135382.0,0.12189665949999999,1.7076319645,9.737022784999999,-0.083721698888916,0.8373391619367996,-1.9681554375964456,9.886378428797297,2.1405097573985326,0.12326959049999998,-0.07413827399999984,0.1592599959999994
135392.0,0.265564082,1.5375846535,9.762127808999999,-0.15113678657644897,0.9050195396706356,-1.9854760850932374,9.886042191270395,2.1872398085073965,0.14366742249999997,-0.17004731100000003,0.025105024000000142
135402.0,0.384028414,1.427455974,9.77526872,-0.2430667689374943,0.9774978275182042,-2.008657548218226,9.886404145526223,2.2470622160898386,0.118464332,-0.11012867950000005,0.013140911000000699
135412.0,0.5480936685,1.383129916,9.738199583,-0.3144786606120943,1.026792906911532,-2.0235801133227773,9.85119211833397,2.2908681709560756,0.16406525449999998,-0.044326058,-0.037069136999999586
135422.0,0.612719492,1.3281146094999998,9.728589066,-0.3472524533060438,1.0462446014250089,-2.0406337254440143,9.837924517241369,2.31935293428093,0.06462582350000001,-0.05501530650000008,-0.009610517000000485
135432.0,0.728830228,1.2826117535,9.771738326,-0.3480518141034572,1.0393173896238432,-2.044096458679971,9.882467117237484,2.319407474779545,0.11611073599999999,-0.045502855999999925,0.043149259999999856
135442.0,0.7791383425,1.4143150629999999,9.8040022045,-0.309947785873917,1.0174676127181264,-2.0331724428917384,9.936085893349714,2.2945801697549872,0.050308114500000056,0.13170330949999998,0.03226387850000023
135452.0,0.8102254229999999,1.4646231775,9.954828481499998,-0.22574612144070258,0.9974835927827913,-2.0134537130027064,10.094562713868754,2.2583026111707816,0.031087080499999864,0.05030811450000017,0.1508262769999984
135462.0,0.8030665685,1.3400787225,10.238534866,-0.11623020153656238,0.9615106115699361,-2.0105233051886082,10.357042198342016,2.231639773040745,-0.007158854499999867,-0.12454445500000011,0.2837063845000021
135472.0,0.788650793,1.3269378115000001,10.571372567,0.007408922674715929,0.879707029528962,-2.0331724428917384,10.683475650705068,2.215339597549827,-0.014415775500000061,-0.01314091099999981,0.332837700999999
135482.0,0.8940722805,1.413138265,10.758091183000001,0.12705124289892722,0.7499383089846795,-2.0731422280916605,10.88727931581201,2.2082726696451727,0.10542148750000002,0.08620045349999983,0.18671861600000206
135492.0,1.1633628894999999,1.562787744,10.790453128,0.20672203259396438,0.641755820629063,-2.1043172991907833,10.96492578420061,2.209691342188916,0.2692906089999999,0.14964947900000003,0.032361944999998116
135502.0,1.410000137,1.867970692,10.7162167875,0.22750715865596485,0.5844653879323491,-2.0869983970232435,10.968806549903587,2.1792020572008024,0.24663724750000005,0.3051829480000001,-0.07423634049999883
135512.0,1.6852728025,2.016443373,10.5426390825,0.17981080085746382,0.5759394545363568,-2.0190492385846004,10.865239395393838,2.1072726466277905,0.27527266549999996,0.14847268099999988,-0.17357770500000136
135522.0,1.9091586219999999,2.0679282855,10.2182351005,0.09161058710793037,0.6143087728122001,-1.9063358754908064,10.598751936290336,2.004964897001339,0.22388581949999997,0.05148491249999987,-0.32440398199999976
135532.0,2.0061463905,2.1026438264999996,9.928546659499998,-0.018971728969178363,0.69931154337208,-1.7541850526189489,10.345132825203518,1.8885342888137522,0.09698776850000024,0.03471554099999974,-0.2896884410000009
135542.0,1.74754503,2.1265720525,9.8398945435,-0.11303275834690876,0.8066964162595351,-1.5847153275795514,10.217619436715816,1.7818131725663755,-0.25860136050000015,0.02392822600000022,-0.08865211599999867
135552.0,1.354886764,1.7279317299999999,9.854310319,-0.15939742992613812,0.8932961630849897,-1.472801325283171,10.095984254640706,1.7298928635627373,-0.392658266,-0.3986403224999999,0.014415775499999839
135562.0,0.973015813,1.1928809059999999,9.9968009435,-0.18897377943043406,0.9393937992886641,-1.4680051604986906,10.114630677004966,1.7530576005097491,-0.381870951,-0.535050824,0.1424906245000006
135572.0,0.545642006,0.9905697164999999,10.195483672499998,-0.19057250102526085,0.9274033873274629,-1.540483448346259,10.258013495710202,1.808171500605586,-0.42737380699999994,-0.20231118949999993,0.19868272899999795
135582.0,0.42237241549999993,0.9833127955,10.324735319499998,-0.1311510213118619,0.8312095656037954,-1.6462678543096354,10.380051152518472,1.8488666205207032,-0.12326959050000008,-0.007256920999999972,0.12925164700000025
135592.0,0.5025908124999999,1.146201252,10.394166401499998,-0.025898940770343857,0.6918502608198042,-1.7206118991275858,10.469244004080103,1.8546786368395183,0.080218397,0.16288845650000006,0.06943108199999948
135602.0,0.669009663,1.531602597,10.400148457999999,0.09480803029758397,0.5226458258267099,-1.7235423069416844,10.533587631607963,1.8035368878070819,0.16641885050000005,0.385401345,0.00598205650000061
135612.0,1.0460753555,1.8859168615,10.436138863499998,0.18966842047272778,0.3438508065939069,-1.647601285858159,10.656638796362083,1.6937524860738533,0.3770656925,0.3543142644999999,0.03599040549999977
135622.0,1.3776381919999998,2.064299825,10.359450860499999,0.2304375664700633,0.18210765415308833,-1.4831930156495452,10.65257916594222,1.5119941109056534,0.33156283649999985,0.17838296350000005,-0.07668800299999923
135632.0,1.4351051609999999,2.131377311,10.1356631075,0.20432395020172414,0.0776549344089837,-1.2636288504194064,10.456288189109506,1.2823948054621754,0.057466969000000034,0.06707748600000007,-0.22378775299999987
135642.0,1.281925288,1.8835632654999999,9.8398945435,0.09614146184610764,0.056337482925124964,-1.0528559086315632,10.10023106895857,1.0587363491486632,-0.1531798729999998,-0.2478140455000002,-0.2957685639999994
135652.0,0.950264385,1.5267973384999998,9.557463023499999,-0.017373007374351556,0.07205940882708989,-0.9121649176283004,9.725184417779431,0.9151716870279494,-0.33166090300000006,-0.3567659270000001,-0.28243152000000116
135662.0,0.4894499015,1.067159653,9.413795601,-0.09038362064377836,0.09497383657652345,-0.8407530259537004,9.486724331847974,0.8509141432395199,-0.4608144835,-0.4596376854999997,-0.1436674224999983
135672.0,0.17936362849999998,0.570354764,9.313179371999999,-0.08478809506188452,0.08644790318053114,-0.8748602501961736,9.332351573054483,0.8832002708343364,-0.310086273,-0.4968048890000001,-0.10061622900000167
135682.0,0.0069627215,0.5427980775,9.251005210999999,0.013271483632164882,0.03928387080388837,-0.9811787269106602,9.266918346806424,0.9820545040501364,-0.172400907,-0.027556686499999983,-0.06217416099999973
135692.0,0.0667832865,0.7379504124999999,9.255712402999999,0.17101608675666438,-0.01640784029799869,-1.101885697978588,9.285324060349895,1.1151985520805556,0.059820565,0.19515233499999995,0.004707191999999694
135702.0,0.39481572899999995,0.9905697164999999,9.364664284499998,0.3306281921807978,-0.053712507730125494,-1.1815582330028773,9.425181429792348,1.2281204716672884,0.32803244249999997,0.252619304,0.10895188149999946
135712.0,0.7120608565,1.4729588299999998,9.63405296,0.46945517154293076,-0.0459841898022946,-1.1863543977873576,9.771981110006264,1.276690824338289,0.3172451275,0.4823891134999999,0.2693886755000019
135722.0,0.9874315885,1.9973204054999998,9.927369861499999,0.569111726502555,-0.005749114556069322,-1.1050831411682416,10.174329575515667,1.2430325653236787,0.27537073200000006,0.5243615755,0.293316901499999
135732.0,1.1753270025,2.249841643,10.342681488999999,0.6181415158495797,0.053939400532884756,-0.9500019104822855,10.649612263565553,1.1346858695104367,0.18789541399999998,0.2525212375000001,0.4153116274999995
135742.0,1.1765038005,2.3815449525,10.834681119499999,0.6085474409513668,0.1210874528448626,-0.7674753773087186,11.155547163390011,0.9869197606189036,0.0011767979999999234,0.1317033095000002,0.4919996305000005
135752.0,0.9670337565,2.376739694,11.223808991499999,0.5440645064071844,0.15013147692730025,-0.5934747775311439,11.513380656302557,0.8189981435034553,-0.2094700439999999,-0.004805258500000242,0.38912787199999954
135762.0,0.660575944,2.1828622235,11.451225204999998,0.44494027686941845,0.12428489603451622,-0.4541154727471526,11.676121220688064,0.6477958381707273,-0.30645781250000004,-0.19387747049999993,0.22741621349999974
135772.0,0.24997150849999997,1.948189089,11.575769659999999,0.35620773769802666,0.07472278126563323,-0.3629848511835207,11.74122522154042,0.514028645723894,-0.41060443550000003,-0.23467313449999994,0.12454445500000055
135782.0,-0.15102241,1.610644196,11.681093081,0.3026488189420767,0.011838568316277538,-0.33846995651000833,11.792578940224091,0.4542008044540432,-0.4009939185,-0.337544893,0.10532342100000136
135792.0,-0.4563034245,1.3149736984999998,11.751700961,0.29518753638980094,-0.09634566536859097,-0.3683150867191114,11.833843167784735,0.4817407725946633,-0.3052810145,-0.2956704975000002,0.07060787999999896
135802.0,-0.6549861535,1.1568905005,11.788770098,0.33515732158972306,-0.2564900962145827,-0.4226733662724748,11.863494549032456,0.5973025818021119,-0.198682729,-0.1580831979999997,0.03706913700000136
135812.0,-0.680189244,1.009692684,11.707374903,0.4081679348591499,-0.441681747155945,-0.4796950182643815,11.770503975751025,0.7692796236516191,-0.025203090500000025,-0.14719781650000008,-0.0813951950000007
135822.0,-0.601147645,1.1533601065,11.5733179975,0.5011643133931638,-0.6148812408068542,-0.544179698137816,11.646171366488309,0.9619647359339023,0.07904159900000007,0.14366742250000009,-0.1340569054999996
135832.0,-0.395207995,1.5064975729999999,11.436907495999998,0.578971091447071,-0.7595707811264363,-0.5889456481222186,11.542468426156848,1.1220571610727046,0.20593964999999997,0.3531374664999998,-0.1364105015000021
135842.0,-0.10081236199999999,1.948189089,11.399740292499999,0.6327970455785761,-0.8557646028501037,-0.5822837263673563,11.565452113742836,1.2131856800904073,0.294395633,0.4416915160000001,-0.037167203499999246
135852.0,0.218884428,2.549140601,11.371006808,0.6437210613668086,-0.8978654350667109,-0.5186001526205871,11.65529167477459,1.220444698719627,0.31969678999999995,0.600951512,-0.02873348449999824
135862.0,0.554075725,2.9836732625,11.3399197275,0.5904291779864137,-0.8757486227854387,-0.38803207127889133,11.73895589362765,1.1252160471968444,0.33519129700000005,0.43453266150000003,-0.031087080500000752
135872.0,0.8425873679999999,3.2158947345,11.355512301,0.46599069297772205,-0.7712959030413341,-0.20017704789898566,11.832142326487638,0.9231010489083833,0.2885116429999999,0.23222147199999998,0.015592573499999318
135882.0,0.983803128,3.287777479,11.337468064999998,0.283464159804155,-0.6098197859760708,-0.00352731041828054,11.845485700087481,0.6724912959884041,0.14121576000000013,0.07188274449999987,-0.01804423600000149
135892.0,0.902407933,3.2482566795,11.284806354499999,0.08521570072862314,-0.4259598212539801,0.17073857940559728,11.777621406380037,0.4667495554050741,-0.08139519500000003,-0.03952079949999998,-0.052661710499998904
135902.0,0.624683605,3.079484233,11.165165224499999,-0.10130763643201086,-0.2634173080157482,0.313030037332939,11.59889508694839,0.4214732727402359,-0.277724328,-0.16877244649999978,-0.11964112999999976
