timestamp,ax,ay,az,gx,gy,gz,acc_mag,gyro_mag,dax,day,daz
42942.0,-6.4663088769999995,0.34725347649999994,10.7407334125,0.49223346361070874,0.052256903133962224,0.628508771606426,12.541813653060876,0.8000299010721823,0.0,0.0,0.0
42952.0,-6.339410826,-0.13160524299999998,10.9694244905,0.5409944722529264,-0.03460987906704756,0.5842751470438817,12.670190338490274,0.7970259156328655,0.1268980509999995,-0.4788587194999999,0.22869107800000066
42962.0,-6.3920725365,0.004903325,11.1322148805,0.5593815159226866,-0.07564606043993823,0.5288522166468018,12.836854112285424,0.7735080309009607,-0.05266171049999979,0.136508568,0.16279038999999962
42972.0,-6.501024417999999,0.22996594249999996,11.266271786,0.5252742916802134,-0.09802816276751351,0.49634371399915544,13.009422845543988,0.7293008190192847,-0.10895188149999946,0.22506261749999995,0.13405690550000138
42982.0,-6.469839271,0.2442836515,11.3536490375,0.4456017566559242,-0.10442304914682073,0.4728952154986116,13.06995949349839,0.6580995240610975,0.031185146999999525,0.01431770900000004,0.08737725149999953
42992.0,-6.418354358499999,0.2442836515,11.3320744075,0.34274775850664646,-0.10895392388499803,0.4422507244920951,13.025776658256605,0.5700286719148883,0.05148491250000031,0.0,-0.021574629999999928
43002.0,-6.4447342469999995,0.3160683295,11.347666981,0.24042608577922686,-0.07884350362959185,0.40094925307290136,13.053890018498134,0.47411106750151605,-0.02637988850000017,0.07178467800000002,0.015592573499999318
43012.0,-6.542898813499999,0.356765927,11.350118643499998,0.15382459362452022,-0.010094984393535202,0.34978841670919153,13.105800243857454,0.3822510311007382,-0.0981645664999995,0.04069759749999996,0.002451662499998619
43022.0,-6.6505758305,0.353235533,11.4015054895,0.08561014513957386,0.07410668003967924,0.2717146032797292,13.204138050100171,0.2943632494262538,-0.10767701700000121,-0.0035303939999999923,0.05138684600000154
43032.0,-6.7307942275,0.2334963365,11.5152626295,0.0315189009617656,0.12606687720080242,0.17392380529048693,13.34014186200677,0.21710778127861516,-0.08021839699999944,-0.11973919649999998,0.11375714000000059
43042.0,-6.6374349195,0.09228057649999999,11.612250398,-0.01617745683673544,0.11434175528590451,0.06680596777858695,13.375665116967017,0.1334120850687812,0.09335930799999925,-0.14121576000000002,0.09698776850000002
43052.0,-6.562021780999999,0.044326057999999995,11.5703760025,-0.06307445383782308,0.037334338029410705,-0.037646751965517686,13.30171776474618,0.08239852824284659,0.07541313850000098,-0.047954518499999994,-0.041874395500000716
43062.0,-6.420806021,-0.0058839899999999995,11.378852128,-0.0998467958480916,-0.08204094681924545,-0.11492120459756663,13.065414663589452,0.17293635494679688,0.1412157599999997,-0.05021004799999999,-0.19152387449999964
43072.0,-6.161027862499999,-0.11483587149999999,11.067589057,-0.11503465099894626,-0.18302918799814136,-0.16102058613049286,12.667398278040784,0.26955571547922297,0.2597781585000005,-0.10895188149999999,-0.31126307100000083
43082.0,-5.920372671499999,-0.144746154,10.6677719365,-0.1169004079693282,-0.2403196206948552,-0.18686716702327688,12.201357387918721,0.32609594230167865,0.2406551910000001,-0.029910282499999996,-0.39981712049999985
43092.0,-5.715707886,-0.19985952699999998,10.297865098499999,-0.12063192191009207,-0.24351706388450883,-0.1972588573896511,11.779443367813252,0.335803034240796,0.20466478549999945,-0.05511337299999999,-0.36990683800000035
43102.0,-5.508591438,-0.272821003,10.030830019,-0.13208826312018285,-0.1891587843311454,-0.20072333595485986,11.447120240504,0.3058074762666717,0.20711644799999984,-0.07296147600000003,-0.2670350794999994
43112.0,-5.3757113305,-0.41531162749999995,9.841757806999999,-0.14381338503508076,-0.10202496675458053,-0.21138031636753724,11.221896131601298,0.27526899880691574,0.13288010750000012,-0.14249062449999994,-0.18907221200000102
43122.0,-5.2823520225,-0.584084074,9.765069804,-0.14834251444400604,-0.025816910295500123,-0.23536288561919133,11.117598003710283,0.27940598128130434,0.09335930800000014,-0.1687724465,-0.07668800299999923
43132.0,-5.230867109999999,-0.7134337874999999,9.707602835,-0.13981658104801373,0.02028072590817411,-0.27906243943062536,11.050272000893298,0.3127871948790259,0.05148491250000031,-0.1293497134999999,-0.057466969000000034
43142.0,-5.1075975195,-0.8534727495,9.698090384499999,-0.11903320031526526,0.04905945994430861,-0.3376845583466109,10.994040442952398,0.36139534354093017,0.12326959049999964,-0.1400389620000001,-0.009512450500000824
43152.0,-5.014140145,-0.8833830319999999,9.647782269999999,-0.09451830564175291,0.07623772705636431,-0.3976383634818681,10.908788645136198,0.41576696506654637,0.0934573744999998,-0.02991028249999994,-0.050308114499999945
43162.0,-4.8298731915,-0.882206234,9.519707421,-0.07932870516164628,0.11833855927297153,-0.4586585647900938,10.71124606508138,0.48027568867134496,0.18426695349999989,0.0011767979999999234,-0.128074848999999
43172.0,-4.653843824,-0.9240806294999999,9.440665822,-0.07693062276940606,0.18149155292713434,-0.5135491697653155,10.565905475191371,0.5500820432174062,0.17602936749999998,-0.04187439549999994,-0.07904159899999996
43182.0,-4.501840749,-0.9528141139999999,9.4227196525,-0.08092742675647308,0.25396809544545085,-0.5665757630994073,10.486280108542028,0.6261446615897077,0.15200307499999965,-0.028733484500000017,-0.017946169500000053
43192.0,-4.297077897,-1.0150863415,9.435860563499999,-0.08306021910241015,0.3229819047278107,-0.6190682856823887,10.417808949457669,0.7031798156351451,0.204762852,-0.062272227500000055,0.013140910999998923
43202.0,-4.1415444279999996,-1.0629427935,9.439489023999998,-0.09078679170098904,0.3688142508851817,-0.6654329572616181,10.362730849808262,0.7662031152464072,0.15553346900000076,-0.047856451999999994,0.003628460499999875
43212.0,-4.030140884,-1.031855713,9.4705761045,-0.09185318787395758,0.3903969924153436,-0.7112653034189891,10.344011480487898,0.8165446415581091,0.11140354399999985,0.031087080500000086,0.031087080500000752
43222.0,-3.8949071805,-1.0533322765,9.499309589,-0.0702704463437957,0.3999893219843045,-0.7608274181878721,10.32069249116039,0.8624313036974267,0.13523370349999952,-0.021476563500000045,0.028733484500000017
43232.0,-3.7201526775,-1.0964815365,9.440665822,-0.04415683007545653,0.3925297847612807,-0.8215805841205427,10.206271545793536,0.9116052400962285,0.1747545030000004,-0.04314926000000008,-0.058643766999999514
43242.0,-3.5489285684999996,-1.1551253035,9.4778330255,-0.02257234321604266,0.3730780902478039,-0.8881963110106622,10.186192974333439,0.9636334671409873,0.17122410900000018,-0.05864376699999996,0.03716720350000102
43252.0,-3.24011716,-1.196999699,9.456258395499999,-0.004187044875534397,0.3440323208361143,-0.9620062850775024,10.067372563504183,1.0216809001118154,0.30881140849999955,-0.04187439550000005,-0.021574630000001704
43262.0,-2.8330431184999996,-1.1755231355,9.3293603445,-0.008716174284459682,0.3413689483975709,-1.0366156199417562,9.820639102976196,1.0914122384009866,0.4070740415000005,0.021476563500000045,-0.1268980509999995
43272.0,-2.4847109104999996,-1.1204097625,9.190498180499999,-0.04229107310507459,0.3717446586992802,-1.096302389701458,9.586154763534585,1.1583874808547228,0.348332208,0.055113372999999966,-0.13886216400000073
43282.0,-2.1734478394999996,-1.0605891975,9.0073099585,-0.082793183726855,0.4311661384126792,-1.1461315398458962,9.326326052919992,1.227345288341816,0.31126307099999995,0.0598205650000001,-0.1831882219999983
43292.0,-1.9628009974999998,-1.0198915999999998,8.9355252805,-0.10943912541705245,0.5129697204536534,-1.187165975889535,9.20523648093802,1.2978743816656912,0.21064684199999983,0.04069759750000013,-0.07178467800000021
43302.0,-1.7628434039999998,-1.054607141,8.989363789,-0.10171255281847355,0.5670627099607136,-1.222871921726835,9.221088570220923,1.3517844862908885,0.19995759349999997,-0.03471554100000018,0.05383850850000016
43312.0,-1.5797532485,-1.1084456495,9.100767332999999,-0.059877010648169464,0.5476110154472369,-1.2409919300210401,9.303130555541058,1.3577643576926968,0.18309015549999974,-0.05383850849999994,0.11140354399999808
43322.0,-1.1834665219999998,-1.1539485054999998,9.2012854955,0.0027401669256310974,0.4588784762758451,-1.2479208871514578,9.348574486612339,1.3296178041425675,0.3962867265000003,-0.045502855999999925,0.100518162500002
43332.0,-0.697448948,-1.1790535295,9.1893213825,0.0634950781875537,0.3794729766271111,-1.246322165556631,9.29086808276624,1.3043581967013715,0.4860175739999998,-0.025105024000000142,-0.01196411300000122
43342.0,-0.3095959405,-1.16110736,9.0516360165,0.09493718466223156,0.3506942425909766,-1.2311325650765241,9.131053308519245,1.2836225744392122,0.3878530075,0.017946169500000053,-0.13768536599999948
43352.0,-0.03187161249999999,-1.173071473,8.964258765,0.10026567486857024,0.3738774510452173,-1.1962259800366377,9.040743757364716,1.2572963649321243,0.277724328,-0.01196411300000011,-0.08737725149999953
43362.0,0.1034601575,-1.2341669024999997,8.943860933,0.10186439646339705,0.4181093302785096,-1.1602547441530344,9.029203748739974,1.237490540837553,0.13533177,-0.06109542949999969,-0.02039783200000045
43372.0,0.1752448355,-1.32389775,9.0767410405,0.12078376555501558,0.4410255033571951,-1.1392043280447308,9.174456055871733,1.2275498823546696,0.071784678,-0.08973084750000027,0.13288010750000012
43382.0,0.332053169,-1.3502776385,9.2120728105,0.16554971553941816,0.4439559111712936,-1.1328076963361717,9.316426056918472,1.227907503135957,0.15680833349999998,-0.02637988849999995,0.13533177000000052
43392.0,0.5127897285,-1.2401489589999999,9.380845256999999,0.21617822648126966,0.4508848683017111,-1.1269468807079746,9.476348478287576,1.2328988044464446,0.18073655950000006,0.11012867950000005,0.16877244649999845
43402.0,0.7163757825,-1.126391819,9.581979648499999,0.2593437095415934,0.460477197870672,-1.109893268586738,9.67451739240417,1.2292930802261002,0.20358605399999996,0.11375713999999992,0.20113439150000012
43412.0,0.909076455,-0.9875296549999999,9.876473348,0.306242451871933,0.4777978453674637,-1.0728538912009145,9.967264449902697,1.2137094760408143,0.1927006725,0.13886216400000007,0.29449369950000026
43422.0,1.0311692474999998,-0.8318981194999999,10.2762904685,0.35393880967043406,0.4868561041853142,-1.0227594510101732,10.361346934216675,1.1867343602525613,0.12209279249999982,0.15563153549999997,0.39981712049999985
43432.0,1.0647079904999999,-0.6882306970000001,10.791041526999999,0.3960396418870413,0.4652733626551524,-0.9620062850775024,10.86525847988745,1.1396415192818599,0.03353874300000004,0.14366742249999986,0.5147510584999999
43442.0,1.1245285555,-0.5098477335,11.2973588665,0.43254494852175474,0.4026544397520998,-0.891659044246619,11.364630506179079,1.0697109803729972,0.0598205650000001,0.17838296350000005,0.5063173395000007
43452.0,1.2945758664999998,-0.338721691,11.720025481499999,0.44906623522113304,0.32697870871487766,-0.8167844193360623,11.796171257873777,0.9877815280914496,0.1700473109999998,0.17112604250000002,0.4226666149999989
43462.0,1.4058813439999998,-0.1364105015,11.931849121499999,0.4242843051720655,0.26089705257586837,-0.7336474057465644,12.015162655435299,0.8867485323454345,0.11130547749999997,0.2023111895,0.21182364000000042
43472.0,1.4010760855,0.07904159899999999,11.996474945,0.3707253864161155,0.20360661987915452,-0.6350572469599087,12.078272760529346,0.7630142034774262,-0.004805258499999798,0.2154521005,0.06462582350000012
43482.0,1.464525111,0.217903763,12.088657454999998,0.3177005384112758,0.160973462240689,-0.5215427777394496,12.178996465842584,0.6315480636220413,0.06344902549999998,0.138862164,0.09218250999999889
43492.0,1.4250043115,0.31371473349999995,12.226342821,0.27746371783579854,0.14898305027948797,-0.39817068890372637,12.31310330495228,0.5076632362973629,-0.03952079949999998,0.09581097049999995,0.13768536600000125
43502.0,1.335273464,0.25144250599999995,12.3927616715,0.236694571838463,0.10821390428215241,-0.2793294748061805,12.46702532299047,0.3817846577761825,-0.08973084750000004,-0.0622722275,0.16641885050000127
43892.0,-5.545660574999999,0.7530526535,10.15772807,0.10133207104153878,0.5156348382214487,0.9304105896286491,11.597451403481656,1.0685557263439083,-6.880934039,0.5016101475,-2.2350336015000014
43902.0,-5.716884684,-0.21662889849999997,10.433098801999998,0.045642105268903714,0.47060185286149103,0.9050963341577234,11.898707878677957,1.0211506645915653,-0.17122410900000062,-0.969681552,0.27537073199999895
43912.0,-6.0580580374999995,-0.259680092,11.023262999,0.030719540164352195,0.3581555251432524,0.8512703800262182,12.580931129333074,0.924056454037593,-0.34117335349999944,-0.0430511935,0.5901641970000018
43922.0,-6.448264641,-0.178284897,11.425531781999998,0.08001461955768004,0.17909347053489413,0.7995772182406502,13.120772800653215,0.8232864255292016,-0.39020660350000025,0.08139519499999998,0.40226878299999846
43932.0,-6.568003837499999,-0.117287534,11.6074451395,0.161285876176796,-0.05645965597276457,0.7593421429944249,13.33736156222619,0.7783323947607765,-0.11973919649999942,0.060997363,0.18191335750000093
43942.0,-6.5344650945,-0.10522535449999999,11.5750831945,0.2468209721585341,-0.26696556238505265,0.7273659657686368,13.292586558155822,0.8131743060103369,0.03353874299999937,0.012062179500000006,-0.03236194499999989
43952.0,-6.448264641,-0.11120741099999999,11.414744467,0.30464373027710623,-0.39406741983228766,0.6844657727546162,13.110639771404722,0.8465165845055846,0.08620045350000005,-0.005982056499999999,-0.16033872749999922
43962.0,-6.411195503999999,-0.133958839,11.205176356499999,0.325959436431713,-0.4273752832773475,0.6269100500115992,12.910358242176033,0.8257816889231795,0.037069137000000474,-0.022751428000000004,-0.20956811050000113
43972.0,-6.432770133999999,-0.145922952,11.0986761375,0.32036391084981913,-0.37861252930587797,0.54723751498731,12.828968668989518,0.7385454491985388,-0.021574629999999928,-0.011964112999999998,-0.10650021899999906
43982.0,-6.499749553499999,-0.145922952,11.0280682575,0.28545732580993255,-0.2960095864674903,0.44997904241992603,12.80180953061804,0.6095807565502427,-0.06697941949999997,0.0,-0.07060788000000073
43992.0,-6.5297579025,-0.0812971285,11.073571113499998,0.21564415573015938,-0.2176704829917248,0.34312649495432923,12.85567286041867,0.4600202523868567,-0.030008349000000933,0.0646258235,0.045502855999998815
44002.0,-6.535739959,-0.0812971285,11.044837629,0.12291481257170067,-0.15585092088608565,0.23787441441281118,12.833976168193004,0.30980929250559136,-0.005982056499999722,0.0,-0.02873348449999824
44012.0,-6.474644529499999,-0.16867437999999998,10.966972828,0.05283635244562434,-0.13080370079071504,0.14221466344025396,12.736717231686624,0.20031549809670204,0.0610954295000008,-0.08737725149999999,-0.07786480100000048
44022.0,-6.4387521905,-0.21417723599999997,10.825757068,0.015264649637942407,-0.12574050063067949,0.06627189702747668,12.597635403298554,0.14295330483428326,0.03589233899999922,-0.04550285599999998,-0.1412157599999997
44032.0,-6.396877795,-0.2764494635,10.685718106,0.009936159431603718,-0.13026963003960476,0.009782570457428218,12.457168268548422,0.13101374912451091,0.04187439549999983,-0.06227222750000003,-0.1400389620000002
44042.0,-6.307048881,-0.350685804,10.490565770999998,0.02619041075542691,-0.14785731291195164,-0.030187214742493924,12.245563127767022,0.15316328062231563,0.08982891399999993,-0.0742363405,-0.1951523350000013
44052.0,-6.189761346999999,-0.4176652235,10.339739494,0.04830547770744706,-0.16970708981766863,-0.06269571739014031,12.058101118149569,0.18725562338683252,0.1172875340000008,-0.06697941950000003,-0.1508262769999984
44062.0,-6.073650611,-0.45002716849999996,10.1864615545,0.06855653301833727,-0.1851619803440784,-0.09253910226999135,11.868266731001428,0.21805605387920593,0.11611073599999955,-0.03236194499999995,-0.15327793950000057
44072.0,-5.915567413,-0.43325779699999994,10.040440536,0.07601781557061303,-0.1710387760369403,-0.1263792911369094,11.661564916140575,0.22584219362335742,0.15808319799999992,0.01676937150000002,-0.14602101849999904
44082.0,-5.7444413705,-0.4045243125,9.948258026,0.06882356839389239,-0.11614817106171864,-0.16421802932014648,11.494785092831831,0.21259031577483375,0.17112604250000008,0.02873348449999996,-0.09218251000000066
44092.0,-5.637843084999999,-0.35784465849999997,9.942275969499999,0.052569317070069205,-0.03274586742591761,-0.20312141834710007,11.43512915993503,0.2123537979929412,0.1065982855000005,0.046679654000000015,-0.00598205650000061
44102.0,-5.580376115999999,-0.3207755215,10.017689107999999,0.02965314399138366,0.0543879501506473,-0.24788736833150263,11.471599260598264,0.2555102844280071,0.057466969000000034,0.037069136999999974,0.07541313850000009
44112.0,-5.448770873,-0.33156283649999996,10.099084303,-0.0025883232807075904,0.12553280644969214,-0.2998458201633738,11.480006171605575,0.3250733775349615,0.1316052429999992,-0.010787314999999964,0.0813951950000007
44122.0,-5.311085507,-0.372260434,10.1278177875,-0.04761956331141329,0.17136515260706325,-0.35287241349746556,11.441979733865494,0.3951614588311189,0.13768536600000036,-0.040697597500000016,0.028733484500000017
44132.0,-5.153002309,-0.350685804,10.077509673,-0.09531766643916631,0.19721173349984727,-0.3957726065114862,11.323984040040635,0.45234265930853645,0.15808319799999992,0.021574629999999984,-0.050308114499999945
44142.0,-4.998645637999999,-0.376967626,9.9650273975,-0.12729209833570243,0.22652279295784003,-0.4258830267668923,11.154834550017949,0.4988909765833174,0.1543566710000004,-0.02628182200000001,-0.11248227549999967
44152.0,-4.839385642,-0.446398708,9.884809000499999,-0.13608506710724988,0.2688906605500024,-0.4495985606429913,11.014915985828743,0.5412579778191272,0.1592599959999994,-0.06943108199999998,-0.08021839700000122
44162.0,-4.6837541064999995,-0.5074941374999999,9.796254951,-0.12489401594346222,0.30592829260657406,-0.47571217691133044,10.870221428045728,0.5792173259644228,0.15563153550000042,-0.061095429499999965,-0.08855404949999901
44172.0,-4.524592177,-0.556625454,9.687303069499999,-0.10251191361588695,0.3360387128619802,-0.5058225971667366,10.706334901568995,0.6158629789000393,0.15916192949999974,-0.04913131650000002,-0.10895188150000124
44182.0,-4.3138472685,-0.5948713889999999,9.6286593025,-0.0819938229294416,0.3685472155096266,-0.5282046994943119,10.567602859164205,0.6492690055950308,0.21074490849999972,-0.03824593499999995,-0.058643766999999514
44192.0,-4.196559734499999,-0.6260565359999999,9.591492099,-0.05721363820962611,0.3856008276308632,-0.5465917431640721,10.488078044936282,0.6713597637347115,0.1172875340000008,-0.03118514699999997,-0.037167203499999246
44202.0,-4.085254257,-0.734910351,9.574820793999999,-0.009515535081873085,0.37973826667341426,-0.5617795983149269,10.435831965184105,0.6781504358672226,0.1113054774999993,-0.10885381500000013,-0.016671305000000913
44212.0,-3.9870896904999995,-0.8797545714999999,9.62620764,0.05630083101083308,0.34323296003870085,-0.5828300144232305,10.456324681003403,0.6787263617556207,0.09816456650000038,-0.1448442204999999,0.05138684600000154
44222.0,-3.8721557524999994,-0.9875296549999999,9.672887293999999,0.1365056914569805,0.27555258230486473,-0.6102753169108412,10.465827898143074,0.6833732449003658,0.11493393800000007,-0.10777508349999998,0.046679653999998294
44232.0,-3.63630582,-1.0031222285,9.640623415499999,0.21378014408902943,0.20653877302250498,-0.6433161449803458,10.352323123886906,0.7086719108026939,0.23584993249999942,-0.015592573500000206,-0.03226387850000023
44242.0,-3.383686516,-0.9803708005,9.540105253,0.24948608992632942,0.17056579180964984,-0.675292322206134,10.169762513616108,0.7398349267457806,0.252619304,0.022751428000000073,-0.10051816249999845
44252.0,-3.162252359,-0.974388744,9.541282051,0.24229009742035681,0.18042515675416582,-0.7099318718704655,10.098778964962532,0.7715315879438989,0.22143415700000002,0.005982056500000055,0.0011767979999994793
44262.0,-3.024566993,-1.0294040505,9.446647878499999,0.20098862600116302,0.22039494195408796,-0.744573166864049,9.972303361545887,0.8020969760787906,0.13768536599999992,-0.05501530649999997,-0.09463417250000106
44272.0,-2.8390251749999997,-1.1000119305,9.368881144,0.14290057783628773,0.2579648994325179,-0.7949346424303453,9.85119404346117,0.8478723667044674,0.18554181800000036,-0.07060788000000007,-0.07776673449999905
44282.0,-2.712127124,-1.2496614094999998,9.336519199,0.09546951008408983,0.30566300256027096,-0.8567524592067324,9.802442447085605,0.9146415007239941,0.12689805099999996,-0.1496494789999998,-0.03236194499999989
44292.0,-2.6127857595,-1.4004876864999998,9.323378287999999,0.07335444313206967,0.34243359924128747,-0.9340269118387814,9.783322435974085,0.9975208851225369,0.09934136449999986,-0.15082627699999995,-0.013140911000000699
44302.0,-2.294363834,-1.5585708844999997,9.2383546325,0.06269571739014031,0.375209137264489,-1.0291543373894803,9.645747504502308,1.097210690721434,0.31842192550000004,-0.15808319799999992,-0.0850236554999988
44312.0,-1.9890828194999999,-1.6375144169999998,9.093510411999999,0.03498337952697434,0.4322325345856477,-1.1280115315516912,9.451446214303148,1.2084944419032524,0.3052810145,-0.07894353250000008,-0.14484422050000134
44322.0,-1.7772591795,-1.6423196755,8.981028136499999,0.003274237676741362,0.4929857005183183,-1.2058183096055985,9.301329501542028,1.3027061899476813,0.21182363999999998,-0.004805258500000242,-0.11248227549999967
44332.0,-1.4899243345,-1.6782120145,8.869722659,-0.012447688225223557,0.5609331136277096,-1.2780295620776119,9.149221285755715,1.3957651895825893,0.28733484499999995,-0.035892338999999884,-0.11130547749999842
44342.0,-1.2229873215,-1.668699564,8.83971431,0.008070402461221779,0.6278158758933843,-1.3251935944542546,9.07859049114246,1.4664092089871268,0.26693701299999995,0.009512450499999936,-0.030008349000000933
44352.0,-1.0397990995,-1.5680833349999999,8.985833395,0.05630083101083308,0.6677839157640545,-1.3393167987613928,9.1807009163529,1.497622993002628,0.18318822200000007,0.10061622900000011,0.14611908500000048
44362.0,-0.873380249,-1.4627599139999998,9.1761804715,0.1093256790156728,0.6563275745539636,-1.317999347277534,9.332992428524014,1.476428213167214,0.16641885049999994,0.10532342100000003,0.19034707650000016
44372.0,-0.6459640354999999,-1.2748645,9.398791426499999,0.15489098979748875,0.6094288322236241,-1.2673725816649344,9.506830665756574,1.4147890235020686,0.22741621350000008,0.18789541399999976,0.2226109549999986
44382.0,-0.361080853,-1.0988351324999999,9.5735459295,0.18260332766065474,0.5726582355426074,-1.2023555763696416,9.643163365569698,1.344224818263184,0.28488318249999994,0.1760293675000002,0.17475450300000084
44392.0,-0.0785512665,-0.9755655419999999,9.692108328,0.18953053946182022,0.5689267216018435,-1.1320083355387582,9.741399399978087,1.2810317371831739,0.2825295865,0.12326959049999997,0.11856239849999994
44402.0,0.0136312435,-0.8893650885000001,9.870491291499999,0.19299501802702898,0.5801177727656313,-1.0613958046615715,9.910487092318888,1.2248856115633797,0.09218251,0.08620045349999983,0.17838296349999894
44412.0,0.1285651815,-0.9097629205,10.144587158999999,0.22523648529912021,0.5745222471837375,-1.0115683998463854,10.186110455122627,1.184937936934559,0.11493393799999999,-0.020397831999999894,0.2740958674999998
44422.0,0.3931485985,-0.8774009754999998,10.618640619999999,0.2966483769737202,0.5697260823992569,-0.9939807169740386,10.662078920596342,1.1834634486300668,0.264583417,0.032361945000000114,0.47405346100000045
44432.0,0.6684212639999999,-0.7756079484999999,11.087888822499998,0.35367177429487895,0.5705254431966703,-1.0054388035133814,11.135063233590735,1.2089210862906086,0.2752726654999999,0.10179302699999992,0.4692482024999993
44442.0,0.8468042275,-0.46797333799999996,11.478193492499999,0.3574032882356428,0.5763880041541194,-1.0049064780915231,11.518897616354616,1.212351958584935,0.17838296350000005,0.30763461049999996,0.3903046700000008
44452.0,0.9665434239999999,-0.142392558,11.948618493,0.32995624041878,0.5675950353825719,-0.9723979754438767,11.988493054688442,1.1732830295498138,0.11973919649999998,0.32558077999999996,0.4704250005000006
44462.0,1.0203819324999999,0.1424906245,12.275474137499998,0.2838586042151058,0.5153678028458937,-0.895390558187383,12.318634184302827,1.0714027865785423,0.05383850849999994,0.2848831825,0.3268556444999984
44472.0,1.06107953,0.27066354,12.504067149,0.22710224226950218,0.39279507480758385,-0.7808114381232072,12.551925899541128,0.903066941672079,0.04069759750000013,0.12817291549999998,0.22859301150000277
44862.0,-4.2085238474999995,-0.592517793,9.8273420315,0.19192862185406045,-0.14092835578153415,0.9924954417805915,10.706979112433364,1.0206589044854,-5.269603377499999,-0.863181333,-2.6767251175
44872.0,-4.492230232,-0.6834254384999999,9.325731884,0.17967291984655626,-0.1081545630875846,0.9853011946038709,10.373836221935349,1.007371933166032,-0.2837063845000003,-0.09090764549999997,-0.501610147500001
44882.0,-4.407304643,-0.6260565359999999,9.586784907,0.16528268016386302,-0.08257327224110372,0.9861005554012843,10.569897154445766,1.0032601930772866,0.08492558900000002,0.05736890250000004,0.26105302300000055
44892.0,-4.658649082499999,-0.549368533,9.737611183999999,0.183135653082513,-0.02821499268774033,0.9693139786556028,10.80860252899007,0.9868659191903842,-0.2513444394999995,0.0766880029999999,0.1508262769999984
44902.0,-4.909993522,-0.5278919695,9.891967854999999,0.19885757898447795,0.020547761283729243,0.9490629233447125,11.056117508506222,0.9698901894961887,-0.2513444395000004,0.021476563500000045,0.1543566710000004
44912.0,-4.9818762665,-0.5900661305,10.0093534555,0.19112926105664704,0.049858820741722015,0.9058956949551369,11.196179070120708,0.9271802988502644,-0.07188274449999987,-0.06217416100000006,0.11738560050000046
44922.0,-5.113579576,-0.6020302435,10.120658933,0.16741547250980007,0.058384754137714316,0.8472735760391513,11.355125438861771,0.8656264971715991,-0.13170330950000064,-0.011964112999999998,0.1113054775000002
44932.0,-5.336190530999999,-0.51582979,10.077509673,0.14689738182335477,0.04346393436241479,0.8062391399955126,11.414780373042403,0.8206640635713985,-0.2226109549999986,0.08620045350000005,-0.043149259999999856
44942.0,-5.667851434,-0.44169151599999995,10.01651231,0.14769674262076815,0.03466922026161536,0.7969121004728549,11.517384691395169,0.8112244932781502,-0.3316609030000013,0.074138274,-0.06099736300000025
44952.0,-6.167009918999999,-0.35303939999999995,10.082314931500001,0.1887311786644068,0.036267941856442165,0.8025093713840008,11.824116141891732,0.8252006498820167,-0.4991584849999988,0.088652116,0.06580262150000138
44962.0,-6.5872248715,-0.29920089149999995,10.318164864,0.27213522762945985,0.019481365110760707,0.7878538416550044,12.245226777886424,0.8337570278648723,-0.4202149525000012,0.05383850849999999,0.23584993249999897
44972.0,-6.930751821,-0.395011862,10.6461973065,0.39817068890372637,-0.0194220239161929,0.7412221347002198,12.709558303274877,0.8416218660922612,-0.3435269495000002,-0.09581097050000004,0.32803244249999963
44982.0,-7.167778551499999,-0.36147311899999995,11.054350079499999,0.5274053386968985,-0.10282432755199393,0.6559540740940368,13.179771161110676,0.8479416141121245,-0.23702673049999845,0.03353874300000004,0.4081527729999994
44992.0,-7.2395632295,-0.258503294,11.3512954415,0.5977525795277819,-0.2051460002794135,0.5261870988790064,13.465883109070715,0.8223538719976112,-0.0717846780000011,0.10296982499999996,0.29694536200000066
45002.0,-7.216811801499999,-0.10885381499999999,11.462600919,0.590024261599951,-0.29654365721860054,0.37243755441232196,13.545679811643613,0.7581401597658454,0.022751428000001184,0.149649479,0.1113054775000002
45012.0,-7.111488380499999,0.076688003,11.454265266499998,0.5170136483305242,-0.35676275240016087,0.21575760213153902,13.482556909990734,0.6641792807199942,0.10532342099999958,0.185541818,-0.008335652500001345
45022.0,-6.922318101999999,0.23830159499999998,11.3536490375,0.3976383634818681,-0.36395874490613356,0.07533190117457926,13.299647439770014,0.5442950775459603,0.1891702784999998,0.16161359199999997,-0.10061622899999811
45032.0,-6.7535456555,0.33881975749999993,11.164478759,0.272400517675763,-0.3234548889551011,-0.027789132350253716,13.052615205741624,0.42378926732016275,0.16877244649999934,0.10051816249999995,-0.18917027850000068
45042.0,-6.617135154,0.4058972435,10.952655119,0.1535593035782171,-0.2635010838198439,-0.11918504396018878,12.802807675441368,0.3274421408332342,0.13641050150000034,0.06707748600000007,-0.21182364000000042
45052.0,-6.502201216,0.40472044549999997,10.7982003815,0.0813480511062037,-0.20914280426648052,-0.1900646102129305,12.611246995098634,0.2940795369464154,0.11493393800000007,-0.0011767980000000344,-0.15445473750000005
45062.0,-6.3812852215,0.34480181399999993,10.639038452,0.052569317070069205,-0.17903238401107432,-0.23536288561919133,12.410835127105933,0.30035281844673073,0.12091599449999979,-0.05991863150000004,-0.15916192949999974
45072.0,-6.181327627999999,0.2993970245,10.534891829,0.052036991648210934,-0.17423621922659394,-0.26760435289128254,12.218117517510073,0.32354010304216657,0.19995759350000064,-0.04540478949999993,-0.1041466230000001
45082.0,-6.0017678665,0.2778223945,10.442709318999999,0.06376036823385685,-0.17690133699438926,-0.29531669075444855,12.04776247804409,0.3501020071720214,0.1795597614999993,-0.021574629999999984,-0.09218251000000066
45092.0,-5.8485879935,0.283804451,10.374455035,0.08347909812288878,-0.19075750592597226,-0.3190322246305475,11.912843646978526,0.38097079447540905,0.15317987300000002,0.005982056499999999,-0.06825428399999822
45102.0,-5.5923402289999995,0.25987622499999996,10.284626120999999,0.10293079263636558,-0.19235622752079906,-0.34727688791557176,11.709625926474658,0.4101181576315641,0.2562477645000003,-0.023928226000000052,-0.0898289140000017
45112.0,-5.3745345325,0.26585828149999996,10.167338587,0.09893398864929857,-0.1601147602487078,-0.3805847513606315,11.50352450380214,0.424581468658012,0.21780569649999926,0.005982056499999999,-0.11728753399999903
45122.0,-5.1674180844999995,0.275370732,10.072802480999998,0.06242868201458518,-0.09696176659454499,-0.42215325815538046,11.32428313498473,0.43762118080643275,0.20711644800000073,0.009512450500000047,-0.0945361060000014
45132.0,-4.915975578499999,0.22388581949999997,10.0560331095,0.009136798634190315,-0.01249306678577541,-0.4738464199409485,11.19556799130539,0.47409913256390723,0.25144250600000007,-0.051484912500000035,-0.016769371499998798
45142.0,-4.689736162999999,0.15210114149999998,10.0595635035,-0.04522148091917308,0.0839660449841952,-0.5314021426839655,11.100071077103278,0.5398921339452174,0.22623941550000026,-0.07178467799999999,0.0035303940000002143
45152.0,-4.500663951,0.122190859,10.119482135,-0.08838870930874884,0.16603666240072454,-0.5857604222373288,11.075866796167162,0.6152202934348739,0.18907221199999924,-0.029910282499999982,0.05991863150000043
45162.0,-4.365332180999999,0.02157463,10.114676876499999,-0.11263656860670605,0.22732215375525344,-0.6305263722217315,11.016500298694574,0.6796512813513396,0.13533177000000052,-0.100616229,-0.0048052585000011305
45172.0,-4.1905776779999995,-0.0812971285,10.144587158999999,-0.11956552573712353,0.2715557783177977,-0.6619684786964093,10.97634725785413,0.7254245119033531,0.17475450299999995,-0.1028717585,0.029910282499999497
45182.0,-4.063679627,-0.1830901555,10.1493924175,-0.12196360812936376,0.29793468463244,-0.6875497695428903,10.934220619703188,0.7591869885696448,0.1268980509999995,-0.101793027,0.0048052585000011305
45192.0,-3.9344279799999997,-0.306359746,10.124287393499998,-0.12276296892677716,0.30965980654733793,-0.7099318718704655,10.866221746769162,0.7841958970997965,0.12925164700000025,-0.1232695905,-0.02510502400000192
45202.0,-3.8242993004999994,-0.453655629,10.202054127999999,-0.11397000015522972,0.2936708452698179,-0.7304499625569109,10.904722692492918,0.7954802788858218,0.11012867950000027,-0.14729588300000002,0.07776673450000082
45212.0,-3.7416292409999996,-0.5996766475,10.1972488695,-0.07453254037716586,0.22359238514374158,-0.7493693316485293,10.87857003310555,0.7855590681067239,0.08267005949999984,-0.14602101850000004,-0.004805258499999354
45222.0,-3.6207132465,-0.74334407,10.099084303,-0.002855358656262723,0.1188726300240818,-0.7682869554108959,10.754237703291002,0.7774340493549546,0.12091599449999979,-0.14366742249999997,-0.0981645664999995
45232.0,-3.358581492,-0.870242121,9.877650145999999,0.06615845062609706,0.04106585197017458,-0.8053263327967196,10.469258015463241,0.8090821015713392,0.2621317544999999,-0.12689805099999996,-0.2214341570000009
45242.0,-2.9911263165,-0.9204521689999999,9.647782269999999,0.09333846306740474,0.05332155397767876,-0.8690099065434886,10.142670830013266,0.8756331848880002,0.36745517549999995,-0.05021004799999995,-0.22986787600000014
45252.0,-2.7840098684999997,-0.931239484,9.483815082,0.06429443898496712,0.14578560708983435,-0.9425545905640257,9.927772480976618,0.9559269712233572,0.20711644800000029,-0.010787315000000075,-0.1639671879999991
45262.0,-2.596016388,-1.0054758245,9.402419886999999,-0.0007225663103256524,0.26462682118738023,-1.0131671214412121,9.80590548862631,1.0471559065216995,0.18799348049999987,-0.07423634049999994,-0.0813951950000007
45272.0,-2.4715699995,-1.150320045,9.449099540999999,-0.06573957160561841,0.37467681184263074,-1.0832455815672886,9.834499306222133,1.1480964221669283,0.1244463885,-0.1448442205,0.04667965400000007
45282.0,-2.363794916,-1.3502776385,9.507743308,-0.10650871760295397,0.43569526782160445,-1.1581219518070975,9.889790640694038,1.2419424014764318,0.10777508349999998,-0.19995759349999997,0.05864376700000129
45292.0,-2.2177738975,-1.5022807134999998,9.531671534,-0.1278261690868127,0.44795271515836066,-1.2377944868313866,9.90091564627496,1.3225491885564535,0.14602101849999993,-0.15200307499999988,0.023928225999998887
45302.0,-2.018993102,-1.566906537,9.439489023999998,-0.14008361642356887,0.43169846383453747,-1.306275970691888,9.779339562354574,1.3828752275149192,0.19878079549999983,-0.06462582350000012,-0.09218251000000066
45312.0,-1.7892232925,-1.598091684,9.276698633999999,-0.14860954981956118,0.41198147927475753,-1.34810976753294,9.581876359406436,1.4174672775343733,0.22976980950000003,-0.03118514699999997,-0.16279038999999962
45322.0,-1.5090473019999997,-1.6135861909999998,9.143818526499999,-0.1395495456724586,0.3887982708205168,-1.3635646580593497,9.406928372270302,1.4247619968959464,0.2801759905000003,-0.01549450699999988,-0.13288010750000012
45332.0,-1.2792774925000001,-1.636337619,9.093510411999999,-0.10224487824033182,0.34030255222460243,-1.3545046539122474,9.327705147533559,1.4003366379720612,0.2297698094999996,-0.022751428000000296,-0.050308114499999945
45342.0,-1.1044249229999998,-1.6675227659999998,9.122243896499999,-0.02736850800052308,0.24357640507907663,-1.325727665205365,9.338935715214198,1.3481959585432264,0.17485256950000028,-0.031185146999999747,0.028733484500000017
45352.0,-0.8231702009999999,-1.6997866445,9.139013268,0.08294677270103051,0.11487582603701478,-1.2988146881396123,9.33211912318499,1.3065206529697115,0.2812547219999999,-0.03226387850000023,0.016769371500000574
45362.0,-0.42090141799999997,-1.5561192219999997,9.1234206945,0.17514204510837897,0.011487757136626676,-1.288955323195096,9.264743396639929,1.3008506946309213,0.40226878299999996,0.1436674225000003,-0.015592573499999318
45372.0,-0.07737446849999999,-1.2796697584999999,9.0157436775,0.2119143871186475,-0.022619467105846513,-1.2836268329887577,9.106435941551247,1.3011983684776016,0.34352694949999996,0.2764494634999999,-0.10767701700000032
45382.0,0.3164605955,-1.0856942215,8.9714176195,0.2071182223341671,0.02667561228748133,-1.2660391501164108,9.04241192130605,1.2831463969248642,0.393835064,0.1939755369999998,-0.044326057999999335
45392.0,0.8479810255,-0.8355265799999999,9.036043443,0.16874715872907176,0.1607064268651339,-1.2532493773577962,9.114124071422214,1.2747298384609176,0.53152043,0.25016764150000015,0.06462582350000012
45402.0,1.2490730105,-0.5314223634999999,9.330537142499999,0.107726957420846,0.3688142508851817,-1.2282021572624258,9.428760071269155,1.286899214435702,0.4010919850000001,0.30410421649999997,0.2944936994999985
45412.0,1.5100279669999999,-0.2501676415,9.7471236345,0.03791378734107282,0.5675950353825719,-1.1690477129245818,9.86656918367293,1.300105432092214,0.2609549564999998,0.28125472199999996,0.4165864920000004
45422.0,1.696746583,-0.028635417999999996,10.2643263555,-0.006585127267774606,0.68883607720161,-1.0795158129557767,10.403661109739115,1.2805830295522453,0.18671861600000006,0.2215322235,0.5172027210000003
45432.0,1.802070004,0.11375713999999998,10.836544382999998,-0.0033876840781209934,0.7320015602619339,-0.9734643716168453,10.985949715475051,1.2179780964519429,0.10532342100000003,0.14239255799999997,0.5722180274999982
45442.0,1.8164857795,0.21074490849999997,11.295005270499999,0.03444930877586408,0.6787096768815389,-0.8564871691604293,11.442079271889666,1.093345257137115,0.014415775500000061,0.09698776849999999,0.45846088750000114
45452.0,1.7374441804999998,0.340094622,11.740325246999998,0.09706823167891664,0.5222967599763111,-0.7245874015994619,11.87306251721148,0.898467055400299,-0.07904159900000018,0.12934971350000005,0.44531997649999866
45462.0,1.7518599559999999,0.34480181399999993,12.0456062615,0.17247692734058362,0.28114810788675854,-0.5740370456516829,12.177213630525745,0.6620506618180104,0.014415775500000061,0.004707191999999916,0.305281014500002
45472.0,1.8955273784999997,0.2993970245,12.180839964999999,0.24655393678297896,-0.0005026548245743669,-0.4248183759231758,12.331079631316298,0.49118199165590604,0.14366742249999986,-0.04540478949999993,0.13523370349999908
45832.0,-4.5425383465,-0.5984998495,9.001327902,0.04883954845855732,0.30806108495251117,1.4508119220372944,10.100334682504249,1.4839616459603335,-6.4380657249999995,-0.897896874,-3.179512062999999
45842.0,-4.389260406999999,-0.664302471,9.1677467525,0.11252312220532641,0.24437576587649004,1.4257647019419237,10.185994561720952,1.4509258951724926,0.15327793950000057,-0.06580262149999994,0.1664188504999995
45852.0,-4.7184696475,-0.4967068225,9.5233358815,0.19512606504371405,0.2214595927978045,1.3719387478104188,10.639765025307758,1.403329776013191,-0.3292092405000009,0.16759564849999997,0.35558912900000017
45862.0,-5.0968102045,-0.38177288449999996,9.870491291499999,0.2809281964010073,0.17136515260706325,1.3063894170932677,11.11529680807544,1.3471970814080814,-0.3783405569999996,0.11493393800000001,0.34715540999999916
45872.0,-5.312262304999999,-0.3219523195,10.2284340165,0.343812409350363,0.10928030045512097,1.2365762470134944,11.53016246733105,1.288126535542546,-0.2154521004999994,0.05982056499999999,0.3579427250000009
45882.0,-5.5049629775,-0.29321883499999996,10.579119820499999,0.3896447555077341,0.04266457356500139,1.1787534888949223,11.929307224031929,1.2422170055646948,-0.1927006725000009,0.028733484500000017,0.3506858039999994
45892.0,-5.895267647499999,0.075511205,10.849685293999999,0.4269494229398608,-0.017290976899507822,1.1190667191352204,12.34809918799572,1.1978710738250948,-0.390304669999999,0.36873004,0.2705654734999996
45902.0,-6.237617798999999,0.273017136,11.125056025999998,0.43814047410364854,-0.08470606458704079,1.0764318161675026,12.757322828265735,1.1652671999516944,-0.3423501514999998,0.197505931,0.27537073199999895
45912.0,-6.4303184715,0.401091985,11.420726523499999,0.4104281362404825,-0.10442304914682073,1.0388601133598208,13.112698606691215,1.1218670880906236,-0.1927006725000009,0.128074849,0.2956704975000015
45922.0,-6.771491825,0.6979392805,11.667265704499998,0.33475240520326044,-0.09456368420230477,0.9714450256722879,13.507972082985239,1.0318463553566068,-0.34117335350000033,0.2968472955,0.24653918099999927
45932.0,-6.9486979904999995,0.6967624825,11.891151524,0.21697758727868308,-0.09190031176376143,0.8605974195488759,13.790190944541914,0.892273982147714,-0.17720616549999946,-0.0011767980000000344,0.2238858195000013
45942.0,-7.048039354999999,0.653711289,12.056393576499998,0.08720886673440066,-0.08790350777669441,0.7358936444938812,13.980658899725194,0.7462384800605184,-0.09934136449999986,-0.04305119349999997,0.16524205249999824
45952.0,-7.1606196970000004,0.49690295549999997,12.050411519999999,-0.030033625768318424,-0.10575648069534441,0.5978660259291616,14.026182830463807,0.6078899874534742,-0.11258034200000111,-0.1568083335,-0.0059820564999988335
45962.0,-7.204847688499999,0.34244821799999997,11.8875230635,-0.10943912541705245,-0.158516038653881,0.46410050139781217,13.9046864611087,0.5024873451941538,-0.04422799149999879,-0.1544547375,-0.16288845649999928
45972.0,-7.2024940925,0.20593965,11.667265704499998,-0.14514507125435244,-0.2515106718586429,0.3356669577313054,13.712892521687078,0.44384345920696744,0.0023535959999989586,-0.13650856799999997,-0.22025735900000143
45982.0,-7.0312699835,0.075511205,11.384834184499999,-0.15313867922848648,-0.36236002331130673,0.21762335910192096,13.381289509292756,0.44957331771004794,0.17122410900000062,-0.130428445,-0.2824315199999994
45992.0,-6.8421977715,-0.029812216,11.0172809425,-0.1331546592931514,-0.46441466066317116,0.10810743919778076,12.969080093765944,0.4950740941922386,0.18907221199999924,-0.105323421,-0.3675532419999996
46002.0,-6.61948875,-0.11483587149999999,10.5995176525,-0.09478359568805605,-0.541422077919665,0.006318091892219472,12.497223413799516,0.549692381933353,0.22270902150000005,-0.08502365549999999,-0.4177632899999999
46012.0,-6.328623511,-0.1028717585,10.267856749499998,-0.05827828905334266,-0.5739305805673114,-0.07441909397578621,12.061962542261998,0.5816621629721955,0.2908652390000004,0.011964112999999998,-0.3316609030000013
46022.0,-6.0604116335,-0.06815621749999999,10.0248479625,-0.05055171645476376,-0.5563446430242165,-0.1357063306595671,11.714555523308876,0.5748835064944458,0.26821187749999975,0.034715541,-0.24300878699999728
46032.0,-5.8270133635,-0.0010787315,9.8273420315,-0.06627189702747668,-0.5003858965467743,-0.18287036303620988,11.425004914929175,0.5368608567175808,0.23339827000000035,0.06707748599999999,-0.19750593100000025
46042.0,-5.6187201175,0.0348136075,9.716036553999999,-0.09558295648546945,-0.4191163852569103,-0.22390479907984853,11.223751336551008,0.48469372289344675,0.2082932460000002,0.035892339,-0.11130547750000197
46052.0,-5.428373041,0.025203090499999997,9.665728439499999,-0.11983256111267868,-0.32398895970621133,-0.2598777802927037,11.085764535393372,0.43227901800133633,0.19034707649999927,-0.009610517000000006,-0.050308114499999945
46062.0,-5.253618538,0.004903325,9.6669052375,-0.13502041626353334,-0.2168711221943114,-0.2923862829403501,11.002253798936755,0.3882696677587269,0.17475450300000084,-0.020299765499999997,0.0011767980000012557
46072.0,-5.105145857,-0.028635417999999996,9.671710496,-0.1464785028028761,-0.09083391559079289,-0.32995624041878,10.936421632638568,0.3722604902433553,0.14847268099999944,-0.033538742999999996,0.004805258499999354
46082.0,-4.966283692999999,-0.072961476,9.7004439805,-0.1659301973163529,0.05358858935323389,-0.3707253864161155,10.898069118663017,0.40968509787846996,0.13886216400000073,-0.044326058,0.028733484500000017
46092.0,-4.839385642,-0.1579851315,9.796254951,-0.20136910777809774,0.19694644345354415,-0.41336028938383307,10.927544269357266,0.5002041063364369,0.1268980509999995,-0.08502365549999999,0.09581097050000054
46102.0,-4.778388279,-0.2536980355,9.968655858,-0.24506866158953178,0.3107244573910545,-0.4655857765912594,11.05764246362392,0.6110470134763247,0.06099736300000025,-0.09571290399999999,0.1724009070000001
46112.0,-4.7496547945,-0.43570945949999995,10.184107958499999,-0.2786435604101467,0.3645504115225596,-0.5303374918402489,11.245671092042379,0.701282462029899,0.028733484500000017,-0.18201142399999998,0.21545210049999852
46122.0,-4.675418454,-0.5877125344999999,10.283449323000001,-0.28557077221131216,0.34882848562059465,-0.6041474659070891,11.31168748339174,0.753807759898822,0.07423634049999972,-0.152003075,0.09934136450000253
46132.0,-4.5425383465,-0.649984762,10.27148521,-0.2605235521159416,0.28994107665830604,-0.6763587183791026,11.24991303253069,0.7806404198274054,0.13288010750000012,-0.062272227500000055,-0.01196411300000122
46142.0,-4.361801787,-0.6847003029999998,10.1948952735,-0.21442591591226734,0.21799685956184772,-0.7381782804847417,11.10990634396336,0.7990045544132102,0.18073655949999967,-0.03471554099999985,-0.07658993649999957
46152.0,-4.145074822,-0.7134337874999999,10.0595635035,-0.16166635795373077,0.1585753798484488,-0.7848082421102742,10.90346050252277,0.8168268722760794,0.21672696500000033,-0.028733484500000017,-0.13533177000000052
46162.0,-3.9080480914999995,-0.733733553,9.919524541499998,-0.10144551744291841,0.12020431624335347,-0.826109713529468,10.68682235005783,0.8409503727572355,0.23702673050000023,-0.020299765500000122,-0.140038962000002
46172.0,-3.7057369019999995,-0.7684490939999999,9.856075515999999,-0.04575555167028334,0.10048558635432152,-0.869809267340902,10.557709248412205,0.8767890767600498,0.20231118950000004,-0.03471554099999996,-0.06344902549999887
46182.0,-3.5512821645,-0.7709007564999999,9.795078153,-0.0033876840781209934,0.08662941742273854,-0.9023177699885484,10.447461366841514,0.9064731051738508,0.1544547374999996,-0.0024516624999999515,-0.06099736299999847
46192.0,-3.4077128085,-0.7744311504999999,9.669356899999999,0.030719540164352195,0.07597243701006116,-0.9281660962105844,10.281474264503961,0.9317766918569882,0.14356935599999998,-0.0035303939999999923,-0.1257212530000018
46202.0,-3.093998075,-0.779236409,9.578351188,0.04484274447149031,0.09435773535056943,-0.960939888904534,10.095783523326752,0.9666021539599845,0.3137147334999999,-0.004805258500000131,-0.0910057119999994
46212.0,-2.8306895225,-0.7780596109999999,9.4084019435,0.017395696654627483,0.17243154878003178,-0.9982445563366608,9.855770241919975,1.0131769063359848,0.26330855249999985,0.0011767980000001454,-0.1699492444999997
46222.0,-2.6235730745,-0.8091466915,9.2683629815,-0.042823398526932864,0.2846125864519673,-1.0352839337224844,9.666457800168908,1.0745468771776205,0.20711644800000029,-0.031087080500000086,-0.1400389620000002
46232.0,-2.457154224,-0.9372215405,9.147446987,-0.10251191361588695,0.4095833968825173,-1.0709898795597843,9.517971289958465,1.151210916189772,0.16641885049999994,-0.128074849,-0.1209159944999989
46242.0,-2.3554592635,-1.078535367,9.06722859,-0.1432810596132225,0.5214973991788977,-1.1114919901815647,9.430061568366941,1.2360839144783085,0.10169496050000015,-0.14131382650000002,-0.08021839700000122
46252.0,-2.2405253254999997,-1.2473078135,8.976222878,-0.15367274997959673,0.603568016595427,-1.1549245086174438,9.335325793530487,1.3121586357405393,0.11493393800000007,-0.1687724465,-0.0910057119999994
46262.0,-2.098034701,-1.3287030085,8.913950650499999,-0.13981658104801373,0.6648535079499559,-1.1866336504676767,9.25341653071699,1.3673617969621508,0.14249062449999972,-0.08139519500000003,-0.062272227500001165
46272.0,-2.0166395059999997,-1.3969572924999998,8.93189682,-0.11503465099894626,0.7128169011240121,-1.2060853449811535,9.262672690824985,1.4056965408070112,0.08139519500000025,-0.06825428399999978,0.01794616950000183
46282.0,-1.877777342,-1.5107144325,9.001327902,-0.07613126197199266,0.7162813796892209,-1.2159447099256693,9.318380215574813,1.4132857182944862,0.13886216399999984,-0.11375714000000015,0.06943108199999948
46292.0,-1.7485256949999997,-1.624373506,9.036043443,-0.0236387393890112,0.6691173473125781,-1.2196744785371814,9.345908864142283,1.3913599994499872,0.12925164700000025,-0.11365907350000004,0.03471554100000063
46302.0,-1.64555587,-1.7489179609999999,9.150977380999999,0.04804018766114392,0.587579055317907,-1.2207408747101498,9.4608115499239,1.3556420209874374,0.10296982499999974,-0.12454445499999989,0.11493393799999829
46312.0,-1.481588682,-1.9273009245,9.219231665,0.13543929528401197,0.4847250571686292,-1.2321989612494928,9.534349813655242,1.3310208352458235,0.16396718799999999,-0.17838296350000005,0.06825428400000177
46322.0,-1.252897604,-1.935636577,9.220408462999998,0.21378014408902943,0.3701459371044534,-1.256713855923005,9.504334463227355,1.3274184270344178,0.228691078,-0.008335652500000013,0.001176797999997703
46332.0,-0.9703680174999999,-1.7356789835,9.2108960125,0.2702694706590779,0.2688906605500024,-1.2700359541034778,9.423099329638783,1.3260237927039191,0.28252958650000004,0.19995759349999997,-0.009512450499999048
46342.0,-0.6064432359999999,-1.4723704309999999,9.158136235499999,0.2947843653325903,0.23584983248049773,-1.2521829811848277,9.295542339882669,1.3078551846036086,0.36392478149999996,0.26330855250000007,-0.05275977700000034
46352.0,-0.16475172,-1.1622841579999998,9.0767410405,0.27613203161652683,0.2907404374557194,-1.207151741154122,9.152337161046775,1.27200402005184,0.44169151599999995,0.310086273,-0.08139519499999892
46362.0,0.22908334399999997,-0.9204521689999999,9.0373183075,0.22710224226950218,0.41784229490295444,-1.1306766493194866,9.086959533583808,1.2266202742372818,0.39383506399999996,0.24183198899999991,-0.03942273300000032
46372.0,0.5846724729999999,-0.81395195,9.171375213,0.17754012750061918,0.597438420262423,-1.0262239295753819,9.225967861163593,1.2006617827313961,0.35558912899999995,0.10650021899999995,0.1340569054999996
46382.0,0.7642322345,-0.8151287479999999,9.46341725,0.14476633480666964,0.7669081453018204,-0.9100460879163794,9.529152734197435,1.198870000106576,0.17955976150000008,-0.0011767979999999234,0.29204203699999987
46392.0,0.831211654,-0.870242121,9.972186252,0.1450316248529728,0.8753594143622441,-0.8045269719993061,10.044537461102218,1.1977278176591193,0.06697941949999997,-0.05511337300000008,0.5087690020000011
46402.0,0.9114300509999999,-0.8785777735,10.4067189135,0.17727309212506406,0.8870827909478899,-0.7107312326678789,10.483434655996703,1.1504262306975974,0.08021839699999989,-0.008335652500000013,0.43453266150000047
46412.0,0.955756109,-0.907311258,10.849685293999999,0.22310543828243515,0.8172696208681167,-0.6531755099248618,10.929426079974382,1.0697401163603786,0.04432605800000011,-0.028733484500000017,0.4429663804999979
