timestamp,ax,ay,az,gx,gy,gz,acc_mag,gyro_mag,dax,day,daz
44872.0,0.9229038314999999,0.083748791,9.616008723999999,-0.09491449538195564,-0.026616271092913524,0.014337879805133418,9.660558427039062,0.09961306198390447,0.0,0.0,0.0
44882.0,0.9599729685,0.29684729549999994,9.5741343285,-0.07413111464920714,-0.049799479547154205,-0.006712536303170191,9.626718784573407,0.08955706820749941,0.03706913700000014,0.21309850449999995,-0.04187439549999894
44892.0,1.1359042695,0.2705654735,9.665140040499999,-0.027232372318867524,-0.051398201141981015,0.0010157816246606998,9.735420699045056,0.05817567356768599,0.17593130099999987,-0.026281821999999955,0.0910057119999994
44902.0,1.0652963895,0.392658266,9.764481405,0.01699950691442477,-0.03460987906704756,0.02286555853037771,9.830266223248007,0.04482923969102489,-0.07060787999999985,0.12209279249999999,0.09934136450000075
44912.0,1.011457881,0.39618865999999997,9.900989973,0.018865263884806707,-0.024750514122531587,0.04311661384126792,9.960402348539748,0.053174510058015996,-0.05383850850000016,0.0035303939999999923,0.136508568
44922.0,0.9156469104999999,0.29684729549999994,10.0732928135,-0.003783873818323706,-0.00823097275240526,0.0460470216553664,10.119177619157824,0.04692967948807679,-0.09581097049999998,-0.09934136450000003,0.17230284050000044
44932.0,0.74334407,0.359119523,10.201465728999999,-0.0386904588582103,-0.018355627743224367,0.027129397892999858,10.234814617674585,0.05069403225768687,-0.1723028404999999,0.062272227500000055,0.12817291549999865
44942.0,0.6451795035,0.42374534649999995,10.2074477855,-0.08079303640406951,-0.05699372672387483,0.002881538595042638,10.236591571618249,0.09891462420663462,-0.09816456650000005,0.06462582349999996,0.00598205650000061
44952.0,0.6870538989999999,0.44414317849999996,10.088885387,-0.11010235053281028,-0.10042624515975371,-0.015238469699162491,10.122001510331902,0.14980043146970265,0.04187439549999994,0.020397832000000005,-0.11856239849999994
44962.0,0.7505029245,0.47640705699999997,9.976403111499998,-0.11783066846064118,-0.12254305744102587,-0.017369516715847567,10.015929181398464,0.17088758722569117,0.06344902550000009,0.03226387850000001,-0.11248227550000145
44972.0,0.7576617789999999,0.5255383735,9.837540947499999,-0.11703130766322778,-0.11375008866947844,-0.00884358331985527,9.880660597708923,0.16344301334598096,0.007158854499999867,0.04913131650000002,-0.13886216399999896
44982.0,0.7612902395,0.5039637435,9.862645971500001,-0.10983706048650714,-0.07910879367589499,0.0036808993924560413,9.904813367381825,0.135410228984037,0.003628460500000097,-0.02157463000000004,0.02510502400000192
44992.0,0.5661379044999999,0.544661341,9.957182077499999,-0.09971066016643605,-0.050331804969012475,0.02286555853037771,9.988125100727302,0.11401026317473062,-0.19515233500000007,0.040697597500000016,0.09453610599999784
45002.0,0.30753654399999997,0.6057567705,10.1272293885,-0.09757961314975098,-0.06658605629283566,0.03698876283751582,10.149989905325036,0.12378874089083275,-0.25860136049999993,0.06109542950000002,0.17004731100000114
45012.0,0.14356935599999998,0.544661341,10.181067897,-0.0978449031960541,-0.11268369249650989,0.038320449056787505,10.196637272144487,0.1540769173238063,-0.16396718799999999,-0.06109542950000002,0.05383850850000016
45022.0,0.0597224985,0.48601757399999995,10.1739090425,-0.1002447309175463,-0.1638445288602197,0.02526364092261792,10.185686283413956,0.19373251473829994,-0.08384685749999998,-0.05864376700000001,-0.007158854500000089
45032.0,-0.0718827445,0.5302455655,10.0709392175,-0.10743897809426695,-0.1952866353348975,0.008742354223239598,10.085144729316916,0.22306149984192747,-0.13160524299999998,0.04422799150000006,-0.10296982500000063
45042.0,-0.1724989735,0.5865357365,9.961987336,-0.12049578622843651,-0.1934226236937676,-0.009375908741713538,9.980730020828863,0.2280777356957992,-0.10061622900000002,0.056290171,-0.10895188149999946
45052.0,-0.25389416849999996,0.5913409949999999,9.928448593,-0.1303534058437005,-0.1646438896576331,-0.03575656038560783,9.949283284991417,0.21302148348759797,-0.08139519499999995,0.004805258499999909,-0.03353874299999937
45062.0,-0.38079221950000003,0.6440027055,9.948846425,-0.12795532345146027,-0.14039603035967588,-0.06266953745136039,9.97693777605926,0.20002770074339782,-0.12689805100000007,0.052661710500000125,0.020397831999998672
45072.0,-0.4932744949999999,0.7110801915,10.0015081355,-0.11676427228767264,-0.14332643817377433,-0.08265355738669546,10.038880403243873,0.20250425603212954,-0.1124822754999999,0.06707748599999996,0.05266171050000068
45082.0,-0.57466969,0.7134337874999999,10.0732928135,-0.10823833889168034,-0.15638324630794392,-0.08771675754673101,10.11486337664835,0.2094408921064683,-0.08139519500000009,0.002353595999999847,0.07178467800000021
45092.0,-0.6585165475,0.69431082,10.012295450499998,-0.11090171133022368,-0.17290453300732225,-0.08824908296858928,10.057920846089582,0.22356893289374846,-0.08384685749999998,-0.019122967499999866,-0.060997363000002025
45102.0,-0.7159835165,0.6835235049999999,9.947669627,-0.12209450782326332,-0.17556965077511758,-0.08798379292228616,9.996797876606564,0.23124212187854828,-0.057466969000000034,-0.010787315000000075,-0.06462582349999835
45112.0,-0.793750251,0.69431082,9.890202658,-0.13461724520632265,-0.15345283849384544,-0.08345291818410887,9.946266414692595,0.22053109962588266,-0.07776673449999993,0.010787315000000075,-0.057466969000000034
45122.0,-0.966151158,0.7338316194999999,9.936882312,-0.14234556313415353,-0.12867090844477796,-0.08585100057634908,10.010673653077559,0.21021145621479342,-0.172400907,0.03952079949999987,0.04667965400000007
45132.0,-1.1229594914999999,0.8067930954999999,9.960810537999999,-0.13675003755225973,-0.13400114398036864,-0.10583676584093614,10.05632635172647,0.21876540028592517,-0.1568083334999999,0.07296147600000003,0.023928225999998887
45142.0,-1.2463271485,0.8966220094999999,10.0111186525,-0.1148985153172907,-0.16837365826914497,-0.1324827075311336,10.128166619060005,0.24311113799213804,-0.12336765700000019,0.08982891400000004,0.05030811450000172
45152.0,-1.314483366,0.8738705814999999,10.1380167035,-0.07732855783886076,-0.21820280841358308,-0.15966097464318926,10.260160768386958,0.2812184173930043,-0.0681562174999999,-0.022751428000000073,0.1268980509999995
45162.0,-1.29055514,0.7122569894999999,10.140370299499999,-0.04428598444010411,-0.28028940589477735,-0.1879056379282135,10.246948443290506,0.3403409000397767,0.023928225999999997,-0.16161359199999992,0.0023535959999989586
45172.0,-1.113447041,0.453655629,10.103301162500001,-0.029632200040359727,-0.3442400150171016,-0.21668437196434803,10.174589039514515,0.4078374336323116,0.17710809900000002,-0.25860136049999993,-0.03706913699999781
45182.0,-1.0307769814999999,0.42374534649999995,10.0230827655,-0.022436207534387107,-0.3738163645213975,-0.25372200402091966,10.084852474296973,0.4523460103912844,0.08267005950000006,-0.02991028250000005,-0.08021839700000122
45192.0,-1.0093004179999998,0.5529969935,9.961987336,-0.016840681952493285,-0.3724846783021258,-0.28862858906080624,10.028244347402959,0.4715240254342242,0.021476563500000045,0.12925164700000003,-0.06109542949999991
45202.0,-0.9027021325,0.6416491095,9.952376819,-0.0053825954131505125,-0.3554310661808892,-0.31500924070470054,10.013809917664242,0.474964247990538,0.10659828549999983,0.088652116,-0.009610517000000485
45212.0,-0.814148083,0.7457957325,10.0470109915,0.018065903087393302,-0.32745343827142015,-0.3339286097963191,10.107496140933698,0.4680389380496458,0.08855404950000001,0.104146623,0.09463417250000106
45222.0,-0.7674684289999999,0.8571012100000001,10.153511210499998,0.04044800541496858,-0.29547726104563204,-0.34138814701934284,10.218484240602631,0.4533086364303887,0.04667965400000007,0.11130547750000008,0.10650021899999729
45232.0,-0.7375581465,1.0007686325,10.2780556655,0.03138800126786602,-0.2635010838198439,-0.3461843118038233,10.352968566473148,0.43618987326267755,0.02991028249999994,0.14366742249999997,0.12454445500000233
45242.0,-0.723142371,1.0690229164999998,10.345035085,-0.0003211405823669566,-0.24191834228968204,-0.35444495515351243,10.425233608635281,0.4291337946389644,0.01441577549999995,0.06825428399999978,0.06697941949999908
45252.0,-0.6860732339999999,1.017538004,10.346309949499998,-0.03229557247890307,-0.24458346005747736,-0.34911646494717374,10.418839169654083,0.42748845485303916,0.03706913700000014,-0.05148491249999987,0.0012748644999991399
45262.0,-0.653711289,0.8499423555,10.2349064055,-0.06666983209693139,-0.2576402681916469,-0.33685901761041753,10.290920735599117,0.4292986979378721,0.03236194499999989,-0.16759564849999997,-0.11140354399999808
45272.0,-0.6500828285,0.6343921884999999,10.122424129999999,-0.08185768724778605,-0.2808217313166356,-0.32726668804145675,10.163096545853858,0.4389362263961056,0.003628460499999986,-0.21555016700000007,-0.11248227550000145
45282.0,-0.653711289,0.4788587195,10.0732928135,-0.057609827949828836,-0.3058689514120062,-0.3355273313911459,10.105833574184663,0.457660679788807,-0.003628460499999986,-0.15553346899999992,-0.04913131649999869
45292.0,-0.5950675219999999,0.46326614599999993,10.0732928135,-0.0011205013797803594,-0.3040031944416243,-0.3664371124439655,10.101482514179771,0.4761253565294812,0.05864376700000007,-0.01559257350000004,0.0
45302.0,-0.524459642,0.6416491095,10.096044241499998,0.048176323342799476,-0.27682492732956865,-0.4026753837031237,10.129999053412304,0.49101981952087115,0.07060787999999996,0.17838296350000005,0.02275142799999763
45312.0,-0.41668455849999997,0.810421556,10.2121549775,0.06656162168330775,-0.22966089495292585,-0.44077941193266396,10.252732240929722,0.5014589376363688,0.10777508349999998,0.1687724465,0.11611073600000132
45322.0,-0.283804451,0.9720351479999999,10.285214519999998,0.04710992716983094,-0.17530261539956246,-0.4740872753777237,10.334942429340067,0.5076505657230644,0.13288010749999996,0.16161359199999992,0.07305954249999935
45332.0,-0.20721451449999997,1.0953047384999999,10.312771206499999,-0.007780677805390721,-0.1134830532939233,-0.5047300210549882,10.372843403947419,0.517388960537613,0.07658993650000004,0.12326959049999997,0.027556686500000538
45342.0,-0.08394492399999999,1.031855713,10.312771206499999,-0.06880087911361647,-0.06978349948248928,-0.5231153193954965,10.36460433013878,0.5322151211240445,0.12326959049999998,-0.06344902549999998,0.0
45352.0,0.003530394,0.946930124,10.189403549499998,-0.12395851946439326,-0.04446924401156352,-0.528178519555532,10.233310012795645,0.5443489475792507,0.087475318,-0.08492558899999991,-0.12336765700000107
45362.0,0.0214765635,0.8355265799999999,10.0350468785,-0.16685871247841388,-0.026616271092913524,-0.532175323542599,10.06979303473308,0.5583554699333708,0.0179461695,-0.11140354400000008,-0.1543566709999986
45372.0,0.065704555,0.6715593919999999,9.844699802000001,-0.18284767375593394,-0.021020745511019703,-0.5505623672123592,9.867797286985075,0.5805118980092244,0.044227991499999994,-0.16396718799999999,-0.19034707649999838
45382.0,0.1364105015,0.60212831,9.608849869499998,-0.16446063008617368,0.0069586277277013915,-0.5806727874677654,9.62866356984255,0.603553317821863,0.0707059465,-0.06943108199999992,-0.23584993250000252
45392.0,0.157887065,0.718239046,9.565798676,-0.11090171133022368,0.055187310948060696,-0.6286361806418216,9.59402417978278,0.6407248055738026,0.02147656349999999,0.11611073599999999,-0.04305119349999842
45402.0,0.262033688,0.790023724,9.63993695,-0.043486623642690715,0.10288366874656174,-0.6877906249796654,9.675804025408173,0.6968013199905063,0.104146623,0.07178467799999999,0.07413827399999917
45412.0,0.4727785965,0.7780596109999999,9.8194967115,-0.010445795573186064,0.1623051484599607,-0.7461457085200958,9.861613053995644,0.7636658262648149,0.2107449085,-0.01196411300000011,0.1795597615000002
45422.0,0.6631256729999999,0.7936521845,9.9560052795,-0.04268726284527732,0.20254196903543795,-0.7898452623315299,10.009578441352321,0.8165175993556645,0.19034707649999993,0.015592573500000095,0.136508568
45432.0,0.801987837,0.8642600644999999,10.009843788,-0.11196810750319222,0.24624152284687195,-0.8170235294435855,10.079042742738404,0.8606388280435914,0.13886216400000007,0.07060787999999996,0.05383850850000016
45442.0,0.7983593764999999,0.7697239585,9.984738764,-0.16046382609910664,0.2846125864519673,-0.8322131299236921,10.046136613228919,0.8940534981032349,-0.003628460500000097,-0.09453610599999995,-0.025105024000000142
45452.0,0.8965239429999999,0.6416491095,9.788409631,-0.1692585401999061,0.3035302102143338,-0.8668526795880237,9.850301105263126,0.9339232356314398,0.09816456650000005,-0.128074849,-0.196329132999999
45462.0,1.0593143329999999,0.6811699089999999,9.7465352355,-0.1351513159574329,0.33843679525422043,-0.9262741593014225,9.827567776305047,0.9953839263201562,0.16279038999999995,0.03952079949999987,-0.041874395500000716
45472.0,1.208963812,0.8439602989999999,9.859017510999998,-0.0690679144891716,0.37467681184263074,-0.9737034817243685,9.96865531389356,1.0455867063360165,0.14964947900000003,0.16279039000000006,0.1124822754999979
45482.0,1.301146322,1.0462714885,10.154688008499999,-0.011245156370599465,0.3917304239638673,-1.0099434983127786,10.291032714401204,1.0833120734049648,0.09218251,0.20231118950000004,0.2956704975000015
45492.0,1.4208855184999998,1.1311970775,10.426430279999998,-0.006981317007977318,0.38027233742452454,-1.0445830479771103,10.583429069471217,1.1116697052266142,0.11973919649999987,0.08492558900000002,0.2717422714999991
45502.0,1.6172146514999999,1.1659126185,10.5114539355,-0.07173303225696695,0.357356164345839,-1.0717630604184178,10.69885037287382,1.1320446606871137,0.1963291330000001,0.03471554099999996,0.08502365550000235
45512.0,1.8422772689999998,1.2306365084999997,10.323558521499999,-0.17298830881141797,0.3448316816335277,-1.0880173117422411,10.558613180657884,1.1543896717722548,0.2250626174999999,0.06472388999999978,-0.18789541400000154
45522.0,2.0648882239999997,1.3024211865,10.0026849335,-0.2569246831983293,0.3482961601987364,-1.0696302680724807,10.296298859470125,1.1538758245246985,0.22261095499999994,0.07178467800000021,-0.32087358799999954
45532.0,2.2432711875,1.2605467909999999,9.686616604,-0.2904978366896922,0.36748081933665805,-1.0035486119334716,10.02256379704597,1.1074930980441051,0.17838296350000027,-0.04187439550000005,-0.3160683295000002
45542.0,2.2456247835,1.1037384575,9.486757077,-0.27077910680066025,0.38773187464754827,-0.923342006158072,9.811199166709617,1.0374091727151242,0.002353595999999847,-0.1568083334999999,-0.1998595269999992
45552.0,2.098426967,0.8762241774999999,9.334754001999999,-0.2036310544886824,0.39306211018313897,-0.8601907578331613,9.60774670892834,0.967414889628738,-0.14719781649999986,-0.22751428000000007,-0.15200307500000143
45562.0,1.8781696079999999,0.581730478,9.325143485,-0.10210874255867625,0.3757414626863473,-0.8378086555055859,9.53017483791808,0.9238675150305196,-0.2202573590000001,-0.29449369949999993,-0.009610516999998708
45572.0,1.6183914495,0.277724328,9.513038899,0.015400785319597963,0.34856319557429155,-0.875645648359571,9.653715905290817,0.9425968316244627,-0.25977815849999986,-0.30400615,0.18789541399999976
45582.0,1.46511351,0.08620045349999998,9.7584993485,0.102799892942466,0.3248476616981926,-0.9694413876909983,9.86824693904865,1.0275750218198254,-0.15327793950000013,-0.19152387450000002,0.24546044949999946
45592.0,1.5393498504999998,-0.07305954249999999,10.1523344125,0.11399268943550564,0.32458062632263746,-1.091747080353753,10.26863329183667,1.1446652801975254,0.07423634049999994,-0.15925999599999996,0.393835064000001
45602.0,1.8003048069999998,0.050210048,10.461145820999999,0.0436454486046222,0.31845277531888533,-1.1906042745159637,10.61504547023955,1.2332297570963342,0.2609549565,0.1232695905,0.30881140849999866
45612.0,1.9535827465,0.0765899365,10.507923541499999,-0.08425576964002625,0.25929833098104155,-1.25695471135978,10.688255644388631,1.2861842035947786,0.15327793950000013,0.026379888499999997,0.04677772049999973
45622.0,2.2444479855,-0.035892338999999995,10.375043434,-0.22041937656361585,0.16177282303810242,-1.2902608294755882,10.615100624911683,1.3189117316626777,0.29086523899999994,-0.11248227549999999,-0.13288010749999835
45632.0,2.5078546045,-0.050308114499999994,9.9811103035,-0.3171437783798896,0.027742008460449868,-1.300120194420104,10.291473583230452,1.3385299081968476,0.26340661899999995,-0.014415775499999998,-0.39393313050000067
45642.0,2.8717793859999996,0.014317708999999998,9.497544392,-0.3523173987953313,-0.12227602206547072,-1.2846653038936944,9.922231166257728,1.3377009823179251,0.36392478149999974,0.06462582349999998,-0.4835659114999995
45652.0,3.17343194,0.039520799499999995,9.162353095,-0.3118152881735509,-0.2821534175359073,-1.2361695852977796,9.696439883218034,1.305739089014812,0.30165255400000035,0.025203090499999997,-0.3351912969999997
45662.0,3.500189518,0.045502855999999994,8.954059849,-0.2198853058125056,-0.43643528742445004,-1.1804796195251446,9.613978622365204,1.2776374446358996,0.32675757800000005,0.005982056499999999,-0.2082932460000002
45672.0,3.914422414,0.0993413645,8.760084311999998,-0.13648300217670456,-0.5347601561648027,-1.1245226183769546,9.59539726615187,1.2526560396796609,0.41423289600000013,0.05383850850000001,-0.1939755370000018
45682.0,4.2351979355,0.3447037475,8.5769941565,-0.10370746415350307,-0.5339607953673892,-1.0515120051075277,9.57186246176987,1.1838694463477712,0.32077552149999944,0.245362383,-0.18309015549999863
45692.0,4.527338039,0.44885037049999993,8.452449701499999,-0.11863002925805458,-0.4265759224799341,-0.960913708965754,9.5990709097736,1.0580147719005133,0.2921401035000004,0.10414662299999994,-0.12454445500000055
45702.0,4.627856201499999,0.5278919695,8.3459494825,-0.1575334182850082,-0.2501789856393712,-0.8623235501790983,9.557750557409761,0.9115965159683246,0.10051816249999934,0.07904159900000002,-0.10650021899999906
45712.0,4.548912669,0.557802252,8.305251884999999,-0.19057424635451284,-0.07724478203476504,-0.7621329244683639,9.485829362571362,0.7893870370634989,-0.07894353249999941,0.02991028250000005,-0.04069759750000124
45722.0,4.3813170205,0.48003551749999995,8.3853722155,-0.18524575614817415,0.052256903133962224,-0.6686042205124917,9.473164208682539,0.6957574130278295,-0.16759564849999986,-0.07776673450000005,0.08012033050000156
45732.0,4.123892457999999,0.43933792,8.7325276255,-0.11996171547732626,0.11940495544594007,-0.5939948856482381,9.667292565305958,0.6176392804392976,-0.2574245625000007,-0.04069759749999996,0.34715540999999916
45742.0,3.7971348799999998,0.432080999,9.234137772999999,-0.022436207534387107,0.12633216724710555,-0.5412353276897016,9.99370940628928,0.5562363524880907,-0.3267575779999996,-0.007256920999999972,0.5016101474999992
45752.0,3.5061715744999997,0.5936945909999999,9.6219907805,0.039648644617555184,0.07517307621264777,-0.502331938662748,10.258090414752711,0.509470689056747,-0.29096330550000005,0.16161359199999986,0.3878530075000004
45762.0,3.3829019839999996,0.9564425745,9.869804826,0.03645120142790157,-0.010362019769090335,-0.4682247144202748,10.477206475726256,0.46975572879229516,-0.12326959050000008,0.36274798350000015,0.2478140455000002
45772.0,3.3673094105,1.0964815365,10.031418418,-0.015241960357666479,-0.06898413868507587,-0.39574642657270626,10.63815773068424,0.4020029389080792,-0.015592573499999762,0.140038962,0.16161359200000014
45782.0,3.2069706829999998,1.2222027895,9.983561966,-0.08292408342075458,-0.09456368420230477,-0.27770457327257375,10.556985845838993,0.30485820310037215,-0.1603387275000001,0.12572125300000003,-0.04785645199999955
45792.0,2.906494927,1.1778767314999998,9.869804826,-0.13648300217670456,-0.1094862493068563,-0.15886161384577588,10.356068446018437,0.23632998333714206,-0.300475756,-0.044326058000000224,-0.11375714000000059
45802.0,2.5198187174999997,0.9145681789999999,9.8410713415,-0.14154620233674012,-0.10841985313388774,-0.058405698088738245,10.199637565697877,0.18762040805509406,-0.38667620950000003,-0.26330855249999996,-0.028733484500000017
45812.0,2.1714865094999998,0.5350508239999999,9.7728170575,-0.12209450782326332,-0.12067730047064393,0.0023474678439323734,10.025446936898451,0.17168456626839024,-0.348332208,-0.37951735499999995,-0.068254284
45822.0,1.8710107534999998,0.359119523,9.716624953,-0.09971066016643605,-0.12414177903585268,0.016203636775515357,9.901638679974877,0.1600498512894211,-0.300475756,-0.17593130099999993,-0.05619210449999912
45832.0,1.5501371654999998,0.18907221199999996,9.7237838075,-0.07439640469551029,-0.12147666126805733,0.0036808993924560413,9.848382865639117,0.14249545004943093,-0.320873588,-0.17004731100000003,0.007158854500000089
45842.0,1.276041298,0.032263878499999996,9.790763227,-0.048017498380867996,-0.12467410445771095,-0.023499113048851654,9.87361974755119,0.13565220524256724,-0.2740958674999998,-0.15680833349999995,0.06697941949999908
45852.0,1.0617659955,-0.09218251,9.7704634615,-0.03389429407372988,-0.12094433584619906,-0.06719866686028568,9.828418026155408,0.14245004869017885,-0.21427530249999993,-0.12444638849999999,-0.020299765499999012
45862.0,0.8079698935,-0.1209159945,9.692696727,-0.022436207534387107,-0.09829519814306864,-0.1255537504007161,9.727065635027083,0.16102507142118128,-0.253796102,-0.028733484500000003,-0.07776673450000082
45872.0,0.550545331,-0.1305265115,9.637583353999998,0.0058084557506371285,-0.08097455064627691,-0.19057075569600887,9.654177864374994,0.20714205014221876,-0.2574245625,-0.009610516999999999,-0.055113373000001076
45882.0,0.373437232,-0.04314926,9.720155346999999,0.055635860565823245,-0.09935984898678518,-0.24945990998754952,9.72742191922891,0.2742224922623467,-0.17710809900000002,0.0873772515,0.08257199300000018
