timestamp,ax,ay,az,gx,gy,gz,acc_mag,gyro_mag,dax,day,daz
120822.0,1.8344319489999998,-1.966625591,9.6878914685,-0.1628531818450869,-0.181290840063155,0.5748049905225605,10.05425272688742,0.6243302849113714,0.0,0.0,0.0
120832.0,1.7949111494999999,-2.2407214585,9.718978549,-0.17111382519477605,-0.195147008994738,0.5580166684476271,10.134154267875731,0.6154225366021053,-0.03952079949999998,-0.27409586750000003,0.031087080499998976
120842.0,1.6620310419999997,-2.3197630575,9.7728170575,-0.14073636956381474,-0.17383130284013124,0.5276409581459177,10.180943034261428,0.5730872780635093,-0.13288010750000012,-0.07904159899999996,0.05383850850000016
120852.0,1.4597198525,-2.256314032,9.7237838075,-0.0927729763897586,-0.16477129869302867,0.5031260634724054,10.08829552470495,0.5374869689270996,-0.20231118949999982,0.06344902549999976,-0.04903324999999903
120862.0,1.3914655684999997,-2.292206371,9.7812507765,-0.04614301476422609,-0.15517722379481583,0.49353373390344457,10.142152297631695,0.5194080237124509,-0.06825428400000022,-0.03589233899999966,0.057466969000000034
120872.0,1.336450262,-2.417927624,9.7955684855,-0.01656491993067818,-0.11494214854859057,0.5052571104890905,10.177702847490828,0.5184311350459779,-0.05501530649999964,-0.12572125300000003,0.014317709000000178
120882.0,1.1592440965,-2.5004996169999996,9.864999567499998,-0.004307472593922005,-0.07124259473715654,0.5295049697870476,10.242780954245893,0.5342935285535586,-0.17720616550000012,-0.08257199299999973,0.0694310819999977
120892.0,0.9401635354999999,-2.56149698,10.0015081355,0.012479104151759455,-0.05445601799147507,0.5606817862154223,10.367031360833519,0.5634582959985902,-0.21908056100000006,-0.06099736300000025,0.13650856800000177
120902.0,0.7210829744999999,-2.6154335549999996,10.100849499999999,0.05111545780315793,-0.0725742809564282,0.5748049905225605,10.458853376847001,0.581618941758614,-0.21908056099999995,-0.05393657499999982,0.09934136449999897
120912.0,0.6289004645,-2.6908466935,10.2205886965,0.1060078081076316,-0.1074808659963148,0.5569520176039106,10.587568418914316,0.5770488210265826,-0.09218250999999988,-0.07541313850000053,0.1197391965000012
120922.0,0.618211216,-2.6453438374999996,10.336699432499998,0.16782737021327074,-0.1359925646568942,0.5308384013355714,10.687721192285716,0.5731050620673027,-0.010689248500000081,0.04550285600000059,0.11611073599999777
120932.0,0.64331624,-2.4406790519999997,10.336699432499998,0.23390902635228003,-0.15784234156261118,0.5375003230904337,10.640400611695274,0.6070702057598942,0.02510502400000003,0.2046647854999999,0.0
120942.0,0.6828370395,-2.1736439725,10.284037722,0.2975943454283011,-0.16290554172264674,0.5995851752423761,10.533395768185,0.688914357758117,0.03952079949999998,0.26703507949999983,-0.05266171049999713
120952.0,0.715100918,-1.8852303959999999,10.2660915525,0.36687344475696404,-0.14105576481692972,0.7157630169013784,10.462222456688572,0.8165840738219752,0.03226387850000001,0.2884135765,-0.017946169500000053
120962.0,0.503277278,-1.5643568079999999,10.374945367499999,0.45773703094504087,-0.0896278930776648,0.881235937953709,10.504284441117193,0.9970622483361187,-0.21182363999999998,0.320873588,0.10885381499999802
120972.0,0.09267284249999999,-1.2997733909999998,10.627564671499998,0.5464695701164326,-0.038734092089510154,1.0459094982086259,10.70715321505224,1.180701486149762,-0.41060443550000003,0.2645834170000001,0.25261930399999954
120982.0,-0.340683021,-1.298596593,10.868219862499998,0.6002955242479376,-0.0235462369386555,1.1796750227399753,10.950827412199882,1.3238362062516038,-0.4333558635,0.0011767979999997014,0.2406551910000001
120992.0,-0.6746975199999999,-1.4050968119999998,11.0572920745,0.5795103981859372,-0.025410248579785442,1.2366966747318822,11.16661192194782,1.3659782749485456,-0.33401449899999996,-0.10650021899999973,0.18907221200000102
121002.0,-0.9847837929999999,-1.3991147554999999,10.992666251,0.5014383300857268,-0.04752706086105759,1.2409605140945041,11.125018315665267,1.339284218504403,-0.3100862729999999,0.005982056499999944,-0.06462582350000012
121012.0,-1.1104069795,-1.2387760279999998,10.7077830685,0.41750195569881554,-0.08350004207391272,1.2385624317022639,10.836244180975484,1.3097011251666948,-0.12562318650000015,0.1603387275000001,-0.2848831824999998
121022.0,-0.9487933875,-0.999297635,10.309142746,0.3889902570382362,-0.10215237578997612,1.2931877466311825,10.400828275329072,1.3542832332962131,0.16161359200000003,0.23947839299999973,-0.39864032250000037
121032.0,-0.7512874565,-0.7180429129999999,9.813514654999999,0.4513421445657336,-0.1082802267937282,1.4362768200266856,9.868388336050803,1.5094122838779553,0.19750593100000002,0.2812547220000001,-0.4956280910000004
121042.0,-0.776490547,-0.24036099149999998,9.404087017499998,0.6104201792387568,-0.08483172829318439,1.6273310319254968,9.43915057664233,1.7401193938390511,-0.025203090500000025,0.4776819214999999,-0.40942763750000033
121052.0,-1.2241641195,0.146315218,9.305922450999999,0.8326512075659428,0.015357152088298106,1.8391686245570567,9.387234875005282,2.018931674211978,-0.44767357249999995,0.3866762095,-0.0981645664999995
121062.0,-1.7317563235,0.135527903,9.4364489625,1.005585411170549,0.18562798325436092,1.9726671137128509,9.59499436155859,2.221953039299056,-0.507592204,-0.010787314999999992,0.13052651150000116
121072.0,-2.1734478394999996,-0.2380073955,9.898538310500001,1.0133119837691278,0.38281004615692427,1.950817336807134,10.137138832815506,2.2313746860346133,-0.4416915159999997,-0.3735352985,0.462089348000001
121082.0,-2.764886901,-0.7467763974999999,10.6036364455,0.8326512075659428,0.6615286557249067,1.780546505641071,10.983595969969048,2.073951314413348,-0.5914390615000005,-0.508769002,0.7050981349999983
121092.0,-3.3190606924999995,-1.3764613940000001,11.136333673500001,0.43002643841112687,0.9141353943538021,1.4122959961042836,11.70165533320825,1.7364176449100979,-0.5541737914999993,-0.6296849965000002,0.5326972280000017
121102.0,-3.540592916,-1.8397275399999997,11.393758236,-0.08184896060152609,1.040971961754734,0.8884301851304296,12.07220453598603,1.3709960143493995,-0.22153222350000057,-0.4632661459999996,0.2574245624999989
121112.0,-3.401730752,-1.9641739285,11.4224917205,-0.48367436895892857,1.0002028157573983,0.3472454719890358,12.079034250940454,1.1640128803641883,0.13886216399999984,-0.12444638850000023,0.028733484500000017
121122.0,-2.8594230069999997,-1.6577161159999998,11.2189056665,-0.6398202504886012,0.8038201136522485,-0.0913522783786352,11.695647353098197,1.031427150511454,0.5423077450000005,0.30645781250000015,-0.20358605400000052
121132.0,-2.3865463439999997,-1.0137134105,10.8729270545,-0.5356345661200518,0.5413557554080891,-0.3658087939132475,11.177824522829356,0.8448588734459406,0.4728766630000001,0.6440027054999997,-0.3459786119999997
121142.0,-2.064495958,-0.5144568589999999,10.465951079499998,-0.2659742153699199,0.25810452577267745,-0.4993055377397898,10.680025347294718,0.6218249347554374,0.32205038599999947,0.49925655150000015,-0.4069759750000017
121152.0,-1.713810154,-0.2068222485,10.0817265325,0.03859272042009861,0.032944834960644966,-0.559259342875047,10.228447123710547,0.5615565624343085,0.35068580400000027,0.30763461049999996,-0.38422454699999875
121162.0,-1.311541371,-0.1817172245,9.766835001,0.28720265506192694,-0.0499251432532978,-0.6029606420157331,9.85617714198985,0.6697308570041457,0.402268783,0.025105024000000004,-0.31489153149999893
121172.0,-1.1044249229999998,-0.32293298449999996,9.556188159,0.44628068973495005,0.03214547416323156,-0.668242937357329,9.625215439315289,0.8042066953634699,0.20711644800000006,-0.14121575999999997,-0.21064684200000094
121182.0,-0.9799785344999999,-0.5899680639999999,9.464005648999999,0.5027700163049985,0.24211730982440938,-0.7972105517749459,9.532881157809772,0.9731100373920984,0.1244463884999999,-0.26703507949999994,-0.09218251000000066
121192.0,-0.892601283,-1.0592162664999998,9.4950927295,0.4686627920625253,0.5224363863164706,-0.9855996459059618,9.595595973749374,1.2099550621495045,0.08737725149999997,-0.4692482024999999,0.031087080500000752
121202.0,-0.8530804834999999,-1.3333121339999998,9.707014436,0.4148368379310202,0.8094156392341423,-1.221952133211034,9.835222255684547,1.5232893011507758,0.03952079950000009,-0.27409586750000003,0.21192170650000008
121212.0,-0.81591328,-1.2519169389999998,10.044559328999998,0.4057768337839177,1.057226213078557,-1.4756252680128978,10.155106233636179,1.8600677503935883,0.03716720349999991,0.08139519500000003,0.3375448929999987
121222.0,-0.7369697474999999,-0.8532766165,10.3857326825,0.43455556782005217,1.2125744791400683,-1.6871958252689025,10.446753024042664,2.122688192314177,0.07894353250000008,0.3986403224999998,0.3411733535000021
121232.0,-0.559763582,-0.2487947105,10.6526696955,0.4790544824288996,1.2663986879423215,-1.8105679141046256,10.670267368586895,2.260843870226874,0.1772061654999999,0.604481906,0.2669370129999997
121242.0,-0.29047297299999997,0.32469818149999996,10.852627288999999,0.5168932206121366,1.2520101935888803,-1.8310860047910709,10.861368354450573,2.277626853395213,0.269290609,0.573492892,0.19995759349999886
121252.0,-0.28802131049999996,0.6645966704999999,11.004630364,0.5424727661293656,1.210176396747828,-1.7666013249176364,11.028442068488758,2.209000646092787,0.002451662500000007,0.33989848899999997,0.15200307500000143
121262.0,-0.49396096049999993,0.6622430745,11.166243956,0.531548750341133,1.1933880746728946,-1.6914596646315245,11.196765935087141,2.137230677263474,-0.20593964999999997,-0.002353595999999958,0.16161359200000014
121272.0,-0.7705084904999999,0.3964828595,11.4248453165,0.4657323842484269,1.1752698117079414,-1.6831990212818355,11.457659992239336,2.1050711934027015,-0.27654753,-0.26576021499999997,0.25860136050000015
121282.0,-0.873380249,0.133174307,11.708551701,0.38952258246009447,1.094797915886239,-1.7727309212506404,11.74183594632365,2.119642714712406,-0.10287175850000008,-0.2633085525,0.2837063844999985
121292.0,-0.8027723689999999,-0.04766031899999999,11.732479927,0.3229086008992269,0.9562362265704093,-1.9328736067673804,11.760008512747556,2.180517843375342,0.07060788000000007,-0.180834626,0.023928226000000663
121302.0,-0.6328231245,-0.011767979999999999,11.572043133,0.2565581640554105,0.7928960978640159,-2.0935503630352303,11.589339319575886,2.2533218669591815,0.16994924449999993,0.035892338999999995,-0.16043679400000066
121312.0,-0.1719105745,-0.0571727695,11.2763726355,0.1894101117434326,0.6346174239884061,-2.2265165267691662,11.277827884209373,2.322927314669267,0.46091255,-0.0454047895,-0.29567049749999974
121322.0,0.42305888099999994,-0.36127698599999997,11.154279843,0.1449111971345852,0.5661359401279046,-2.347223497837094,11.168144818785361,2.4188772822444067,0.5949694554999999,-0.30410421649999997,-0.12209279250000016
121332.0,0.9233941639999999,-0.3900104705,11.019046139499999,0.09934588635276922,0.5205706293460887,-2.4932447243759475,11.064544399731908,2.548947359382201,0.5003352829999999,-0.028733484500000017,-0.13523370350000086
121342.0,1.5231688780000001,-0.19485813549999997,10.737693350999999,0.05457993636836668,0.400128948324464,-2.6184825701820524,10.846938352548516,2.64944015125619,0.5997747140000003,0.195152335,-0.28135278849999956
121352.0,2.273769869,0.075707338,10.3282657135,0.061241858123229034,0.1565822138426713,-2.676303582971373,10.575860894833053,2.681579650710317,0.750600991,0.2705654735,-0.40942763749999855
121362.0,3.2506102754999997,0.239674526,9.864999567499998,0.13718287920675432,-0.13146343524796889,-2.677104689098038,10.389520080753233,2.6838389097606723,0.9768404064999996,0.16396718799999999,-0.46326614600000227
121372.0,4.3040406185,0.239674526,9.392122904499999,0.24883159145683156,-0.332109976715741,-2.638201300071085,10.334127064118416,2.670640428293901,1.0534303430000005,0.0,-0.4728766629999992
121382.0,5.255776000999999,0.251638639,8.921697904,0.32397325174294345,-0.39419482886768326,-2.5665223730209297,10.35776022446761,2.61675090946156,0.951735382499999,0.011964112999999998,-0.4704250004999988
121392.0,5.9356710454999995,0.12836904849999997,8.5901350675,0.3090524319676439,-0.28281315199316115,-2.4626019786986832,10.442178405433086,2.497980222126687,0.6798950445000003,-0.12326959050000003,-0.33156283649999985
121402.0,6.260075027499999,0.008629852,8.439308790499998,0.19500563732532644,-0.05099153942626634,-2.3378964583144364,10.507642299092847,2.346569237308139,0.32440398199999976,-0.11973919649999998,-0.15082627700000195
121412.0,6.353434335499999,-0.30018155649999995,8.6175936875,0.036194638027858404,0.1986847913885305,-2.1961390711382047,10.710702954765058,2.205405295615944,0.09335930800000014,-0.30881140849999994,0.17828489700000105
121422.0,6.262526689999999,-0.86886919,8.979164873,-0.09224065096790032,0.3542983474963449,-2.066105060547619,10.981783827266439,2.0982911566200966,-0.09090764550000063,-0.5686876335,0.3615711855000008
121432.0,6.102089896,-1.368027675,9.309550911499999,-0.13887235792268482,0.34310729633255727,-1.9715117057480307,11.214933748901135,2.0059577648826887,-0.16043679399999888,-0.49915848500000004,0.3303860384999986
121442.0,6.0972846375,-1.7498986259999998,9.598062554499998,-0.10982658851099518,0.2080100855819362,-1.9134219122539033,11.5048611444061,1.927826104590648,-0.004805258500000242,-0.3818709509999998,0.28851164299999965
121452.0,6.195449203999999,-1.8468863944999998,9.7153500885,-0.04347789699643074,0.004965461721923867,-1.8718551507884065,11.669730396870802,1.8723666010881608,0.0981645664999995,-0.09698776850000002,0.1172875340000008
121462.0,6.270862342499999,-1.6613445765,9.5417723835,0.018873990531066677,-0.18635404022319055,-1.817495125905791,11.53816278871874,1.8271213940287,0.07541313850000009,0.18554181799999991,-0.17357770499999958
121472.0,6.244580520499999,-1.261527456,9.175494006,0.059643136528402224,-0.23405039802169159,-1.71623984935134,11.170314572714226,1.7331520744154472,-0.02628182200000051,0.39981712049999985,-0.3662783775000005
121482.0,6.104443492,-0.757465646,8.876195048,0.07589738785222543,-0.09762150105179884,-1.5664888542009747,10.799297342051059,1.5713617347021913,-0.14013702849999898,0.50406181,-0.2992989579999996
121492.0,5.7836679705,-0.5300494325,8.9288567585,0.07136651311404814,0.19015711266328622,-1.3602467871513089,10.651584417714217,1.37532695336271,-0.3207755214999999,0.22741621349999996,0.05266171050000068
121502.0,5.2066446845,-0.7263785654999999,9.303568855,0.037793359622685214,0.4451619336844217,-1.1577344887131544,10.686120349817138,1.2409458616672735,-0.5770232860000002,-0.19632913299999988,0.3747120964999997
121512.0,4.43456713,-1.182485857,9.869804826,0.008482300164692442,0.5602733791704557,-0.9949266854286195,10.884700534962564,1.1418657181127492,-0.7720775545,-0.4561072915000002,0.5662359709999993
121522.0,3.6803376785,-1.9282815894999998,10.457615427,-0.007771951159130749,0.5176402215319902,-0.8912715811526764,11.252771913409594,1.0307166601655857,-0.7542294514999996,-0.7457957324999998,0.587810601000001
121532.0,3.098509134,-2.641715377,10.888519628,-0.027755971094465825,0.3129968760771511,-0.8872747771656093,11.624942093442915,0.9412725261898033,-0.5818285445,-0.7134337875000003,0.4309042009999988
121542.0,2.816077614,-3.0511430145,10.9052889995,-0.0517385403461199,0.03374419575805837,-0.9549569002286975,11.668980031931659,0.9569525738504013,-0.2824315199999998,-0.4094276374999999,0.016769371500000574
121552.0,2.56345831,-3.0116222149999996,10.622759413,-0.08184896060152609,-0.199143812981805,-1.033830074455573,11.335087314152885,1.0560123737197864,-0.252619304,0.039520799500000425,-0.28252958649999904
121562.0,2.2378775299999996,-2.7949933165,10.170280582,-0.14952933833536217,-0.2897421091235786,-1.1047096407083148,10.782146845371974,1.1518215587044223,-0.32558078000000057,0.21662889849999978,-0.4524788310000005
121572.0,1.8212910379999998,-2.4011582525,9.718978549,-0.258247642771341,-0.23218638638056163,-1.1574691986668515,10.175519939274361,1.2084441687061513,-0.41658649199999975,0.3938350639999997,-0.45130203300000105
121582.0,1.3100703734999999,-2.049197584,9.3550537675,-0.3507099505542446,-0.1589087377355797,-1.2070295681064824,9.66605018167244,1.2669529725407322,-0.5112206644999999,0.3519606685000003,-0.36392478149999974
121592.0,0.8265044619999999,-1.854045249,9.174317208,-0.3616339663424771,-0.12027063875492924,-1.227814694168483,9.396206130351244,1.2856022228415585,-0.48356591149999995,0.19515233499999995,-0.18073655949999967
121602.0,0.4529691635,-1.5823029775,9.1683351515,-0.31446993396583434,-0.14984873358847714,-1.241936153146369,9.314893087197392,1.2898648730849864,-0.37353529849999995,0.27174227149999997,-0.00598205650000061
121612.0,0.1860321505,-0.941830666,8.9372904775,-0.22467274395072606,-0.33290933751315444,-1.3317350884907293,8.988704803454713,1.3909798038775425,-0.266937013,0.6404723115,-0.23104467399999962
121622.0,1.7458778995,1.78873296,8.744491738499999,-0.0019093902016817964,-0.6334777239868539,-1.3850269718711241,9.094712255307895,1.5230224507107577,1.559845749,2.730563626,-0.19279873900000055
121632.0,4.598534318,5.69962498,8.7899945945,0.1550358521254043,-0.84211787342876,-1.1481421591441936,11.440989806734509,1.432281063826761,2.8526564184999996,3.9108920200000004,0.04550285600000059
121642.0,5.756111284,7.047549022499999,8.62004535,0.20353331605057073,-0.8018827981825347,-0.6733061375173645,12.534191085761755,1.0666691087596685,1.1575769660000006,1.347924042499999,-0.1699492444999997
121652.0,4.224999019499999,4.840170174,8.5099166705,0.20593139844281094,-0.568195428645258,-0.31811069078549453,10.662858236275532,0.6829701293541356,-1.5311122645000008,-2.2073788484999994,-0.11012867950000071
121662.0,2.7274254979999997,1.1518891089999999,8.4093004415,0.20619668848911407,-0.35342568287034776,-0.0018203784098300858,8.915269613533033,0.4091822349929226,-1.4975735214999997,-3.688281065,-0.10061622899999989
121672.0,-0.1587696635,0.115130071,8.227387084,-0.010702358973229228,-0.052323225645538006,-0.33809645605008154,8.229724234095963,0.34228858295767106,-2.8861951615,-1.0367590379999998,-0.18191335749999915
121682.0,-0.16357492199999998,-1.28663248,9.094098811,-0.36083460554506364,0.21600369355607021,-0.8299860897981474,9.186120676212015,0.9304494169202024,-0.0048052584999999925,-1.401762551,0.8667117270000002
121692.0,0.387166542,-0.9227076984999999,9.630424499499998,-0.6320936778900224,0.4043927876870862,-1.2272823687466248,9.68227057402783,1.4385054594954425,0.550741464,0.36392478150000007,0.5363256884999981
