timestamp,ax,ay,az,gx,gy,gz,acc_mag,gyro_mag,dax,day,daz
82642.0,1.0860864875,-0.5016101475,9.944825698499999,0.09041329124106225,-0.04350233160595866,-0.09041852722881824,10.016524086326108,0.1350648960848987,0.0,0.0,0.0
82652.0,0.943595863,-0.544661341,9.779681712499999,0.07735648310689268,-0.07228106564209316,-0.11359999035380693,9.84018310433589,0.15528533651767826,-0.14249062450000005,-0.04305119349999997,-0.16514398600000035
82662.0,1.2106309425,-0.5230867109999999,9.831166624999998,0.08028689092099116,-0.0725463556883963,-0.11786382971642907,9.919228003966694,0.16000262789357503,0.26703507949999994,0.02157463000000004,0.051484912499999425
82672.0,1.1184484325,-0.3327396345,9.810768793000001,0.1202566761209133,-0.061622339900163796,-0.09814509982739714,9.87992038784886,0.16700730985963252,-0.09218251,0.19034707649999993,-0.020397831999996896
82682.0,1.1566943674999999,-0.18789541399999998,9.821556108,0.14183941765107516,-0.0632210614949906,-0.06403787558492394,9.891218879844917,0.16797670232975676,0.03824593499999995,0.1448442205,0.010787314999998188
82692.0,1.1566943674999999,-0.186718616,9.801256342499999,0.13544453127176795,-0.03577575900737977,-0.030997047515419294,9.871040046153375,0.14347802249353803,0.0,0.001176797999999979,-0.020299765500000788
82702.0,1.1111915115,-0.23820352849999998,9.846661132,0.1125283581930824,0.003394665395128971,-0.00355174502780846,9.912024159810095,0.1126355629608966,-0.045502855999999925,-0.05148491249999998,0.04540478950000093
82712.0,1.0178322034999998,-0.29684729549999994,9.858723311499999,0.0853500910810267,0.05668829410477583,0.008972737684502848,9.915569879943403,0.10285285974441358,-0.09335930800000014,-0.05864376699999996,0.012062179499999104
82722.0,0.8359188459999999,-0.3794192885,9.970028788999999,0.05737071784230561,0.11530866769150937,0.006307619916707507,10.012202223640541,0.12894678817072577,-0.18191335749999993,-0.08257199300000007,0.1113054775000002
82732.0,0.6143866225,-0.4968048889999999,10.1148730095,0.032323497746934986,0.15101461352880935,-0.015009831567151233,10.145685882085688,0.15516287265169462,-0.2215322234999999,-0.11738560049999991,0.14484422050000134
82742.0,0.46954240199999997,-0.5841821405,10.227355284999998,0.011540117014186507,0.15741124523736857,-0.05151513820186463,10.254781078412766,0.16602796117472898,-0.1448442205,-0.08737725150000003,0.1124822754999979
82752.0,0.3354854965,-0.5913409949999999,10.344740885499998,-0.006045820528908358,0.1435550763057856,-0.0986791705785074,10.367058342599638,0.17430487825958818,-0.1340569055,-0.007158854499999978,0.11738560050000046
82762.0,0.24810824499999998,-0.5315204299999999,10.40093299,-0.015639895427121187,0.10998017748517068,-0.1397136066221461,10.41746028220001,0.17849408293836722,-0.0873772515,0.05982056499999999,0.056192104500000895
82772.0,0.152395341,-0.45247883099999997,10.459576757,-0.02976135440500731,0.07720463946196916,-0.17275443469165072,10.470468345209602,0.19154735517909116,-0.09571290399999999,0.07904159899999996,0.05864376700000129
82782.0,0.09610516999999999,-0.4213917505,10.456046362999999,-0.05400921370296453,0.044163811392464516,-0.1975363647407182,10.464975525833573,0.20949475601193393,-0.056290171,0.031087080499999975,-0.0035303940000019907
82792.0,0.00392266,-0.42619700899999996,10.446435845999998,-0.08038986534685881,0.005527457741066041,-0.212991255267128,10.45512702755618,0.2277243027431026,-0.09218251,-0.004805258499999965,-0.009610517000000485
82802.0,-0.085906254,-0.4716017985,10.3674923135,-0.09451132432474493,-0.027515115657690607,-0.22578102802574243,10.378568543460428,0.24630579496153618,-0.089828914,-0.04540478950000004,-0.07894353249999853
82812.0,-0.15406247149999996,-0.5315204299999999,10.271681343,-0.09744347746809541,-0.05522745352085657,-0.24150295392770738,10.286577993908681,0.2662122831112079,-0.06815621749999996,-0.05991863149999993,-0.09581097050000054
82822.0,-0.193583271,-0.5961462535,10.196268204499999,-0.10144028145516243,-0.07467914803433338,-0.2668172093986331,10.215515167453415,0.29505682348339357,-0.03952079950000004,-0.06462582350000001,-0.07541313850000009
82832.0,-0.212804305,-0.6285081985,10.0944751775,-0.1081022032100248,-0.07387978723691996,-0.2987916412951692,10.116261035430625,0.3262219401096363,-0.019221033999999998,-0.032361945,-0.10179302699999937
82842.0,-0.24389138549999997,-0.6117388269999999,10.019062039,-0.1198255797956707,-0.047499135593025675,-0.3318342146939259,10.040682822483303,0.35598916204989695,-0.031087080499999975,0.01676937150000002,-0.07541313850000009
82852.0,-0.259483959,-0.7002928764999999,9.946100562999998,-0.14087599590397432,0.0039287361462392355,-0.36913888212605267,9.974099380253028,0.39512655629167115,-0.015592573500000012,-0.08855404950000001,-0.07296147600000147
82862.0,-0.30498681499999997,-0.797280645,9.916092214,-0.16672432212601032,0.062016784311114515,-0.4178998907682703,9.952766358192424,0.45418432362731453,-0.04550285599999998,-0.09698776850000002,-0.03000834899999738
82872.0,-0.30253515249999996,-0.8798526379999999,9.8838283355,-0.1891064244535856,0.10518401270069026,-0.47225991565088565,9.927523898169497,0.5194750660311044,0.002451662500000007,-0.08257199299999995,-0.03226387850000023
82882.0,-0.29900475849999997,-0.870242121,9.8502895925,-0.20083154636848352,0.13635908379981299,-0.520488598871245,9.893175943592736,0.5743130603655401,0.0035303939999999923,0.00961051699999993,-0.03353874300000115
82892.0,-0.3397023559999999,-0.8056162975,9.799981478,-0.20349491880702686,0.15501141751587638,-0.5548628584892733,9.838905034535733,0.6109922366703583,-0.04069759749999996,0.06462582350000001,-0.050308114499999945
82902.0,-0.3337202995,-0.8115983539999999,9.717409485,-0.2074917227940939,0.16913462182301447,-0.574047517627195,9.756951789656533,0.6333955224196173,0.005982056499999944,-0.005982056499999944,-0.08257199300000018
82912.0,-0.316950928,-0.8331729839999998,9.671906629,-0.21575236614378304,0.18751992016352276,-0.5924345612969553,9.712899307216238,0.6577929107051024,0.016769371499999963,-0.021574629999999928,-0.045502855999998815
82922.0,-0.295376298,-0.90025047,9.646801605,-0.2264110918857124,0.2024424852680743,-0.6180141068141841,9.693218210294555,0.6886119216160353,0.02157463000000004,-0.06707748600000019,-0.025105024000000142
82932.0,-0.240262925,-0.9791940024999999,9.6623941785,-0.23253894288946447,0.20910440702293664,-0.6507896448373857,9.714855038978822,0.7220292063511934,0.05511337299999999,-0.07894353249999986,0.015592573499999318
82942.0,-0.13376270599999998,-0.9899813175,9.6204217165,-0.2285421389023975,0.2040412068629011,-0.6918240808810242,9.672149165196961,0.7566273073574769,0.10650021900000001,-0.010787315000000075,-0.04197246200000038
82952.0,-0.0499158485,-0.9684066875,9.5594243535,-0.21388660917340108,0.18938567713390472,-0.7299281091105646,9.608480476881613,0.7838427525702378,0.08384685749999998,0.021574629999999928,-0.06099736299999847
82962.0,0.1271922505,-0.9265322919999999,9.449295674,-0.19656770700586135,0.18325782613015262,-0.7635030079311794,9.495463584858886,0.809419012252276,0.177108099,0.04187439550000016,-0.11012867950000071
82972.0,0.2768417295,-0.842783501,9.321220825,-0.1805787457283413,0.19098439872873152,-0.7901489496213768,9.363337174382007,0.8327178913379736,0.14964947900000003,0.08374879099999988,-0.12807484900000077
82982.0,0.46238354749999994,-0.7338316194999999,9.140386199,-0.15899600419817944,0.21842970121634234,-0.8029387223799913,9.181446904363513,0.8471728605318166,0.18554181799999991,0.10895188150000013,-0.18083462599999933
82992.0,0.619191881,-0.5949694555,8.9345446155,-0.12462174458015111,0.2597311726355362,-0.7909483104187902,8.975715833560816,0.8417779345024257,0.15680833350000006,0.13886216399999984,-0.20584158349999981
83002.0,0.731772223,-0.5171046545,8.768125764999999,-0.07879114375203201,0.3175539307541083,-0.7515125959699784,8.813791309131204,0.8196460975156744,0.112580342,0.07786480100000004,-0.16641885050000127
83012.0,0.800026507,-0.5255383735,8.588566003499999,-0.039088393927665,0.39109861477464536,-0.6912917554591661,8.641741664178557,0.7952171528483941,0.068254284,-0.008433719000000006,-0.1795597615000002
83022.0,0.7664877639999998,-0.5830053425,8.467650009,-0.026031585793495425,0.4854249341986789,-0.6249413186153496,8.52223535210469,0.7917491155116043,-0.03353874300000015,-0.057466969000000034,-0.1209159944999989
83032.0,0.742559538,-0.951637316,8.466473211,-0.074794339764965,0.5976059718706144,-0.5863049649639511,8.552086112829963,0.8405240049027026,-0.023928225999999886,-0.3686319735,-0.0011767979999994793
83042.0,0.7042155364999999,-1.2677056455,8.443721782999999,-0.1712534515349356,0.7055231701799277,-0.5916334551702899,8.567347003255398,0.9365472938405722,-0.03834400150000006,-0.31606832949999997,-0.022751428000001184
83052.0,0.641943309,-1.43765489,8.43175767,-0.23840150384691344,0.791325301537221,-0.6326696365431804,8.57749848151048,1.0408178893990647,-0.062272227499999944,-0.16994924449999993,-0.011964112999999443
83062.0,0.6324308585,-1.5382711189999998,8.4963834935,-0.2218819624767871,0.8539424791110216,-0.6934228024758512,8.657642825558918,1.1221784821926908,-0.009512450499999936,-0.10061622899999989,0.06462582350000012
83072.0,0.651553826,-1.470016835,8.674766457,-0.1307513409131552,0.8845869701175381,-0.7624366117582109,8.822530530797328,1.1751168485736452,0.019122967499999977,0.06825428399999978,0.1783829635000007
83082.0,0.6718535915,-1.2341669024999997,8.912969985499998,-0.004447098934081553,0.8893831349020185,-0.8111993657296804,9.0230587471246,1.203771800756816,0.02029976550000001,0.2358499325000003,0.23820352849999793
83092.0,0.709020795,-0.8870114925,9.1332273445,0.11466115053901949,0.8795237699575025,-0.8223904168934681,9.203550488908725,1.209559936159181,0.03716720350000002,0.3471554099999997,0.22025735900000143
83102.0,0.7879643275,-0.62370294,9.348679445,0.1839402498676824,0.8638018440555375,-0.8010729654096094,9.40253691852059,1.1923529415509813,0.07894353249999997,0.26330855249999996,0.2154521005000003
83112.0,0.8514133529999999,-0.3878530075,9.5582475555,0.21511706629605712,0.8342254945512417,-0.7437842780421474,9.603927893592038,1.1381663236248754,0.06344902549999987,0.23584993250000003,0.20956811049999935
83122.0,0.938888671,-0.268113811,9.634837491999999,0.2097885760897184,0.8083789136584576,-0.6667768607856537,9.684187650465573,1.0686810079647484,0.08747531800000008,0.11973919650000003,0.07658993649999957
83132.0,0.9376138064999999,-0.392658266,9.722214743499999,0.18474135599434777,0.7875937875964572,-0.6148166636245305,9.775211490434685,1.0160870399456745,-0.001274864500000028,-0.124544455,0.08737725149999953
83142.0,0.9927271795,-0.6285081985,9.697109719499998,0.1716845478601782,0.7625465675010865,-0.5977630515032939,9.768032899234168,0.9840089010390975,0.05511337300000008,-0.23584993249999997,-0.025105024000000142
83152.0,1.0382300355,-0.615269221,9.663570976499999,0.20232729353744264,0.7351012650134757,-0.6033585770851877,9.738638602945354,0.9722920220164625,0.045502856000000036,0.013238977499999915,-0.03353874299999937
83162.0,1.0645118574999999,-0.5063173395,9.7353556545,0.2622810986726999,0.7052578801336246,-0.6180141068141841,9.806461770824457,0.9737153015295931,0.026281821999999844,0.10895188150000001,0.07178467800000021
83172.0,1.0837328915,-0.45247883099999997,9.8479359965,0.3150406566312364,0.6620906517440489,-0.6294721933535269,9.917714326586673,0.9663590888809397,0.01922103400000008,0.05383850850000005,0.11258034200000111
83182.0,1.1088379154999999,-0.3052810145,9.944825698499999,0.32942915098467773,0.6138602231944376,-0.6324026011676254,10.0111076407264,0.9408937182819264,0.02510502399999992,0.14719781649999997,0.09688970199999858
83192.0,1.1244304889999999,-0.18554181799999997,10.028672556,0.3115761780660277,0.5773549165597242,-0.6329366719187357,10.093217669617905,0.911606957560924,0.015592573499999984,0.11973919650000003,0.08384685750000109
83202.0,1.1327661414999999,-0.1209159945,10.065741693,0.2939902405229329,0.5483108924772866,-0.6294721933535269,10.13000175909428,0.8850482125496161,0.008335652500000013,0.06462582349999997,0.037069136999999586
83212.0,1.150712311,0.005982056499999999,10.110067750999999,0.28972640116031073,0.5064770956362344,-0.6166824205949125,10.175344934570871,0.8489744659318214,0.017946169500000053,0.126898051,0.044326057999999335
83222.0,1.1686584805,0.112580342,10.196268204499999,0.30011809152668495,0.44945369831507576,-0.5969636907058805,10.263640790457695,0.8052609166052361,0.017946169500000053,0.1065982855,0.08620045350000005
83232.0,1.2249486514999999,0.18073655949999998,10.3470944815,0.3131748996608545,0.3958947795591258,-0.5860379295883961,10.42091786321336,0.7734672903077472,0.05629017099999989,0.06815621749999998,0.15082627700000018
83242.0,1.3015385879999999,0.2801759905,10.402207854499999,0.30544832706227565,0.35645731978106193,-0.5756462392220218,10.487060099471499,0.7427846888978652,0.07658993650000001,0.09943943100000005,0.0551133729999993
83252.0,1.357828759,0.4190381544999999,10.4763461285,0.2809334323887633,0.33034370351272274,-0.560191348695612,10.572280743426708,0.7084242394481165,0.05629017100000011,0.1388621639999999,0.07413827400000095
83262.0,1.3889158395,0.5004333495,10.5206721865,0.25855133006118797,0.3100926482018325,-0.5476686113125527,10.623749997166748,0.680402196176831,0.031087080500000086,0.08139519500000003,0.04432605800000111
83272.0,1.3877390415,0.5039637435,10.548228873,0.23190364304173858,0.29677055002135977,-0.5378092463680367,10.651053068089404,0.6565750867151191,-0.0011767980000001454,0.0035303939999999923,0.02755668649999876
83282.0,1.3494931065,0.5375024865,10.6105011005,0.19966217576964732,0.2714562945504341,-0.5250194736094222,10.709471236769648,0.6238581184478057,-0.03824593499999995,0.03353874300000004,0.062272227500001165
83292.0,1.347041444,0.5793768819999999,10.685914239,0.1802104812561705,0.23042185850679536,-0.5154253987112094,10.786054021119707,0.592649468125059,-0.0024516624999999515,0.04187439549999994,0.07541313850000009
83302.0,1.3314488705,0.6740110545,10.734947489,0.18100984205358392,0.1683352610256011,-0.49464201797846097,10.838179948124655,0.5529665893836848,-0.015592573499999984,0.09463417250000006,0.04903324999999903
83312.0,1.3290952745,0.752954587,10.6726752615,0.17621367726910347,0.09319360073948922,-0.4520071150107435,10.781439240482538,0.4940108696130345,-0.002353596000000069,0.07894353249999997,-0.06227222749999939
83322.0,1.3745981305,0.8009091055,10.603244179499999,0.1631568691349339,0.017517869702267087,-0.3963171492381084,10.721929049650884,0.428945593851995,0.045502855999999925,0.0479545185000001,-0.06943108200000125
83332.0,1.4212777845,0.772175621,10.495567162499999,0.14557093159183906,-0.04483401782523034,-0.3440899167014301,10.619473423523797,0.3762962344409867,0.04667965400000007,-0.028733484500000017,-0.10767701700000032
83342.0,1.4069600754999998,0.6835235049999999,10.3961277315,0.11732626830681481,-0.08160635983549887,-0.2998580374681378,10.513144764798104,0.33217449305244184,-0.014317709000000178,-0.08865211600000011,-0.09943943099999863
83352.0,1.4045084129999998,0.5793768819999999,10.271681343,0.07655712230947927,-0.10238974056824734,-0.2676165701960465,10.383436765624284,0.296586042479138,-0.0024516624999999515,-0.104146623,-0.12444638850000089
83362.0,1.3973495585,0.4896460345,10.1364476395,0.042182862691450954,-0.12184318041097614,-0.24310167552253417,10.24401824364184,0.2751791764639377,-0.007158854499999867,-0.08973084749999993,-0.13523370349999908
83372.0,1.412942132,0.45247883099999997,10.0442651295,0.03205820770063184,-0.13729632560813393,-0.22498166722832905,10.153246010639823,0.26550849382893604,0.015592573499999984,-0.03716720350000002,-0.09218251000000066
83382.0,1.4332418974999999,0.4680714045,9.948454158999999,0.03791902332882881,-0.13383359237217718,-0.21032613749933268,10.06205810608269,0.2521633734166057,0.0202997654999999,0.01559257350000004,-0.09581097050000054
83392.0,1.447657673,0.4776819215,9.894615650499999,0.041116466518482414,-0.11731230567279886,-0.19353956075365122,10.011359129880578,0.23002239555736728,0.014415775500000061,0.009610516999999985,-0.05383850850000016
83402.0,1.5111066985,0.5064154059999999,9.889810392,0.036587337109557125,-0.08933467776332976,-0.177285309429828,10.017397346985737,0.2018648033399488,0.06344902549999998,0.028733484499999906,-0.004805258499999354
83412.0,1.5996607479999998,0.6165440855,9.956887878,0.03392221934176179,-0.0530946611749195,-0.15730128949449296,10.103398306170073,0.16945045201173228,0.0885540494999999,0.11012867950000005,0.06707748600000052
83422.0,1.6571277169999998,0.7158854499999999,10.054954378,0.0285937291354231,-0.017121679962064373,-0.12905488088021672,10.215707111680166,0.13328884255480736,0.057466969000000034,0.09934136449999997,0.09806649999999983
83432.0,1.6750738864999999,0.8283677254999999,10.169888316,0.024596925148356086,-0.001933824811209717,-0.08908684100954657,10.340149610803394,0.09244032478423317,0.017946169500000053,0.1124822755,0.11493393800000007
83442.0,1.6870379994999998,0.8379782425,10.270504544999998,0.021664772005005613,0.001530653753999027,-0.04218809867920693,10.441818249496874,0.047450404815027734,0.011964112999999887,0.00961051700000004,0.10061622899999811
83452.0,1.6606581109999998,0.798457443,10.324343053499998,0.02033308578573394,-0.016589354540206103,0.004975933697435834,10.487486788371456,0.026709567158453726,-0.02637988849999995,-0.03952079949999998,0.05383850850000016
83462.0,1.6702686279999999,0.725495967,10.28129186,0.012339477811599909,-0.048031461014883946,0.05453804846631881,10.441317158209328,0.07371351769113874,0.00961051700000004,-0.07296147600000003,-0.04305119349999842
