timestamp,ax,ay,az,gx,gy,gz,acc_mag,gyro_mag,dax,day,daz
40942.0,-0.8795584385,0.043737659,9.889221993,0.08645139383903512,-0.046504297919388905,-0.2278370258845918,9.928355737804031,0.24808507328258061,0.0,0.0,0.0
40952.0,0.0373633365,0.046091255,9.7204495465,0.06380225613590472,-0.07501599657996827,-0.22996807290127685,9.720630628141054,0.25016682870605444,0.916921775,0.0023535959999999995,-0.16877244650000023
40962.0,0.10081236199999999,0.1766177665,9.752713425,0.05607393820807382,-0.025720917186640435,-0.2257042335386547,9.754833474639673,0.2339834463468655,0.06344902549999999,0.1305265115,0.03226387850000023
40972.0,0.1175817335,0.39324666499999994,9.702503377,0.0512777734235934,0.008386307055832752,-0.21238213535818198,9.711181194081536,0.21864563021614958,0.016769371500000005,0.21662889849999994,-0.050210048000000285
40982.0,0.2001537265,0.35019547149999997,9.761147143999999,0.024364796357840838,0.04942248842872343,-0.1998576526458707,9.769477567879987,0.20731451223964967,0.082571993,-0.04305119349999997,0.058643766999999514
40992.0,0.19662333249999997,0.29753376099999995,9.828126563499998,0.006778858814745976,0.08486139889046829,-0.18413747207315775,9.834595000405074,0.20286453255798656,-0.00353039400000002,-0.052661710500000014,0.06697941949999908
41002.0,0.1762255005,0.30704621149999994,9.856860048,-0.00041538836197465044,0.10644588574988217,-0.16948194234416136,9.863215642420151,0.2001375225221844,-0.020397831999999977,0.009512450499999991,0.028733484500001794
41012.0,0.11405133949999999,0.3286208415,9.921583938,-0.0017470745812463238,0.1184362977110832,-0.16015490282150366,9.927679850009744,0.19919789603021928,-0.062174161000000006,0.02157463000000004,0.06472388999999978
41022.0,0.08286619249999999,0.336956494,9.9503174225,-0.0020141099568014562,0.1261628703096621,-0.1486968162821609,9.956365968224313,0.19501761370743262,-0.031185146999999996,0.008335652500000013,0.028733484500000017
41032.0,0.0612915625,0.31547993049999995,10.029260954999998,-0.008143706289805541,0.12802862728004405,-0.13164320416092432,10.034408779079586,0.1838139890136272,-0.02157462999999999,-0.021476563500000045,0.07894353249999853
41042.0,-0.014121576,0.2376151295,10.055640843499999,-0.025462608457345274,0.13149310584525278,-0.1223179099675186,10.058457791438078,0.1813848185849767,-0.0754131385,-0.07786480099999996,0.02637988850000106
41052.0,-0.07629573699999999,0.163378789,10.143018094999999,-0.046247734519345746,0.12829566265559916,-0.12631471395458563,10.144620729415017,0.18588716191776122,-0.06217416099999999,-0.0742363405,0.08737725149999953
41062.0,-0.16014259449999999,0.11316874099999999,10.139389634499999,-0.06010390345092873,0.11657054074070128,-0.1332419257557511,10.141285666754426,0.1869614424359182,-0.0838468575,-0.05021004800000001,-0.003628460499999875
41072.0,-0.225945216,0.11189387649999999,10.154982208,-0.06490006823540914,0.09871756782205128,-0.1393715220887552,10.158111789354754,0.18270631686670946,-0.06580262150000002,-0.0012748645000000003,0.015592573500001095
41082.0,-0.29419949999999995,0.09522257149999999,10.2064671205,-0.06676407987653908,0.08379674804675175,-0.14523408304620417,10.2111503644678,0.1804779106241077,-0.06825428399999994,-0.016671304999999997,0.051484912499999425
41092.0,-0.399522921,0.1107170785,10.279526662999999,-0.07262664083398804,0.07260395155371212,-0.1510948986744011,10.287883419401867,0.182689986440063,-0.10532342100000003,0.015494507000000005,0.07305954249999935
41102.0,-0.5420135454999999,0.13464530449999998,10.24598792,-0.08515112354629935,0.05475097863506212,-0.158823216602232,10.261197615206292,0.18834329729133892,-0.14249062449999994,0.023928225999999983,-0.03353874299999937
41112.0,-0.6102678295,0.12866324799999998,10.275898202499999,-0.10140537487012255,0.03876376268679406,-0.16548513835709436,10.29480766810392,0.1979166753137664,-0.06825428400000011,-0.005982056499999999,0.029910282499999497
41122.0,-0.629390797,0.138273765,10.2423594595,-0.11472747305059526,0.02863736236672296,-0.17028130314157475,10.262610764666304,0.2073118756740456,-0.019122967499999977,0.009610517000000013,-0.03353874299999937
41132.0,-0.6712651924999999,0.0832584585,10.188520951,-0.12245579097842615,0.02330887216038427,-0.17401107175308667,10.210949421994988,0.21405274433699514,-0.04187439549999994,-0.0550153065,-0.05383850850000016
41142.0,-0.6976450809999999,0.04246279449999999,10.132230779999999,-0.12485387337066636,0.023575907535939404,-0.18333811127574434,10.156308991318628,0.2230631662959144,-0.02637988849999995,-0.040795664,-0.056290171000000555
41152.0,-0.7825706699999999,0.03530394,10.1238951275,-0.1189913124132174,0.03370056252675851,-0.19532852323694538,10.154157561035875,0.23118800214190569,-0.08492558900000002,-0.007158854499999992,-0.008335652499997792
41162.0,-0.8616122689999999,0.071196279,10.1034972955,-0.11259642603391018,0.045958009863514684,-0.20998405296594178,10.14041923257666,0.24265901245622046,-0.07904159899999996,0.035892339,-0.02039783200000045
41172.0,-0.9549715769999999,0.1322917085,10.120266667,-0.11419514762873699,0.06807482214478683,-0.22170742955158768,10.166084261907677,0.25851285745657915,-0.09335930800000003,0.06109542949999999,0.016769371499998798
41182.0,-1.03165958,0.182599823,10.117913071,-0.12405451257325295,0.09845053244649614,-0.22197446492714282,10.172012047607792,0.2726805686301782,-0.076688003,0.0503081145,-0.0023535959999989586
41192.0,-1.1154083709999998,0.207704847,10.117913071,-0.13711132070742255,0.13335711748638274,-0.21318149615559537,10.181328108349952,0.2864087731783869,-0.08374879099999988,0.025105024000000004,0.0
41202.0,-1.253093737,0.18495341899999998,10.146646555499998,-0.1522991758582772,0.16719905168255278,-0.2006570134432841,10.22540405085043,0.3023471496386789,-0.13768536600000014,-0.022751428000000018,0.02873348449999824
41212.0,-1.413530531,0.10954028049999999,10.154982208,-0.17841279212661637,0.2015715659713291,-0.19399509168842172,10.253474107828902,0.331807649402102,-0.160436794,-0.07541313849999999,0.008335652500001345
41222.0,-1.5223843459999997,0.026968287499999997,10.120266667,-0.20692449078719571,0.2372775118086291,-0.19346276626656345,10.234167225361709,0.3695215885833267,-0.1088538149999998,-0.082571993,-0.03471554100000063
41232.0,-1.6278058334999999,-0.055603705499999996,10.1370360385,-0.24209636587338546,0.2796453794007915,-0.19905829184845727,10.267051341523997,0.42004332174543413,-0.10542148750000013,-0.082571993,0.016769371500000574
41242.0,-1.788144561,-0.15984839499999998,10.2088207165,-0.2658118997494844,0.3012298662602053,-0.21344678620189853,10.36547311520596,0.4549229922915417,-0.1603387275000001,-0.10424468949999999,0.07178467800000021
41252.0,-1.95936867,-0.2842947835,10.291490775999998,-0.26714533129800805,0.2799124147763466,-0.23876104167282428,10.480206653563465,0.4546695756271142,-0.17122410899999996,-0.1244463885,0.08267005949999806
41262.0,-2.0982308339999998,-0.380105754,10.4614400205,-0.2426304366244957,0.2108986054939868,-0.2755333836830928,10.676552829424452,0.42339862552889346,-0.13886216399999984,-0.09581097050000004,0.16994924450000148
41272.0,-2.261021224,-0.36088472,10.555976126500001,-0.1888044824929906,0.09099099522347237,-0.3141697373344913,10.801439105033454,0.37766270358353793,-0.16279039000000006,0.019221034000000026,0.0945361060000014
41282.0,-2.238269796,-0.2842947835,10.435060131999998,-0.13737661075372568,-0.03877597999155802,-0.34188207519765723,10.676195725166668,0.37048517264249986,0.02275142799999985,0.07658993650000001,-0.12091599450000245
41292.0,-2.0575332365,-0.223199354,10.117913071,-0.12112235942990249,-0.11684979342102036,-0.3639988874789294,10.327411383461047,0.40102330388931257,0.18073655950000012,0.06109542949999999,-0.31714706099999823
41302.0,-1.842081136,-0.129840046,9.679751949,-0.13764364612928082,-0.1179161895939889,-0.37119313465565,9.854324895360495,0.4130791017512454,0.21545210049999985,0.093359308,-0.43816112200000035
41312.0,-1.6552644534999998,0.023339827,9.208052084,-0.16882046255765554,-0.03451388595818787,-0.35573824412924027,9.355675728679453,0.3952736460204127,0.18681668250000016,0.153179873,-0.4716998649999997
41322.0,-1.4805099505,0.114345539,8.8058813675,-0.19999553365677822,0.12403182329297702,-0.32296445143529073,8.930203316515385,0.3996099893182577,0.17475450299999995,0.09100571199999999,-0.4021707165000006
41332.0,-1.3859738445,-0.032950344,8.65142663,-0.23809956188631842,0.3433306984768125,-0.30111467452957374,8.761803008347139,0.5150120552997608,0.09453610599999984,-0.147295883,-0.15445473750000005
41342.0,-1.371558069,-0.301064155,8.616711088999999,-0.2919255160178235,0.5764857425922311,-0.31603549430487327,8.730379210169534,0.719329376554937,0.014415775500000061,-0.268113811,-0.03471554100000063
41352.0,-1.3775401255,-0.4710133995,8.790288794,-0.3326946620151591,0.7792633310766882,-0.3749246485964139,8.910030723953374,0.9265557562388038,-0.005982056499999944,-0.16994924449999999,0.17357770500000136
41362.0,-1.4613869830000001,-0.612327226,9.1397978,-0.3281637872769818,0.915692228046581,-0.46205672084372684,9.276125288646524,1.0768844604049879,-0.0838468575000002,-0.14131382650000002,0.3495090059999999
41372.0,-1.4805099505,-0.6937224209999999,9.5504022355,-0.27034277448766164,0.9601911426554284,-0.5675758367608,9.689341740839314,1.1476909761021676,-0.019122967499999755,-0.08139519499999992,0.4106044354999998
41382.0,-1.5511178305,-0.65900688,9.905991364499998,-0.18027854909699828,0.9159575180928841,-0.6810885606520072,10.048329289266494,1.1555778457838388,-0.07060788000000007,0.03471554099999996,0.3555891289999984
41392.0,-1.4949257259999997,-0.5081806029999999,10.1478233535,-0.09474345311526018,0.8021795041553738,-0.7842095941768401,10.269925475161056,1.125812136368306,0.05619210450000023,0.15082627700000006,0.24183198900000136
41402.0,-1.298596593,-0.289100042,10.2052903225,-0.03851941659151485,0.6662829326073393,-0.8596182898385071,10.29164139057263,1.0882831873934589,0.19632913299999966,0.2190805609999999,0.057466969000000034
41412.0,-1.071082313,-0.0532501095,10.162141062499998,-0.013205161120589098,0.5554353264839275,-0.90491831057402,10.218569560830508,1.0618662472263944,0.22751428000000007,0.2358499325,-0.04314926000000163
41422.0,-0.836507245,0.1526895405,10.060446101999998,-0.017736035858766378,0.4696331951266342,-0.9177080833326345,10.096317855434354,1.0310470557384335,0.23457506800000005,0.20593965,-0.10169496049999971
41432.0,-0.6928398225,0.277135929,10.029260954999998,-0.0326568556340659,0.3960902564353491,-0.8985234241947128,10.056982979317008,0.9824959568820202,0.14366742249999997,0.1244463885,-0.031185147000000413
41442.0,-0.562313311,0.298710559,9.981404502999998,-0.04384965212710554,0.3260100509800208,-0.865215560749653,10.001692862225601,0.9256367062163213,0.13052651149999994,0.021574629999999984,-0.04785645199999955
41452.0,-0.40315138149999996,0.298710559,9.901186106,-0.054773667915338047,0.2820434617930317,-0.83350641889942,9.91389153360631,0.8816357634440838,0.15916192950000008,0.0,-0.08021839699999767
41462.0,-0.25467870049999997,0.27595913099999997,9.7467313685,-0.07129495461471637,0.2796453794007915,-0.8156534459807699,9.753962633318448,0.8652023189485982,0.148472681,-0.022751428000000018,-0.15445473750000005
41472.0,-0.0667832865,0.2688002765,9.695246456,-0.0816866449810906,0.3116215566265796,-0.8071257672555258,9.69920189699043,0.8690412571854459,0.18789541399999998,-0.007158854499999978,-0.0514849125000012
41482.0,0.05295591,0.29027684,9.728785199,-0.06516535828171229,0.36064960064435225,-0.8007308808762186,9.733258777024568,0.8806160354852276,0.1197391965,0.02147656349999999,0.03353874300000115
41492.0,0.10444082249999999,0.2711538725,9.8234193715,-0.033190926385176164,0.40328450361206974,-0.7954023906698798,9.827715932826797,0.892415257338925,0.05148491249999999,-0.019122967499999977,0.09463417249999928
41502.0,0.1726951065,0.25918975949999995,9.905991364499998,-0.010274753306490619,0.43446132004044447,-0.8004638455006633,9.910886329929692,0.9108263155621408,0.06825428400000001,-0.011964113000000054,0.0825719929999984
41512.0,0.23486926749999998,0.322638785,10.029260954999998,0.0011833332328521555,0.44858277901833055,-0.8041953594414272,10.037197550207415,0.9208463965594232,0.06217416099999998,0.06344902550000003,0.12326959049999964
41522.0,0.25409030149999995,0.371672035,10.105948958,0.007311184236604247,0.4325955630700625,-0.791670876729116,10.115972831350364,0.9021835465490895,0.01922103399999997,0.04903325000000003,0.07668800300000278
41532.0,0.26840801049999996,0.39324666499999994,10.159787466500001,0.019303341527057285,0.3840998444741481,-0.7626268526466783,10.17093737883017,0.8541106637297964,0.014317709000000012,0.021574629999999928,0.05383850850000016
41542.0,0.25291350349999997,0.4231569475,10.119089869,0.037955675243120685,0.320414525398127,-0.7117330516585236,10.13109109718043,0.7814537978616669,-0.01549450699999999,0.02991028250000005,-0.04069759750000124
41552.0,0.249285043,0.2735074685,10.1490001515,0.022233749341155764,0.2564639162758028,-0.6624362269359437,10.155744849253342,0.7106967248541508,-0.003628460499999958,-0.14964947899999997,0.029910282499999497
41562.0,0.25644389749999996,0.23408473549999997,10.139389634499999,0.025164157155254243,0.21302965251067188,-0.6304617950394077,10.145332981039367,0.6659556611805805,0.00715885449999995,-0.03942273300000004,-0.009610517000000485
41572.0,0.29478789899999996,0.2831179855,10.146646555499998,0.02676287875008105,0.17759074204892702,-0.6078126573362772,10.154875283397152,0.6337909353711734,0.0383440015,0.04903325000000003,0.00725692099999975
41582.0,0.375006296,0.30949787399999995,10.176556838,0.04594928321725471,0.13788799222456002,-0.575569444734934,10.188166063286106,0.5936367750909474,0.08021839700000005,0.02637988849999995,0.029910282500001273
41592.0,0.40128811799999997,0.39569832749999995,10.181362096500001,0.05927138139772743,0.09125628526977551,-0.5422615812898742,10.196947752150207,0.5530718116095128,0.026281821999999955,0.0862004535,0.0048052585000011305
41602.0,0.41325223099999997,0.32146198699999995,10.174105175499998,0.03236014966122686,0.06434330820402295,-0.5188130827893304,10.187567488740788,0.5237883689717665,0.011964112999999998,-0.0742363405,-0.007256921000003302
41612.0,0.412075433,0.2017227905,10.1119310145,-0.014538592669112765,0.06647610054996003,-0.5028258668410623,10.122334073161992,0.5074093958388951,-0.001176797999999979,-0.11973919649999995,-0.06217416099999795
41622.0,0.408545039,0.137096967,10.0124915835,-0.04731238536306228,0.07633546549447599,-0.4961639450862,10.021760939920211,0.5042263633572752,-0.0035303939999999923,-0.06462582350000001,-0.09943943100000041
41632.0,0.35460846399999996,0.135920169,9.9407069055,-0.044649012924518935,0.061945225811782745,-0.48390649774944383,9.947958345114682,0.48989411500868135,-0.05393657500000004,-0.001176797999999979,-0.07178467799999844
41642.0,0.3498032055,0.20535125099999998,9.921583938,-0.032391565587762766,0.029171433117833222,-0.4543301482451479,9.929872066529605,0.4564165527627505,-0.004805258499999965,0.06943108199999998,-0.01912296750000131
41652.0,0.353431666,0.3525490675,9.884416734499998,-0.028660051646998884,-0.00653451271946677,-0.4111629198555722,9.897014649316747,0.41221237861210475,0.003628460499999986,0.1471978165,-0.03716720350000102
41662.0,0.40011132,0.41599809299999996,9.820967709,-0.03585429882371951,-0.03211580356594766,-0.3581363265214804,9.837913916221899,0.36135658836823153,0.046679654000000015,0.06344902549999998,-0.06344902549999887
41672.0,0.4180574895,0.441103117,9.878434678,-0.0326568556340659,-0.04543790174642038,-0.2987148468080815,9.897111483249398,0.30391056717165527,0.017946169499999998,0.02510502400000003,0.057466969000000034
41682.0,0.37618309399999994,0.310674672,10.0244556965,-0.033190926385176164,-0.06382494541618064,-0.25341657140182067,10.03632126245095,0.2634297248086075,-0.04187439550000005,-0.130428445,0.14602101850000082
41692.0,0.2876290445,0.12748644999999997,10.146646555499998,-0.03505493802630611,-0.11525107182619355,-0.2278370258845918,10.151523017971913,0.2577234343265096,-0.08855404949999995,-0.183188222,0.12219085899999804
41702.0,0.24565658249999997,0.04726805299999999,10.132230779999999,-0.03452261260444784,-0.20131849322978995,-0.21824469631563095,10.135318544798647,0.298917537068757,-0.041972462000000016,-0.08021839699999998,-0.014415775499999839
41712.0,0.29596469699999994,-0.016180972499999998,10.0077843915,-0.026261969254758676,-0.2865865538359729,-0.20598724897887474,10.012172858700172,0.3539100035469495,0.05030811449999997,-0.06344902549999999,-0.12444638849999912
41722.0,0.3390158905,-0.011375713999999999,9.8461707995,-0.006544984694978736,-0.34547570812751355,-0.19399509168842172,9.852012007392549,0.3962706112368965,0.04305119350000003,0.0048052584999999995,-0.16161359200000014
41732.0,0.42766800650000003,0.080806796,9.749183031,0.013440780569608332,-0.3675907750795337,-0.1734787463312284,9.758893350887785,0.40669215376565526,0.08865211600000006,0.09218251,-0.09698776850000002
41742.0,0.3798115545,0.14660941749999998,9.807826797999999,0.031026718112703196,-0.38917526193894764,-0.13750576511837326,9.816273103260642,0.4139177178895377,-0.04785645200000005,0.06580262149999998,0.058643766999999514
41752.0,0.4216859499999999,0.16700724949999998,9.890398790999999,0.04408352624687277,-0.4411354591000708,-0.10393086629775833,9.900792832234558,0.4553520347282874,0.04187439549999994,0.020397832000000005,0.08257199300000018
41762.0,0.45041943449999994,0.2460488485,9.9048145665,0.056873299005487224,-0.5058854290198084,-0.07302108524493875,9.9181031099487,0.5142827221720284,0.028733484500000017,0.07904159900000002,0.014415775500001615
41772.0,0.574865823,0.1526895405,9.7694827965,0.056873299005487224,-0.5541158575694197,-0.05303706530960369,9.787572677704162,0.5595461429107668,0.12444638850000006,-0.093359308,-0.13533177000000052
41782.0,0.7209849079999999,0.175342902,9.5804105845,0.048347365609494916,-0.5538488221938646,-0.04584281813288306,9.60910148444927,0.5578418678992048,0.14611908499999993,0.022653361499999997,-0.18907221200000102
41792.0,0.8514133529999999,0.21731536399999998,9.461848186,0.025431192530809377,-0.4960260640752925,-0.039180896378020705,9.502562904817237,0.4982205780942317,0.13042844499999995,0.04197246199999999,-0.11856239849999994
41802.0,0.907703524,0.2387919275,9.4774407595,0.0022497294058206906,-0.4155541682535899,-0.025059437400134582,9.523803369555313,0.41631514918165485,0.05629017100000011,0.021476563500000018,0.015592573500001095
41812.0,0.9232960975,0.196917532,9.533730930499999,0.0011833332328521555,-0.34147890414044657,-0.02346071580530778,9.580358952212599,0.3422859147505163,0.015592573499999984,-0.041874395499999995,0.05629017099999878
41822.0,0.9675240889999999,0.140627361,9.6306206325,0.022233749341155764,-0.2721980594825317,-0.04051432792654437,9.680120489156723,0.2760933428446995,0.0442279914999999,-0.056290171,0.09688970200000036
41832.0,0.9412422669999999,0.11189387649999999,9.691716062,0.039020326086837226,-0.21917146614843994,-0.057033869296670696,9.737957561584167,0.2298077014996007,-0.026281821999999955,-0.028733484500000017,0.06109542949999991
41842.0,0.977134606,0.1334685065,9.694069657999998,0.04408352624687277,-0.18932808126858888,-0.06422811647339133,9.744105521525633,0.20472843131554452,0.035892339000000106,0.02157463000000001,0.0023535959999989586
41852.0,1.0153805409999999,0.2688002765,9.655823723,0.04861440098505006,-0.17733766930738784,-0.057033869296670696,9.712784513276175,0.19252239138723942,0.03824593499999984,0.13533177,-0.038245934999999065
41862.0,1.093245342,0.44953683599999994,9.6498416665,0.05820673055401089,-0.16241510420283634,-0.035184092390953686,9.721970630136932,0.17608125940139277,0.07786480100000004,0.18073655949999995,-0.0059820564999988335
41872.0,1.1482606485,0.5573119194999999,9.610320866999999,0.06380225613590472,-0.1264421229899812,0.0037192966359999163,9.694708157505621,0.1416762913183137,0.05501530650000008,0.10777508349999998,-0.03952079950000176
41882.0,1.176994133,0.613504024,9.565994809,0.055274577410660414,-0.06622302780842085,0.050083968215229285,9.657637343698278,0.09974553720455902,0.028733484500000017,0.05619210450000012,-0.044326057999999335
41892.0,1.1889582459999999,0.5512317965,9.482246018,0.01956863157336042,0.022776546738526,0.09005375341515143,9.57238046413121,0.09492829360703307,0.011964112999999887,-0.062272227500000055,-0.08374879099999966
41902.0,1.199745561,0.348920607,9.483422816,-0.023331561440660196,0.1424171216334853,0.10977073797493135,9.56537732178704,0.18131909223572482,0.010787315000000186,-0.2023111895,0.0011767979999994793
41912.0,1.1578711654999998,0.20888164499999998,9.520491952999999,-0.0505098285527159,0.25486519468097596,0.1047092831441478,9.592917397989622,0.2801277283968116,-0.04187439550000027,-0.14003896200000002,0.037069136999999586
41922.0,1.1231556245,0.15984839499999998,9.634249093,-0.03985284814003852,0.3281428433259579,0.08738863564735608,9.700813659286593,0.3419104396932382,-0.03471554099999974,-0.04903325,0.11375714000000059
41932.0,1.036955171,0.126309652,9.884416734499998,-0.01107411410390402,0.3513243064509466,0.06740461571202101,9.939462980267878,0.3579033200819883,-0.08620045350000005,-0.03353874299999998,0.25016764149999915
41942.0,0.9711525495,0.09277090899999998,10.1119310145,0.016638223759261946,0.3230796431659223,0.04448844263333546,10.158882446310916,0.3265524580308997,-0.06580262150000005,-0.03353874300000001,0.22751428000000118
41952.0,0.922021233,0.09159411099999999,10.217254435500001,0.04541521246614445,0.26019368488731465,0.023170991149476718,10.259181294577903,0.26514182998809027,-0.04913131649999991,-0.0011767979999999928,0.10532342100000136
41962.0,0.9328085479999999,0.151414676,10.2064671205,0.0675320247474166,0.18878179321271465,0.00958185759344887,10.250123378436847,0.20072606161142847,0.010787314999999853,0.059820565000000006,-0.01078731500000174
41972.0,0.9495779194999999,0.266348614,10.192051344999998,0.07312755032931041,0.13762095684900488,0.0029199358385865134,10.239655776855876,0.15587075545625276,0.01676937150000002,0.11493393799999999,-0.014415775500001615
41982.0,0.9794882019999999,0.36814164099999996,10.177733636000001,0.0606048129462511,0.10964332893953577,0.00451865743341332,10.23138247604209,0.1253595676372325,0.02991028249999994,0.10179302699999998,-0.014317708999996626
41992.0,1.0321499125,0.5237731765,10.308162080999999,0.021701423919297493,0.10724524654729557,0.016776104770169498,10.372939663878359,0.11069748144549167,0.052661710500000125,0.15563153550000003,0.13042844499999795
42002.0,1.095598938,0.7440305355,10.3896553425,-0.05290791094495611,0.10191501101170489,0.04635245427446541,10.473722194456082,0.12383241307243327,0.06344902549999998,0.22025735899999999,0.08149326150000036
42012.0,1.1004041965,0.8744589804999999,10.459086424499999,-0.12272108102472928,0.07127226533444043,0.09085311421256483,10.553106497113165,0.16850664050981018,0.00480525850000002,0.13042844499999995,0.06943108199999948
42022.0,1.1578711654999998,0.7452073335,10.4063266475,-0.1562959798453442,0.01957910354887239,0.14387796221740456,10.497029765617848,0.21333692278512553,0.05746696899999981,-0.12925164699999991,-0.052759776999998564
42032.0,1.1782689975,0.5704528305,10.2435362575,-0.14403853250858803,-0.03877597999155802,0.1894432729992205,10.326847017411087,0.2411211918438329,0.020397832000000227,-0.17475450300000006,-0.16279038999999962
42042.0,1.185427852,0.3764772935,10.066428158499999,-0.08834856673595297,-0.0867393731656142,0.2040988027282169,10.142975412326509,0.23871637852596625,0.007158854499999867,-0.19397553699999998,-0.17710809900000157
