timestamp,ax,ay,az,gx,gy,gz,acc_mag,gyro_mag,dax,day,daz
92742.0,0.344017282,-2.128239183,10.829875861,-0.07971616825558901,-0.1447855334284416,-0.05537929716578008,11.042371170860074,0.17431117212068634,0.0,0.0,0.0
92752.0,0.320089056,-1.7570574804999999,10.110460017,-0.11062594930840859,-0.19434764819732459,-0.029799751648551184,10.26699127051872,0.22560393218765704,-0.023928225999999997,0.37118170249999993,-0.7194158440000002
92762.0,0.1177778665,-1.9043533634999998,10.226570753,-0.13514084398192094,-0.2137993427108014,-0.0012880529879718153,10.403037187524903,0.2529325319847497,-0.2023111895,-0.14729588299999996,0.11611073600000132
92772.0,-0.039030467,-1.9940842109999999,10.134388243,-0.1442008481290235,-0.21459870350821478,0.030421088862261164,10.328781161287635,0.2603304261820004,-0.1568083335,-0.08973084750000004,-0.09218251000000066
92782.0,-0.2664466805,-2.0300746165,10.067310757,-0.14793061674053537,-0.20873788788001782,0.052270865767978174,10.273409495397084,0.26112682093951983,-0.22741621349999996,-0.03599040549999999,-0.06707748600000052
92792.0,-0.46875787,-2.1581494654999998,10.0242595635,-0.14766532669423224,-0.20340765234442715,0.05973214832025393,10.264654054206897,0.25835566818426586,-0.20231118950000004,-0.12807484899999988,-0.043051193500000196
92802.0,-0.6232126075,-2.280242258,10.0038617315,-0.14286916190975182,-0.20340765234442715,0.049872783375737965,10.27935543953443,0.2535223165299448,-0.15445473749999994,-0.12209279250000016,-0.020397831999998672
92812.0,-0.7908082559999999,-2.291029573,9.9822871015,-0.11942066340920801,-0.21513277425932506,0.01869771227661525,10.272304998338571,0.24676509042809955,-0.16759564849999997,-0.010787314999999964,-0.021574629999999928
92822.0,-0.977526872,-2.249057111,9.996702876999999,-0.06905918784291162,-0.2452431945147312,-0.022870794518133696,10.293098905822378,0.25580552989175886,-0.18671861600000006,0.04197246199999993,0.014415775499998063
92832.0,-1.1678739485,-2.132946375,9.997879675,-0.000577703982410123,-0.2916061207647086,-0.05671098338505175,10.289362846842788,0.2970700238089207,-0.19034707650000005,0.11611073599999999,0.0011767980000012557
92842.0,-1.4073523415,-1.9737844455,10.0397540705,0.06976779151922133,-0.34436567872324514,-0.08202523885597751,10.3282683663112,0.3608093751905166,-0.23947839299999996,0.15916192949999997,0.041874395500000716
92852.0,-1.5917173615,-1.8457095964999999,10.018277506999999,0.12359374565072646,-0.4176433273682271,-0.10813885512431666,10.310484580308282,0.4487709603425544,-0.18436502,0.1280748490000001,-0.021476563500002044
92862.0,-1.7066512994999998,-1.703218972,10.0170026425,0.15690160909578624,-0.4855907404776183,-0.13531886756562436,10.303104166440217,0.5279466621673932,-0.11493393799999985,0.14249062449999994,-0.0012748644999991399
92872.0,-1.7940285509999998,-1.6374163505,9.972774650999998,0.17102481340292433,-0.534620529824643,-0.16276417005323518,10.264302459802908,0.5844320086738966,-0.08737725149999997,0.06580262150000005,-0.04422799150000145
92882.0,-1.877777342,-1.5379769195,9.921289738499999,0.172356499622196,-0.562332867687809,-0.19180819413567285,10.213883239312494,0.6186399602204815,-0.0837487910000001,0.09943943099999997,-0.051484912499999425
92892.0,-1.90052877,-1.4949257259999997,9.870981623999999,0.1656945778673337,-0.578054793589774,-0.2171224496065986,10.162828875524767,0.6393310532501296,-0.022751428000000073,0.043051193500000196,-0.050308114499999945
92902.0,-1.8681668249999999,-1.481784815,9.752517292,0.14704224415127026,-0.5777877582142188,-0.24083798348269753,10.039787201666886,0.6430109247868705,0.032361945000000114,0.01314091099999981,-0.1184643319999985
92912.0,-1.8347261485,-1.5128718954999998,9.662688377999999,0.12332671027517131,-0.550607745772911,-0.257624560228379,9.951007391340822,0.6202812113914852,0.03344067649999993,-0.031087080499999864,-0.0898289140000017
92922.0,-1.7772591795,-1.5607283475,9.616008723999999,0.09561611774125735,-0.50291138797441,-0.261621364215446,9.902633333909277,0.5748982904307584,0.057466969000000034,-0.047856452000000216,-0.04667965400000007
92932.0,-1.8011874055,-1.6421235424999998,9.633954893499999,0.07536331710111514,-0.43656269645984563,-0.2552264778361388,9.93750133024178,0.5112799355474607,-0.023928225999999997,-0.08139519499999981,0.017946169500000053
92942.0,-1.9113160849999997,-1.7355809169999998,9.660334782,0.05911081110654395,-0.3747431343542065,-0.257624560228379,9.99937190010219,0.45858141999884167,-0.11012867949999983,-0.09345737450000002,0.02637988850000106
92952.0,-1.9855524254999999,-1.8767966769999997,9.741729977,0.04765272456720118,-0.30199955646033483,-0.28347114112116306,10.11761271970753,0.41692973282011303,-0.07423634050000016,-0.1412157599999999,0.0813951950000007
92962.0,-2.2214023579999997,-1.8600273054999998,9.829107228499998,0.04099080281233882,-0.21859550749528178,-0.33623069907969966,10.247227865266023,0.40313189506158326,-0.23584993249999986,0.016769371499999908,0.08737725149999775
92972.0,-2.4548006279999997,-1.8025603364999998,9.9224665365,0.025802947661484166,-0.15357850219998903,-0.4318904500522568,10.379335819690704,0.459109474191455,-0.2333982699999999,0.057466969000000034,0.09335930800000192
92982.0,-2.561300847,-1.8217813704999999,10.0026849335,-0.012035790521752897,-0.1144098231267323,-0.57311551180663,10.484886993650035,0.5845475667169859,-0.1065002190000004,-0.01922103400000008,0.08021839699999944
92992.0,-2.582875477,-1.7295988605,10.097221039499999,-0.06506238385584462,-0.0803025988842591,-0.7463167507867913,10.564877219752832,0.7534389913493494,-0.021574629999999928,0.09218251,0.09453610599999962
93002.0,-2.487162573,-1.619470181,10.0744696115,-0.12661491058592864,-0.032871531132061205,-0.9331071233229804,10.502552036753595,0.9422318062651762,0.09571290399999999,0.11012867949999983,-0.022751427999999407
93012.0,-2.2010045259999997,-1.5020845804999998,9.9811103035,-0.18896679811342607,0.0425371645296058,-1.107107723100555,10.330694163563367,1.1239240951702898,0.28615804700000025,0.11738560050000024,-0.09335930800000014
93022.0,-1.856202712,-1.3751865294999999,9.990720820499998,-0.24705484627830135,0.16804030038201406,-1.2435366200704476,10.254322455049216,1.2789280531282068,0.34480181399999976,0.12689805099999996,0.009610516999998708
93032.0,-1.6025046765,-1.2243602525,9.995526079,-0.297950392595708,0.33591304915583664,-1.3304016569422057,10.196941740643386,1.4041298308332013,0.25369803550000003,0.15082627699999995,0.0048052585000011305
93042.0,-1.5593554165,-1.1298241465,10.102026297999998,-0.34591378576976417,0.5104459743552696,-1.3874250542633644,10.283920810783497,1.518275245506812,0.043149259999999856,0.09453610599999984,0.10650021899999906
93052.0,-1.585735305,-1.2088657455,10.284037722,-0.3930760728171549,0.6399459141947449,-1.446314208554905,10.475559398699703,1.6296822886635622,-0.02637988849999995,-0.07904159899999996,0.18201142400000236
93062.0,-1.5832836425,-1.368027675,10.463597483500001,-0.433045858017077,0.6924384367777263,-1.5350450023970448,10.67076188043204,1.7387820056743948,0.0024516624999999515,-0.15916192949999997,0.1795597615000002
93072.0,-1.450403535,-1.4997309845,10.6144237605,-0.45303162328166413,0.6876422719932459,-1.6648119776120753,10.817525373562882,1.8573336982690758,0.13288010750000012,-0.13170330949999998,0.1508262769999984
93082.0,-1.1870949825,-1.5272876709999998,10.629918267499999,-0.4524975525305539,0.647939522168879,-1.8198932082980313,10.804488164702457,1.9840844107658016,0.26330855250000007,-0.027556686499999872,0.015494506999999658
93092.0,-0.9321220825,-1.4374587569999997,10.584513478,-0.442905222961593,0.6117012509097206,-1.967780191807267,10.722269574149111,2.107724445974905,0.25497289999999995,0.08982891400000015,-0.045404789499999154
93102.0,-0.5813382119999999,-1.334488932,10.46957954,-0.4450362699782781,0.6069050861252402,-2.0772961117114073,10.570284318349646,2.2094230470627836,0.35078387050000004,0.10296982499999974,-0.11493393800000007
93112.0,-0.17308737249999998,-1.207590881,10.3294425115,-0.460758195880243,0.6463408005740521,-2.1417807915848415,10.401231541157841,2.2841364899583634,0.40825083949999996,0.12689805099999996,-0.14013702849999987
93122.0,0.21957089349999998,-1.0951086054999999,10.1905803475,-0.4831420435370703,0.7193514138434789,-2.1657616155072437,10.251604852605555,2.332684304837741,0.392658266,0.11248227550000012,-0.13886216400000073
93132.0,0.5930081255,-1.0148902085,10.0397540705,-0.5140500792606378,0.8107490707826659,-2.160965450722763,10.108329365841792,2.364600012471509,0.37343723200000006,0.08021839699999989,-0.1508262769999984
93142.0,0.8672020594999998,-0.940653868,9.973951449,-0.5444275348915992,0.917866908294566,-2.1233954932443333,10.055673852029688,2.3764867815371318,0.2741939339999998,0.07423634050000005,-0.06580262150000138
93152.0,0.9413403335,-0.9107435854999999,9.940412706,-0.5604147508398672,1.0361757969702534,-2.062108256560552,10.026334338511235,2.3748716674719605,0.07413827400000017,0.02991028250000005,-0.03353874299999937
93162.0,1.026363989,-0.9921387804999999,10.0170026425,-0.5510894566464616,1.1315685125672557,-2.0061512554123624,10.118206577133122,2.3682883581720287,0.08502365550000002,-0.08139519500000003,0.07658993649999957
93172.0,1.06107953,-1.0005724994999998,10.122424129999999,-0.5028590280968502,1.1955208670188318,-1.9696459487776488,10.226949954084402,2.3583134883115457,0.03471554099999996,-0.008433718999999895,0.10542148749999924
93182.0,1.150908444,-1.011261748,10.230101147,-0.40133671616684413,1.2221668087090294,-1.9459304149015497,10.344187258904839,2.3326825861425116,0.08982891399999993,-0.010689248500000081,0.10767701700000032
93192.0,1.396270827,-1.1321777425,10.249322180999998,-0.27263613712478224,1.2120404083889582,-1.9272780811854864,10.405767815633896,2.292983475093531,0.24536238300000002,-0.12091599450000001,0.019221033999999193
93202.0,1.768531261,-1.1094263144999998,10.093690645499999,-0.15778998168505134,1.206179592760761,-1.8979670217274938,10.307333331928948,2.2543393054014333,0.372260434,0.022751428000000073,-0.15563153549999953
93212.0,2.110979479,-1.122665292,9.798020147999999,-0.09037489399751837,1.2261636126960964,-1.852935781696788,10.085524802370697,2.2237391568386102,0.34244821800000014,-0.013238977500000138,-0.29567049749999974
93222.0,2.4437191135,-1.079516032,9.395751364999999,-0.07545407422221885,1.2922452688351056,-1.7599394031627742,9.768175964934784,2.184714593476317,0.33273963449999977,0.04314926000000008,-0.40226878300000024
93232.0,2.5694403665,-0.9190792379999999,8.9839701315,-0.09730385112793587,1.435870158310971,-1.6147175374213338,9.389273122367165,2.162984946001316,0.12572125300000003,0.160436794,-0.4117812334999993
93242.0,2.5921917945,-0.8987794724999999,8.647602036499999,-0.1308770046192988,1.6338515820109476,-1.4020805839923607,9.07239129564744,2.156949175661345,0.022751428000000296,0.02029976550000001,-0.336368095000001
93252.0,2.288087578,-0.8628871334999999,8.585329809,-0.1473982913186771,1.8334317273057512,-1.1284234292551618,8.926802725447768,2.1579012003951883,-0.3041042165000003,0.035892338999999995,-0.06227222749999939
93262.0,1.5962284205,-0.940653868,9.004269896999999,-0.07945087820928587,1.9608006201285415,-0.8475720273412423,9.192913099111491,2.137622477304176,-0.6918591574999999,-0.07776673450000005,0.4189400879999994
93272.0,1.0192051345,-1.5009077825,9.698580716999999,0.08708843901601306,1.8683383123456379,-0.6639790979947068,9.866811602636611,1.984726854799586,-0.577023286,-0.5602539145,0.6943108200000001
93282.0,0.5679031015,-2.2766137975,10.521064452500001,0.29572858845791916,1.5717649845297534,-0.6216129757317964,10.779530672961595,1.7158972161010309,-0.45130203299999994,-0.7757060150000001,0.8224837355000023
93292.0,0.20152665749999998,-2.7722418885,11.038169107,0.46146854488580474,1.1592808504304215,-0.7207354599403103,11.38275517248642,1.4409527790004342,-0.366376444,-0.49562809099999994,0.5171046544999989
93302.0,0.1381756985,-2.9087504564999995,11.245285555,0.5371442759230268,0.7356056651673021,-0.9352381703396655,11.616211471703526,1.3054922837931242,-0.06335095899999998,-0.13650856799999955,0.20711644800000073
93312.0,0.39550219449999996,-2.7363495495,11.130351617,0.5166261852365815,0.4291747177361536,-1.1609319319028082,11.468598779317276,1.3412145630463443,0.25732649599999996,0.17240090699999966,-0.11493393800000007
93322.0,0.736675548,-2.2096343779999996,10.904112201499998,0.41750195569881554,0.2919464599688475,-1.309351240833902,11.15010483584624,1.4049702097816725,0.34117335350000005,0.5267151715000002,-0.22623941550000204
93332.0,0.9856663915,-1.550039099,10.5461694765,0.3034569063857501,0.2780902910372645,-1.3314680531151741,10.704945122270438,1.3936382172101598,0.2489908435,0.6595952789999997,-0.35794272499999913
93342.0,1.0491154169999999,-0.952617981,10.3270889155,0.23470838714969347,0.31352920149900937,-1.2347419059696485,10.423861551486308,1.2953671917833094,0.06344902549999987,0.597421118,-0.21908056100000017
93352.0,0.99047165,-0.7275553635,10.445651314000001,0.24083798348269753,0.3652223632845774,-1.067137937900633,10.517699476125056,1.1533315600632799,-0.05864376699999985,0.2250626174999999,0.11856239850000172
93362.0,0.8097350905,-0.9155488439999999,10.708959866499999,0.29812667085015937,0.3662887594575459,-0.9152541504043303,10.778484217404804,1.0299209324067065,-0.1807365595,-0.18799348049999987,0.26330855249999807
93372.0,0.6408645775,-1.218378196,10.967561227,0.3564817543905898,0.310864083731214,-0.8467726665438289,11.053621673604367,0.969917351413607,-0.168870513,-0.30282935200000005,0.25860136050000015
93382.0,0.5559389884999999,-1.485315209,11.122015964500001,0.3708702487440311,0.22772881547096813,-0.8518358667038645,11.2345212868023,0.9565717425276546,-0.08492558900000013,-0.26693701299999995,0.15445473750000183
93392.0,0.583495675,-1.6074080014999999,11.177031270999999,0.3354313382822862,0.1624447748001202,-0.8952683851397433,11.30708873755494,0.9697463426032763,0.027556686500000094,-0.12209279249999994,0.05501530649999786
93402.0,0.6732265225,-1.6768390835,11.090830817499999,0.25043031305165836,0.13313371534212745,-0.9528258532120123,11.237061514691385,0.9941413553439719,0.08973084750000004,-0.06943108200000014,-0.08620045350000005
93412.0,0.736675548,-1.7595091429999998,10.961579170499999,0.14304544016420326,0.1403279625188481,-1.0074494228116788,11.126310313777031,1.027184635077865,0.06344902549999998,-0.08267005949999984,-0.12925164700000025
93422.0,0.687642298,-1.8852303959999999,10.895678482500001,0.0455199322212641,0.15951436698602176,-1.0546134551883217,11.078932943655476,1.0675797100772522,-0.04903325000000003,-0.12572125300000003,-0.06590068799999749
93432.0,0.6983315465,-1.9653507264999999,10.792806724,-0.018430676901060122,0.15844797081305323,-1.1220285428758545,10.992495049287527,1.1333108577675934,0.01068924849999997,-0.0801203305,-0.10287175850000096
93442.0,0.7642322345,-2.015658841,10.755639520499999,-0.03095515961337143,0.13792988012660787,-1.201968113275699,10.969535676886775,1.2102521303720035,0.06590068800000004,-0.05030811450000017,-0.03716720350000102
93452.0,0.8815197684999999,-1.955838276,10.772408891999998,0.0076829393672790385,0.07877543578876406,-1.279507855954051,10.983950737351455,1.2819535679146743,0.11728753399999992,0.0598205650000001,0.016769371499998798
93462.0,1.0658847884999998,-1.8312938209999998,10.826247400499998,0.060175461950260495,0.0017680185322702558,-1.3503874222067926,11.03165355774108,1.3517286717994719,0.18436501999999988,0.12454445500000011,0.05383850850000016
93472.0,1.265842382,-1.6601677785,10.8227170065,0.07376459550628835,-0.04859345703402612,-1.390889532828573,11.02223740406735,1.3936915843000597,0.1999575935000002,0.17112604249999985,-0.003530393999998438
93482.0,1.440596885,-1.4997309845,10.730534496499999,0.03592760265230328,-0.07071026931529827,-1.3884914504363328,10.930182203033834,1.3907549182921393,0.17475450299999995,0.160436794,-0.09218251000000066
93492.0,1.591423162,-1.4195125874999999,10.541364218,-0.014166837538437973,-0.08936260303136166,-1.3541171908183045,10.754906008104012,1.3571365961376318,0.15082627699999995,0.08021839700000011,-0.1891702784999989
93502.0,1.7231264714999999,-1.3751865294999999,10.333070971999998,-0.04347789699643074,-0.11094534456152355,-1.3029563544545946,10.56563573762087,1.308393846905707,0.13170330949999998,0.044326058,-0.20829324600000199
93512.0,1.7362673825000001,-1.4254946439999998,10.216960236,-0.05200557572167503,-0.10588214440148801,-1.232343823577408,10.461019829233251,1.2379769415940616,0.013140911000000255,-0.050308114499999945,-0.11611073599999777
93522.0,1.6799772114999998,-1.5260128064999998,10.1091851525,-0.05653470513060032,-0.08776388143653487,-1.1609319319028082,10.360823469410516,1.1656164130109856,-0.05629017100000033,-0.10051816250000001,-0.10777508349999998
93532.0,1.6225102425,-1.7319524564999997,10.0158258445,-0.06452831310473435,-0.08429940287132612,-1.1174994134669294,10.293151419557955,1.122530726356983,-0.05746696899999981,-0.20593964999999992,-0.09335930800000014
93542.0,1.6129977919999998,-1.946227759,10.009843788,-0.0642630230584312,-0.0973562110054957,-1.1060413269275866,10.324075601576212,1.1121759684625863,-0.009512450500000158,-0.21427530250000015,-0.00598205650000061
93552.0,1.6776236155,-2.0922487775,10.0517181835,-0.05973214832025393,-0.11973831333307097,-1.1172323780913742,10.403315066974473,1.1252170367882406,0.06462582350000012,-0.14602101850000015,0.041874395500000716
93562.0,1.8212910379999998,-2.1198054639999997,10.011020585999999,-0.04294557157457247,-0.15997513390854826,-1.1436130297352685,10.393806301043863,1.155546246312628,0.14366742249999986,-0.02755668649999965,-0.04069759750000124
93572.0,2.0055579915,-2.0540028424999996,9.964340932,-0.006440264939859076,-0.20154189537404518,-1.1529383239286741,10.369632623357408,1.170438973798685,0.1842669535000001,0.06580262150000005,-0.046679653999998294
93582.0,2.1731536399999998,-1.9450509609999997,9.860194308999999,0.028201030053724374,-0.22099358988752202,-1.1316208724448156,10.28247303887388,1.1533426480540079,0.16759564849999986,0.1089518814999999,-0.10414662300000188
93592.0,2.28691078,-1.8337454834999998,9.766835001,0.04898441078647285,-0.21726382127601013,-1.0775296282670073,10.19723733913728,1.1003059303342806,0.11375714000000015,0.11130547749999997,-0.09335930799999836
93602.0,2.3228031189999996,-1.8564969114999998,9.691421862499999,0.05031609700574452,-0.19035084421025755,-1.009582215157616,10.137339534068499,1.0286016734732684,0.03589233899999966,-0.022751428000000073,-0.07541313850000186
93612.0,2.3838985485,-1.9390689044999998,9.651901062999999,0.027666959302614112,-0.14984873358847714,-0.9469632922545633,10.129272167134209,0.9591452342959977,0.06109542950000035,-0.08257199299999995,-0.03952079949999998
93622.0,2.3719344355,-2.083913125,9.7045627735,-0.021361084715158598,-0.10135301499256272,-0.896601816688267,10.205258718114889,0.9025649823015469,-0.011964112999999887,-0.14484422050000023,0.05266171050000068
93632.0,2.342024153,-2.188059748,9.672298894999999,-0.07625343501963225,-0.07204195553456993,-0.8664913964328608,10.189506784347877,0.8728184059709713,-0.02991028249999994,-0.1041466230000001,-0.03226387850000023
93642.0,2.285733982,-2.3209398555,9.630424499499998,-0.12208403584775136,-0.051790900223679735,-0.8486384235142108,10.166435840051701,0.8589377061344665,-0.05629017100000011,-0.13288010749999968,-0.041874395500000716
93652.0,2.298874893,-2.4370505915,9.564523811499999,-0.14952933833536217,-0.029941123317962722,-0.8483713881386558,10.134305950579286,0.8619683904302189,0.01314091099999981,-0.11611073599999999,-0.06590068799999926
93662.0,2.3407492885,-2.547179271,9.485580278999999,-0.1697821389755044,-0.002228785454796759,-0.8603635454291088,10.096705536935255,0.8769585922397061,0.04187439550000027,-0.11012867950000027,-0.0789435325000003
93672.0,2.3575186599999998,-2.579541216,9.414874332499998,-0.17058149977291778,0.04120547831033412,-0.8683571534032427,10.042498982527121,0.8859120076927189,0.016769371499999686,-0.03236194499999989,-0.0707059465000004
93682.0,2.2928928364999996,-2.5962125209999996,9.42811331,-0.1489970129135039,0.10035992264817795,-0.8715545965928964,10.044251968169126,0.8898761929466937,-0.06462582350000012,-0.01667130499999958,0.013238977500002136
93692.0,2.2666110145,-2.69682875,9.4807750205,-0.11755490643882607,0.16590925336532897,-0.8758166906262665,10.11412407414582,0.8991106227598623,-0.02628182199999962,-0.10061622900000033,0.052661710499998904
93702.0,2.229443811,-2.802152171,9.564523811499999,-0.08557872921303795,0.23492306264768875,-0.8856760555707825,10.212864056502303,0.9202905191671314,-0.037167203500000134,-0.10532342100000003,0.08374879099999966
93712.0,2.169623246,-2.8404961725,9.659157983999998,-0.05813342672542713,0.2812877342269181,-0.896601816688267,10.299272619726194,0.9414866448431729,-0.05982056499999988,-0.03834400150000006,0.09463417249999928
93722.0,2.2151261019999997,-2.7483136624999998,9.800373744,-0.026157249499639015,0.2927458207662609,-0.9043283892868459,10.416685516868139,0.9508912413875938,0.0455028559999997,0.09218251000000022,0.14121576000000147
93732.0,2.2953444989999996,-2.683687839,9.9583588755,0.011147417932487783,0.2826194204461898,-0.8862101263218928,10.565968875571027,0.9302507133753604,0.08021839699999989,0.06462582349999968,0.15798513150000026
93742.0,2.3228031189999996,-2.5663022384999996,10.0601519025,0.036726963449716675,0.25943795732120106,-0.8411771409619351,10.638983871138286,0.8810425109040593,0.02745861999999999,0.11738560050000046,0.10179302699999937
93752.0,2.321626321,-2.3807604205,10.134388243,0.04019144201492542,0.22639538392244446,-0.7750937394936738,10.66601115759945,0.8084803812554249,-0.0011767979999994793,0.18554181799999947,0.07423634050000061
93762.0,2.3372188945,-2.3197630575,10.228924349,0.01834166510920841,0.20081583840521558,-0.6850295141030104,10.745919511205852,0.7140930281311915,0.015592573499999762,0.06099736300000025,0.09453610599999962
93772.0,2.2593540935,-2.3005420235,10.341504690999999,-0.025624924077780744,0.19122350883625475,-0.5768470257473939,10.832538658859228,0.6082561616451211,-0.07786480100000004,0.01922103400000008,0.11258034199999933
93782.0,2.1636411895,-2.34967334,10.408484110499998,-0.08477936841562456,0.1653769279434707,-0.469994478281797,10.887554798031497,0.5054026901593922,-0.09571290399999999,-0.04913131650000002,0.06697941949999908
93792.0,2.0749890735,-2.5088352695,10.4408460555,-0.14686596589681883,0.11235033460937897,-0.3740694372629367,10.93668598887622,0.4172770704458311,-0.088652116,-0.1591619295000002,0.03236194500000167
93802.0,1.9577015395,-2.7363495495,10.438394393,-0.1977597668849735,0.04120547831033412,-0.29253114526826557,10.967236738514554,0.35550145962168084,-0.11728753399999992,-0.22751427999999985,-0.0024516625000003955
93812.0,1.8427676014999999,-2.883547366,10.353468804,-0.23506443431710028,-0.04512897846881738,-0.2344430971033903,10.90435482367044,0.3350454875951727,-0.11493393800000007,-0.1471978165000003,-0.08492558899999914
93822.0,1.7470546974999999,-3.0260379905,10.2109781795,-0.25931229361505753,-0.12986471365314206,-0.19767075509312176,10.792274154145234,0.3509721312172796,-0.09571290399999999,-0.14249062449999972,-0.1424906245000006
93832.0,1.675171953,-3.148130783,10.0350468785,-0.27077038015440025,-0.2122006211159746,-0.17075777802736922,10.649840109254345,0.3840623922330956,-0.07188274449999987,-0.12209279250000016,-0.17593130100000032
93842.0,1.6429080745,-3.2331544384999997,9.807532598499998,-0.2731684625466405,-0.2806821049764761,-0.1497073619190656,10.456583105158668,0.41930388407083347,-0.03226387850000001,-0.08502365549999968,-0.22751428000000118
93852.0,1.651243727,-3.3300441404999996,9.555011361,-0.2550484542524354,-0.3313106159183276,-0.1363835184093409,10.252513932322858,0.4397918852485221,0.008335652500000013,-0.09688970199999991,-0.2525212374999981
93862.0,1.6739951549999998,-3.4426244824999994,9.339461194,-0.22254169693404097,-0.34676376111548535,-0.13318607521968728,10.093535480727443,0.43302245153070773,0.02275142799999985,-0.11258034199999978,-0.21555016699999996
93872.0,1.6799772114999998,-3.495286193,9.1240090935,-0.18230487635856368,-0.3283784627749771,-0.1387816008015811,9.913974527928062,0.4004095596756122,0.005982056499999944,-0.05266171050000068,-0.2154521005000003
93882.0,1.6548721875,-3.4869505404999996,9.003093098999999,-0.14127044031492503,-0.2729537870486452,-0.15050672271647902,9.79556590392386,0.34221832322922896,-0.025105023999999698,0.008335652500000457,-0.12091599450000068
93892.0,1.6680130985,-3.450960135,8.932485219,-0.1068961806968967,-0.18635404022319055,-0.16542928782103053,9.720117578392777,0.2711484298757112,0.01314091099999981,0.03599040549999977,-0.07060787999999896
93902.0,1.590246364,-3.393493166,8.9504313885,-0.0687921524673565,-0.0795032380868457,-0.17528690743629452,9.703344856602282,0.20439820211040452,-0.07776673449999993,0.057466969000000034,0.017946169500000053
93912.0,1.5004174499999998,-3.308567577,8.9839701315,-0.02642428487519415,0.01589122283940837,-0.18994243716529088,9.690696118418133,0.19242895632099558,-0.08982891400000015,0.08492558900000002,0.03353874299999937
93922.0,1.5148332254999999,-3.319354892,9.018685672499998,0.014610151168444533,0.07957479658617747,-0.217921810404012,9.728798890895002,0.23245541555029103,0.014415775500000061,-0.010787314999999964,0.03471554099999885
93932.0,1.7123391564999997,-3.404280481,9.042613898499999,0.05991017190395735,0.13420011151509598,-0.26881561139216664,9.812751759702579,0.30636698835933723,0.1975059309999998,-0.08492558900000002,0.023928226000000663
93942.0,1.9254376609999997,-3.404280481,9.079683035499999,0.11346909065990735,0.20134816382707385,-0.3333002912656011,9.88620654269681,0.4055926549747357,0.2130985045,0.0,0.037069136999999586
93952.0,2.0714586795,-3.3253369485,9.101257665499999,0.1667609740403022,0.23572242344510216,-0.38579281384858255,9.908667820436694,0.48188212105753564,0.14602101850000038,0.07894353249999986,0.021574629999999928
