timestamp,ax,ay,az,gx,gy,gz,acc_mag,gyro_mag,dax,day,daz
62752.0,-0.11581653649999998,0.21486370149999998,10.488996706999998,-0.015337953466526168,0.16986416945034813,-0.07542091296643096,10.491836436001371,0.1864870048885119,0.0,0.0,0.0
62762.0,-0.8783816404999999,0.140627361,9.679751949,-0.0318574948366525,0.16666498093144252,-0.07515387759087583,9.720541556682868,0.1855807672230336,-0.7625651039999999,-0.07423634049999997,-0.8092447579999984
62772.0,-0.281058589,0.2160404995,9.913150219,-0.04651302456564888,0.1893158639638249,-0.059431951688910904,9.919486614353318,0.2038041086047265,0.5973230514999999,0.0754131385,0.23339827000000035
62782.0,-0.411487034,0.3729468995,9.959829872999999,-0.03399028718258957,0.21516244485660896,-0.029855602184615,9.975300600387937,0.2198671741784894,-0.13042844499999995,0.15690639999999997,0.046679653999998294
62792.0,-0.4247260115,0.438749521,10.0124915835,-0.03292389100962104,0.21676116645143576,0.001853539665617978,10.031095704691525,0.219255151569792,-0.013238977500000026,0.06580262149999999,0.05266171050000068
62802.0,-0.468954003,0.405210778,10.041225068,-0.04011813818634166,0.21569477027846723,0.027167795136543733,10.060333717017974,0.22106964520168834,-0.04422799150000001,-0.03353874299999998,0.028733484500000017
62812.0,-0.45218463149999993,0.302240953,10.020925302499998,-0.05584006408830658,0.22208965665777444,0.0447537326796386,10.035674588831576,0.23333414868063113,0.016769371500000074,-0.10296982500000001,-0.020299765500000788
62822.0,-0.48091811599999995,0.1777945645,10.047207124499998,-0.07875623716699214,0.23381477857267235,0.04235565028739839,10.060281514155866,0.25033157348396884,-0.028733484500000017,-0.12444638849999998,0.02628182199999962
62832.0,-0.5431903435,0.058055367999999996,10.041225068,-0.09554281391267358,0.23914326877901104,0.023970351946890123,10.056074136622943,0.2586358638416565,-0.0622722275,-0.1197391965,-0.0059820564999988335
62842.0,-0.5886931995,0.036480738,10.042499932499998,-0.09820793168046893,0.24074199037383784,-0.00587303293296092,10.059805933597579,0.2600692144217464,-0.045502856000000036,-0.021574629999999997,0.0012748644999991399
62852.0,-0.6461601685,0.054524974,10.0699585525,-0.08914792753336637,0.24234071196866463,-0.04024729255098924,10.090815684830119,0.2613354515152097,-0.057466969000000034,0.018044235999999998,0.027458620000000877
62862.0,-0.7036271374999999,0.0497197155,10.099868835,-0.07689048019661018,0.2466045513312868,-0.06769259503860006,10.124471032253494,0.2670360239840881,-0.05746696899999992,-0.0048052584999999995,0.029910282500001273
62872.0,-0.7155912504999999,0.010198915999999999,10.1358592405,-0.07555879397733851,0.25459815930542085,-0.0911410935391439,10.16109331710466,0.2807775863571188,-0.011964112999999998,-0.039520799499999995,0.03599040549999977
62882.0,-0.8113041544999999,-0.0316754795,10.098692037,-0.08488408817074422,0.258861998668043,-0.1145895920396877,10.131278232546855,0.2955429196966401,-0.09571290399999999,-0.041874395499999995,-0.03716720350000102
62892.0,-0.8747531799999999,-0.055603705499999996,10.085551126,-0.09367705694229166,0.25726327707321617,-0.13857216129134178,10.123567869735714,0.30685832009703334,-0.06344902549999998,-0.023928225999999997,-0.013140910999998923
62902.0,-0.932220149,-0.06521422249999999,10.08319753,-0.09740857088305553,0.2561968809002476,-0.1633523460111573,10.126409024427957,0.31907563431237396,-0.057466969000000145,-0.009610516999999992,-0.002353596000000735
62912.0,-0.9717409484999999,-0.079629998,10.122620262999998,-0.0979408963049138,0.2559298455246925,-0.18600148371428768,10.169467163842524,0.33119338300035417,-0.03952079949999987,-0.014415775500000005,0.039422732999998544
62922.0,-1.0172438045,-0.14906107999999998,10.188520951,-0.09820793168046893,0.24873559834797188,-0.21131573918521346,10.240261878112802,0.34083505887433646,-0.04550285600000015,-0.06943108199999999,0.06590068800000104
62932.0,-1.1213904275,-0.162201991,10.27344654,-0.0987402571023272,0.23168198622673528,-0.24355720645730472,10.3357404082635,0.3503516717983304,-0.10414662299999988,-0.013140911000000005,0.08492558900000091
62942.0,-1.1668932834999999,-0.16455558699999998,10.3465060825,-0.09660921008564213,0.19304563257533683,-0.2760657091049511,10.413400337617862,0.35044576110063475,-0.045502855999999925,-0.0023535959999999856,0.07305954249999935
62952.0,-1.182485857,-0.194563936,10.372885970999999,-0.08861385678225611,0.1424171216334853,-0.3053767685629439,10.441881597421292,0.3484107101197363,-0.015592573500000206,-0.030008349000000017,0.026379888499999282
62962.0,-1.1788573965,-0.223199354,10.3465060825,-0.08541641359260249,0.09205564606718891,-0.3405503889783856,10.41583942023485,0.36296662810401703,0.003628460500000097,-0.028635417999999996,-0.026379888499999282
62972.0,-1.1453186535,-0.2268278145,10.2555003705,-0.08648280976557102,0.05155353544540851,-0.37865441720792575,10.321748569152978,0.39181144836890974,0.03353874300000004,-0.0036284605000000136,-0.0910057119999994
62982.0,-1.0962854035,-0.1658304515,10.156159005999998,-0.08701513518742929,0.029436723164136362,-0.41196228065298557,10.216501709476033,0.4220794653890874,0.04903324999999992,0.060997363,-0.09934136450000253
62992.0,-1.0567646039999998,-0.030498681499999996,10.0017042685,-0.08275304115405914,0.025174629130766207,-0.4276842065549505,10.057423620011818,0.43634345223534016,0.0395207995000002,0.13533177000000002,-0.15445473749999827
63002.0,-0.999297635,0.0987529655,9.87725788,-0.07529175860178339,0.03849672731123893,-0.42102228480008813,9.928170583724564,0.4294305662447791,0.05746696899999981,0.129251647,-0.12444638849999912
63012.0,-0.9669356899999999,0.171812508,9.794685887,-0.07156024466101951,0.07233866150740899,-0.39863843714326086,9.843797833737648,0.41141992432628977,0.032361945000000114,0.0730595425,-0.08257199300000018
63022.0,-0.9334950134999999,0.18377662099999997,9.7694827965,-0.07315896625584631,0.11497181914587445,-0.3714601700312052,9.815700733914264,0.3956683099023064,0.033440676500000044,0.01196411299999997,-0.025203090499999803
63032.0,-0.9441842619999999,0.1526895405,9.794685887,-0.07529175860178339,0.15041072960761934,-0.35014271854734635,9.841273781446361,0.38844840049377444,-0.010689248500000081,-0.031087080499999975,0.025203090499999803
63042.0,-0.9346718115,0.04726805299999999,9.825772967499999,-0.07342600163140144,0.1706635302477615,-0.33788527121059025,9.870241135499215,0.38559548074796896,0.009512450499999936,-0.10542148750000001,0.031087080499998976
63052.0,-0.9047615289999998,-0.034127142,9.861665306499999,-0.07129495461471637,0.18105522061413576,-0.34108271440024385,9.903140951415628,0.39268483740499344,0.029910282500000163,-0.08139519499999999,0.035892339000000106
63062.0,-0.8760280445,-0.072373077,9.8473475975,-0.06436599748429887,0.1821198714578523,-0.3546735932855237,9.8865017930011,0.40386134623907566,0.028733484499999795,-0.038245934999999995,-0.014317708999998402
63072.0,-0.8448428975,-0.046091255,9.779093313499999,-0.05370727174236951,0.17332690268630485,-0.3685280168878547,9.815627843362037,0.4107792417639083,0.03118514700000008,0.026281821999999996,-0.06825428400000177
63082.0,-0.8149326149999999,0.013827376499999999,9.740749312,-0.03585429882371951,0.1679984124799662,-0.3757240093938273,9.774789180466252,0.4131313696330772,0.02991028250000005,0.0599186315,-0.038344001499998726
63092.0,-0.8137558169999999,0.012552512,9.740749312,-0.015603243512829306,0.18185458141154914,-0.3789214525834809,9.774689419847943,0.42059008216607485,0.0011767980000000344,-0.0012748644999999986,0.0
63102.0,-0.7981632435,-0.0963993695,9.853329654,-0.022265165267691664,0.20743412692877805,-0.3959750647047175,9.886074178970649,0.44757223603236074,0.015592573499999873,-0.1089518815,0.11258034199999933
63112.0,-0.8172862109999999,-0.1562199345,9.980227704999999,-0.0513091893501293,0.2108986054939868,-0.43034757899349385,10.014854290616288,0.4819853664341244,-0.019122967499999866,-0.05982056499999999,0.1268980509999995
63122.0,-0.8257199299999999,-0.1658304515,10.0819226655,-0.07235960545843291,0.18611667544491933,-0.4700503288178608,10.117038982556434,0.5107079801633695,-0.008433719000000006,-0.009610517000000013,0.10169496050000149
63132.0,-0.7646245005,-0.115522337,10.085551126,-0.0630343112650272,0.13975374919494196,-0.5113518002370546,10.115153857073588,0.5338399558073335,0.06109542949999991,0.0503081145,0.003628460499999875
63142.0,-0.6808757095,-0.048444851,10.048481988999999,-0.023863886862518467,0.09711884622722447,-0.5433279774628428,10.071639832650536,0.5524552891253353,0.08374879099999999,0.067077486,-0.03706913700000136
63152.0,-0.580357547,0.08561205449999999,9.949042558,0.011042698177368124,0.06914121831775537,-0.5590499033648076,9.96632289899995,0.5634174684065988,0.10051816250000001,0.1340569055,-0.09943943099999863
63162.0,-0.4617951485,0.1801481605,9.9048145665,0.022766074763014035,0.058482492575825995,-0.5582505425673943,9.917210278886914,0.5617670018564518,0.1185623985,0.094536106,-0.044227991499999675
63172.0,-0.4127618985,0.1766177665,9.9322731865,0.014240141367021734,0.06274458660919616,-0.5539867032047722,9.942415042209998,0.557710437505525,0.04903324999999997,-0.0035303939999999923,0.0274586199999991
63182.0,-0.3911872685,0.1083634825,9.976599244500001,-0.008143706289805541,0.06620906517440489,-0.5622473465544613,9.984853659855712,0.5661908149828428,0.021574629999999984,-0.068254284,0.04432605800000111
63192.0,-0.31459733199999995,0.10238142599999998,9.9407069055,-0.02892708702255402,0.07233866150740899,-0.5785015978782845,9.946210696478671,0.5837240418725463,0.07658993650000007,-0.005982056500000013,-0.035892339000000106
63202.0,-0.24516625,0.139450563,9.923937533999998,-0.056105354134609715,0.08939227362864557,-0.5944888138265526,9.927944859254309,0.6037845138060185,0.06943108199999995,0.037069137000000016,-0.01676937150000235
63212.0,-0.15170887549999998,0.1526895405,9.842542339,-0.09394409231784678,0.10884396814212237,-0.6078126573362772,9.844895599938638,0.6245868460835005,0.09345737450000002,0.013238977499999999,-0.08139519499999892
63222.0,-0.05599597149999999,0.1693608455,9.7467313685,-0.12192172022731589,0.1253635095122487,-0.6208694654704469,9.748363504430607,0.6450269827952734,0.09571290399999999,0.016671304999999997,-0.09581097049999876
63232.0,-0.012846711499999998,0.186130217,9.702503377,-0.12059003400804422,0.13442351365935126,-0.6299277242882974,9.704297052150311,0.6553018961926024,0.043149259999999995,0.01676937149999999,-0.04422799150000145
63242.0,-0.016475172,0.301064155,9.674946690499999,-0.09421112769340191,0.14028607461680023,-0.629128363490884,9.67964382199754,0.6514279830198967,-0.0036284605000000015,0.11493393800000001,-0.027556686500000538
63252.0,0.05295591,0.324992381,9.701326579,-0.08994728833077976,0.13682159605159147,-0.6195360339219231,9.706913091633396,0.6408085214413676,0.069431082,0.023928225999999997,0.02637988850000106
63262.0,0.12356378999999999,0.35617752799999997,9.587569439,-0.04731238536306228,0.14774735716907597,-0.5832977626627649,9.594978800877994,0.6035760294168222,0.07060787999999998,0.03118514699999997,-0.11375714000000059
63272.0,0.17151830849999997,0.498570086,9.6294438345,-0.07262664083398804,0.1594707337547219,-0.5742377585156624,9.643867441156313,0.6003786698311248,0.047954518499999974,0.14239255800000006,0.041874395500000716
63282.0,0.365395779,0.42796220599999996,9.5576591565,-0.1307164343281153,0.1719952164670332,-0.553719667829217,9.574210895781631,0.5943690867061446,0.1938774705,-0.07060788000000007,-0.07178467800000021
63292.0,0.4145270955,0.6553784195,9.5947282935,-0.17627999978067926,0.18611667544491933,-0.5294718085312597,9.626014991248425,0.5882639299079188,0.04913131650000002,0.22741621350000002,0.037069136999999586
63302.0,0.4060933765,0.6003631129999999,9.680928747,-0.22264467135990865,0.1951766795920219,-0.49989545902696386,9.708023954563524,0.5809991875186293,-0.008433719000000006,-0.05501530650000008,0.08620045350000005
63312.0,0.390500803,0.41001603649999996,9.749183031,-0.2383665972618736,0.1909145855586517,-0.4769792859482783,9.765611798513657,0.5663711264647637,-0.015592573499999984,-0.19034707649999993,0.068254284
63322.0,0.32469818149999996,0.3513722695,9.8689222275,-0.20026256903233336,0.15547392976765487,-0.46818631717673087,9.880511996515493,0.5324243298200583,-0.06580262150000005,-0.05864376699999996,0.1197391965000012
63332.0,0.2001537265,0.2831179855,9.933548050999999,-0.13711132070742255,0.0670084259718183,-0.4641895131896639,9.939597285075049,0.4886323235036866,-0.12454445499999997,-0.068254284,0.06462582349999835
63342.0,0.1978001305,0.24124358999999998,9.890398790999999,-0.06836280147136589,-0.050501101906455924,-0.4639224778141087,9.895317660709845,0.4716438267802959,-0.0023535959999999856,-0.04187439550000002,-0.043149259999999856
63352.0,0.1511204765,0.230456275,9.7312368615,-0.022799236018801926,-0.14616085287901312,-0.46552119940893555,9.735138332233436,0.4884596064942274,-0.046679654000000015,-0.010787314999999992,-0.15916192949999974
63362.0,0.16073099349999997,0.2735074685,9.482246018,-0.011341149479459155,-0.2066487287653806,-0.45912631302962836,9.487551334958543,0.5036162130909246,0.009610516999999985,0.04305119350000003,-0.24899084349999967
63372.0,0.1858360175,0.3178335265,9.264342254999999,-0.025462608457345274,-0.22583338790330226,-0.45033334425808086,9.271655224054987,0.504429563439736,0.02510502400000003,0.044326058,-0.2179037630000007
63382.0,0.297141495,0.2568361635,9.085959291499998,-0.04011813818634166,-0.19838808541569145,-0.45166503047735257,9.094444135279922,0.49494302419829084,0.11130547749999997,-0.06099736300000003,-0.1783829635000007
63392.0,0.44796777199999993,0.162201991,9.011722951,-0.04598069914379061,-0.1187155503914023,-0.48070905455979024,9.024308015366893,0.4972814110081461,0.15082627699999995,-0.0946341725,-0.07423634049999883
63402.0,0.6132098245,0.0963993695,9.117046371999999,-0.058770471902405065,-0.015861552242124467,-0.535866694910567,9.13815373456267,0.5393131482928408,0.16524205250000001,-0.06580262149999999,0.10532342099999958
63412.0,0.6994102779999999,0.163378789,9.254731738,-0.05797111110499165,0.07233866150740899,-0.5963545707969344,9.28256036382267,0.6035166159948098,0.08620045349999994,0.0669794195,0.13768536600000125
63422.0,0.7867875294999999,0.20407638649999998,9.3374017975,-0.028660051646998884,0.13975374919494196,-0.6475154071606443,9.372713273970342,0.6630450297565516,0.08737725149999997,0.04069759749999999,0.08267005949999984
63432.0,0.886128894,0.334602898,9.350542708499999,0.022500784716710895,0.1890488285882698,-0.6794898390571804,9.398395206609166,0.7056572725377509,0.09934136450000008,0.1305265115,0.013140910999998923
63442.0,1.0070448885,0.6614585424999999,9.357701563,0.07579266809710576,0.22582117059853832,-0.6856194353901844,9.434948084280741,0.7258193575625601,0.12091599450000012,0.32685564449999993,0.007158854500000089
63452.0,1.1626764239999998,0.887697958,9.3852582495,0.10537076293065366,0.27325049302148424,-0.6573747721051603,9.498573395061523,0.7196599340086842,0.15563153549999975,0.22623941550000004,0.027556686500000538
63462.0,1.2739819014999998,0.9786056035,9.4558661295,0.09737540962726764,0.33160557656191464,-0.605147539568482,9.591355643055703,0.6968843329081416,0.11130547749999997,0.09090764550000008,0.07060788000000073
63472.0,1.2644694509999999,0.922413499,9.534907728499999,0.05847202060031403,0.3840998444741481,-0.5515886208125319,9.662514944188116,0.6746863525580011,-0.009512450499999936,-0.056192104500000006,0.07904159899999819
63482.0,1.187781448,0.820620472,9.654548858499998,0.01583886296184854,0.3944915348405223,-0.5065556354525742,9.761893074011931,0.6422406499510261,-0.0766880029999999,-0.10179302700000004,0.11964112999999976
63492.0,1.1100147135,0.7523661879999999,9.7767397175,0.012374384396639796,0.3718423971373919,-0.4769792859482783,9.868273762354494,0.6049207658212827,-0.07776673449999993,-0.06825428400000011,0.1221908590000016
63502.0,1.1829761895,0.65900688,9.8126320565,0.03608991827273875,0.3513243064509466,-0.46578823478449066,9.90562822889405,0.5845424964601149,0.07296147599999991,-0.09335930799999992,0.035892339000000106
63512.0,1.2057276175,0.6387071145,9.8018447415,0.05847202060031403,0.3390668591141904,-0.46339015239225045,9.896357218804622,0.5771618018170978,0.022751428000000073,-0.02029976550000001,-0.010787314999999964
63522.0,1.2392663605,0.7463841314999999,9.8126320565,0.06913074634224341,0.3318726119374698,-0.45752759143480154,9.918700432026029,0.5694295281842738,0.03353874300000004,0.10767701699999999,0.010787314999999964
63532.0,1.2859460145,0.7224559054999999,9.8832399365,0.08352098602493664,0.33000685496708787,-0.45166503047735257,9.992698901199255,0.5655807450647113,0.04667965399999985,-0.023928225999999997,0.07060788000000073
63542.0,1.337430927,0.7021561399999999,9.92629113,0.10377204133582686,0.3236119685877806,-0.4431390970813603,10.040567729314535,0.5584492834074966,0.05148491250000009,-0.02029976550000001,0.04305119349999842
63552.0,1.3398825895,0.8134616174999999,9.9526710185,0.13894391642201656,0.306558356466544,-0.42794949660125364,10.07534940134985,0.5444485370275353,0.0024516624999999515,0.11130547749999997,0.02637988850000106
63562.0,1.42000292,0.9941981769999999,9.934724849,0.1749168976348717,0.28737369732862234,-0.3935769823124773,10.084820084329552,0.5177667467119986,0.0801203305,0.1807365595,-0.017946169500000053
63572.0,1.4500112689999998,1.1354139369999998,9.878434678,0.18717434497162788,0.2815111363711734,-0.3397510281809722,10.048640165518606,0.47928437953533926,0.030008348999999823,0.1412157599999999,-0.056290171000000555
63582.0,1.439223954,1.1988629624999998,9.7420241765,0.17598329380784025,0.29909707391426826,-0.27500105826123455,9.92046738052861,0.44278071476559683,-0.010787314999999742,0.06344902549999998,-0.13641050150000034
63592.0,1.3877390415,1.142670858,9.6857340055,0.15946200710846192,0.3411979061308755,-0.2086506214174181,9.851140013334744,0.430556877400684,-0.05148491250000009,-0.056192104499999784,-0.05629017099999878
63602.0,1.2824156205,1.0767701699999999,9.7216263445,0.1525347953072964,0.40141874664168786,-0.15748978505370834,9.864788016211026,0.45739141479818535,-0.10532342100000003,-0.06590068800000015,0.035892339000000106
63612.0,1.2369127644999998,0.8350362474999999,9.854506451999999,0.12775286525822893,0.47069959129960276,-0.14230192990285367,9.966871933266301,0.5080637155764787,-0.04550285600000015,-0.24173392249999992,0.13288010749999835
63622.0,1.2309307079999998,0.6697941949999999,9.981404502999998,0.10696948452548045,0.5325191534052419,-0.1478974554847475,10.07929811663797,0.5629323020594443,-0.005982056499999944,-0.16524205250000001,0.1268980509999995
63632.0,1.1075630509999999,0.6553784195,10.1705747815,0.0885824408557202,0.5596974205172975,-0.17214531478270473,10.251673432702122,0.5922348020534679,-0.12336765699999996,-0.01441577549999995,0.18917027850000068
63642.0,1.0178322034999998,0.6542016215,10.390832140499999,0.08138819367899958,0.5354495612193403,-0.18466979749501602,10.461039849274195,0.5722177948885937,-0.08973084750000004,-0.0011767979999999234,0.22025735899999965
63652.0,0.955559976,0.7212791075,10.502137618,0.06833138554483,0.47469639528666974,-0.18866660148208303,10.570157660416417,0.5153648537331912,-0.06227222749999983,0.06707748599999996,0.11130547750000197
63662.0,0.9352602104999999,0.7762944139999999,10.6134430955,0.05474225198880214,0.4019528173927981,-0.18040595813239385,10.682814190089085,0.4439696963673091,-0.020299765500000122,0.05501530649999986,0.11130547749999842
63672.0,0.883775298,0.8780874409999999,10.678068919,0.03662224369459702,0.3225455724148121,-0.1681485107956377,10.750500089312624,0.36558276313362464,-0.05148491249999987,0.10179302700000004,0.06462582350000012
63682.0,0.828661925,1.0456830895,10.77750835,0.0003839724354387525,0.23141669618043215,-0.1540270518177516,10.859779921523764,0.2779895095099201,-0.055113372999999966,0.16759564850000008,0.09943943100000041
63692.0,0.86102387,1.134237139,10.796631317500001,-0.04971046775530249,0.1533428827509698,-0.127114074751999,10.89013791456373,0.20528798867660386,0.032361945,0.0885540494999999,0.01912296750000131
63702.0,0.79041599,1.247994279,10.732005494,-0.078489201791437,0.09631948542981106,-0.08527853258169493,10.833198469561545,0.15069978828985695,-0.07060788000000007,0.11375714000000015,-0.0646258235000019
63712.0,0.791592788,1.1905273099999998,10.618248353999999,-0.09740857088305553,0.050488884601691965,-0.03891386100246557,10.71406423935815,0.1164123950785372,0.0011767980000000344,-0.057466969000000256,-0.11375714000000059
63722.0,0.7987516424999999,1.063629259,10.421919221,-0.10513514348163441,0.03236887630748684,0.009314822217893736,10.506460471350309,0.11039886077883324,0.007158854499999867,-0.12689805099999973,-0.196329132999999
63732.0,0.81787461,0.925943893,10.187344153,-0.08381769199777568,0.06221226118733787,0.05354844678043802,10.261981868154413,0.11731669568511098,0.019122967500000088,-0.13768536600000003,-0.23457506799999983
