timestamp,ax,ay,az,gx,gy,gz,acc_mag,gyro_mag,dax,day,daz
122892.0,-1.0278349865,-1.8612041034999998,9.859017510999998,-0.18976615891083945,-0.39712523668178173,0.10423106292910136,10.085670615113468,0.45230936664706095,0.0,0.0,0.0
122902.0,-1.0170476714999999,-2.2742602014999997,9.3550537675,-0.208685528002458,-0.4003226798714354,0.1503286991327756,9.681098926415654,0.4758220417341603,0.010787315000000186,-0.413056098,-0.5039637434999982
122912.0,-0.7608979735,-2.650149096,9.545400844,-0.20122424545018222,-0.39126442105358483,0.17537766455739823,9.93563954809865,0.47364160434341007,0.25614969799999987,-0.37588889450000007,0.19034707650000016
122922.0,-0.6926436895,-2.8297088574999996,9.5729575305,-0.14446788350457865,-0.3374384669220797,0.1681834173806776,10.006424105522152,0.40375902492063154,0.068254284,-0.17955976149999975,0.027556686500000538
122932.0,-0.7860029974999999,-2.93022702,9.606398207,-0.0642630230584312,-0.2814814657738895,0.13221043616782246,10.074071550880998,0.317554957666404,-0.09335930799999992,-0.10051816250000023,0.03344067649999971
122942.0,-0.8673981924999999,-2.9577837065,9.641113747999999,0.007415903991723906,-0.23991295897914056,0.08717745080786478,10.121854493158047,0.25536861876021283,-0.08139519500000003,-0.027556686500000094,0.03471554099999885
122952.0,-0.9105474525,-2.850008623,9.691421862499999,0.05298121477353987,-0.20260829154701374,0.033885567427469905,10.142746350538967,0.21214466904063672,-0.04314926000000008,0.10777508349999998,0.050308114499999945
122962.0,-0.9668376234999999,-2.629751264,9.696227121,0.08469035662377285,-0.14878233741550861,-0.02180439834516516,10.092927577404916,0.17258062527143284,-0.05629017099999989,0.2202573590000001,0.0048052585000011305
122972.0,-0.9248651615,-2.375955162,9.7237838075,0.1169318238958641,-0.07417300255125502,-0.06657034832956772,10.052487753476255,0.15364340865719506,0.04197246199999993,0.2537961019999999,0.027556686500000538
122982.0,-0.8866192265,-2.141380094,9.855487117,0.15343713053057748,0.01695587368312491,-0.08309163502894604,10.124338431380682,0.17531307563784035,0.03824593499999995,0.23457506799999983,0.13170330949999887
122992.0,-0.9021137335,-1.9151406784999998,10.042205733,0.18727906472674755,0.09662840870741407,-0.06363994051546924,10.262917177416606,0.2201375467362731,-0.01549450699999999,0.22623941550000026,0.18671861600000028
123002.0,-0.9177063069999999,-1.806188797,10.345035085,0.2072630846620826,0.12460778194613516,-0.018873990531066677,10.541548925380788,0.24257228428603292,-0.015592573499999873,0.1089518814999999,0.30282935199999983
123012.0,-1.0254813905,-1.7487218279999999,10.5342053635,0.21205924944656304,0.08836951068697689,0.03708301061712352,10.727493777876436,0.23270892843061494,-0.10777508350000009,0.057466969000000034,0.18917027850000068
123022.0,-1.1451225205,-1.643398407,10.615600558499999,0.1998018021098069,0.0031014500807939236,0.08877617240269157,10.802918083958238,0.21865861040764553,-0.11964112999999998,0.1053234209999998,0.08139519499999892
123032.0,-1.2098464105,-1.5703388644999998,10.591672332499998,0.17208946424664087,-0.08163428510353077,0.1287459576026137,10.775584220143465,0.22990098261659178,-0.06472389,0.07305954250000024,-0.023928226000000663
123042.0,-1.2325978384999998,-1.5452338405,10.499489822500001,0.1302556674055888,-0.15970809853299314,0.15379317769798434,10.683928658788506,0.25714890070685387,-0.02275142799999985,0.02510502399999992,-0.09218250999999711
123052.0,-1.261331323,-1.4458924759999998,10.408484110499998,0.08389099582635945,-0.22126062526307716,0.1604550994528467,10.583860507256569,0.28590173558929133,-0.02873348450000024,0.09934136450000008,-0.09100571200000296
123062.0,-1.2935952014999998,-1.3608688205,10.311496342,0.048717375410917724,-0.2734878577997555,0.1575246916387482,10.481045239050935,0.31934780335350715,-0.03226387849999979,0.0850236554999999,-0.09698776849999824
123072.0,-1.2816310885,-1.1693449459999998,10.202642527,0.03406184568192133,-0.33237526676204415,0.15832405243616163,10.34909949626026,0.36972967539299234,0.011964112999999887,0.19152387450000008,-0.1088538149999998
123082.0,-1.1834665219999998,-1.182485857,10.1284061865,0.04258952440716563,-0.38513482472058075,0.16711702120770908,10.26564550768393,0.4219843594010552,0.09816456650000016,-0.013140911000000255,-0.07423634050000061
123092.0,-1.0494096165,-1.3141891664999998,10.096044241499998,0.06310761509361097,-0.4299007747049833,0.18363656257783537,10.23515818318769,0.4717198684496461,0.13405690549999982,-0.13170330949999975,-0.03236194500000167
123102.0,-0.9907658494999999,-1.4338302965,10.091238983,0.08069355263670583,-0.43363054331649514,0.20442168863983584,10.240634282099698,0.4861431109462044,0.05864376700000007,-0.1196411300000002,-0.004805258499997578
123112.0,-1.0661789879999999,-1.575144123,10.0613287005,0.08309163502894604,-0.4088503585966797,0.21374698283324156,10.239538654752916,0.4687756480521692,-0.07541313849999998,-0.14131382650000002,-0.029910282499999497
123122.0,-1.1200174965,-1.7523502884999997,10.118795669499999,0.06976779151922133,-0.39179674647544305,0.1945623236953199,10.330304764486094,0.4429748673276336,-0.05383850850000016,-0.17720616549999968,0.05746696899999826
123132.0,-1.139140464,-1.91033542,10.267268350499998,0.0415231282341971,-0.37767354216830495,0.13194340079226732,10.50541868726838,0.40220708055047577,-0.019122967499999977,-0.15798513150000026,0.14847268099999944
123142.0,-1.1404153285,-2.0551796405,10.280409261500001,0.002886774582798621,-0.3872676170665178,0.035484289022296715,10.545668544959037,0.38890059843524133,-0.001274864500000028,-0.1448442205,0.013140911000002475
123152.0,-1.0529400105,-2.0767542705,10.2696219465,-0.03735004599267865,-0.41684396657081374,-0.08655611359415478,10.530276629309705,0.4273708918523454,0.08747531800000008,-0.021574629999999928,-0.01078731500000174
123162.0,-0.8567089439999999,-2.0887183835,10.219313832,-0.07651872506593539,-0.41524524497598686,-0.21632308880918516,10.465709240047085,0.4744253445093655,0.1962310665000001,-0.011964112999999887,-0.050308114499999945
123172.0,-0.537012154,-2.1605030615,10.172634178,-0.13833828717157454,-0.3774082521220018,-0.35488303279576305,10.413387616511177,0.536205592505028,0.31969678999999984,-0.07178467800000021,-0.04667965400000007
123182.0,-0.271251939,-2.2311109415,10.135565040999998,-0.21428105358435182,-0.2886757129506101,-0.47958855318000987,10.38176826692031,0.5993790265884001,0.265760215,-0.07060787999999985,-0.03706913700000136
123192.0,-0.0809048625,-2.1820776915,10.052993048,-0.3107401653543224,-0.13039703907500033,-0.6080220968465165,10.28740384507454,0.6951645189576303,0.1903470765,0.04903324999999992,-0.0825719929999984
123202.0,0.09865489899999999,-2.1832544895,9.9463947625,-0.39654055138236366,0.03854036054253879,-0.7289961032899995,10.183668382587193,0.8307617509812194,0.17955976149999997,-0.0011767979999999234,-0.10659828549999872
123212.0,0.3727507665,-2.2850475164999997,9.829107228499998,-0.448767783919042,0.2173371251045939,-0.8310524859711159,10.098105475580063,0.969162620137152,0.27409586750000003,-0.10179302699999981,-0.11728753400000258
123222.0,0.642139442,-2.318488193,9.778799114,-0.46475499986731,0.4094559878471217,-0.9253788053951495,10.070384435363907,1.113542702081999,0.26938867549999995,-0.033440676500000155,-0.05030811449999817
123232.0,0.7330470874999999,-2.3089757425,9.842248139499999,-0.44210586216417963,0.5831895522491413,-1.0149107053639546,10.136003919269015,1.25124393587935,0.09090764549999997,0.009512450499999936,0.06344902549999887
123242.0,0.9150585115,-2.4035118485,9.972774650999998,-0.39440950436567856,0.7012331508785258,-1.1121691779313387,10.299050224412765,1.372664223095173,0.18201142400000003,-0.09453610600000006,0.1305265114999994
123252.0,1.0407797644999999,-2.549532867,10.242065259999999,-0.33338930305745285,0.7793052189787361,-1.2254166117762428,10.605811668524233,1.4900036658135432,0.12572125299999992,-0.14602101849999993,0.26929060900000046
123262.0,1.1484567815,-2.6453438374999996,10.46957954,-0.28356015291301473,0.8320647769372727,-1.3565152732105448,10.85950702112942,1.616438009882595,0.1076770170000001,-0.09581097049999965,0.22751428000000118
123272.0,1.2095522109999999,-2.7124213234999996,10.651492897499999,-0.25744828197392755,0.850451820607033,-1.4958763233237882,11.057782188703365,1.7398832983122283,0.06109542949999991,-0.06707748600000007,0.18191335749999915
123282.0,1.1999416939999998,-2.676430918,10.782019409,-0.24145932069640752,0.8416588518354855,-1.624843937741405,11.173857215119522,1.8457546013593447,-0.00961051700000004,0.03599040549999977,0.13052651150000116
123292.0,1.3376270599999998,-2.6034694419999997,10.796337117999999,-0.22787018714037965,0.8136794785967644,-1.7410217794004077,11.186071448572843,1.9352405412308455,0.13768536599999992,0.07296147600000014,0.014317708999998402
123302.0,1.52199208,-2.454996761,10.713765125,-0.21694442602289515,0.7880999330795355,-1.84121065978189,11.096316151848301,2.0145031849557435,0.1843650200000002,0.14847268099999988,-0.0825719929999984
123312.0,1.7769649799999998,-2.2611192905,10.565292444,-0.20202360624759566,0.7627856776086097,-1.9192844732113523,10.949688096619973,2.075164672154065,0.25497289999999984,0.19387747049999993,-0.14847268099999944
123322.0,2.077440736,-2.095877238,10.374945367499999,-0.19269656672493793,0.7571901520267159,-1.9608529800061014,10.786470821680668,2.1107849967139307,0.300475756,0.16524205250000001,-0.19034707650000193
123332.0,2.2928928364999996,-1.8528684509999997,10.2086245835,-0.17670935077666988,0.7790399289324329,-1.94832849729379,10.625746794612825,2.10573344440602,0.21545210049999985,0.24300878700000017,-0.16632078399999806
123342.0,2.30848541,-1.585931438,10.154688008499999,-0.1473982913186771,0.8571137423618953,-1.8843778881714657,10.533848867540929,2.0753915893293082,0.015592573500000206,0.2669370129999997,-0.053936575000001596
123352.0,2.1552074704999997,-1.6254522375,10.230101147,-0.1308770046192988,0.9700923955019922,-1.8196279182517283,10.580263876441999,2.0662172700444725,-0.15327793950000013,-0.03952079949999998,0.07541313850000009
123362.0,2.121766794,-1.8145244495,10.432412336499999,-0.14047107951751164,1.0838721547687546,-1.8204272790491416,10.799519455267983,2.1233149673023406,-0.03344067649999971,-0.1890722119999999,0.2023111894999996
123372.0,2.0942101075,-1.9606435345,10.5785314215,-0.15485957387095287,1.1832634196820757,-1.8782500371677135,10.96061887301053,2.225290320407144,-0.027556686500000094,-0.14611908500000004,0.14611908500000048
123382.0,2.0463536555,-1.898371307,10.657474954,-0.1575246916387482,1.1952538316432768,-1.9568561760190344,11.016948275169327,2.2984194230291513,-0.047856451999999994,0.062272227500000055,0.0789435325000003
123392.0,2.160012729,-1.773826852,10.549797937,-0.13860532254712968,1.1019921630629597,-2.0186757381246734,10.913768973267103,2.3040507586821453,0.11365907350000004,0.12454445499999989,-0.10767701700000032
123402.0,2.392234201,-1.573967325,10.2121549775,-0.10662914532134157,0.9647639052956535,-2.028001032318079,10.606048599600125,2.24831656015706,0.23222147199999998,0.1998595270000001,-0.3376429595000001
123412.0,2.6735869894999995,-1.2949681325,9.709368031999999,-0.08184896060152609,0.8347298947050681,-1.9733757173891608,10.153661282288164,2.1442212972188925,0.28135278849999956,0.27899919249999994,-0.5027869455000005
123422.0,2.956116576,-1.055587806,9.1814760625,-0.06905918784291162,0.7574554420730191,-1.8382802519677914,9.703215627478261,1.9894175536890997,0.2825295865000004,0.23938032650000007,-0.5278919694999988
123432.0,3.0949787399999997,-0.892797416,8.7205635125,-0.07225663103256524,0.7505282302718536,-1.6256432985388183,9.296462155175732,1.791990451773487,0.13886216399999984,0.16279038999999995,-0.46091254999999975
123442.0,2.8100955575,-0.882010101,8.661919745499999,-0.09224065096790032,0.8373950124728633,-1.378899120867372,9.148958002856393,1.615890321195786,-0.2848831824999998,0.010787314999999964,-0.05864376700000129
123452.0,2.4976556885,-1.389602305,8.855895282499999,-0.15459253849539775,0.9250611554712865,-1.197971309288632,9.305705763614249,1.5214375610583044,-0.31243986899999987,-0.5075922039999999,0.19397553700000003
123462.0,2.5059913409999997,-2.2837726519999997,9.242571492,-0.22520506937258433,0.9410483714195547,-1.1689255398769423,9.844833056579537,1.5174571751450212,0.008335652499999568,-0.8941703469999998,0.3866762095000009
123472.0,2.4101803704999996,-2.8740349155,9.5849216435,-0.21428105358435182,0.8456556558225525,-1.2824400090974013,10.292704650668421,1.5510326350801373,-0.09581097050000009,-0.5902622635000001,0.3423501514999998
123482.0,2.5430604779999997,-3.0272147885,9.773993855499999,-0.11195938085693224,0.6620627264760169,-1.454040781153484,10.543345856881981,1.601591879976968,0.13288010750000012,-0.15317987300000002,0.18907221199999924
123492.0,2.9405240024999997,-2.8237268009999994,9.697403919,0.03406184568192133,0.49285829148292276,-1.5886039211529948,10.519494152486653,1.6636501805119355,0.3974635245,0.2034879875000004,-0.07658993649999957
123502.0,3.2062842175,-2.3436912835,9.555011361,0.16036608766099497,0.38760621094140474,-1.633104581091094,10.347530595489077,1.6861157817933987,0.26576021500000024,0.4800355174999993,-0.14239255799999917
123512.0,3.5211757489999997,-1.9067069595,9.4221312535,0.22564838300259088,0.36842155180348307,-1.5643560618550376,10.237712998660049,1.6229175952116524,0.3148915314999998,0.4369843240000002,-0.13288010750000012
123522.0,3.661214711,-1.601425945,9.4125207365,0.21312564561953157,0.449691063093347,-1.4052780271820142,10.225683587536066,1.4907886928493053,0.1400389620000002,0.3052810145,-0.009610517000000485
123532.0,3.6552326545,-1.5308180649999998,9.492739133499999,0.14571055793199858,0.5219023155653604,-1.2112934074691046,10.286701413151631,1.326968467094623,-0.005982056500000166,0.07060788000000007,0.08021839699999944
123542.0,3.638463283,-1.6648749704999999,9.5776647225,0.07962715646373729,0.5357584844969434,-1.019441580102132,10.379878865659151,1.154399745754517,-0.016769371499999686,-0.13405690550000005,0.08492558900000091
123552.0,3.5199008845,-1.9031765655,9.685439806,0.04258952440716563,0.5325610413072898,-0.8659590710110026,10.479481261580727,1.0175068761309538,-0.11856239849999994,-0.23830159500000003,0.10777508349999998
123562.0,3.375056664,-2.3005420235,9.8063558005,0.01860695515551155,0.5192389431268171,-0.7822897319996464,10.622999349199842,0.9391126256374641,-0.1448442205,-0.3973654579999999,0.12091599450000068
123572.0,3.2781669620000002,-2.7099696609999997,9.8877509955,0.011679743354346054,0.4923259660610645,-0.7828220574215047,10.763732342607744,0.9248414171350792,-0.09688970199999991,-0.4094276374999999,0.08139519499999892
123582.0,3.1943201045,-2.929050222,9.882945736999998,0.031663763289681124,0.46994211840423716,-0.8254552150599701,10.791461095398416,0.9503812396220942,-0.0838468575000002,-0.21908056100000017,-0.0048052585000011305
123592.0,3.0698737159999996,-2.8907062205,9.9105024235,0.07136651311404814,0.44942577304704384,-0.8675577926058293,10.770253728284418,0.9796597512320743,-0.12444638850000045,0.03834400150000006,0.027556686500002314
123602.0,3.062616795,-2.9242449635,10.021807901,0.12146269863404137,0.44942577304704384,-0.9011309460971922,10.879681238166734,1.0142848192950624,-0.00725692099999975,-0.03353874300000026,0.1113054775000002
123612.0,3.1021375945,-2.954155246,10.110460017,0.16782737021327074,0.4614161850082449,-0.924314154551433,10.980514224208045,1.0466267616893787,0.03952079949999998,-0.02991028249999994,0.08865211599999867
123622.0,3.083014627,-2.802152171,10.213331775499999,0.19953651206350373,0.4534225770341108,-0.9312413663525985,11.030375421361411,1.0548067763419884,-0.019122967499999977,0.1520030750000001,0.10287175849999919
123632.0,3.0889966834999996,-2.6034694419999997,10.258834631500001,0.22458373215887434,0.417981921243114,-0.9147218249824721,11.025590308122535,1.030467251462053,0.005982056499999722,0.19868272900000017,0.04550285600000237
123642.0,3.072227312,-2.405963511,10.297178633,0.24110327352900066,0.3718842850394398,-0.875017329828853,11.01177228573012,0.9808588264712262,-0.016769371499999686,0.1975059309999998,0.038344001499998726
123652.0,3.061439997,-2.3029936859999998,10.365432917,0.22831350077038623,0.3324485705906279,-0.8243905642162536,11.050719177040667,0.9177520956612268,-0.010787314999999964,0.10296982500000018,0.068254284
123662.0,3.026724456,-2.2742602014999997,10.438394393,0.17475458201443625,0.3204581586294269,-0.771631006257717,11.103756026700566,0.8536082269902863,-0.03471554099999974,0.028733484500000017,0.07296147599999969
123672.0,2.9369936084999995,-2.3664427115,10.450358505999999,0.07936186641743416,0.34630473952221086,-0.7273973816951728,11.110174412092181,0.8095259287717707,-0.08973084750000071,-0.09218251000000022,0.011964112999999443
123682.0,2.772928354,-2.433422131,10.500666620499999,-0.03415260280302504,0.37481643818279026,-0.6972869614397665,11.12990001747278,0.7923779837957117,-0.16406525449999965,-0.06697941949999997,0.050308114499999945
123692.0,2.5646351079999996,-2.4837302455,10.473109934,-0.12581554978851525,0.38867260711437324,-0.6687770081084392,11.064913052493775,0.7836827385263412,-0.2082932460000002,-0.050308114499999945,-0.02755668649999876
123702.0,2.3742880315,-2.5280563035,10.391714739,-0.17884039779335498,0.36495707323827425,-0.6413299602915764,10.955183592571148,0.7592639008652574,-0.1903470764999997,-0.044326058000000224,-0.0813951950000007
123712.0,2.2318954735,-2.6225924094999997,10.275604003,-0.1932306374760482,0.3074013504952573,-0.610954249989867,10.8373145187111,0.710703007680697,-0.14239255800000006,-0.09453610599999962,-0.11611073599999955
123722.0,2.1468718179999997,-2.6932002894999996,10.082903330499999,-0.19029848433269772,0.22319794073279084,-0.5765799903718388,10.654920270677462,0.6468966835468166,-0.08502365550000013,-0.07060787999999985,-0.1927006725000009
123732.0,2.091758445,-2.7722418885,9.860194308999999,-0.18869976273787092,0.11741353476941452,-0.5363449151256134,10.453908852281947,0.5805681756568118,-0.055113372999999743,-0.0790415990000004,-0.22270902150000005
123742.0,2.0594945664999997,-2.779400743,9.618460386499999,-0.18896679811342607,0.01322610507161303,-0.47932151780445476,10.221612718465794,0.5153954773520737,-0.03226387850000023,-0.007158854500000089,-0.24173392249999992
123752.0,1.9661352584999998,-2.7387031455,9.364664284499998,-0.18203784098300857,-0.07097555936160141,-0.40897602230282326,9.953045761739384,0.45325124643522685,-0.09335930799999992,0.040697597499999905,-0.2537961020000008
123762.0,1.9361269094999998,-2.827257195,9.189811715,-0.16791638200512246,-0.11361046232931889,-0.3564817543905898,9.807885093817143,0.41010058486884,-0.030008349000000045,-0.0885540494999999,-0.17485256949999872
123772.0,1.975647709,-2.9793583365000003,9.118027037,-0.15805701706060646,-0.11414278775117716,-0.3378294206745264,9.793782569304465,0.3900503994498573,0.0395207995000002,-0.1521011415000002,-0.07178467800000021
123782.0,2.0199737669999998,-3.0870353535,9.1120449805,-0.15246149147871266,-0.08003556350870397,-0.34822111104090064,9.830536354634079,0.38846896913991547,0.04432605799999978,-0.10767701699999987,-0.0059820564999988335
123792.0,2.122943592,-3.1541128395,9.118027037,-0.13700660095230288,-0.051790900223679735,-0.3775321704988934,9.878954111978434,0.40494894222863237,0.10296982500000018,-0.06707748600000007,0.0059820564999988335
123802.0,2.3156442645,-3.1552896374999997,9.141955263,-0.10103361973944776,-0.0600515435733689,-0.41110706931950836,9.944516433035847,0.427578066144271,0.1927006725,-0.0011767979999994793,0.023928226000000663
123812.0,2.5251143084999996,-3.079876499,9.092922012999999,-0.047741736359052885,-0.10241766583627926,-0.434288532444497,9.926886332309033,0.4487484608093091,0.2094700439999997,0.07541313849999964,-0.049033250000000805
123822.0,2.820784806,-2.9026703334999997,9.029472987499998,0.02207143372072029,-0.14931640816661887,-0.43881940718267426,9.895135391632275,0.4640528095534194,0.2956704975000002,0.17720616550000035,-0.06344902550000064
123832.0,3.0685988515,-2.664466805,8.969554356,0.09508204699014708,-0.1610397847522648,-0.41510387330657533,9.847262950262504,0.4552863204259641,0.2478140455000002,0.2382035284999997,-0.059918631499998654
123842.0,3.2853258164999994,-2.3676195095,8.944449332,0.14997439729462075,-0.12719959588534674,-0.36127791917507024,9.818460251742207,0.4113317297762827,0.21672696499999944,0.2968472955000001,-0.025105024000000142
123852.0,3.4840085454999996,-2.093523642,8.989952187999998,0.17102481340292433,-0.06964387314232973,-0.2810730587289228,9.866123713356524,0.33630614060555375,0.19868272900000017,0.2740958674999998,0.045502855999998815
123862.0,3.6372864849999997,-1.923476331,9.15156578,0.168359695635129,-0.009690068007072518,-0.17208946424664087,10.033980785089629,0.24094328842495458,0.15327793950000013,0.17004731100000003,0.16161359200000192
123872.0,3.7449635019999996,-1.854045249,9.358682228,0.15050672271647902,0.025483552408369206,-0.057245054136162016,10.249252092778994,0.163029694378838,0.10767701699999987,0.06943108200000014,0.20711644799999895
123882.0,3.8299871574999997,-1.8767966769999997,9.580116385,0.13185438900041563,0.014025465869026432,0.05680174050615546,10.486648527702195,0.14425231823456,0.08502365550000013,-0.02275142799999985,0.2214341570000009
123892.0,3.8695079569999997,-1.9126890159999999,9.722607009499999,0.11719885927141922,-0.026743680128309112,0.1713808605703312,10.637695152728897,0.20933751792536984,0.03952079949999998,-0.035892339000000106,0.14249062449999883
123902.0,3.8539153835,-1.947404557,9.7943916875,0.09454972156828881,-0.08909556765580653,0.2896897492460188,10.703978550986143,0.31748672545914824,-0.015592573499999762,-0.03471554100000018,0.07178467800000021
123912.0,3.78928956,-1.9151406784999998,9.7847811705,0.060709532701370764,-0.16450426331747353,0.40506823010760795,10.666228093498741,0.4413927628008342,-0.06462582350000012,0.03226387850000023,-0.009610516999998708
123922.0,3.779679043,-2.0515511799999997,9.695050323,0.02953271627299605,-0.22712318622052607,0.5076551928813307,10.606075460685503,0.5569299039455559,-0.00961051700000004,-0.1364105014999999,-0.08973084750000027
123932.0,3.800076875,-2.2503319755,9.598062554499998,0.020472712125893487,-0.2673582614667514,0.6121096579546873,10.565386081727565,0.6682647718365212,0.020397832000000005,-0.19878079550000027,-0.09698776850000179
