timestamp,ax,ay,az,gx,gy,gz,acc_mag,gyro_mag,dax,day,daz
126742.0,0.32724791049999996,0.9334950134999999,10.0891795865,-0.019919442753011284,-0.09141860089021098,-0.030895818418803622,10.13755635564135,0.09853271732821471,0.0,0.0,0.0
126752.0,0.514064593,0.750404858,9.43791996,-0.03377561168459427,-0.06690370621669864,0.04291415564803658,9.481650859847807,0.08636273852294594,0.1868166825,-0.18309015549999985,-0.6512596264999999
126762.0,0.5439748754999999,0.5983037165,9.4103632735,-0.030845203870495788,0.05966582580867815,0.11752349051229018,9.445041712009036,0.1353632453564716,0.02991028249999994,-0.15210114149999998,-0.027556686500000538
126772.0,0.444633511,0.5217137799999999,9.5013689855,-0.022317525145251493,0.16092110236312918,0.1761456094282757,9.526064078409684,0.23962668640039297,-0.09934136449999992,-0.07658993650000012,0.0910057119999994
126782.0,0.2770378625,0.36725904249999997,9.761147143999999,-0.010327113184050447,0.21341362494611063,0.19746131558288246,9.77198151596573,0.2909346932407307,-0.16759564849999997,-0.15445473749999994,0.25977815849999963
126792.0,0.10699055149999999,0.276351397,10.0340662135,0.0035290557475325343,0.19875809521711424,0.18333985660499635,10.038441206165245,0.27042695440496545,-0.17004731100000003,-0.09090764549999997,0.27291906950000033
126802.0,-0.097674234,0.253599969,10.2566771685,0.016585863881702113,0.10176665802528537,0.13937326741800718,10.260276786670692,0.17336796485253286,-0.2046647855,-0.022751428000000018,0.2226109550000004
126812.0,-0.191033542,0.29066910599999995,10.4039730515,0.02937563664031656,-0.04905073329804864,0.09194219966580928,10.409785665405899,0.10826943495044088,-0.093359308,0.037069136999999974,0.14729588299999996
126822.0,-0.20299765499999997,0.257130363,10.393185736499998,0.04163308397707274,-0.19853643840211097,0.05437224218737935,10.398347648780502,0.21001517034566866,-0.01196411299999997,-0.03353874299999998,-0.01078731500000174
126832.0,-0.1348414375,0.26311241949999997,10.232748942499999,0.05815437067645106,-0.3203098056430073,0.026392868948658253,10.237019159833446,0.326614277016753,0.06815621749999998,0.005982056499999999,-0.16043679399999888
126842.0,0.031577413,0.31940259049999997,9.980227704999999,0.06401693163390001,-0.3770661675886109,0.012803735392630402,9.985387333072234,0.38267610052861456,0.1664188505,0.056290171,-0.2525212374999999
126852.0,0.1728912395,0.3984441895,9.7814469095,0.05628861370606912,-0.349353829725445,0.007740535232594852,9.791085373757562,0.35394409482639105,0.1413138265,0.07904159900000002,-0.19878079549999939
126862.0,0.29733762799999996,0.45110589999999995,9.610320866999999,0.04030139775780106,-0.2531617533310295,0.00960629220297679,9.625496006166907,0.2565294463814291,0.12444638849999998,0.05266171049999996,-0.17112604250000096
126872.0,0.30930174099999996,0.48346784499999995,9.5588359545,0.009923942126839757,-0.11673285636113674,0.01306902543893354,9.576051040443367,0.11788063372535006,0.011964112999999998,0.032361945,-0.051484912499999425
126882.0,0.230260142,0.5109264649999999,9.651018464499998,-0.027113689929731913,0.010903071837208577,0.016800539379697416,9.667275882468193,0.033708860564275085,-0.07904159899999996,0.02745861999999999,0.09218250999999889
126892.0,0.11542427049999998,0.44512384349999995,9.878434678,-0.049497537586559184,0.08577769674776531,0.02426182193197317,9.889131897481478,0.10196301040055261,-0.11483587150000002,-0.06580262149999999,0.22741621350000152
126902.0,-0.0234378935,0.34215401849999993,10.1034972955,-0.050029863008417455,0.07378728478656427,0.029590312138311863,10.109316312560571,0.09393155572680185,-0.13886216399999998,-0.10296982500000001,0.22506261750000078
126912.0,-0.0881617835,0.2811566555,10.2292185485,-0.02977880769752725,-0.008283332629965088,0.02692519437051652,10.23346147097737,0.04099215875304748,-0.06472388999999999,-0.060997362999999916,0.12572125300000003
126922.0,-0.09649743599999999,0.3158721965,10.175281973499999,-0.006330309196983434,-0.11859861333151869,0.020530307991209296,10.180640954277404,0.12052882412478108,-0.008335652499999999,0.03471554099999996,-0.053936575000001596
126932.0,0.026772154499999996,0.368533907,10.025730561,0.008059930485709814,-0.2001351599969378,0.017332864801555686,10.032537429316404,0.2010459473569745,0.12326959049999998,0.052661710500000014,-0.14955141249999926
126942.0,0.1632807225,0.37088750299999995,9.825772967499999,0.009124581329426356,-0.2171887721181744,0.021863739539732963,9.834125916576188,0.2184771013751759,0.136508568,0.002353595999999958,-0.19995759350000064
126952.0,0.2327118045,0.32303105099999996,9.701228512499998,0.005927138139772743,-0.1857466656434965,0.027724555167929925,9.709394342367949,0.18789785981608312,0.069431082,-0.047856451999999994,-0.12454445500000055
126962.0,0.2542864345,0.29665116249999995,9.713290692,0.0027296949501191318,-0.1372509470475821,0.03411944154723715,9.721146000872384,0.14145462166883846,0.021574629999999984,-0.026379888500000004,0.01206217950000088
126972.0,0.2578168285,0.324207849,9.779093313499999,-0.003932226804743225,-0.08902051849797078,0.03865031628541443,9.78786219153863,0.09712858523758117,0.0035303939999999923,0.02755668650000004,0.0658026214999996
126982.0,0.19681946549999998,0.36490544649999995,9.832931821999999,-0.0161896741414994,-0.051183525643985706,0.04344648106989485,9.841668664560157,0.06906124501855732,-0.060997363,0.04069759749999996,0.05383850850000016
126992.0,0.1393524965,0.3792231555,9.856860048,-0.02524793295934997,-0.02533694475120168,0.04797561047882013,9.86513655890311,0.05984210966251736,-0.05746696899999998,0.014317709000000067,0.023928226000000663
127002.0,0.0734518085,0.430708068,9.8712758235,-0.033243286262735997,-0.005351179486614614,0.055703928406651025,9.880940794865023,0.06508977525984769,-0.06590068800000001,0.05148491249999998,0.014415775499999839
127012.0,0.0196133,0.4139386964999999,9.834108619999999,-0.04203625503428343,0.005307546255314756,0.05543689303109589,9.842836089052549,0.06977439282072466,-0.05383850849999999,-0.016769371500000074,-0.03716720350000102
127022.0,0.0196133,0.3182257925,9.854506451999999,-0.047099455194318976,0.0002443460952792061,0.04424584186730825,9.859662760412181,0.0646228512769499,0.0,-0.09571290399999993,0.02039783200000045
127032.0,0.0818855275,0.2368305975,9.854506451999999,-0.03937113726648808,-0.020006709215611002,0.02319542575900464,9.857691990726622,0.049883691116798454,0.0622722275,-0.081395195,0.0
127042.0,0.14651135099999998,0.3097920735,9.8975576455,-0.025514968334905103,-0.04452160388912335,0.006141813637768045,9.90348847885283,0.05168083490765495,0.06462582349999998,0.072961476,0.043051193500000196
127052.0,0.1405292945,0.4092315045,9.822144506999999,-0.020718803550424686,-0.05704608660143466,0.008272860654453122,9.831670337398334,0.061253285956816,-0.0059820564999999715,0.09943943100000002,-0.07541313850000009
127062.0,0.1501398115,0.4547343605,9.8245961695,-0.022584560520806624,-0.05464800420919445,0.02692519437051652,9.836260224057243,0.06497255443536298,0.009610516999999985,0.04550285599999998,0.0024516625000003955
127072.0,0.077080269,0.512103263,9.852152856,-0.02764601535159018,-0.04638736085950529,0.05170712441958401,9.865754254887626,0.07476440415112437,-0.07305954249999999,0.057368902499999985,0.027556686500000538
127082.0,-0.052171378,0.495431958,9.8234193715,-0.0364407294523896,-0.03599392516387906,0.08208283472129332,9.83604304718374,0.0967526804156264,-0.129251647,-0.01667130499999997,-0.028733484500000017
127092.0,-0.1803442935,0.448752304,9.7455545705,-0.046565384443208714,-0.0208060700130244,0.10419964700256547,9.757547672501362,0.11601204253520385,-0.1281729155,-0.046679654000000015,-0.07786480100000048
127102.0,-0.31793159299999996,0.43198293249999997,9.703680175,-0.048698176789145786,0.010369001086098312,0.11592476891746338,9.718492614108778,0.1261648947000618,-0.13758729949999995,-0.01676937150000002,-0.04187439549999894
127112.0,-0.5765329535,0.395992527,9.7455545705,-0.04017049806390149,0.05193750788084726,0.13058029864645976,9.770620973843204,0.14615877679487332,-0.25860136050000004,-0.03599040549999999,0.04187439549999894
127122.0,-0.8052240315,0.34931287299999997,9.8245961695,-0.02658136450787364,0.0764524025543596,0.13617582422835356,9.8637262288601,0.15841525778694973,-0.228691078,-0.046679654000000015,0.07904159899999996
127132.0,-1.0362687055,0.3745159635,9.937078445000001,-0.009527752386637046,0.09750281866266322,0.1340430318824165,9.997981949323504,0.16602744384268459,-0.23104467399999995,0.025203090500000025,0.11248227550000145
127142.0,-1.3055593145,0.4941570934999999,10.122620262999998,-0.0020664698343612863,0.11775387397355343,0.13910623204245207,10.218420491721421,0.18226570968342987,-0.269290609,0.11964112999999993,0.18554181799999725
127152.0,-1.6120171269999999,0.5815343449999999,10.248341515999998,-0.00339815605363296,0.13107771748327815,0.1526953655984799,10.390634496541828,0.2012679561193097,-0.3064578124999999,0.08737725149999997,0.12572125300000003
127162.0,-1.856202712,0.61389629,10.456634761999998,-0.009260717011081911,0.15692429837606214,0.1758785740527206,10.637836608482885,0.23589037519830489,-0.2441855850000001,0.032361945000000114,0.2082932460000002
127172.0,-2.2297380104999998,0.7132376545,10.6230536125,-0.026047293756763373,0.17930640070363746,0.20305684116477626,10.87794592748624,0.2721421091804091,-0.3735352984999998,0.09934136449999997,0.16641885050000127
127182.0,-2.6139625575,0.7444228015,10.813400689,-0.04550073359949217,0.17770767910881066,0.23556534381242267,11.14973542377893,0.29856551572108403,-0.3842245470000001,0.03118514699999997,0.19034707650000016
127192.0,-2.904925863,0.6198783465,10.912742053499999,-0.06708347512965405,0.17930640070363746,0.2662098348189391,11.309764920643277,0.32790037225213875,-0.29096330550000005,-0.124544455,0.09934136449999897
127202.0,-3.2364886994999997,0.56486304,11.006101361499999,-0.0838700518753355,0.18570128708294467,0.28939129794392776,11.48600002331366,0.3539300452794378,-0.33156283649999985,-0.05501530649999997,0.09335930800000014
127212.0,-3.58727257,0.507396071,11.123388895499998,-0.09319709139799322,0.19263024421336214,0.3139061926174401,11.698536480469397,0.3799068393623927,-0.35078387050000037,-0.057466969000000034,0.11728753399999903
127222.0,-3.972673915,0.440318585,11.2610742615,-0.10199006016954065,0.19822576979525597,0.3282946869708814,11.949385424122681,0.3968284637946443,-0.385401345,-0.06707748599999996,0.13768536600000125
127232.0,-4.419268755999999,0.33617196199999994,11.392777571,-0.10465517793733597,0.1627868593335111,0.3139061926174401,12.2244970738298,0.36876735973285546,-0.44659484099999913,-0.10414662300000005,0.13170330950000064
127242.0,-4.7172928495,0.1446480875,11.414352201,-0.11184942511405661,0.11562282695686835,0.26354471705114374,12.351567150189274,0.30876325865849114,-0.2980240935000005,-0.19152387449999994,0.021574629999999928
127252.0,-4.967460491,0.10395048999999999,11.330505343499999,-0.1467560101539432,0.08098153196328489,0.1758785740527206,12.37201765166455,0.24295803721269058,-0.25016764150000004,-0.0406975975,-0.08384685750000109
127262.0,-5.033361179,0.08953471449999999,11.093478612999998,-0.20830853688402723,0.08337961435552511,0.06343050100522991,12.182282584165138,0.23316954150706454,-0.06590068800000015,-0.014415775500000005,-0.23702673050000023
127272.0,-4.941178668999999,0.06325289249999999,10.8301700605,-0.27918810313676895,0.17317854969988536,-0.04715006974262681,11.904277849023048,0.3319035041785449,0.09218251000000066,-0.026281821999999996,-0.26330855249999807
127282.0,-4.872924385,0.186522483,10.473404133499999,-0.33008190412492355,0.3314572235754951,-0.12229347535799068,11.55302457550433,0.48350144633314845,0.06825428399999911,0.1232695905,-0.3567659270000014
127292.0,-4.790352392,0.2129023715,10.2088207165,-0.3817750659104916,0.5600813929527363,-0.18517768830734638,11.278866249804102,0.7026621833638768,0.08257199300000018,0.026379888500000004,-0.264583416999999
127302.0,-4.851349754999999,0.28831551,10.133407578,-0.4414635809994457,0.8190830179609389,-0.2299436382917489,11.238535021100969,0.9584681322045614,-0.06099736299999936,0.0754131385,-0.07541313850000009
127312.0,-5.163789624,0.2738997345,10.261482427,-0.4894269741735019,1.0322540421410222,-0.2688470273187025,11.490768727335828,1.1736123272457615,-0.3124398690000003,-0.014415775500000005,0.12807484900000077
127322.0,-5.4547529295,0.030890947499999998,10.5189069895,-0.5307284455926957,1.1356403657121585,-0.32906786782951486,11.849164022253984,1.2960082502954784,-0.29096330550000005,-0.243008787,0.2574245624999989
127332.0,-5.601950745999999,-0.274390067,10.840957375499999,-0.5573743872828931,1.1375061226825403,-0.4199314540175917,12.205879685089725,1.3345144483341407,-0.1471978164999994,-0.3052810145,0.322050385999999
127342.0,-5.7934746205,-0.24801017849999998,11.194094842,-0.5576414226584483,1.0106695552816085,-0.529714409297287,12.606887663444464,1.2700449841067978,-0.19152387450000052,0.02637988850000003,0.35313746650000155
127352.0,-5.695310054,-0.2372228635,11.3867955145,-0.5381897281449715,0.779647303512127,-0.6514877765381833,12.73388956239208,1.1497540712400869,0.0981645664999995,0.010787314999999992,0.19270067249999911
127362.0,-5.394834298,-0.115130071,11.4658371135,-0.5304614102171405,0.5057231133993729,-0.763934104256422,12.672131342021341,1.0586503156387261,0.300475756,0.12209279249999999,0.07904159899999996
127372.0,-4.9471607255,0.25840522749999995,11.438280426999999,-0.5648356698351689,0.2536504455215879,-0.8529336788033689,12.464968176141497,1.0539799537318024,0.4476735725000003,0.37353529849999995,-0.027556686500000538
127382.0,-4.3832783504999995,0.6761685175,11.209589349,-0.6551651852721355,0.03435157033775239,-0.8814453774639484,12.055091303479804,1.0988027137889238,0.5638823750000004,0.41776329,-0.22869107799999888
127392.0,-3.6231649089999998,0.9060363935,10.726023437499999,-0.7732087839015199,-0.13884966864240889,-0.8574628082122941,11.357632001696249,1.1629159563149385,0.7601134414999997,0.22986787600000003,-0.4835659115000013
127402.0,-2.927677291,1.0221471295,10.016120044,-0.8579445190858446,-0.21345900350666247,-0.7916464421195879,10.485167610028975,1.1867340196219625,0.6954876179999996,0.11611073599999999,-0.7099033934999994
127412.0,-2.2513126404999997,1.038916501,9.427132645,-0.8539477150987775,-0.16896008889781505,-0.6797324398232075,9.747747740260303,1.1044502711805502,0.6763646505000005,0.01676937150000013,-0.5889873989999987
127422.0,-1.8993519719999998,1.180132261,9.065659526,-0.7689449445388977,-0.03333055272533571,-0.5166576011631174,9.337367547031004,0.9269964025369958,0.35196066849999985,0.1412157599999999,-0.3614731190000011
127432.0,-1.889741455,1.249563343,9.0369260415,-0.6154624354477684,0.07165623776987919,-0.31361297730310506,9.316574670685343,0.6944650641980126,0.009610516999999819,0.06943108199999992,-0.028733484500000017
127442.0,-2.002321797,1.113054775,9.448707275,-0.4161493255285199,0.09377305005115133,-0.12149411456057728,9.722461245977252,0.4435475915012914,-0.112580342,-0.136508568,0.41178123350000106
127452.0,-2.2177738975,0.9706622169999999,10.053189180999999,-0.22456278820785042,0.0005113814708343385,0.01013861762483506,10.340566662853595,0.22479212380783098,-0.21545210049999985,-0.14239255800000006,0.6044819059999984
127462.0,-2.3290793749999996,0.7156893169999999,10.511748135,-0.10278942096695405,-0.21345900350666247,0.06343050100522991,10.790443493536042,0.24526279721668656,-0.11130547749999975,-0.25497289999999995,0.4585589540000008
127472.0,-2.060965564,0.220061226,10.6709100645,-0.08360476182903237,-0.4364876473020099,0.03838328090985929,10.870341650740782,0.44607678565594305,0.26811381099999965,-0.49562809099999994,0.15916192949999974
127482.0,-1.4756066254999998,-0.0875733845,10.561958183,-0.18272724603754634,-0.557728689121048,-0.05700943468714278,10.664897780585285,0.5896614390957715,0.5853589385000002,-0.3076346105,-0.10895188149999946
127492.0,-0.6914668915,-0.3150876645,10.426724479499999,-0.35059999481136894,-0.543872520189465,-0.19263897085962212,10.454376598810914,0.6751499445847761,0.7841397339999998,-0.22751427999999996,-0.13523370350000086
127502.0,-0.1468055505,-0.08159132799999999,10.186069288499999,-0.49528778980169885,-0.46499934596258924,-0.29229552581924634,10.18745388036605,0.739574919048934,0.544661341,0.23349633649999998,-0.2406551910000001
127512.0,0.20034985949999998,0.1362143685,9.9646351315,-0.570963520838921,-0.40424618002991863,-0.3370614758036489,9.967579832853687,0.7765466854404133,0.34715540999999994,0.21780569649999998,-0.22143415699999913
127522.0,0.468561737,0.095516771,9.8975576455,-0.568832473822236,-0.39358745428798925,-0.37703126100357104,9.909102931189999,0.7878032998290676,0.2682118775,-0.04069759749999999,-0.06707748600000052
127532.0,0.4996488175,-0.277920461,9.9669887275,-0.4721063266767102,-0.45167550245286453,-0.4591018784201004,9.983373829401746,0.7985422205325708,0.03108708050000003,-0.373437232,0.06943108200000125
127542.0,0.6888190959999999,-0.81787461,10.002979132999998,-0.3466031908243019,-0.5729165442719026,-0.6051231049589539,10.05996929219619,0.9025193132256016,0.1891702784999999,-0.5399541489999999,0.03599040549999799
127552.0,1.3065399795,-1.320563489,9.7204495465,-0.2655972242514891,-0.6392652357864671,-0.8023051678615173,9.896366708674641,1.059667641099095,0.6177208835,-0.502688879,-0.28252958649999904
127562.0,2.149225414,-1.443931146,9.217662600999999,-0.2501423337250793,-0.5436054848139099,-1.0093465957085967,9.574414387337034,1.1733962078129145,0.8426854345000001,-0.12336765699999996,-0.5027869455000005
127572.0,3.035158175,-1.1446321879999999,8.438328125499998,-0.2922449112709385,-0.2851379305568176,-1.1740201559635137,9.040340123395762,1.2429939880041962,0.8859327609999998,0.29929895800000006,-0.7793344755000007
127582.0,3.7341761869999996,-0.7292224939999999,7.7033197079999995,-0.33994126906943956,0.07058984159691066,-1.263819091307874,8.591680380750592,1.3106417083655924,0.6990180119999998,0.41540969399999994,-0.7350084174999987
127592.0,4.276483932,-0.5700605645,7.3274308134999995,-0.33168062571975043,0.44177250427704867,-1.275809503269075,8.503206818282235,1.3902751064608558,0.542307745,0.15916192949999997,-0.37588889450000007
127602.0,4.514687460499999,-0.6981354135,7.253194473,-0.25200809069546126,0.7519349656489611,-1.2518269340174208,8.571967451217748,1.4818856039090642,0.2382035284999997,-0.128074849,-0.07423634049999972
127612.0,4.505175009999999,-1.1494374465,7.469921437999999,-0.13316687659791535,0.9349938242443863,-1.2315758787065307,8.798723464459883,1.552007091932814,-0.009512450499999936,-0.45130203299999994,0.21672696499999944
127622.0,4.46202575,-1.478646687,7.861304839499999,-0.008194320838113377,0.9813584958236156,-1.2385048358369481,9.159485989846004,1.5801980485403382,-0.043149259999999856,-0.3292092405,0.39138340149999973
127632.0,4.332774102999999,-1.4570720569999998,8.2527863075,0.1221049797987753,0.9011536353774682,-1.2622203697130472,9.434218157546344,1.5556952665494062,-0.12925164700000025,0.02157463000000015,0.3914814680000003
127642.0,4.325615248499999,-1.246425215,8.535315894,0.25400474735974277,0.7218245453935549,-1.2776752602394568,9.649670486861845,1.489296195067275,-0.007158854500000089,0.21064684199999983,0.2825295865000008
127652.0,4.507528605999999,-0.913587514,8.6107290325,0.3613878749179459,0.5472916201941219,-1.260354612742665,9.762023906484934,1.420782553219925,0.18191335750000004,0.3328377009999999,0.07541313850000009
127662.0,4.6679654,-0.44796777199999993,8.674178057999999,0.41654551526872263,0.4572273948034585,-1.1982680152614709,9.860625795670193,1.3484855554465194,0.16043679400000066,0.4656197420000001,0.06344902549999887
127672.0,4.682283109,0.033342609999999995,8.755573253,0.41174935048424227,0.4508325084241513,-1.0802261619613385,9.928995408958416,1.2408368302326989,0.014317709000000178,0.4813103819999999,0.0813951950000007
127682.0,4.4452563785,0.50013915,9.030943985,0.38803381660814334,0.48094292867955746,-0.9128874839386261,10.078114540933008,1.1023792005522182,-0.23702673050000023,0.46679654,0.27537073200000073
127692.0,4.029944751,0.37324109899999997,9.4319379035,0.3350089686033036,0.4790771717091755,-0.7175711780064447,10.263586908560534,0.9255562333013962,-0.4153116274999995,-0.126898051,0.4009939184999993
127702.0,3.546280773,0.0416782625,9.743200974499999,0.2574674805956995,0.43910738650925335,-0.5305137700947004,10.36859728352935,0.7352208244543786,-0.4836639780000005,-0.33156283649999996,0.31126307099999906
127712.0,3.0482990859999997,-0.3294053735,9.955024614500001,0.1527477254760397,0.35623740829531064,-0.39221911615442573,10.41648454581007,0.551427958834173,-0.49798168700000023,-0.371083636,0.2118236400000022
127722.0,2.6029791094999997,-0.6634198725,9.991015019999999,0.05602157833051399,0.2256710722828668,-0.3008232045444907,10.34582076500395,0.380211060460315,-0.4453199765,-0.334014499,0.03599040549999799
127732.0,2.2701414085,-0.8717131184999999,9.856860048,-0.008728391589223642,0.07911752032215495,-0.26058812929826536,10.15239458361474,0.27247374180429,-0.3328377009999999,-0.20829324599999988,-0.13415497199999926
127742.0,2.0702818814999997,-0.9650724264999999,9.609144069,-0.026047293756763373,-0.052782247238812516,-0.25419149758970616,9.87689635442509,0.2609171220570391,-0.1998595270000001,-0.09335930800000003,-0.24771597900000053
127752.0,1.9769225734999998,-0.8358207795,9.312198706999999,0.0035290557475325343,-0.12845797827603464,-0.25978702317159996,9.556352023429772,0.2898330619953438,-0.09335930799999992,0.12925164699999991,-0.29694536200000066
127762.0,1.802070004,-0.506611539,9.2116805445,0.06454925705575829,-0.1583013631558857,-0.253926207543403,9.39995585120932,0.30611182113867696,-0.17485256949999983,0.3292092405,-0.10051816249999845
127772.0,1.5746537904999998,-0.22290515449999998,9.269147513499998,0.12183794442322016,-0.1606994455481259,-0.21209066537309892,9.404590203451818,0.29266234270769204,-0.22741621350000019,0.2837063845,0.05746696899999826
127782.0,1.3100703734999999,-0.15818126449999997,9.378099395,0.1578109256360753,-0.12152902114561716,-0.1404134836521958,9.470483301208054,0.24369968736556108,-0.2645834169999999,0.06472389,0.10895188150000124
127792.0,1.027540787,-0.2827257195,9.498917323,0.16047604340387062,-0.04505392931098162,-0.06473775261497368,9.558514749196387,0.1788110557727274,-0.28252958649999993,-0.124544455,0.12081792800000102
127802.0,0.7498164589999999,-0.48621370699999994,9.6186565195,0.13116498394587786,0.034883895759610664,-0.004516912104161324,9.66008186979706,0.13579963804018957,-0.277724328,-0.20348798749999997,0.11973919649999942
127812.0,0.49729522149999994,-0.7531507199999999,9.706033771,0.08533263778850676,0.08231496351180857,0.0391826417072727,9.747903882792224,0.12487069993018929,-0.2525212375,-0.266937013,0.08737725149999953
127822.0,0.2745862,-1.0081236199999999,9.764677537999999,0.04003436238224593,0.0748536809595328,0.05437224218737935,9.820419453137125,0.10080756144767886,-0.22270902149999994,-0.25497289999999995,0.058643766999999514
127832.0,0.136900834,-1.1949403024999998,9.8234193715,0.018983946273942322,0.016231562043547264,0.03411944154723715,9.896776864881321,0.04228463212564094,-0.137685366,-0.18681668249999994,0.05874183350000095
127842.0,0.005295591,-1.180524527,9.949042558,0.027244589623631483,-0.06637138079484037,-0.0013194689145077131,10.018837957718839,0.07175770934603574,-0.131605243,0.014415775499999839,0.12562318650000037
127852.0,-0.15396440499999997,-0.9890006524999999,10.1238951275,0.04722860955896656,-0.1652285749570512,-0.030096457621390217,10.17325316117075,0.1744615152535577,-0.15925999599999996,0.19152387450000008,0.1748525695000005
127862.0,-0.267721545,-0.8273870605,10.3214010585,0.053091170516415515,-0.30032578570767227,-0.04555134814780001,10.357971036064201,0.30836532759993607,-0.11375714000000003,0.16161359199999992,0.19750593099999847
127872.0,-0.2748803995,-0.8393511735,10.407601512,0.04163308397707274,-0.46473231058703407,-0.05141390910524896,10.445010237384633,0.4694175372038078,-0.007158854499999978,-0.011964112999999998,0.08620045350000005
127882.0,-0.259287826,-0.9579135719999999,10.350134543,0.0211149932906274,-0.6163508080370336,-0.04342030113111493,10.397601340998577,0.618239018551793,0.015592573499999984,-0.11856239849999994,-0.057466969000000034
127892.0,-0.16710531599999998,-1.0021415635,10.1034972955,-0.011658799403322121,-0.7378571399023748,-0.02769837522915001,10.154450723702661,0.738468879844489,0.09218251000000002,-0.04422799150000001,-0.24663724749999894
127902.0,-0.004314926,-1.0021415635,9.757518683499999,-0.04630009439690558,-0.8023400744465573,-0.009845402310500014,9.808846883845836,0.8037351714033205,0.16279038999999998,0.0,-0.34597861200000146
127912.0,0.1201314625,-0.9507547174999998,9.358878360999999,-0.06841516134892572,-0.7900843724390532,0.012803735392630402,9.407814319868612,0.7931443030841339,0.12444638849999999,0.0513868460000001,-0.39864032250000037
127922.0,0.2219244895,-0.832192319,9.06918992,-0.08280540103161897,-0.7066803234740001,0.03598519851761908,9.109994530177943,0.7124245563831142,0.101793027,0.11856239849999983,-0.28968844099999913
127932.0,0.15729866599999998,-0.77472535,8.905222731999999,-0.0884009266135128,-0.5627918892810836,0.05756968537703296,8.940242398547564,0.5725938378476577,-0.06462582350000001,0.057466969000000034,-0.16396718800000087
127942.0,0.065116156,-0.852590151,8.916010046999999,-0.07560940852564635,-0.39438681508540263,0.07089178355750568,8.956918289096945,0.4077786011388654,-0.09218250999999998,-0.07786480100000004,0.010787314999999964
127952.0,-0.11444360549999999,-1.097952534,9.126656889,-0.05589242396586641,-0.2470339023272774,0.05597096378220615,9.19317480935112,0.2593886287841701,-0.17955976149999997,-0.24536238300000002,0.21064684200000094
127962.0,-0.1803442935,-1.320563489,9.301411391999999,-0.036973054874247874,-0.13245478226310167,0.018399260974524222,9.396417715060629,0.1387436807047747,-0.06590068800000001,-0.22261095499999994,0.17475450299999906
127972.0,-0.18632634999999997,-1.3373328604999999,9.5156866945,-0.004197516851046363,-0.0698358593600491,-0.02503500279060666,9.611007749261352,0.07430624310915644,-0.0059820564999999715,-0.016769371499999908,0.21427530250000082
127982.0,-0.0114737805,-1.2404431584999998,9.5623663485,0.03470587217590724,-0.0487854432517455,-0.059407517079382986,9.642493508425797,0.08434316879449617,0.17485256949999997,0.09688970200000013,0.04667965400000007
127992.0,0.1536702055,-1.0081236199999999,9.612674463,0.06907838646468357,-0.06050881983739141,-0.07113263899428089,9.66661461406591,0.11615934351126801,0.165143986,0.23231953849999987,0.050308114499999945
128002.0,0.20996037649999996,-0.8214050039999999,9.768305998499999,0.07147646885692378,-0.08475667913534864,-0.06287199564459174,9.805028894431027,0.1274577110050263,0.05629017099999997,0.18671861599999995,0.15563153549999953
128012.0,0.23987065899999999,-0.6526325574999999,9.771934458999999,0.07174350423247891,-0.09994627961545528,-0.02929709682397682,9.796640764014453,0.12647019052266809,0.029910282500000024,0.1687724465,0.003628460499999875
128022.0,0.19319100499999997,-0.4694443355,9.6880876015,0.09519200273302274,-0.11859861333151869,0.027192229746071654,9.70137836201042,0.1544880766500963,-0.046679654000000015,0.18318822199999996,-0.08384685749999932
128032.0,0.075903471,-0.3617673185,9.692892859999999,0.1229043405961887,-0.13698391167202695,0.08714603488132887,9.699938604191445,0.2036283388673871,-0.11728753399999997,0.10767701699999999,0.004805258499999354
128042.0,-0.12160245999999998,-0.370102971,9.8485243955,0.14582051367487425,-0.1396490294398223,0.13457710263352676,9.856226262428217,0.24264474069124875,-0.19750593099999997,-0.008335652500000013,0.1556315355000013
128052.0,-0.283216052,-0.4419857155,9.981404502999998,0.16287412579611085,-0.14844199821136972,0.16548688368634634,9.995198775278316,0.2755883095471395,-0.16161359200000003,-0.07188274449999998,0.13288010749999835
128062.0,-0.329895706,-0.5700605645,10.017296841999999,0.16127540420128403,-0.15163944140102334,0.1769449702256891,10.038926050369055,0.2833968924968514,-0.046679654000000015,-0.128074849,0.035892339000000106
128072.0,-0.328718908,-0.742363405,10.0364198095,0.1362281841059134,-0.13991431948612543,0.1649528129352361,10.069204642775114,0.25562387493602234,0.0011767980000000344,-0.1723028405,0.01912296750000131
128082.0,-0.3933447315,-0.7340277525,10.056817641499999,0.11464369724649953,-0.12712454672751097,0.1478992008139995,10.09123866993664,0.2262255540394186,-0.06462582350000001,0.008335652500000013,0.020397831999998672
128092.0,-0.33950622299999994,-0.7232404374999999,10.0244556965,0.0903958379485423,-0.10447540902438056,0.13670814965021183,10.056244488723523,0.19435955543789313,0.05383850850000005,0.010787315000000075,-0.032361944999998116
128102.0,-0.3670629095,-0.5975191845,10.0124915835,0.06108477849054954,-0.06770306701411204,0.13031326327090462,10.037019082627793,0.15904905542212108,-0.02755668650000004,0.12572125299999992,-0.01196411300000122
128112.0,-0.45444016099999995,-0.5149471915,10.063976496,0.033639476002938706,-0.04372224309170995,0.12391837689159739,10.087383673778048,0.13564296155042785,-0.08737725149999997,0.08257199299999995,0.0514849125000012
128122.0,-0.5011198149999999,-0.518575652,10.095161642999999,0.012322024519079966,-0.0495848040491589,0.11885517673156185,10.120885849278773,0.12937170524010685,-0.04667965399999996,-0.003628460499999986,0.031185146999998636
128132.0,-0.6411587769999999,-0.48268331299999995,10.160964264499999,0.0029967303256742636,-0.11113733077924293,0.1129926157741129,10.192608230596269,0.15851756339553036,-0.140038962,0.03589233900000005,0.0658026214999996
128142.0,-0.665087003,-0.566432104,10.234023807,0.011522663721666564,-0.21559005052334757,0.10873052174074274,10.271242832892431,0.2417316032750296,-0.023928226000000108,-0.08374879100000004,0.07305954250000113
128152.0,-0.5514279295,-0.7400098089999999,10.138212836499997,0.03390651137849384,-0.30672067208697945,0.09807179599881338,10.180129999023697,0.3237982386761564,0.11365907350000004,-0.17357770499999992,-0.09581097050000231
128162.0,-0.434042329,-0.8453332299999999,9.981404502999998,0.06401693163390001,-0.35734918302883095,0.08394859169167525,10.02653563628109,0.3726177293074069,0.11738560049999996,-0.10532342100000003,-0.156808333499999
