timestamp,ax,ay,az,gx,gy,gz,acc_mag,gyro_mag,dax,day,daz
59902.0,0.397757724,1.4724684975,10.133015312,-0.036402332208845735,-0.03419798136357689,-0.0702076144907239,10.247164192905178,0.08616113307092023,0.0,0.0,0.0
59912.0,0.5629997765,1.4126479325,10.153413144,-0.0377357637573694,-0.08296073533504647,-0.06967528906886564,10.266661648378578,0.11472191325336938,0.16524205250000001,-0.05982056499999988,0.02039783200000045
59922.0,0.497197155,1.4689381035,10.1031050295,-0.008957029721234898,-0.1128041202148975,-0.07473848922890117,10.221434116598438,0.13561283011242967,-0.06580262149999999,0.05629017099999989,-0.050308114499999945
59932.0,0.5402483484999999,1.5503332985,9.9738533825,0.01768891196896253,-0.13278988547948456,-0.07713657162114139,10.108073649815852,0.1545836407054893,0.04305119349999992,0.08139519500000003,-0.12925164700000025
59942.0,0.5606461804999999,1.605348605,9.925898863999999,0.03261147707351405,-0.12213115973755521,-0.07607017544817286,10.070498326380932,0.14753372566458275,0.020397832000000005,0.05501530650000008,-0.04795451850000099
59952.0,0.5306378315,1.5970129524999999,9.907952694499999,0.034475488714643995,-0.09841562586145625,-0.08060105018635014,10.049853405653318,0.13179804257635322,-0.030008348999999934,-0.008335652500000235,-0.017946169500000053
59962.0,0.5055328075,1.591030896,9.960614405,0.021418680580474414,-0.0645754369945382,-0.09339082294496458,10.099543655857866,0.11554476513967081,-0.02510502400000003,-0.005982056499999944,0.05266171050000068
59972.0,0.361865385,1.6533031234999997,10.004940462999999,0.002234021442552742,-0.02780309498426967,-0.11204315666102797,10.147077975614984,0.11546285938377658,-0.14366742249999997,0.06227222749999983,0.044326057999999335
59982.0,0.31283213499999996,1.6880186645,10.061230634,-0.011889182864585374,-0.006485643500410928,-0.12989612957967797,10.206646502496746,0.13060023246756672,-0.04903325000000003,0.03471554100000018,0.056290171000000555
59992.0,0.21584436649999997,1.7179289469999999,10.162925594499999,-0.013220869083857046,-0.002488839513343914,-0.13682334138084348,10.309361051822439,0.13748313514054916,-0.09698776849999999,0.02991028249999994,0.10169496049999971
60002.0,0.09492837199999998,1.7897136249999999,10.2288262825,-0.004427900312309613,-0.018743090837167107,-0.1290967687822646,10.384650854645233,0.13052542076288257,-0.12091599449999998,0.07178467799999999,0.06590068800000104
60012.0,-0.0499158485,1.8268808285,10.2862932515,0.016090190374135727,-0.0544490366744671,-0.11204315666102797,10.447383117763355,0.12560756655401398,-0.14484422049999998,0.037167203500000134,0.057466969000000034
60022.0,-0.2485985775,1.8029526025,10.3808293575,0.0291469985083053,-0.08802393549508201,-0.09472250916423626,10.539167779722003,0.1325523084840635,-0.198682729,-0.023928225999999997,0.09453610599999962
60032.0,-0.5179872529999999,1.6544799215,10.506550610499998,0.021418680580474414,-0.12559563830276396,-0.09871931315130326,10.648625279157635,0.1611785563514954,-0.2693886754999999,-0.1484726810000001,0.12572125299999826
60042.0,-0.727457297,1.4353993605,10.528027174,-0.0033615041393410786,-0.177288800088332,-0.1301614196259811,10.650301480219458,0.2199650279155532,-0.20947004400000002,-0.21908056099999995,0.021476563500002044
60052.0,-0.8747531799999999,1.2882015439999999,10.4634013505,-0.03400424981660552,-0.2276502756546284,-0.18345504833562798,10.578630543011194,0.2943411146459937,-0.14729588299999996,-0.14719781650000008,-0.06462582350000012
60062.0,-0.932220149,1.1971958319999998,10.2562849025,-0.0641146700720117,-0.24710197016810517,-0.2458069358631254,10.367916486334618,0.35438838059087197,-0.057466969000000145,-0.09100571200000007,-0.20711644800000073
60072.0,-0.94536106,1.1923905735,10.0564253755,-0.08809723932366578,-0.2215224246508763,-0.3076264979687645,10.170899377465904,0.38918809135452836,-0.013140910999999922,-0.004805258499999798,-0.1998595269999992
60082.0,-0.9166275755,1.2402470255,9.892360121,-0.09982061590931168,-0.1602351879670954,-0.3609183813491594,10.011853352900237,0.4073101383700901,0.028733484500000017,0.047856451999999994,-0.16406525450000053
60092.0,-0.8639658649999999,1.253486003,9.740357046,-0.112345098621623,-0.06324375077526653,-0.40541729595800685,9.858611441737825,0.4254225864459107,0.052661710500000014,0.013238977499999915,-0.15200307499999965
60102.0,-0.8711247195,1.2821214209999998,9.715252022,-0.11634190260869001,0.04254240051736178,-0.44298899876568876,9.838130689622195,0.4599832031409592,-0.007158854500000089,0.028635417999999913,-0.025105024000000142
60112.0,-0.9070170585,1.2307345749999998,9.793018756499999,-0.10781422388344572,0.1134219667701035,-0.4789619799785439,9.911639819105172,0.5038779888847649,-0.035892338999999995,-0.051386845999999986,0.07776673449999905
60122.0,-0.9621304315,1.1804264604999999,9.9642428655,-0.07877019980100809,0.1326066259080252,-0.5226615337899779,10.079942335079828,0.5449443462548207,-0.055113372999999966,-0.050308114499999945,0.17122410900000062
60132.0,-0.9860586575,1.1672855494999999,10.1401741665,-0.035870006786987464,0.09796707624369372,-0.5762204525459279,10.254657447085016,0.585588776657195,-0.023928225999999997,-0.013140911000000033,0.17593130100000032
60142.0,-0.9262380925,1.2007262259999998,10.306593016999999,0.004899139210348083,0.032417745526542675,-0.6367065831030434,10.41755825958633,0.6375501429352665,0.05982056499999999,0.03344067649999993,0.1664188504999995
60152.0,-0.7825706699999999,1.2606448575,10.4024039875,0.022218041377887812,-0.034732052114687155,-0.6993255060060959,10.507694848511797,0.7005398776354198,0.14366742250000009,0.05991863150000021,0.09581097050000054
60162.0,-0.608992965,1.394701763,10.361706389999998,0.003300417615521277,-0.08162904911577479,-0.7504863423698057,10.472870893489597,0.7549198265376209,0.17357770499999992,0.13405690550000005,-0.04069759750000124
60172.0,-0.37794829099999994,1.488061071,10.2084284505,-0.035870006786987464,-0.08535881772728668,-0.7896567667723144,10.32323505935389,0.7950664088363966,0.23104467400000006,0.09335930799999992,-0.1532779394999988
60182.0,-0.136116302,1.6413390104999999,10.0360275435,-0.07210827804614572,-0.05471607205002223,-0.8048446219231691,10.170268936903778,0.8099187105765692,0.24183198899999994,0.1532779394999999,-0.1724009070000001
60192.0,-0.05226944449999999,1.6101538635,9.9403146395,-0.08729787852625238,-0.008084365095237734,-0.832556959786335,10.070014036297582,0.8371602999681976,0.08384685750000001,-0.03118514699999997,-0.0957129039999991
60202.0,0.055407572499999995,1.5946593565,9.8349912185,-0.08862956474552405,0.0380132711084365,-0.8674635448262217,9.963586740242464,0.8728076592983238,0.10767701699999999,-0.01549450699999988,-0.10532342099999958
60212.0,0.20741064749999996,1.580243581,9.800275677499998,-0.07717147820618127,0.07345218157018135,-0.9124965301861794,9.92902776242398,0.9186950406025728,0.15200307499999996,-0.014415775500000061,-0.0347155410000024
60222.0,0.35107806999999996,1.6903722604999998,9.772718991,-0.04093320694702301,0.09849940166555199,-0.9577948055924402,9.924044068188877,0.963716010648002,0.1436674225,0.11012867949999983,-0.02755668649999876
60232.0,0.44443737799999994,1.7646086009999997,9.7594800135,0.005164429256651221,0.12994325346948182,-0.987105865050433,9.927679398106722,0.9956354298982859,0.09335930799999997,0.07423634049999994,-0.01323897750000036
60242.0,0.5485840009999999,1.8376681435,9.7080931675,0.03714060648243934,0.16085128919304942,-1.0022937202012876,9.895708239466646,1.0157978457546986,0.104146623,0.07305954250000024,-0.051386845999999764
60252.0,0.6540054885,1.8591447069999998,9.7247644725,0.061388465780396556,0.20188747056594009,-1.0062905241883546,9.922458680496103,1.028176888270524,0.10542148750000002,0.021476563499999823,0.016671305000000913
60262.0,0.7042155364999999,1.844826998,9.824203903499999,0.08483696428094037,0.2546470285244767,-1.0046918025935279,10.020693015552482,1.039926938704534,0.05021004799999995,-0.014317708999999734,0.09943943099999863
60272.0,0.682738973,1.8053061984999998,9.963066067499998,0.10082592555846043,0.2943497783488436,-0.9996286024334924,10.148297810025358,1.0469312308274459,-0.021476563499999934,-0.0395207995000002,0.13886216399999896
60282.0,0.6036973739999999,1.7802011745,10.265895419499998,0.09975952938549189,0.30420914329335963,-0.9961658691975355,10.436578726056576,1.0463467902758512,-0.07904159900000007,-0.02510502399999992,0.30282935199999983
60292.0,0.5271074375,1.6676208325,10.502922149999998,0.08004079949645995,0.2674368012830911,-0.9964311592438386,10.64754315232469,1.0347966115989093,-0.0765899364999999,-0.112580342,0.23702673050000023
60302.0,0.4731708625,1.570633064,10.6609072815,0.04913101844364037,0.19335979184069577,-1.0062905241883546,10.786367458583484,1.025876447309938,-0.05393657499999999,-0.09698776850000002,0.15798513150000204
60312.0,0.45287109699999994,1.4724684975,10.7028797435,0.013959143357450647,0.09796707624369372,-1.0217454147147644,10.813181331617931,1.0265262286964019,-0.020299765500000067,-0.09816456649999994,0.04197246200000038
60322.0,0.4899402339999999,1.511989297,10.6573768875,-0.00842470429937663,-0.004621631859280984,-1.034802222848934,10.775241769415372,1.0348468367525068,0.037069136999999974,0.03952079949999998,-0.04550285600000059
60332.0,0.501904347,1.5946593565,10.5759816925,-0.019083430041306,-0.07336840576608564,-1.034535187473379,10.707298221162313,1.037309092984043,0.011964113000000054,0.08267005950000006,-0.0813951950000007
60342.0,0.5163201225,1.5503332985,10.506550610499998,-0.024944245669502957,-0.10081370825369647,-1.0278750110477683,10.632860646897155,1.0331082506205882,0.014415775500000061,-0.044326058,-0.06943108200000125
60352.0,0.4827813795,1.520423016,10.506550610499998,-0.031873202799920446,-0.08988969246546395,-1.0278750110477683,10.626964276733611,1.0322902189814211,-0.03353874300000004,-0.02991028249999994,0.0
60362.0,0.4109967015,1.5012019819999998,10.5771584905,-0.04413065013667663,-0.05311735045519543,-1.0372003052411742,10.691062033893585,1.0394967245707178,-0.07178467799999999,-0.019221034000000303,0.07060788000000251
60372.0,0.385793611,1.369596739,10.641784313999999,-0.06598042704239364,-0.013946926052686688,-1.0617151999146865,10.736489432000774,1.0638548299598487,-0.025203090500000025,-0.13160524299999987,0.06462582349999835
60382.0,0.406191443,1.3229170849999998,10.7088618,-0.09155997255962253,0.020959658987199904,-1.100086263519782,10.797908230469943,1.1040889108513379,0.020397832000000005,-0.04667965400000007,0.06707748600000052
60392.0,0.5402483484999999,1.3779323915,10.6681642025,-0.12353614978541064,0.04813792609925561,-1.1440528527067713,10.770343235250413,1.1517097594530674,0.13405690549999993,0.05501530650000008,-0.04069759749999946
60402.0,0.7701162245,1.4844326104999999,10.5651943775,-0.1536465700408168,0.0753179385405633,-1.1720304806162403,10.69672620051161,1.184455785517063,0.22986787600000003,0.10650021899999995,-0.10296982500000063
60412.0,0.9472243234999999,1.600641413,10.415544898499999,-0.16990082136464002,0.11555301378678857,-1.1840208925774411,10.580305401296789,1.2017172138883048,0.1771080989999999,0.1162088025000001,-0.1496494790000007
60422.0,1.065786722,1.601818211,10.326990849000001,-0.16457058582904932,0.15419111276743905,-1.1906828143323036,10.504687663762903,1.2118514518384143,0.11856239850000005,0.0011767980000001454,-0.08855404949999723
60432.0,1.1411998605,1.5766151204999999,10.288646847499999,-0.14591825211298592,0.16911193254273854,-1.2072041010316819,10.471117720299304,1.2276940675818875,0.07541313850000009,-0.025203090500000247,-0.03834400150000228
60442.0,1.252505338,1.5634742094999998,10.315026736,-0.1256671968020957,0.16111832456860456,-1.2317189957051942,10.507758932802226,1.2485523790554016,0.11130547749999997,-0.013140911000000033,0.02637988850000106
60452.0,1.4883552704999998,1.628100033,10.289823645499999,-0.10355212985007556,0.12940918271837157,-1.2599636589902186,10.523610681898614,1.2708179264333437,0.23584993249999986,0.06462582350000012,-0.02520309050000158
60462.0,1.8223697694999998,1.836393279,10.261090161,-0.0774385135817364,0.09743475082183545,-1.2711547101540062,10.582218252526966,1.277233162425787,0.334014499,0.208293246,-0.02873348449999824
60472.0,2.188648147,2.0973482354999997,10.246772452,-0.055321701300464265,0.08570962890693753,-1.248772607826431,10.685756688947563,1.2529324232295085,0.36627837750000003,0.2609549564999998,-0.014317709000000178
60482.0,2.5022648139999997,2.287695312,10.210880113,-0.058786179865673006,0.09103811911327622,-1.1965453752897526,10.759040464743505,1.201442711577284,0.3136166669999998,0.19034707650000016,-0.035892339000000106
60492.0,2.5801296149999997,2.3595780564999997,10.2647186215,-0.08623148235328383,0.12940918271837157,-1.1208696442525306,10.843851982274805,1.1316056576950628,0.07786480100000004,0.07188274449999987,0.05383850850000016
60502.0,2.5429624114999996,2.193159206,10.325715984499999,-0.13446191090289514,0.15898727755191944,-1.0433299015741782,10.858039220859501,1.0639051853552615,-0.037167203500000134,-0.16641885049999994,0.06099736299999847
60512.0,2.462842081,1.962114532,10.350919075,-0.1901518766755302,0.1429983162743994,-0.9900362728645314,10.819288805177022,1.0182229992727685,-0.08012033049999978,-0.23104467399999984,0.02520309050000158
60522.0,2.3670311104999997,1.7933420855,10.3137518715,-0.22399206554244827,0.08064642874690199,-0.9572624801705819,10.732771765977793,0.9864216886494007,-0.09581097050000009,-0.1687724465,-0.03716720350000102
60532.0,2.3431028845,1.7023363734999999,10.2096052485,-0.2282559049050704,-0.00915076126820627,-0.933813981670038,10.61245115824295,0.9613495966183532,-0.023928225999999775,-0.09100571200000007,-0.10414662299999833
60542.0,2.4244980794999997,1.6712492929999998,10.051620116999999,-0.22052933230649152,-0.10081370825369647,-0.9095643770428289,10.474079058004635,0.941330944017415,0.08139519499999981,-0.031087080500000086,-0.15798513150000204
60552.0,2.5909169299999997,1.790890423,9.796647216999999,-0.21759717916314103,-0.1493094268496109,-0.8770558743951825,10.290502210276598,0.915897834988714,0.16641885049999994,0.1196411300000002,-0.2549729000000003
60562.0,2.6375965839999997,2.0232099614999997,9.5692310035,-0.22159398315020806,-0.12293052053496861,-0.8288271911748233,10.130176518036935,0.866700824436045,0.04667965400000007,0.23231953849999964,-0.22741621349999797
60572.0,2.5849348735,2.031545614,9.498525057,-0.22425910091800338,-0.03206693434689181,-0.7781986802329717,10.051420006171066,0.810502078059827,-0.05266171049999979,0.008335652500000457,-0.0707059465000004
60582.0,2.4113571685,1.9669197904999998,9.6039465445,-0.22239334394762147,0.07265282077276795,-0.7475559345557072,10.095504251197678,0.7833116283369613,-0.17357770500000003,-0.06462582350000035,0.10542148749999924
60592.0,2.2173816315,1.915434878,9.7906651605,-0.21599845756831423,0.14006790846030093,-0.7398276166278764,10.219725845471636,0.7833385315287498,-0.19397553700000003,-0.05148491249999987,0.18671861600000028
60602.0,2.1610914605,1.824429166,9.876865614,-0.21599845756831423,0.1677802463234669,-0.7475559345557072,10.273817812255242,0.796018479696113,-0.05629017100000011,-0.09100571199999985,0.08620045350000005
60612.0,2.177860832,1.8053061984999998,9.8948117835,-0.22212805390131832,0.16218472074157309,-0.7520850639646325,10.291234547166471,0.8007975395883121,0.01676937150000013,-0.0191229675000002,0.017946169500000053
60622.0,2.186294551,1.8400217394999998,9.810964925999999,-0.22345974012059,0.13500470830026537,-0.7347661617970928,10.218639667038223,0.7797703759697677,0.008433719000000117,0.03471554099999996,-0.08384685750000109
60632.0,2.2113995749999997,1.8795425389999998,9.6614135135,-0.20427508098266833,0.08730835050176433,-0.6958627727701392,10.087907578633992,0.7304629048111622,0.025105023999999698,0.03952079949999998,-0.14955141249999926
60642.0,2.189824945,1.904647563,9.497348258999999,-0.17336529992984875,0.05852961646562984,-0.6393717008708387,9.930893191537024,0.6650394086803048,-0.021574629999999928,0.025105024000000142,-0.16406525450000053
60652.0,2.0449807245,1.812465053,9.475773628999999,-0.15124848764857662,0.04573984370701539,-0.5866121429123021,9.861909632519183,0.607521229695298,-0.1448442205,-0.09218251,-0.021574629999999928
60662.0,1.8559085124999999,1.6544799215,9.402812153,-0.14858336988078125,0.04174303971994838,-0.556501722656896,9.725974326617417,0.5775064211680101,-0.1890722119999999,-0.15798513150000004,-0.07296147599999969
60672.0,1.6224121759999999,1.5048304424999999,9.267480382999999,-0.16457058582904932,0.051869440040019484,-0.5471764284634902,9.528007587045552,0.5737385819310418,-0.2334963365,-0.14964947900000003,-0.13533177000000052
60682.0,1.4189241885000001,1.392348167,9.012507482999998,-0.18748675890773486,0.08570962890693753,-0.5573010834543094,9.229153287381763,0.5942069697272485,-0.20348798749999975,-0.1124822754999999,-0.2549729000000003
60692.0,1.296831396,1.2510343404999997,8.708501333,-0.20427508098266833,0.1592525675982226,-0.5908759822749243,8.892966549899102,0.6451543345792996,-0.12209279250000016,-0.14131382650000024,-0.3040061499999993
60702.0,1.2214182574999999,1.1312951439999999,8.558851853999998,-0.191750598270357,0.25038318916185454,-0.6431032148116026,8.719268106975006,0.7162693475592259,-0.07541313850000009,-0.11973919649999987,-0.1496494790000007
60712.0,1.1519871755,1.253486003,8.634264992499999,-0.12353614978541064,0.3138014728623205,-0.6963950981919975,8.800501893241337,0.7737562131965126,-0.06943108199999992,0.12219085900000004,0.07541313850000009
60722.0,1.160322828,1.52395341,8.862858004,-0.01588598685165239,0.31140339047008025,-0.7347661617970928,9.067471260505622,0.7981890432075247,0.008335652500000013,0.27046740700000016,0.228593011500001
60732.0,1.2237718535,1.8029526025,9.166962220499999,0.07924143869904654,0.26903552287791793,-0.7352984872189511,9.422390991057133,0.7869708911286156,0.06344902549999998,0.27899919249999994,0.30410421649999897
60742.0,1.323113218,2.0124226465,9.451845403,0.13040227506275634,0.20881468236710557,-0.7011912629764778,9.753863594391948,0.7431537607979697,0.09934136450000008,0.20947004400000013,0.28488318250000155
60752.0,1.319582824,2.1153924715,9.7547728215,0.14052867538282743,0.16591448935308495,-0.6383070500271222,10.068355225008192,0.6743232285013427,-0.0035303939999999923,0.10296982499999974,0.3029274184999995
60762.0,1.192684773,2.1308869785,10.022886632499999,0.10961889433000786,0.13580406909767878,-0.5695585307910656,10.316076421335492,0.595697882466018,-0.12689805099999996,0.015494507000000102,0.2681138109999992
60772.0,0.9496759859999999,2.0734200095,10.251577710499998,0.051263810789577445,0.10462899799855606,-0.5197311259758794,10.502180752996038,0.5326308748345395,-0.24300878700000017,-0.057466969000000034,0.22869107799999888
60782.0,0.6372361169999999,1.9405399019999998,10.392793470500001,-0.01668534764906579,0.06119473423342519,-0.5024104784790877,10.591596721010994,0.5063985438463026,-0.312439869,-0.13288010750000012,0.14121576000000324
60792.0,0.47915291899999995,1.7981473439999998,10.364059986,-0.06784618401277558,-0.017144369242340297,-0.5199964160221826,10.529798705764835,0.524684006577033,-0.15808319799999998,-0.14239255800000006,-0.028733484500001794
60802.0,0.428942871,1.812465053,10.235985136999998,-0.09155997255962253,-0.09894969661256653,-0.5562364326105929,10.404057539239817,0.5723401436193309,-0.05021004799999995,0.014317709000000178,-0.12807484900000077
60812.0,0.5533892595,1.904647563,10.097122973,-0.0920940433107328,-0.16849583131678456,-0.5978031940760898,10.290083301103843,0.627885990313551,0.12444638849999995,0.09218251,-0.13886216399999896
60822.0,0.7928676525,2.0806769304999997,9.910404356999999,-0.07264234879725598,-0.20580049874891135,-0.6217857633277439,10.15745884179406,0.6589751828416212,0.23947839300000007,0.17602936749999976,-0.18671861600000028
60832.0,1.0358764395,2.226697949,9.7918419585,-0.048659779545601904,-0.21432643214490366,-0.6199200063573619,10.09511726995943,0.6577266969976984,0.24300878699999995,0.14602101850000038,-0.11856239849999994
60842.0,1.3111491050000001,2.217087432,9.7594800135,-0.0276093634372983,-0.21139602433080518,-0.5970038332786765,10.093663298851443,0.6339275455457958,0.2752726655000002,-0.00961051700000004,-0.03236194499999989
60852.0,1.5481758355,2.2338568034999997,9.763108474,-0.010555751316061705,-0.21032962815783665,-0.5591668404246913,10.134359955678502,0.5975094407600541,0.23702673049999978,0.016769371499999686,0.003628460499999875
60862.0,1.7637260025,2.2913237724999997,9.8014524755,0.011026990214100174,-0.22178771469717942,-0.5104040864532218,10.219068679278134,0.5566181063996456,0.21555016699999996,0.057466969000000034,0.0383440015000005
60872.0,1.9373037075,2.320057257,9.867255097000001,0.03314380249537232,-0.24603557399513665,-0.45151667749093305,10.31981271536088,0.5152662664753243,0.17357770500000003,0.02873348450000046,0.06580262150000138
60882.0,2.1240223234999998,2.3607548544999997,9.92236847,0.04327020281544342,-0.2689517470738222,-0.3835675190522898,10.418158684154402,0.4704587063469859,0.18671861599999984,0.04069759749999946,0.0551133729999993
60892.0,2.2868127135,2.437344791,9.97140172,0.028879963132750174,-0.2761459942505428,-0.31455370976993,10.516606595212117,0.41956489216948933,0.16279039000000006,0.07658993650000046,0.04903324999999903
60902.0,2.3346691655,2.4529373645,10.0240634305,-0.018284069243892597,-0.2585600567074479,-0.2474056574579522,10.580615742251682,0.35832550768104093,0.047856451999999994,0.015592573499999762,0.05266171050000068
60912.0,2.3419260865,2.4780423885,10.0672126905,-0.10275276905266216,-0.22285411087014795,-0.19278034252903367,10.628926720492348,0.3120678559950151,0.007256921000000194,0.025105024000000142,0.043149259999999856
60922.0,2.2856359155,2.334374966,10.075548343,-0.1970790884766957,-0.19993793779146243,-0.14934782409315478,10.591983404076927,0.31799389718116894,-0.05629017100000011,-0.14366742250000009,0.008335652499999568
