timestamp,ax,ay,az,gx,gy,gz,acc_mag,gyro_mag,dax,day,daz
33802.0,0.4037397805,-0.10532342099999999,9.7233915415,0.0549726354500654,-0.0259163940628638,0.06199758568934258,9.732340001391396,0.08681791728010299,0.0,0.0,0.0
33812.0,0.571335429,0.065900688,9.4707722375,0.057637753217860736,-0.03550872363182463,0.06279694648675598,9.488218686756237,0.09233870552495747,0.16759564850000003,0.17122410899999999,-0.25261930399999954
33822.0,0.7365774814999999,0.044326057999999995,9.54383178,0.0674971181623767,-0.010461503536454012,0.07505439382351216,9.5723161372057,0.10148135813381659,0.1652420524999999,-0.021574630000000004,0.07305954249999935
33832.0,0.7293205605,0.1795597615,9.5258856105,0.08108625171840456,0.01964891671895216,0.09157568052289047,9.555451159011223,0.12388367692799276,-0.007256920999999861,0.1352337035,-0.017946169500000053
33842.0,0.7053923344999999,0.2682118775,9.553442297,0.0970734676666726,0.04336445059505111,0.11928801838605643,9.583202788155537,0.15979163003960908,-0.023928226000000108,0.08865211599999998,0.027556686500000538
33852.0,0.7030387385,0.395011862,9.5737420625,0.10586818176747205,0.07001039228524855,0.1624552467756322,9.60764460823953,0.20615827449708743,-0.002353595999999958,0.12679998450000002,0.020299765499999012
33862.0,0.700587076,0.34715541,9.626403773,0.09787457379333801,0.10065313796251299,0.20961753382302295,9.658104820852751,0.2522895100137428,-0.0024516624999999515,-0.047856451999999994,0.05266171050000068
33872.0,0.6347844544999999,0.3029274185,9.695834855,0.08055392629654629,0.14728484491729749,0.2410613856269528,9.721313175697345,0.29375559947767504,-0.06580262150000016,-0.04422799150000001,0.06943108199999948
33882.0,0.4612067495,0.138862164,9.8287149625,0.050710541416695246,0.19444887729394025,0.2509207505714688,9.840509752062973,0.3214702909430317,-0.17357770499999986,-0.16406525449999998,0.13288010750000012
33892.0,0.2301620755,-0.016769371499999998,9.926879528999999,0.024862215194659226,0.21150248941517685,0.23439946387209043,9.929561570185172,0.3166931344957228,-0.231044674,-0.1556315355,0.0981645664999995
33902.0,0.049425515999999996,-0.11365907349999999,9.9867981605,0.020066050410178806,0.19764632048359385,0.19043287468510128,9.987567209545421,0.2751933759024712,-0.1807365595,-0.096889702,0.05991863150000043
33912.0,-0.07266727649999999,-0.1352337035,10.051423984,0.039252454877352475,0.16806822565004595,0.13420883816135598,10.052596321038992,0.21863141569242606,-0.12209279249999999,-0.02157463000000001,0.06462582350000012
33922.0,-0.1409215605,-0.08620045349999998,10.077705806,0.06403263959716797,0.12996419742050574,0.08491375876802812,10.079059664308149,0.16793218266029852,-0.068254284,0.049033250000000014,0.026281822000001398
33932.0,-0.16965504499999998,0.0024516625,10.0574060405,0.07629008693392414,0.09665633397544597,0.05480333851262195,10.05883716482322,0.13478141627868317,-0.02873348449999999,0.08865211599999998,-0.020299765500000788
33942.0,-0.1995653275,0.027556686499999997,10.0585828385,0.07735648310689268,0.07640527866455576,0.048940777555172996,10.060600101876515,0.11923502754719487,-0.029910282500000024,0.025105023999999997,0.0011767979999994793
33952.0,-0.2415377895,0.037167203499999996,10.031026151999999,0.06856351433534524,0.07693934941566602,0.05666909548300389,10.03400256960703,0.11760954625106268,-0.04197246199999999,0.009610516999999999,-0.027556686500000538
33962.0,-0.31812772599999994,-0.002353596,10.008274723999998,0.05790478859341587,0.09345889078579236,0.06039886409451577,10.013329802843872,0.12544142694049137,-0.07658993649999996,-0.039520799499999995,-0.022751428000001184
33972.0,-0.40668177549999995,-0.025105024,10.0215137015,0.04351454891072262,0.12143826402451346,0.05640206010744875,10.029793477340702,0.14079048377129533,-0.08855404950000001,-0.022751428,0.013238977500002136
33982.0,-0.536031489,-0.0299102825,10.0813342665,0.03045948610580504,0.14248868013281707,0.04760909133590132,10.09561909815866,0.1532887139930797,-0.12934971350000002,-0.0048052584999999995,0.05982056500000077
33992.0,-0.6221338759999999,-0.080218397,10.145960089999999,0.01606924642311179,0.14461972714950214,0.03561867937470028,10.165332837578749,0.14980579588854645,-0.08610238699999995,-0.0503081145,0.06462582349999835
34002.0,-0.691564958,-0.14121576,10.230983745499998,0.0022130774915288098,0.13582675837795471,0.016166984861223473,10.255302647054892,0.1368034261374686,-0.06943108200000003,-0.060997363,0.0850236554999988
34012.0,-0.7622709044999999,-0.1664188505,10.234612205999998,-0.010309659891530504,0.11370994609668257,-0.015275121613454372,10.264308996364692,0.11519362078125381,-0.07070594649999995,-0.025203090499999997,0.003628460499999875
34022.0,-0.826896728,-0.20466478549999997,10.276486601499998,-0.016439256224534588,0.0782710356349377,-0.047251298839242485,10.311732286284872,0.09289396862324802,-0.06462582350000012,-0.03824593499999998,0.041874395500000716
34032.0,-0.9154507774999999,-0.1783829635,10.304043288,-0.017770942443806264,0.036969564215743884,-0.07096683271534143,10.346167342966682,0.08196856970382209,-0.0885540494999999,0.026281821999999982,0.027556686500002314
34042.0,-0.9956691744999999,-0.18436502,10.248929914999998,-0.0196366994141882,-0.0022008601867648495,-0.09414829584033012,10.298830611687473,0.09619950810208536,-0.080218397,-0.005982056499999999,-0.05511337300000285
34052.0,-1.002828029,-0.22623941549999999,10.192639744,-0.03215943679724752,-0.030977848893647353,-0.11599807274604713,10.244352262580694,0.12429565309370658,-0.007158854500000089,-0.041874395499999995,-0.05629017099999878
34062.0,-1.0088100855,-0.241831989,10.1735167765,-0.05267752748369286,-0.04989721798526589,-0.13811488502731928,10.22627127066543,0.15601402414710666,-0.005982056499999944,-0.015592573500000012,-0.019122967499999532
34072.0,-1.0088100855,-0.209470044,10.068193355499998,-0.06680073179083097,-0.0632210614949906,-0.15890001108931975,10.120775312774915,0.18359862175008249,0.0,0.032361945,-0.10532342100000136
34082.0,-0.9466359245,-0.2250626175,9.966400328499999,-0.07745945753276035,-0.06934891249874268,-0.1746201916620327,10.013785910597191,0.20322758317244438,0.06217416099999995,-0.015592573500000012,-0.10179302699999937
34092.0,-0.8867172929999999,-0.2501676415,9.819202511999999,-0.09131388113509134,-0.060023618305336986,-0.19034211756399758,9.86233184283646,0.21947934153620255,0.0599186315000001,-0.025105023999999976,-0.1471978165000003
34102.0,-0.8029685019999999,-0.2705654735,9.692304460999999,-0.10650348161519797,-0.035241688256269506,-0.2121918944697146,9.729271804990077,0.2400215995821155,0.08374879099999999,-0.020397832000000005,-0.1268980509999995
34112.0,-0.7430498705,-0.30165255399999996,9.568936804,-0.11822685820084389,0.009257226352577924,-0.2385708007843569,9.602482435929291,0.2664194310231043,0.059918631499999875,-0.031087080499999975,-0.1233676569999993
34122.0,-0.6257623365,-0.34715541,9.509116238999999,-0.12888558394277325,0.0705444630363588,-0.2633527308334244,9.536004772822196,0.30156703375995847,0.11728753400000003,-0.045502856000000036,-0.05982056500000077
34132.0,-0.5420135454999999,-0.36873004,9.498328923999999,-0.13821262346543095,0.1411569939135454,-0.2929290803377203,9.520923950667754,0.35332063670752134,0.0837487910000001,-0.021574629999999984,-0.010787314999999964
34142.0,-0.45218463149999993,-0.32558077999999996,9.510293036999999,-0.13714622729246242,0.21230185021259024,-0.32064141820088626,9.52660209281782,0.40827941698072473,0.08982891399999998,0.04314926000000002,0.011964112999999443
34152.0,-0.4378669225,-0.25134443949999996,9.570211668499999,-0.13181773708612374,0.26959053758005214,-0.3339652617106109,9.583519856972213,0.448985266787948,0.014317708999999956,0.0742363405,0.05991863150000043
34162.0,-0.37794829099999994,-0.1675956485,9.6049272095,-0.1307513409131552,0.3028984010251119,-0.3310348538965125,9.61382129602269,0.46736220320907745,0.05991863150000004,0.08374879099999996,0.03471554100000063
34172.0,-0.2929246355,-0.14121576,9.601298749,-0.13501518027577736,0.32581457410379744,-0.3131818809778625,9.606804067977246,0.47166420913206,0.08502365549999996,0.026379888500000004,-0.003628460499999875
34182.0,-0.1960349335,-0.106500219,9.578547321,-0.13981134506025777,0.3402030684572387,-0.2860018685365548,9.581145065827762,0.4659210327959877,0.09688970199999997,0.034715541,-0.022751427999999407
34192.0,-0.1050292215,-0.25977815849999997,9.743789373499999,-0.15446687478925417,0.3423358608031758,-0.25535912285929036,9.747817560055895,0.4541609171059049,0.091005712,-0.15327793949999996,0.16524205249999824
34202.0,-0.11101127799999999,-0.3986403225,9.970028788999999,-0.19523427545733768,0.29916863241360003,-0.23723911456508523,9.978612712399197,0.42883643783288866,-0.005982056499999985,-0.138862164,0.22623941550000026
34212.0,-0.204370586,-0.44885037049999993,10.179498832999998,-0.2301408604972243,0.1744631120293532,-0.2324429497806048,10.191439078097279,0.37071811128144017,-0.093359308,-0.05021004799999995,0.2094700439999997
34222.0,-0.2535019025,-0.45728408949999994,10.2321605435,-0.21894980933343666,-0.01872214688614317,-0.2377714399869435,10.245510301641357,0.3237665755828406,-0.049131316499999994,-0.008433719000000006,0.05266171050000068
34232.0,-0.18044236,-0.48356591149999995,10.02631896,-0.17178577695679387,-0.2233637470117303,-0.25429272668632186,10.039594978070712,0.3795609404158099,0.07305954249999999,-0.02628182200000001,-0.20584158349999981
34242.0,-0.06668521999999999,-0.487194372,9.729373597999999,-0.11289836799450521,-0.3661892756901823,-0.27347738582424347,9.741792231624238,0.47077649440428226,0.11375714,-0.0036284605000000414,-0.29694536200000066
34252.0,0.0793357985,-0.5039637435,9.455277730499999,-0.06333625322562222,-0.40935475875050603,-0.29266379029141715,9.469031132305743,0.507183293920535,0.1460210185,-0.016769371499999963,-0.2740958674999998
34262.0,0.261249156,-0.477583855,9.251789743,-0.03269350754835778,-0.3541971183997292,-0.3097174024126537,9.267791047965387,0.47164534713673156,0.18191335749999998,0.02637988849999995,-0.20348798749999908
34272.0,0.45041943449999994,-0.47042500049999997,9.2601253955,-0.03722263695728306,-0.22256438621431693,-0.31371420639972075,9.283000575700443,0.3864415014074134,0.18917027849999996,0.007158854500000034,0.008335652499999568
34282.0,0.5126916619999999,-0.5230867109999999,9.40261602,-0.08145626151982735,-0.06615146930908908,-0.3131818809778625,9.431100702837913,0.3302938540230046,0.0622722275,-0.05266171049999996,0.1424906245000006
34292.0,0.558194518,-0.5913409949999999,9.5474602405,-0.1400766351065609,0.07027742766080368,-0.31691164958937434,9.58202809097433,0.35354402015428643,0.045502856000000036,-0.068254284,0.14484422049999957
34302.0,0.5329914275,-0.6524364245000001,9.626403773,-0.18750770285875878,0.16327206086556553,-0.3227742105468233,9.663198370655104,0.4074310929283411,-0.025203090500000025,-0.06109542950000013,0.0789435325000003
34312.0,0.4982758865,-0.604481906,9.658765718,-0.20056451099292838,0.20297481068993256,-0.3339652617106109,9.690481537517153,0.43926949913906305,-0.03471554099999996,0.0479545185000001,0.03236194499999989
34322.0,0.5545660575,-0.5230867109999999,9.7449661715,-0.16539089057748665,0.2051076030358696,-0.3406271834654733,9.774739326602795,0.4306392383710003,0.056290171,0.08139519500000003,0.08620045350000005
34332.0,0.665871535,-0.42619700899999996,9.987974958499999,-0.11076557564856813,0.18645526931980622,-0.3411595088873316,10.019215167029143,0.40425782702394947,0.11130547749999997,0.09688970199999997,0.24300878699999906
34342.0,0.6694999955,-0.33999655549999996,10.228630149499999,-0.0763930613597918,0.1456861233224707,-0.34462398745254036,10.2561543785664,0.38187175737456647,0.003628460499999986,0.0862004535,0.2406551910000001
34352.0,0.6706767935,-0.3878530075,10.4261360805,-0.07292858279458306,0.07880336105679597,-0.35288463080222954,10.454881677277372,0.3688578460039856,0.0011767980000000344,-0.04785645200000005,0.19750593100000025
34362.0,0.674305254,-0.45247883099999997,10.394950933499999,-0.08651771635061091,-0.004598942579005058,-0.3654073681852888,10.426621196626817,0.37553829397209143,0.003628460499999986,-0.06462582349999996,-0.031185147000000413
34372.0,0.7173564475,-0.48238911349999997,10.1627294615,-0.08971515954026452,-0.08240572063291227,-0.37899650174131666,10.199429868244264,0.3980927793574263,0.043051193500000084,-0.029910282499999996,-0.2322214719999991
34382.0,0.7532487864999999,-0.420116886,9.902951302999998,-0.08358730853651243,-0.13143550997993697,-0.37659841934907645,9.940438946135902,0.4075395697208887,0.035892338999999884,0.062272227499999944,-0.2597781585000014
34392.0,0.802380103,-0.29929895799999995,9.645624806999999,-0.0849189947557841,-0.15754912624827613,-0.3467550344692254,9.683567091385486,0.3902204720176555,0.04913131650000002,0.12081792800000007,-0.25732649599999924
34402.0,0.9364370085,-0.2058415835,9.487541608999999,-0.10250667762813095,-0.14768976130376016,-0.3043871668770631,9.535865498783659,0.3535129869067956,0.13405690550000005,0.09345737449999994,-0.15808319799999992
34412.0,0.977134606,-0.2586013605,9.4899932715,-0.12275773293902117,-0.11278317626387357,-0.26841593099345995,9.543670100910367,0.3159693305616573,0.040697597500000016,-0.05275977699999998,0.0024516625000003955
34422.0,0.9221192994999999,-0.44169151599999995,9.5054877785,-0.13288238792984028,-0.09173276015556996,-0.2508282481211131,9.56031868218992,0.29830762370948977,-0.05501530650000008,-0.18309015549999996,0.015494506999999658
34432.0,0.8226798685,-0.6224280754999999,9.4576313265,-0.1291526193183284,-0.07760955584843185,-0.27081401338570016,9.513727407446565,0.3099094578773712,-0.09943943099999997,-0.18073655949999995,-0.04785645199999955
34442.0,0.803556901,-0.7014696745,9.3774129295,-0.10623644623964285,-0.052562335753061226,-0.31877740655975634,9.437883059655997,0.3401000096771687,-0.019122967499999977,-0.07904159900000007,-0.08021839699999944
34452.0,0.8646523304999999,-0.5710412294999999,9.279248362999999,-0.0755937005623784,-0.014723597569824165,-0.36087823877636355,9.336924650047578,0.3690044648949965,0.06109542949999991,0.13042844500000006,-0.09816456650000127
34462.0,0.9352602104999999,-0.442868314,9.195499572,-0.05081177051331092,0.03377212102609028,-0.3720692899401512,9.25354290980173,0.37703839154370816,0.07060787999999996,0.12817291549999993,-0.08374879099999966
34472.0,1.034601575,-0.312439869,9.2110921455,-0.036423276159869664,0.07853807101049284,-0.35528271319446975,9.27427827939323,0.3656783968722943,0.09934136450000008,0.130428445,0.015592573500001095
34482.0,1.0058680905,-0.28968844099999996,9.301999791,-0.02256710722828668,0.1155757030670645,-0.33156717931837076,9.360709915390988,0.35185765853429973,-0.028733484500000017,0.022751428000000018,0.09090764549999975
34492.0,0.9962575735,-0.42619700899999996,9.334361736,-0.0180379778193614,0.140357633116132,-0.3150458926189924,9.397046454165137,0.34536871351335835,-0.00961051699999993,-0.136508568,0.03236194499999989
34502.0,1.0190090015,-0.4908228324999999,9.3523079055,-0.021500711055318145,0.16487078246039236,-0.32437293214165014,9.420453787229103,0.3645030241179871,0.022751427999999962,-0.06462582349999996,0.017946169500000053
34512.0,1.0465656879999998,-0.5482898015,9.3774129295,-0.009777334469672236,0.18432247697386916,-0.3443569520769852,9.451549856826741,0.39070715661587957,0.027556686499999872,-0.057466969000000034,0.025105024000000142
34522.0,1.057353003,-0.5182814525,9.3068050495,0.012871803233458181,0.19817864590545212,-0.36354161121490686,9.381003745141419,0.4142498788124505,0.010787315000000186,0.030008348999999934,-0.07060788000000073
34532.0,1.117173568,-0.4249221445,9.1799069985,0.04058414109662414,0.2181644111700392,-0.3744673723323914,9.257393159579731,0.43527990506253156,0.05982056499999988,0.09335930800000003,-0.1268980509999995
34542.0,1.1111915115,-0.25732649599999996,9.1918711115,0.07549072613651074,0.24960651764471703,-0.3726016153620095,9.262367841497202,0.45479031119156327,-0.005982056499999944,0.16759564850000003,0.011964112999999443
34552.0,1.1231556245,-0.234575068,9.2493380805,0.1032030639996767,0.28371374188719023,-0.3534169562240878,9.320233846141447,0.46480953594053054,0.01196411300000011,0.022751427999999962,0.057466969000000034
34562.0,1.112466376,-0.23820352849999998,9.378687794,0.11199603277122414,0.3122254405477696,-0.32597165373647696,9.447439181918293,0.4650648945270278,-0.010689248500000081,-0.003628460499999986,0.1293497134999999
34572.0,1.0741223745,-0.26576021499999997,9.488816473499998,0.11759155835311795,0.31542288373742317,-0.31051676321006716,9.553114959794177,0.457973831583862,-0.03834400150000006,-0.027556686499999983,0.11012867949999894
34582.0,1.024991058,-0.29929895799999995,9.5402033195,0.13464517047435454,0.28371374188719023,-0.3065199592230001,9.599774263629259,0.43883629598036766,-0.04913131650000002,-0.03353874299999998,0.05138684600000154
34592.0,1.0633350595,-0.3076346105,9.542654981999998,0.15756134355304008,0.23654970951054746,-0.31877740655975634,9.6066427334334,0.4270835714292084,0.03834400150000006,-0.008335652500000068,0.002451662499998619
34602.0,1.171110143,-0.24653918099999997,9.439685157,0.17914408508320198,0.21842970121634234,-0.33476462250802436,9.51524757418806,0.4380313802419846,0.10777508349999998,0.06109542950000005,-0.10296982499999885
34612.0,1.2907512729999997,-0.1352337035,9.3295564775,0.18234152827285557,0.23894779190278767,-0.3339652617106109,9.4193922877315,0.44930755192577765,0.11964112999999976,0.11130547749999997,-0.11012867949999894
34622.0,1.3482182419999997,0.046679654,9.365448816499999,0.1756813518472452,0.2709239691285758,-0.3147806025726893,9.46210880050744,0.45094407878503345,0.057466969000000034,0.18191335749999998,0.03589233899999833
34632.0,1.3362541289999998,0.07060788,9.4792059565,0.17141751248462309,0.30183375018139535,-0.28866698630435017,9.573186832801955,0.45146008164290313,-0.011964112999999887,0.023928225999999997,0.11375714000000059
34642.0,1.3387057914999998,0.031185147,9.625226975,0.17088518706276482,0.31915265234893514,-0.2777412251868656,9.717926735155844,0.45628976629674434,0.0024516624999999515,-0.039422733,0.14602101850000082
34652.0,1.3661644114999998,-0.007158854499999999,9.7126042265,0.17754536348837516,0.3207513739437619,-0.27481081737276714,9.808217845718588,0.4581754962109155,0.02745861999999999,-0.0383440015,0.08737725149999953
34662.0,1.3446878479999997,0.08737725149999999,9.8287149625,0.19326728939034007,0.29677055002135977,-0.2774741898113105,9.92065814382846,0.4499076911097576,-0.021476563500000045,0.09453610599999998,0.11611073599999955
34672.0,1.4056852109999998,0.0981645665,9.9748340475,0.1868724030110329,0.26293036115444174,-0.2726780250268301,10.073872218253788,0.4223824986389181,0.06099736300000003,0.010787315000000006,0.14611908500000048
34682.0,1.3961727604999998,0.033538742999999996,9.867058963999998,0.20499241130523801,0.24107883891947274,-0.2604205776900739,9.965403946830099,0.40982895523855895,-0.009512450499999936,-0.0646258235,-0.10777508350000176
34692.0,1.3842086475,0.159259996,9.8251845685,0.21724811331274219,0.23015482313124025,-0.2478978403070146,9.923489765764371,0.4020215474043657,-0.011964112999999887,0.12572125299999998,-0.04187439549999894
34702.0,1.359005557,0.1903470765,9.908933359499999,0.19006984620068648,0.24107883891947274,-0.22977783201280946,10.003503807991523,0.38346239071650895,-0.025203090500000025,0.031087080500000003,0.08374879099999966
34712.0,1.4212777845,0.186718616,9.9436489005,0.15463093573894163,0.26213100035702835,-0.1999344471329584,10.046444537182746,0.3641389443413583,0.062272227500000055,-0.003628460499999986,0.03471554100000063
34722.0,1.2716283055,0.22025735899999999,10.048972321499999,0.14930070020335093,0.26745949056336704,-0.19673700394330482,10.131505148289445,0.3640476986525456,-0.14964947900000003,0.03353874299999998,0.10532342099999958
34732.0,1.2488768774999999,0.11973919649999999,10.193816541999999,0.14716965318666586,0.2493394822691619,-0.2113925336723012,10.270731552439944,0.35849112615200424,-0.022751428000000073,-0.1005181625,0.14484422049999957
34742.0,1.2548589339999998,0.25379610199999997,10.2980612315,0.16662134770014264,0.20350888144104282,-0.2207178278657069,10.377338220052062,0.3433582646049926,0.005982056499999944,0.1340569055,0.10424468950000154
34752.0,1.2716283055,0.4250202109999999,10.432118136999998,0.18847112460585969,0.1302312327960609,-0.21752038467605328,10.517926105056624,0.315906088189825,0.01676937150000013,0.17122410899999996,0.13405690549999782
34762.0,1.3398825895,0.4310022675,10.398579393999999,0.19619769720443858,0.057487654902189225,-0.18767699979620225,10.493402771339559,0.2775266169342708,0.068254284,0.005982056500000055,-0.03353874299999937
34772.0,1.382933783,0.450125235,10.269327747,0.18554071679176118,0.017517869702267087,-0.1482412853473904,10.371798829067723,0.23813381118176513,0.04305119349999997,0.019122967500000032,-0.12925164699999847
34782.0,1.439223954,0.46444294399999997,10.1639062595,0.16075878674269373,0.022314034486747503,-0.10907086094488164,10.275799885648905,0.19554476816656677,0.05629017100000011,0.014317708999999956,-0.10542148750000102
34792.0,1.4656038425,0.42972740299999995,10.139978033499998,0.12132307229388183,0.06121742351370111,-0.07762875447020379,10.254355893175465,0.15650266557818596,0.02637988849999995,-0.034715541000000016,-0.023928226000000663
34802.0,1.4296134369999998,0.3878530075,10.2058787215,0.07335967911982566,0.11024721286072581,-0.048317695012211025,10.312816541209497,0.1409634353845529,-0.03599040550000021,-0.04187439549999994,0.06590068800000104
34812.0,1.3530235005,0.37108363599999994,10.355430133999999,0.0277943683380097,0.13555972300239957,-0.021137682570903326,10.450038704137295,0.13998488145605054,-0.07658993649999979,-0.016769371500000074,0.14955141249999926
34822.0,1.2800620245,0.32558077999999996,10.3818100225,-0.015905185473424326,0.12756611502826554,-8.726646259971648e-05,10.465492868190868,0.12855386514525416,-0.07296147599999991,-0.04550285599999998,0.02637988850000106
34832.0,1.185427852,0.16406525449999998,10.372199505500001,-0.05933944923855521,0.09825505557027278,0.00710698071412091,10.441009490558178,0.11500319715522411,-0.09463417250000017,-0.16151552549999998,-0.009610516999998708
34842.0,1.1040326569999999,0.031185147,10.341112424999999,-0.1019726068770207,0.05269149011770881,-0.005150466622635266,10.399926288565954,0.11489705388107604,-0.08139519500000003,-0.13288010749999998,-0.03108708050000253
34852.0,1.0741223745,-0.0095124505,10.239319398,-0.1352804703220805,0.0017959438003021652,-0.02779960432576568,10.295508297134974,0.13811896707319482,-0.02991028249999994,-0.0406975975,-0.10179302699999937
34862.0,1.0465656879999998,0.0538385085,10.159101001,-0.1510023962240454,-0.05122890420453756,-0.05444554601596311,10.213007954212882,0.16849463425396563,-0.027556686500000094,0.063350959,-0.08021839699999944
34872.0,1.0394068335,0.080218397,10.110067750999999,-0.15766431797890776,-0.1013250897245308,-0.06883404036940437,10.16367411355529,0.19965704616921273,-0.007158854499999867,0.026379888499999997,-0.049033250000000805
34882.0,1.0226374619999998,0.0981645665,10.0370082085,-0.15233408244331706,-0.14369295731669315,-0.0629732247412074,10.089447826234016,0.2186754803140282,-0.01676937150000013,0.017946169499999998,-0.07305954249999935
34892.0,1.0178322034999998,0.05746696899999999,9.922172337,-0.14647152148586814,-0.17620145996433953,-0.04645193804182909,9.974406685719995,0.23379188105619025,-0.00480525850000002,-0.0406975975,-0.11483587150000041
34902.0,0.963993695,-0.0514849125,9.8263613665,-0.1534004786162856,-0.18339570714106015,-0.023535764963143534,9.87366761873513,0.2402490883851078,-0.053838508499999826,-0.10895188149999999,-0.09581097049999876
34912.0,0.9304549520000001,-0.045502855999999994,9.683870742,-0.17072112611307733,-0.16367697725202823,-8.726646259971648e-05,9.728574894370146,0.23650763919821643,-0.033538742999999926,0.005982056500000006,-0.1424906245000006
