timestamp,ax,ay,az,gx,gy,gz,acc_mag,gyro_mag,dax,day,daz
170432.0,0.07649186999999999,-0.9074093245,10.579217887,-0.13859834123012169,-0.25712016007455263,0.04797386514956813,10.618337618901858,0.2960097441738933,0.0,0.0,0.0
170442.0,0.016671304999999997,-1.3753826625,10.3074756155,-0.22972721746450164,-0.3397231029129403,0.0679596304141552,10.398846520881202,0.41569807849304186,-0.05982056499999999,-0.46797333800000007,-0.27174227150000085
170452.0,0.5337759595,-1.7919691544999998,10.090748650499998,-0.2755595636218727,-0.30081971388598666,0.07595323838828923,10.262518138994304,0.41496321257141827,0.5171046545,-0.41658649199999975,-0.21672696500000121
170462.0,0.44404511199999996,-1.7477411629999997,9.8226348395,-0.2886163717560423,-0.18331018600771246,0.04824090052512327,9.98678779310419,0.3452958424645148,-0.08973084750000004,0.04422799150000012,-0.2681138109999992
170472.0,0.34950900599999996,-1.6974330484999998,9.6741621585,-0.27182979501036086,-0.04741361445967796,0.030387927606473273,9.828166104028181,0.27760207930727404,-0.09453610600000001,0.050308114499999945,-0.14847268099999944
170482.0,0.23330020349999997,-1.7776514454999999,9.62032365,-0.24464978256905315,0.07489207820307668,0.03545112776650882,9.785964478649547,0.2583004489902758,-0.11620880249999999,-0.08021839700000011,-0.05383850850000016
170492.0,0.16867437999999998,-1.8721875515,9.667003304,-0.20841151130989488,0.1825439864660869,0.04291241031878458,9.848070377185921,0.28035538161550083,-0.06462582349999998,-0.09453610600000006,0.04667965400000007
170502.0,0.072961476,-1.8674803594999998,9.698090384499999,-0.16444492212290573,0.26647861552374624,0.030654962982028404,9.876525875834563,0.3146310723671307,-0.09571290399999999,0.004707192000000138,0.031087080499998976
170512.0,-0.033636809499999996,-1.8291363579999997,9.76153941,-0.12234408990629851,0.32430137364231837,0.008271115325201127,9.931491474300019,0.34671006421795403,-0.1065982855,0.03834400150000006,0.06344902550000064
170522.0,-0.11022674599999999,-1.8243310995,9.895596315499999,-0.09143430885347895,0.35467882927327965,-0.0005218534463463045,10.06295981982805,0.36627527503395185,-0.07658993649999998,0.004805258499999798,0.1340569054999996
170532.0,-0.23947839299999998,-1.7668641305,10.024946028999999,-0.0709162181670336,0.3695996490485792,-0.0037192966359999163,10.182273893424997,0.37635999221943583,-0.129251647,0.057466969000000034,0.1293497134999999
170542.0,-0.378340557,-1.7297949934999999,10.151844079999998,-0.057859410032864024,0.375195174630473,-0.00451865743341332,10.305108952419657,0.3796571461994924,-0.13886216400000004,0.03706913700000003,0.1268980509999995
170552.0,-0.5028850119999999,-1.635160821,10.278742131,-0.045868998071662975,0.3605396449014766,-0.007183775201208661,10.420133590382708,0.3635167219756508,-0.12454445499999989,0.09463417249999995,0.1268980510000013
170562.0,-0.571139296,-1.587304369,10.366119382499999,-0.038407715519387216,0.3125779970566725,-0.006384414403795257,10.502483816103885,0.31499351993756747,-0.06825428400000011,0.047856451999999994,0.08737725149999953
170572.0,-0.632136659,-1.5670046034999998,10.429568408,-0.03600963312714701,0.23716755606575346,0.0010768681484805013,10.56555712493163,0.23988810510978498,-0.06099736300000003,0.020299765500000122,0.06344902550000064
170582.0,-0.665675402,-1.5358194564999998,10.430745206,-0.03227986451563512,0.15856141721443284,0.011203268468551603,10.564199482037614,0.16220118959667232,-0.033538742999999926,0.03118514699999997,0.0011767979999994793
170592.0,-0.687250032,-1.5670046034999998,10.3433679545,-0.032012829140079996,0.10127272984697097,0.017863444894161966,10.483943755860754,0.10770371258084041,-0.02157463000000004,-0.03118514699999997,-0.08737725149999953
170602.0,-0.7063729994999999,-1.6064273365,10.2727600745,-0.03227986451563512,0.073560391983805,0.01599943325303202,10.421572393363602,0.08190911296294832,-0.019122967499999866,-0.0394227330000001,-0.07060787999999896
170612.0,-0.7650167665,-1.6291787645,10.174595508,-0.03654195854900528,0.07808952139273029,0.012002629265965004,10.332563469494762,0.08704798214340813,-0.05864376700000007,-0.022751428000000073,-0.09816456650000127
170622.0,-0.8309174545,-1.66516917,10.131446248,-0.04187219408459596,0.10713529080441993,-0.0013212142437597075,10.300942445088435,0.11503476335562052,-0.06590068800000004,-0.03599040549999999,-0.043149259999999856
170632.0,-0.8871095589999999,-1.770492591,10.121835731,-0.046401323493521246,0.14843676222361374,-0.02556907354171693,10.313736759768661,0.1576081619814208,-0.056192104499999895,-0.10532342100000003,-0.009610517000000485
170642.0,-0.945753326,-1.8291363579999997,10.1733206435,-0.04693539424463151,0.1892059082209493,-0.05914397236233185,10.379626297957977,0.20371503725893567,-0.05864376700000007,-0.058643766999999736,0.0514849125000012
170652.0,-1.0092023515,-1.826782762,10.2068593865,-0.0405387625360723,0.21691650075486324,-0.0983126514355886,10.418042195230187,0.2415813258511224,-0.06344902549999998,0.002353595999999847,0.03353874299999937
170662.0,-1.0427410945,-1.8374720105,10.3337574375,-0.034943236954178475,0.2158518499111467,-0.1372177857917942,10.547518909990943,0.258150676265825,-0.03353874300000004,-0.010689248500000081,0.1268980509999995
170672.0,-1.0547052075,-1.7967744129999998,10.424763149499999,-0.03414387615676507,0.18947119826725242,-0.1662618098742318,10.630921318922093,0.254377924896191,-0.01196411300000011,0.04069759750000013,0.0910057119999994
170682.0,-1.045192757,-1.7812799059999997,10.418781092999998,-0.037875390097528945,0.1465710052532318,-0.19050966917218903,10.621505800340122,0.24333421215291492,0.009512450500000158,0.015494507000000102,-0.00598205650000061
170692.0,-0.9781152709999998,-1.8015796715,10.3804370915,-0.04027347248976915,0.0975412159062071,-0.20916200288825243,10.580920234399011,0.23427544651343815,0.06707748600000007,-0.020299765500000344,-0.038344001499998726
170702.0,-0.8799507045,-1.851887786,10.324146920499999,-0.037875390097528945,0.0626346308663205,-0.22248584639797717,10.525768914922825,0.2342169806103403,0.09816456649999983,-0.050308114499999945,-0.056290171000000555
170712.0,-0.8332710504999999,-1.9021959005,10.246380186,-0.030946432967111456,0.047713811091020984,-0.23314282681065454,10.454711703511187,0.23997888902043116,0.04667965400000007,-0.050308114499999945,-0.07776673449999905
170722.0,-0.778255744,-1.9464238919999999,10.204505790499999,-0.020287707225182087,0.05437573284588334,-0.24433562330369415,10.417590239530705,0.25113384519452236,0.05501530649999997,-0.0442279914999999,-0.041874395500000716
170732.0,-0.7709988229999999,-2.01232458,10.186559620999999,-0.009896016858807848,0.07249399581083647,-0.2645866786145844,10.412006834060723,0.27451670455290833,0.007256921000000083,-0.06590068800000015,-0.017946169500000053
170742.0,-0.7638399684999999,-2.0757736055,10.143410360999999,-0.001635373509118687,0.09594249431138029,-0.2922990164777503,10.381765808879079,0.3076464719366431,0.007158854499999978,-0.06344902549999976,-0.043149259999999856
170752.0,-0.7925734529999999,-2.0877377184999997,10.168613451499999,0.012220795422464296,0.12365483217454626,-0.32747089156394005,10.41093276251819,0.35025283750821307,-0.028733484500000017,-0.011964112999999887,0.025203090499999803
170762.0,-0.768645227,-2.1056838879999997,10.217646701499998,0.03700098014227979,0.1396437934520663,-0.365042594371622,10.46064167428779,0.3925882796094877,0.023928225999999886,-0.017946169500000053,0.04903324999999903
170772.0,-0.7327528879999999,-2.0769504035,10.265503153500001,0.06338163178617408,0.14097547967133797,-0.394885979251473,10.499104950803646,0.42405925732830874,0.035892339000000106,0.028733484499999573,0.0478564520000031
170782.0,-0.7051962015,-2.002714063,10.361314123999998,0.08629605953560762,0.13298187169720396,-0.41700279153274517,10.576624966261678,0.4461193968407638,0.027556686499999983,0.07423634050000016,0.09581097049999698
170792.0,-0.690780426,-1.921318868,10.393578002499998,0.09322501666602512,0.1201920989385895,-0.43245768205915497,10.592219195406098,0.45842850167896576,0.01441577549999995,0.08139519500000003,0.03226387850000023
170802.0,-0.6309598609999999,-1.8459057294999999,10.394852866999999,0.0876294910841313,0.12152378515786118,-0.4356551252488086,10.576315257922873,0.4606976733415451,0.0598205650000001,0.07541313850000009,0.0012748645000009162
170812.0,-0.6189957479999999,-1.774022985,10.418781092999998,0.06364692183247722,0.13511291871388903,-0.4319236113080447,10.586846213637214,0.4570168896961231,0.011964112999999998,0.07188274449999987,0.023928225999998887
170822.0,-0.629783063,-1.7309717914999998,10.4020117215,0.0324718507333545,0.15722973099516116,-0.42979256429135965,10.563841058234157,0.4587998013502213,-0.010787315000000075,0.043051193500000196,-0.016769371499998798
170832.0,-0.7040194035,-1.6950794525,10.418781092999998,0.01115439924949576,0.17641439013308283,-0.43165832126174153,10.579221953180037,0.4664497443274565,-0.07423634050000005,0.035892338999999884,0.016769371499998798
170842.0,-0.756681114,-1.681840475,10.422311487,0.005824163713905078,0.18041119412014986,-0.4441810586448009,10.584220822700397,0.47945691433708704,-0.052661710500000014,0.013238977499999915,0.0035303940000019907
170852.0,-0.8081660264999999,-1.6483997984999998,10.4702660055,0.016482889455834447,0.15722973099516116,-0.45937065912490754,10.629996446284098,0.48581300560861485,-0.05148491249999987,0.033440676500000155,0.04795451849999921
170862.0,-0.8536688825,-1.5824991105000001,10.502529883999998,0.03993138795637827,0.10393784761476631,-0.47189339650796686,10.65533612609171,0.484851492292989,-0.045502856000000036,0.06590068799999971,0.032263878499998455
170872.0,-0.7973787114999998,-1.5621993449999998,10.5671557075,0.07084116900919785,0.02053379864971329,-0.484150843844723,10.711725320863192,0.4897368147373996,0.05629017100000011,0.020299765500000344,0.0646258235000019
170882.0,-0.7410885405,-1.539447917,10.5408738855,0.09482373826085193,-0.06659827359759962,-0.4956089303840658,10.678442507408649,0.5089745408764382,0.05629017099999989,0.02275142799999985,-0.02628182199999962
170892.0,-0.7003909429999999,-1.4640347785,10.4618322865,0.1001522284671906,-0.12655207873285684,-0.5054682953285818,10.586967464602306,0.5306072889444076,0.040697597500000016,0.07541313849999987,-0.07904159899999996
170902.0,-0.616642152,-1.4448137444999998,10.3445447525,0.08869414192784784,-0.14733720479485732,-0.5102644601130621,10.463141996379221,0.5384651539176455,0.08374879099999988,0.019221034000000303,-0.1172875340000008
170912.0,-0.5160259229999999,-1.4711936329999997,10.223628757999998,0.05938308246985507,-0.1222899846994867,-0.5081334130963772,10.341821814380305,0.52600452122239,0.10061622900000011,-0.02637988849999995,-0.12091599450000068
170922.0,-0.47415152749999995,-1.436478092,10.1590029345,0.015151203236562775,-0.06633298355129649,-0.50600062075044,10.271009181331996,0.5105548470695023,0.041874395499999995,0.03471554099999974,-0.06462582349999835
170932.0,-0.47650512349999996,-1.4652115764999998,10.072802480999998,-0.030147072169698055,0.003480186528476693,-0.503869573733755,10.189958386464152,0.5047826314299195,-0.0023535960000000133,-0.028733484499999795,-0.08620045350000183
170942.0,-0.48013358399999995,-1.5322890624999999,10.069174020499998,-0.07118325354258873,0.06823190177746633,-0.5006721305441013,10.19640640052435,0.5102893593919512,-0.003628460499999986,-0.06707748600000007,-0.003628460499999875
170952.0,-0.5148491249999999,-1.553765626,10.026122827,-0.1028923953928217,0.12312250675268799,-0.5028031775607864,10.158858015748764,0.5277850244786813,-0.03471554099999996,-0.021476563500000045,-0.04305119349999842
170962.0,-0.5902622635,-1.5909328295,10.0081766575,-0.11115129341325888,0.15829612716812969,-0.5142612641001292,10.15101358561897,0.5494332731622029,-0.07541313850000009,-0.037167203500000134,-0.017946169500000053
170972.0,-0.6369419175,-1.6136842574999999,10.028476423,-0.08743750486641193,0.16255822120149988,-0.5342452840354642,10.17742655369415,0.5652331519396164,-0.04667965399999996,-0.02275142799999985,0.020299765500000788
170982.0,-0.6728342565,-1.6231967079999998,10.090748650499998,-0.038940040941245486,0.13537995408944417,-0.5568961670678467,10.242591557664959,0.5744365932395193,-0.035892338999999995,-0.009512450499999936,0.06227222749999761
170992.0,-0.6967624825,-1.598091684,10.162533328499999,0.018081611050661254,0.08608487469611631,-0.5867395519476977,10.310987277674373,0.5932965970991393,-0.023928225999999997,0.02510502399999992,0.07178467800000021
171002.0,-0.6920552904999999,-1.5813223125,10.2500086465,0.06711140039768597,0.029593802796815852,-0.6213791016120292,10.39433490101431,0.6256929927268547,0.004707192000000027,0.016769371499999908,0.08747531800000097
171012.0,-0.6226242085,-1.5382711189999998,10.3086524135,0.10095158926460401,-0.033025120106236705,-0.6650786554234632,10.441372204979533,0.6735068669530864,0.06943108199999992,0.043051193500000196,0.05864376700000129
171022.0,-0.458558954,-1.5382711189999998,10.405640181999999,0.1164064797910138,-0.09804212540152947,-0.7077135583911807,10.528717963128088,0.7238930912926936,0.16406525449999998,0.0,0.09698776849999824
171032.0,-0.3005738225,-1.461583116,10.431922004,0.11294200122580506,-0.1534650557986094,-0.7319614176891379,10.5381007076839,0.7563563551512295,0.15798513150000004,0.0766880029999999,0.026281822000001398
171042.0,-0.16406525449999998,-1.3826395835,10.430745206,0.09882054224791893,-0.19849804115856712,-0.7351588608787915,10.523262572894737,0.7678707720981202,0.136508568,0.07894353249999986,-0.0011767980000012557
171052.0,-0.028831550999999997,-1.3383135255,10.405640181999999,0.08336565172150916,-0.22327822587838259,-0.7239678097150039,10.491389895915711,0.7621892071801397,0.13523370349999997,0.044326058,-0.025105024000000142
171062.0,0.07649186999999999,-1.3012443885,10.351703607,0.06711140039768597,-0.23367166157400884,-0.7037167544041136,10.433448880018325,0.7445291504804605,0.10532342099999999,0.03706913700000003,-0.05393657499999982
171072.0,0.142392558,-1.3012443885,10.301493558999999,0.040730748753791665,-0.22834142603841814,-0.6861290715317668,10.384328680530821,0.7242733624401406,0.06590068800000001,0.0,-0.050210048000000285
171082.0,0.177108099,-1.344295582,10.220000297499999,0.01062207382763749,-0.21235421009015007,-0.6800012205280147,10.30955401418588,0.7124667002148248,0.03471554099999999,-0.04305119349999997,-0.08149326150000036
171092.0,0.281254722,-1.3981340905,10.204505790499999,-0.008564330639536176,-0.19556588801521663,-0.6874625030802904,10.303680001922302,0.71478951968807,0.10414662300000002,-0.05383850849999994,-0.015494506999999658
171102.0,0.36980877149999997,-1.4293192375,10.2068593865,-0.00963072681250471,-0.18011099748880682,-0.6954561110544245,10.313083464509974,0.7184649780735969,0.08855404949999995,-0.03118514699999997,0.002353596000000735
171112.0,0.44522191,-1.413726664,10.2068593865,-3.665191429188092e-05,-0.16439081691609392,-0.7034497190285585,10.313914105005518,0.7224028303038834,0.07541313850000003,0.015592573499999984,0.0
171122.0,0.5410328805,-1.368223808,10.2068593865,0.008222246106145286,-0.13694551442848307,-0.7050484406233853,10.312358193078017,0.7182722205950743,0.09581097049999998,0.045502855999999925,0.0
171132.0,0.6332153905,-1.308403243,10.204505790499999,0.005824163713905078,-0.0873833996596001,-0.7005193112144601,10.307512755529677,0.7059724391245152,0.09218251,0.05982056499999988,-0.002353596000000735
171142.0,0.7265746985,-1.2521130719999998,10.198523734,-0.007230899091012507,-0.023432790537275868,-0.6895935500969756,10.300756491177477,0.6900294529289154,0.09335930800000003,0.05629017100000033,-0.0059820564999988335
171152.0,0.7660954979999999,-1.173071473,10.2392213315,-0.025884978136327903,0.04584805412063905,-0.6690754594105303,10.334633639770058,0.671143834468573,0.03952079949999987,0.07904159899999974,0.04069759749999946
171162.0,0.8318981194999999,-1.056960737,10.1925416775,-0.05013283743428512,0.12125674978230604,-0.634968235168057,10.280910773290552,0.648383497961984,0.06580262150000005,0.11611073599999999,-0.04667965400000007
171172.0,0.8785777735,-1.0042990265,10.209311049,-0.08450535172306145,0.19799887699249671,-0.5816763517876621,10.296142361775624,0.6202355101001008,0.04667965400000007,0.052661710500000014,0.016769371500000574
171182.0,0.8091466915,-0.974388744,10.244026589999999,-0.12554153309595212,0.273939898076022,-0.5134619033027158,10.322026572792103,0.5953544074190019,-0.06943108200000003,0.02991028250000005,0.03471554099999885
171192.0,0.7265746985,-0.9732119459999999,10.27148521,-0.17110684387776806,0.3240343382667632,-0.4492442588048364,10.34303923919784,0.5797380515947671,-0.08257199299999995,0.0011767980000000344,0.027458620000000877
171202.0,0.581730478,-1.0390145675,10.244026589999999,-0.2201348878955408,0.3608066802770317,-0.39941685398965027,10.313003558475984,0.5815278605985307,-0.1448442205,-0.06580262150000005,-0.027458620000000877
171212.0,0.342252085,-1.1072688515,10.1027127635,-0.274227877402601,0.4061049556832926,-0.37143748075092925,10.16897172682542,0.6148885800548437,-0.239478393,-0.068254284,-0.14131382649999935
171222.0,0.21182364,-1.3479240424999999,9.9303118565,-0.3424423258875474,0.46952323938375856,-0.38102981031989,10.023615218380884,0.6949118902660271,-0.13042844499999998,-0.24065519099999988,-0.1724009070000001
171232.0,0.09571290399999999,-1.645948136,9.8465630655,-0.38853996209122166,0.5265466367049173,-0.41940087392498543,9.983642142488018,0.7772462645880968,-0.11611073600000002,-0.29802409350000003,-0.08374879099999966
171242.0,-0.1042446895,-1.8470825274999998,9.8836322025,-0.3618940204010242,0.5270789621267755,-0.47162810646166375,10.05528549236568,0.7944888829450479,-0.19995759349999997,-0.2011343914999999,0.037069136999999586
171252.0,-0.27066354,-2.0110497155,9.9734611165,-0.2555755436865377,0.442610262318006,-0.5267857468124405,10.177794768634087,0.7339795132594805,-0.1664188505,-0.1639671880000002,0.08982891399999993
171262.0,-0.271840338,-2.1176480009999996,10.169790249499998,-0.10422408161209337,0.2963237457328493,-0.5896699597617963,10.391485165476997,0.6681175666890589,-0.0011767980000000344,-0.10659828549999961,0.196329132999999
171272.0,-0.179657828,-2.0422348625,10.327775380999999,0.034335862374484445,0.14950141306733028,-0.6602824906389828,10.52928983783625,0.6778662046440629,0.09218251000000002,0.07541313849999964,0.15798513150000026
171282.0,-0.004903325,-1.8087385259999997,10.381613889499999,0.10761351101946637,0.04051956391430036,-0.716239491787173,10.538001046151589,0.7254112712174314,0.174754503,0.23349633650000023,0.05383850850000016
171292.0,0.21054877549999998,-1.587304369,10.367296180499999,0.10361670703239935,-0.014905111812031574,-0.7354258962543466,10.490219065440002,0.7428390358724266,0.21545210049999997,0.2214341569999998,-0.014317709000000178
171302.0,0.42364728,-1.481980948,10.2762904685,0.05192354524683131,0.0050789081233034985,-0.7103786761589761,10.39124103950391,0.7122918737428527,0.21309850450000004,0.10532342100000003,-0.0910057119999994
171312.0,0.5637843084999999,-1.483157746,10.247556984000001,-0.014426891596985129,0.07409271740566327,-0.6525559180404039,10.369668933305336,0.6569072173018508,0.14013702849999993,-0.0011767980000001454,-0.02873348449999824
171322.0,0.525440307,-1.5022807134999998,10.257167501,-0.06718644955552172,0.13990908349836945,-0.5774125124250401,10.379904623932962,0.5979078358361156,-0.03834400149999995,-0.019122967499999755,0.009610516999998708
171332.0,0.3794192885,-1.6364356854999997,10.258344298999999,-0.09862855603019956,0.15616333482219263,-0.502003816763373,10.394975156588373,0.534904114073153,-0.1460210185,-0.13415497199999993,0.0011767979999994793
171342.0,0.19858466249999998,-1.7884387604999998,10.2751136705,-0.09942791682761296,0.12498826372306991,-0.4425823370499741,10.431486471732349,0.4705179080351812,-0.18083462600000003,-0.1520030750000001,0.016769371500000574
171352.0,0.11846433199999999,-1.9620164654999999,10.2751136705,-0.07038389274517533,0.06023654847408029,-0.41860151312757204,10.461429316806823,0.42873017262927443,-0.08012033049999999,-0.17357770500000003,0.0
171362.0,0.039422733,-2.0170317719999997,10.202054127999999,-0.028815385950426382,-0.003447025272688801,-0.4178021523301586,10.399609596123138,0.4188088429611004,-0.07904159899999999,-0.05501530649999986,-0.07305954250000113
171372.0,-9.80665e-05,-2.0266422889999998,10.109871618,0.014351842439149373,-0.04288448505075267,-0.4247293641313241,10.311003011813261,0.42713005887535627,-0.0395207995,-0.00961051700000004,-0.09218250999999889
171382.0,0.023830159499999996,-2.01232458,10.0656436265,0.04792674125976429,-0.05061105764933157,-0.42739448189911944,10.264852639345294,0.43304098517574646,0.023928225999999997,0.014317708999999734,-0.044227991499999675
171392.0,0.039422733,-1.957211207,10.054856311499998,0.05938308246985507,-0.010641272449409428,-0.426595121101706,10.24364999917485,0.43083985947303366,0.015592573500000005,0.055113372999999966,-0.01078731500000174
171402.0,0.014317708999999998,-1.9488755544999998,9.9950357465,0.037268015517834915,0.055175093643296744,-0.42499639950687923,10.183273564897071,0.4301803523325944,-0.025105024000000004,0.008335652500000235,-0.05982056499999899
171412.0,0.019024901,-2.0374296039999997,9.900401574,-0.005632177496185701,0.12658698531789672,-0.41860151312757204,10.107889624673161,0.43735936375927154,0.004707192000000002,-0.0885540494999999,-0.09463417249999928
171422.0,0.0106892485,-2.081755662,9.814201120499998,-0.05253091982652533,0.2011963201821503,-0.4023472618037488,10.032565201877633,0.4529048198834205,-0.0083356525,-0.044326058000000224,-0.08620045350000183
171432.0,-0.056388237499999994,-2.0314475475,9.5915901655,-0.0887691910856836,0.2715418156837818,-0.378898763303205,9.804517360609262,0.4745305045869545,-0.06707748599999999,0.050308114499999945,-0.2226109549999986
171442.0,-0.099439431,-2.0194834345,9.439489023999998,-0.11088600336695574,0.3280328875830822,-0.3509193900644839,9.653608370804875,0.49299665252618197,-0.0430511935,0.011964112999999887,-0.1521011415000011
171452.0,-0.15092434349999997,-1.9416186334999999,9.2132496085,-0.1183472859192315,0.3807924455416188,-0.31947728358980604,9.416826929700933,0.510954696030809,-0.05148491249999998,0.07786480100000026,-0.2262394154999985
171462.0,-0.228691078,-1.9033726985,9.052910880999999,-0.11381641118105422,0.43568305051684053,-0.28483773392547457,9.253665363404933,0.5328287066493266,-0.07776673450000002,0.03824593499999995,-0.160338727500001
171472.0,-0.2993970245,-2.001537265,9.002602766499999,-0.07677877912448254,0.48631156145869203,-0.2523292312778282,9.227277310932871,0.5532304733919644,-0.0707059465,-0.09816456650000016,-0.050308114499999945
171482.0,-0.25144250599999995,-2.0685166845,9.146270188999999,0.009555677654668955,0.5001659850610229,-0.236074979954005,9.380631267567685,0.5531624713841199,0.04795451850000004,-0.06697941949999997,0.14366742250000009
171492.0,-0.30655587900000003,-1.9524059484999998,9.412030404,0.13106200952001018,0.4362153759386988,-0.22728201118245756,9.617285574449166,0.5090365577754767,-0.05511337300000008,0.11611073600000021,0.26576021500000024
171502.0,-0.30655587900000003,-1.819525841,9.6298361005,0.23871391778302045,0.3264341659882554,-0.22488392879021737,9.805018822802396,0.462727112557596,0.0,0.1328801074999999,0.21780569650000103
171512.0,-0.179657828,-1.85541818,9.759185814,0.30959173870651013,0.20199568097956372,-0.23154410521582774,9.935620831634782,0.4361902938740339,0.12689805100000004,-0.035892339000000106,0.1293497134999999
171522.0,-0.11738560049999999,-1.8542413819999999,9.8226348395,0.3290434332199869,0.14790269147250348,-0.2517951605267179,9.996806773769572,0.4399381660582339,0.0622722275,0.0011767980000001454,0.06344902549999887
171532.0,-0.0444241245,-1.8447289315,9.890889123500001,0.32771174700071526,0.18014590407384673,-0.2781758121706122,10.061544910545365,0.46607866112237334,0.072961476,0.009512450499999936,0.06825428400000177
171542.0,0.008335652499999999,-1.9535827465,10.039263737999999,0.3178523820561993,0.26567925472633286,-0.29762750668408905,10.227578962376521,0.5100958105157571,0.052759777,-0.10885381500000002,0.148374614499998
171552.0,-0.046777720499999995,-1.989573152,10.3110060095,0.3085270878627936,0.34641818592359047,-0.31308239721049885,10.501306319227123,0.5596562435341537,-0.05511337299999999,-0.03599040549999999,0.27174227150000085
171562.0,-0.1389602305,-1.9261241265,10.6354099915,0.3061290054705534,0.36666924123448075,-0.33280112709953075,10.80931125389791,0.5821665488986618,-0.09218251000000001,0.06344902549999998,0.32440398199999976
171572.0,-0.15327793950000002,-1.838746875,10.953831917,0.305327899343888,0.3133773578540859,-0.35145346081559414,11.1081464638772,0.5612040891267789,-0.014317709000000012,0.08737725149999997,0.3184219255000009
171582.0,-0.053936574999999994,-1.782456704,11.19331031,0.29413684818010033,0.20146161022845346,-0.35838067261675965,11.334472054388309,0.5055096164845984,0.09934136450000003,0.05629017100000011,0.23947839299999885
171592.0,-0.006080123,-1.5836759084999998,11.342959789,0.26216241628356424,0.0756914390004901,-0.3458579352337003,11.452982280870337,0.4405406199361418,0.047856451999999994,0.19878079550000005,0.1496494790000007
171602.0,0.05138684599999999,-1.4448137444999998,11.407585612499998,0.20300797194572046,-0.03169168855771304,-0.31707920119756583,11.498831978542642,0.3778304112022217,0.05746696899999999,0.13886216400000007,0.06462582349999835
171612.0,0.1160126695,-1.4795292855,11.2842179555,0.11480775819618701,-0.09564404300928926,-0.27124685504019475,11.381390104612235,0.3096828388438619,0.06462582350000001,-0.03471554100000018,-0.12336765699999752
171622.0,0.0573689025,-1.531014198,11.034050313999998,0.023411846586251936,-0.10816678039234857,-0.23181114059138286,11.139908527332489,0.25687462280907125,-0.058643767,-0.05148491250000009,-0.2501676415000027
171632.0,-0.027654752999999997,-1.596914886,10.7719185595,-0.03414387615676507,-0.0967086938530058,-0.20223304575783496,10.88968004079975,0.22675224484501466,-0.08502365549999999,-0.06590068799999993,-0.2621317544999986
171642.0,-0.1258193195,-1.7105739595,10.545679144000001,-0.054394931467655276,-0.08818276045701351,-0.18837862215550397,10.684252073976706,0.21499189076892194,-0.0981645665,-0.11365907350000004,-0.2262394154999985
171652.0,-0.20721451449999997,-1.9261241265,10.330128977,-0.04986580205872999,-0.09884148619894287,-0.17585413944319264,10.510207261855491,0.2078001827917437,-0.08139519499999998,-0.21555016699999996,-0.21555016700000174
171662.0,-0.228691078,-2.073321943,10.162533328499999,-0.030946432967111456,-0.10869910581420685,-0.17212437083168078,10.374393820428997,0.2059125453982783,-0.021476563500000018,-0.14719781649999986,-0.16759564850000075
171672.0,-0.2874329115,-2.129612114,10.036910141999998,-0.007497934466567639,-0.10550166262455324,-0.1894432729992205,10.264376777636883,0.21696906121027298,-0.05874183350000001,-0.05629017100000011,-0.12562318650000037
171682.0,-0.317343194,-2.139222631,9.852545122,0.014618877814704504,-0.11376230597424239,-0.20756328129342563,10.087101940042377,0.2371457138352539,-0.029910282499999996,-0.00961051700000004,-0.18436501999999777
171692.0,-0.3256788465,-2.121178395,9.7065241035,0.037268015517834915,-0.11722678453945114,-0.20996136368566584,9.940929265732596,0.2433409094970283,-0.008335652500000013,0.018044236000000158,-0.14602101850000082
171702.0,-0.329307307,-2.0063425235,9.573643996,0.05751907082872512,-0.10017317241821454,-0.2150245638457014,9.787160619208963,0.2440874249902345,-0.003628460499999986,0.11483587149999996,-0.13288010750000012
171712.0,-0.29576856399999996,-1.9309293849999998,9.626305706499998,0.07803541618591847,-0.08898212125442691,-0.22594857963393392,9.82251133307066,0.2550688234983633,0.03353874300000004,0.07541313850000009,0.052661710499998904
171722.0,-0.167693715,-1.9440702959999998,9.640623415499999,0.08576373411374937,-0.11269765513052585,-0.23154410521582774,9.836114595577204,0.2714200659885911,0.12807484899999996,-0.013140911000000033,0.014317709000000178
171732.0,-0.0132389775,-1.900921036,9.669356899999999,0.09215862049305659,-0.1470701694193022,-0.22701497580690244,9.85444767174752,0.28575976852036744,0.1544547375,0.043149259999999856,0.028733484500000017
171742.0,0.1399408955,-1.826782762,9.747221700999999,0.11134327963097826,-0.17025337787354286,-0.2227511364442803,9.917915587572773,0.3016647267804971,0.153179873,0.07413827400000006,0.07786480100000048
171752.0,0.281254722,-1.6244715724999998,9.9183477435,0.13772393127487254,-0.17797995047212176,-0.22221881102242202,10.054433552890956,0.3162687844035254,0.14131382650000002,0.20231118950000004,0.17112604250000096
171762.0,0.3949137955,-1.5585708844999997,10.028476423,0.15637626499093593,-0.19609995876632688,-0.21715561086238647,10.15654663133854,0.3317608919232144,0.11365907349999999,0.06590068800000015,0.11012867950000071
171772.0,0.5385812179999999,-1.4999271175,10.090748650499998,0.16863371232769214,-0.20835740610308306,-0.2032994419308035,10.215823971357462,0.33642354361845733,0.14366742249999992,0.058643766999999736,0.06227222749999761
171782.0,0.7193177774999999,-1.249759476,10.202054127999999,0.18035708891333804,-0.1875722800410826,-0.19903560256818134,10.303456955969736,0.32760831926369494,0.1807365595,0.25016764150000004,0.1113054775000002
