timestamp,ax,ay,az,gx,gy,gz,acc_mag,gyro_mag,dax,day,daz
114112.0,0.9305530184999999,1.5742615245,9.83018596,-0.01668534764906579,0.04494048290960199,-0.02490933908446307,9.99883914641803,0.05402335609662892,0.0,0.0,0.0
114122.0,0.7976729109999999,1.635356954,9.907952694499999,-0.03880041460108594,0.03135134935357414,-0.005190609195431136,10.073638917312312,0.05015298299528864,-0.1328801075,0.06109542949999991,0.07776673449999905
114132.0,0.8538650154999999,1.532387129,9.99297635,-0.04119849699332615,0.018027505843849427,-0.013718287920675431,10.14578100046906,0.04701593926461194,0.056192104500000006,-0.10296982499999996,0.08502365550000057
114142.0,0.6599875449999999,1.6185875825,9.8959885815,-0.04386361476112149,0.02468942759871179,-0.02490933908446307,10.049179037461553,0.056161015915747695,-0.19387747050000004,0.08620045350000005,-0.09698776850000002
114152.0,0.5773174855,1.6425158085,9.955809146499998,-0.04386361476112149,0.017228145046436025,-0.04356167280052647,10.106893163666541,0.06417511214507725,-0.08267005949999995,0.023928225999999997,0.05982056499999899
114162.0,0.5115148639999999,1.638887348,9.951101954499999,-0.04119849699332615,0.022291345206471577,-0.06008295949990479,10.09812008763914,0.07618518391321495,-0.06580262150000005,-0.003628460500000097,-0.004707191999999694
114172.0,0.41815555599999993,1.6496746629999999,9.9762069785,-0.04173256774443641,0.024157102176853518,-0.07926761863782646,10.120325401914206,0.09278215432203979,-0.09335930799999997,0.010787314999999964,0.02510502400000192
114182.0,0.3307783045,1.6940007209999999,9.983365832999999,-0.04759512870188536,0.029220302336889065,-0.09312378756940945,10.131468111038409,0.10858711781827868,-0.08737725149999992,0.044326058,0.007158854499998313
114192.0,0.21947282699999998,1.766962197,9.996506744,-0.05505466592490913,0.03561518871619629,-0.10351547793578368,10.15384020015363,0.1225353503266194,-0.11130547750000003,0.07296147600000014,0.013140911000000699
114202.0,0.097281968,1.7694138595,10.001312002499999,-0.05931850528753128,0.042010075095503516,-0.10564827028172076,10.157092643017448,0.1282384049050683,-0.12219085899999999,0.0024516624999999515,0.004805258499999354
114212.0,-0.10140076099999999,1.7657853989999999,10.0780000055,-0.06198362305532662,0.048404961474810736,-0.11230844670733112,10.232026402453766,0.13710651707433955,-0.198682729,-0.003628460500000097,0.076688003000001
114222.0,-0.3060655465,1.6652672364999999,10.0803536015,-0.06011786608494468,0.04147600434439325,-0.12882973340670945,10.221561515687743,0.1480929335539927,-0.2046647855,-0.10051816250000001,0.002353596000000735
114232.0,-0.482094914,1.5778899849999999,10.073194746999999,-0.05319065428377919,0.018561576594959692,-0.16373631844659603,10.207419101901143,0.173157037995203,-0.17602936749999998,-0.08737725149999997,-0.0071588545000018655
114242.0,-0.600559246,1.5191481514999998,10.0780000055,-0.045729371731503425,-0.00622035345410779,-0.21196674699620732,10.20953312473298,0.21693263947180982,-0.118464332,-0.05874183350000006,0.0048052585000011305
114252.0,-0.6304695284999999,1.5071840385,10.040832801999999,-0.04173256774443641,-0.023006930199789253,-0.26099479101398004,10.172876629056077,0.2653096435944104,-0.02991028249999994,-0.011964112999999887,-0.03716720350000102
114262.0,-0.6532209565,1.535917523,10.001312002499999,-0.04599466177780657,-0.021141173229407315,-0.3078935333443196,10.139624353338727,0.31202705971248756,-0.022751428000000073,0.028733484500000017,-0.03952079949999998
114272.0,-0.6892113619999999,1.5335639269999999,9.957084011,-0.06011786608494468,-0.013147565255273283,-0.3507937263583403,10.098037067758138,0.3561506068324454,-0.03599040549999988,-0.002353596000000069,-0.044227991499999675
114282.0,-0.747855129,1.5455280399999998,9.927075662,-0.06784618401277558,-0.007552039673379463,-0.391828162401979,10.074461544691635,0.39773036952140745,-0.05864376700000007,0.011964112999999887,-0.030008348999999157
114292.0,-0.8412144369999999,1.500025184,9.9163864135,-0.06518106624498023,-0.010749482863033075,-0.43766050855935007,10.064414378566635,0.44261816900245304,-0.09335930799999992,-0.0455028559999997,-0.010689248500000303
114302.0,-0.8926993495,1.4162763929999997,9.901970637999998,-0.055854026722322536,-0.024073326372757786,-0.48775494875009134,10.042498367726076,0.4915323869023805,-0.05148491250000009,-0.08374879100000032,-0.014415775500001615
114312.0,-0.9070170585,1.3802859874999998,9.85764458,-0.046795767904471965,-0.03606373833395883,-0.5471764284634902,9.995050075777622,0.5503566852346309,-0.014317709000000067,-0.03599040549999999,-0.04432605799999756
114322.0,-0.8867172929999999,1.3767555934999998,9.8516625235,-0.040399136195912747,-0.041659263915852646,-0.6028663942361253,9.986840240980786,0.6056529317807797,0.020299765500000122,-0.0035303939999999923,-0.00598205650000061
114332.0,-0.8267986614999999,1.395878561,9.814593386499999,-0.03746872838181426,-0.031267573549478414,-0.6628201993713825,9.947779467099537,0.6646143118056829,0.059918631499999986,0.0191229675000002,-0.03706913700000136
114342.0,-0.749031927,1.4257888435,9.7355517875,-0.051324897313397254,-0.008351400470792867,-0.7158467927054742,9.867871668247863,0.7177329737449496,0.07776673449999993,0.02991028249999994,-0.07904159899999819
114352.0,-0.6472389,1.461779249,9.703287909,-0.07077659182687406,0.020160298189786503,-0.7643425113013886,9.834099501806243,0.7678770983407712,0.10179302700000004,0.03599040549999999,-0.03226387850000023
114362.0,-0.567020503,1.4497170695,9.6745544245,-0.07717147820618127,0.04520751828515712,-0.8035129357038975,9.798989496118187,0.8084752281928776,0.080218397,-0.012062179499999992,-0.028733484500000017
114372.0,-0.5239693095,1.4317708999999998,9.670925964,-0.0641146700720117,0.058264326419326704,-0.8410846385115794,9.790368774900875,0.8455346189197075,0.04305119349999997,-0.017946169500000053,-0.003628460499999875
114382.0,-0.495235825,1.4162763929999997,9.729569731,-0.032405528221778716,0.05373345168114942,-0.8839848315256,9.844573352569624,0.8862091087639793,0.02873348449999996,-0.015494507000000102,0.058643766999999514
114392.0,-0.38510714549999997,1.4809022164999999,9.828911095499999,-0.0020298179200694054,0.04254240051736178,-0.931681189324101,9.947304771222845,0.932654177357792,0.11012867950000005,0.06462582350000012,0.09934136449999897
114402.0,-0.2354576665,1.6496746629999999,9.9785605745,0.010494664792241903,0.03827856115473963,-0.9703192883047514,10.116745422586433,0.971130736558893,0.14964947899999997,0.1687724465,0.1496494790000007
114412.0,-0.0175539035,1.7717674554999998,10.1521382795,0.004899139210348083,0.04254240051736178,-0.9961658691975355,10.305599434384506,0.9970859021974302,0.217903763,0.12209279249999994,0.17357770500000136
114422.0,0.32361945,1.972901847,10.4059343815,-0.019083430041306,0.0691883422075592,-0.9974975554168072,10.596251299322704,1.000076285621291,0.3411733535,0.20113439150000012,0.253796101999999
114432.0,0.5641765744999999,2.306916346,10.677676652999999,-0.07983659597397662,0.10516132342041433,-0.9676541705369562,10.93859849069696,0.976620386720352,0.24055712449999994,0.334014499,0.2717422714999991
114442.0,0.674305254,2.5247220425,10.793787388999998,-0.16990082136464002,0.14273302622809628,-0.9159592634221362,11.105618180290225,0.9424544435278727,0.11012867950000005,0.21780569650000015,0.11611073599999955
114452.0,0.6659696015,2.469706736,10.852529222499998,-0.27781801967395336,0.20401851758262515,-0.8706609880158752,11.149903918742181,0.9364064094317964,-0.008335652500000013,-0.05501530650000008,0.058741833499999174
114462.0,0.4480658385,2.1943360039999997,10.9219603045,-0.36201968410716784,0.23652702023027153,-0.8605363330250563,11.149219272539003,0.9630815455797476,-0.21790376299999997,-0.2753707320000003,0.06943108200000303
114472.0,0.22300322099999997,1.87110882,10.9158801815,-0.39639394372519615,0.20162043519038494,-0.8914461140778757,11.077329045836033,0.9962204238083654,-0.2250626175,-0.32322718399999983,-0.00608012300000027
114482.0,0.153572139,1.6221179765,10.874005786,-0.3814713786206446,0.09903347241666224,-0.9479354406479242,10.995401446310314,1.0266010135403194,-0.06943108199999998,-0.2489908434999999,-0.041874395500000716
114492.0,0.220649625,1.5252282744999999,10.706410137499999,-0.3364401385899389,-0.027537804937966533,-1.0036254064205594,10.816756703314985,1.0588740500966354,0.06707748599999999,-0.09688970200000013,-0.16759564850000075
114502.0,0.45287109699999994,1.5551385569999998,10.469383406999999,-0.2844799414288157,-0.13412157169875624,-1.040664783806383,10.593938695534014,1.0871525308460965,0.23222147199999996,0.02991028249999994,-0.23702673050000023
114512.0,0.6898978275,1.6448694044999999,10.215587305,-0.2423791092122085,-0.17995391785612735,-1.0494577525779303,10.370138781922186,1.09201310412476,0.2370267305,0.08973084750000004,-0.253796101999999
114522.0,0.9113319845,1.7131236885,10.0252402285,-0.2210616577283498,-0.14877710142775263,-1.0313377442837253,10.211305518747702,1.0652044053659808,0.22143415700000002,0.06825428400000022,-0.19034707650000016
114532.0,1.0598046655,1.7239110034999998,9.8948117835,-0.22212805390131832,-0.056581829020404165,-0.9977645907923623,10.099621542805176,1.0237561010046932,0.148472681,0.010787314999999742,-0.13042844499999973
114542.0,1.075397239,1.6880186645,9.855290984,-0.2359824775036493,0.061728804984535444,-0.9591264918117118,10.05647287137299,0.98965741665923,0.015592573499999984,-0.035892338999999884,-0.03952079949999998
114552.0,0.8958374775,1.5215998139999998,9.941491437499998,-0.24584184244816526,0.16991129334015198,-0.9418075896441721,10.097080904001125,0.9880837995910048,-0.17955976149999997,-0.16641885050000016,0.08620045349999828
114562.0,0.7114724575,1.2247525184999999,10.051620116999999,-0.24344376005592505,0.23599469480841326,-0.9617916095795072,10.150925020205413,1.019804618809614,-0.18436502,-0.2968472954999999,0.11012867950000071
114572.0,0.5869280025,1.024794925,10.1293868515,-0.23411846586251936,0.26104191490378387,-1.0156175637110123,10.197998191104245,1.0744456119844996,-0.124544455,-0.19995759349999997,0.07776673450000082
114582.0,0.5378947525,0.9194715039999999,10.210880113,-0.21306804975421575,0.2634399972960241,-1.076637765019238,10.266295889632927,1.1286928293681209,-0.04903325000000003,-0.10532342100000003,0.08149326150000036
114592.0,0.4947454925,0.8967200759999999,10.225197822,-0.18562100193735295,0.2501161537862994,-1.132327730791873,10.276358815070836,1.174384662989666,-0.04314925999999997,-0.022751427999999962,0.014317709000000178
114602.0,0.6168382849999999,0.9385944715,10.178518167999998,-0.1603084917956792,0.23199789082134625,-1.1722975159917952,10.240296926753548,1.2057376579869652,0.12209279249999994,0.04187439550000005,-0.04667965400000185
114612.0,0.7701162245,1.0535284095,10.100653366999998,-0.1405897619066472,0.2200074788601452,-1.1885517673156185,10.184606008538088,1.2168911518687466,0.15327793950000002,0.11493393799999996,-0.07786480100000048
114622.0,0.9065267259999998,1.1960190339999999,10.083982062,-0.12460254595837918,0.2168082903412396,-1.1752279238058938,10.195045191728203,1.2015374742858056,0.1364105014999999,0.14249062449999994,-0.01667130499999736
114632.0,1.010673349,1.292908736,10.0576021735,-0.1014193375041385,0.22107212970386173,-1.142187095736389,10.19060523709931,1.1677971271664898,0.1041466230000001,0.09688970200000013,-0.02637988850000106
114642.0,1.0968738025,1.3707735369999998,10.06358423,-0.0641146700720117,0.22986509847540917,-1.106214114523534,10.215570458014325,1.1316617522858317,0.08620045350000005,0.07786480099999982,0.00598205650000061
114652.0,1.1208020285,1.4820790144999998,10.154589942,-0.02441192024764469,0.24345597736068902,-1.074504972673301,10.323199711449865,1.102010749068482,0.023928225999999997,0.11130547749999997,0.0910057119999994
114662.0,1.135217804,1.5814203789999999,10.1617487965,0.0003682644721708035,0.2602425541063705,-1.0401324583845246,10.346533162407797,1.0721948766766065,0.014415775500000061,0.09934136450000008,0.007158854500000089
114672.0,1.1639512885,1.5503332985,10.119874401,0.007297221602588292,0.2964808253655288,-1.0140188421161855,10.303891198496508,1.056498150220431,0.028733484500000017,-0.031087080499999864,-0.04187439549999894
114682.0,1.146005119,1.547881636,10.095946175,0.01768891196896253,0.3225944416338679,-0.9964311592438386,10.27800537362855,1.0474994637190669,-0.017946169500000053,-0.0024516624999999515,-0.023928226000000663
114692.0,1.171110143,1.4365761585,10.0576021735,0.04966508919475064,0.32552659477721835,-0.9841737119070826,10.226955143472567,1.0378015610900473,0.02510502399999992,-0.11130547749999997,-0.0383440015000005
114702.0,1.2214182574999999,1.369596739,10.050443319000001,0.09816080779066508,0.3071395511074581,-0.9879052258478463,10.216607494450667,1.0391953537704501,0.050308114499999945,-0.06697941950000019,-0.007158854499998313
114712.0,1.2848672829999999,1.450991934,10.10673349,0.14825524798140635,0.283158727185056,-0.9998956378090474,10.290885450987414,1.0497379529409476,0.06344902549999998,0.08139519500000003,0.05629017099999878
114722.0,1.2106309425,1.638887348,10.241967193499999,0.17410182887419037,0.285022738826186,-1.0097550027535633,10.442675471884739,1.0635575085773061,-0.07423634049999994,0.18789541399999998,0.13523370349999908
114732.0,1.1591460299999998,1.6712492929999998,10.383182953499999,0.1543848443144104,0.29275105675401686,-1.0260092540773866,10.58050953234629,1.0780690380662148,-0.05148491250000009,0.03236194499999989,0.1412157599999997
114742.0,1.161499626,1.6760545515,10.516063061,0.10029185480735016,0.30261042169853286,-1.0590500821468911,10.711947654079099,1.1059921337679575,0.002353596000000069,0.004805258500000242,0.1328801075000019
114752.0,1.1902331105,1.72989306,10.6261917405,0.037407641857994466,0.30287571174483596,-1.0971541103764313,10.831672805353616,1.1388064674694358,0.028733484500000017,0.05383850849999994,0.11012867949999894
114762.0,1.2956545979999998,1.8519858524999997,10.683658709499998,-0.02254616327726275,0.27409872303795346,-1.130196683775188,10.920125267424996,1.1631779672371696,0.10542148749999991,0.12209279249999971,0.05746696899999826
114772.0,1.436870358,2.0279171535,10.623838144499999,-0.06891083485649212,0.2285334122561375,-1.1373909309519086,10.910681982703546,1.1621679540796594,0.14121576000000013,0.1759313010000001,-0.05982056499999899
114782.0,1.6164301195,2.1991412625,10.450260439500001,-0.09555677654668954,0.17337577190536071,-1.1067464399453923,10.800787558184618,1.1243122067110958,0.17955976149999997,0.17122410900000018,-0.1735777049999978
114792.0,1.8127592524999998,2.2961290309999995,10.2407903955,-0.10355212985007556,0.12381365713647774,-1.0382667014141427,10.650450345365233,1.0507381255838206,0.19632913299999988,0.09698776849999957,-0.20947004400000147
114802.0,1.901313302,2.3140752005,10.0456380605,-0.08889660012107918,0.09503492310034324,-0.9450050328338256,10.482594161203489,0.9539228240287759,0.08855404950000012,0.017946169500000497,-0.1951523349999995
114812.0,1.818741309,2.213557038,9.963066067499998,-0.05985083070938955,0.09663539002442205,-0.8530750504727804,10.366790254216212,0.8606146421488035,-0.08257199299999995,-0.10051816250000023,-0.08257199300000195
114822.0,1.6954717185,1.9645661945,9.907952694499999,-0.03800105380367253,0.10862580198562308,-0.7901890921941728,10.24215169177138,0.7985251695280872,-0.12326959050000008,-0.2489908434999999,-0.0551133729999993
114832.0,1.5805377805,1.7526444879999998,9.934332583,-0.02894279498582197,0.11128917442416643,-0.7619444289091485,10.210819078142562,0.770572695124407,-0.11493393799999985,-0.21192170650000008,0.02637988850000106
114842.0,1.4679574384999998,1.617312718,9.9750301805,-0.028675759610266836,0.1032955664500324,-0.7547501817324279,10.211357724168607,0.7623254620321899,-0.11258034200000022,-0.13533176999999985,0.04069759749999946
114852.0,1.445304077,1.5993665485,9.958260809,-0.03880041460108594,0.08544259353138241,-0.7571482641246681,10.188907476835727,0.7629412839986989,-0.022653361499999747,-0.017946169500000053,-0.016769371499998798
114862.0,1.4763911574999997,1.6880186645,9.880396008,-0.05851914449011787,0.0753179385405633,-0.7558165779053965,10.131700900468138,0.7618109880898801,0.031087080499999642,0.088652116,-0.07786480100000048
114872.0,1.5685736675,1.7981473439999998,9.8122397905,-0.06731211326166531,0.08197986029542564,-0.7464895383827387,10.098208104776814,0.753988228688408,0.09218251000000022,0.11012867949999983,-0.06815621750000034
114882.0,1.6523224584999998,1.9657429924999998,9.797824015,-0.061716587679771485,0.1016968448552056,-0.7206429574899547,10.128754634620046,0.7303954118340334,0.08374879099999988,0.16759564850000008,-0.014415775499999839
114892.0,1.6295710305,2.124904922,9.97140172,-0.05399001508119259,0.13793686144361586,-0.6817395684630011,10.324707014371091,0.6976462847901519,-0.02275142799999985,0.15916192949999997,0.17357770499999958
114902.0,1.5685736675,2.1680541819999997,10.283841588999998,-0.06304827389904316,0.1579208813789509,-0.6401710616682521,10.626301337441362,0.662369291116829,-0.06099736300000003,0.043149259999999856,0.31243986899999854
114912.0,1.491983731,2.1560900689999998,10.5100810045,-0.10808125925900085,0.13846918686547413,-0.6023340688142671,10.832199340870755,0.6274245809406476,-0.07658993650000001,-0.011964112999999887,0.22623941550000204
114922.0,1.415295728,2.102153494,10.559212321,-0.17442995077356527,0.07798305630835864,-0.5703578915884789,10.859055030249625,0.6015108388843181,-0.0766880029999999,-0.05393657499999982,0.049131316500000466
114932.0,1.3614572195,1.938186306,10.482622384499999,-0.21679781836572765,-0.010217157441174806,-0.5453106714931083,10.746883453974693,0.5869151666114801,-0.05383850849999994,-0.16396718799999999,-0.07658993650000134
114942.0,1.3483163084999998,1.811288255,10.24794925,-0.21626549294386938,-0.10720859463300368,-0.5271906631989032,10.493768905452585,0.5798227673742536,-0.013140911000000255,-0.12689805099999996,-0.2346731344999995
114952.0,1.375872995,1.731069858,9.960614405,-0.19281699444332553,-0.1943424122095686,-0.5106711218287768,10.203110735297344,0.579424163458388,0.027556686500000094,-0.08021839700000011,-0.28733484500000017
114962.0,1.4057832774999999,1.658108382,9.6996594485,-0.15417889546267508,-0.24950005256034538,-0.49814663911646556,9.940268781407907,0.5780756716008172,0.02991028249999994,-0.07296147599999991,-0.2609549564999991
114972.0,1.4416756165,1.6161359199999998,9.554815227999999,-0.10648253766417405,-0.26468790771120004,-0.49121942731530005,9.797184184057457,0.5680622721919723,0.035892339000000106,-0.041972462000000155,-0.14484422050000134
114982.0,1.5003193834999997,1.6448694044999999,9.474596831,-0.06971019565390552,-0.2417734799617665,-0.4917517527371583,9.732653221006142,0.5523890959378143,0.058643766999999736,0.028733484500000017,-0.08021839699999944
114992.0,1.5745557239999999,1.625746437,9.504507113499999,-0.061716587679771485,-0.18634880423543457,-0.4994800706649892,9.770257554229133,0.5366704342763012,0.07423634050000016,-0.019122967499999755,0.029910282499999497
115002.0,1.7205767424999998,1.625746437,9.5164712265,-0.09395805495186274,-0.10614394378928714,-0.5093376902802532,9.806460136514731,0.5286960711349232,0.14602101849999993,0.0,0.01196411300000122
115012.0,1.8570853105,1.692823923,9.508135573999999,-0.14831633450522613,0.0020402898955813715,-0.5165336827862258,9.83458493167456,0.5374094745318745,0.13650856800000022,0.06707748599999985,-0.008335652500001345
115022.0,1.9180826735,1.7657853989999999,9.4566506615,-0.19308228448962866,0.09770004086813859,-0.5042762354494696,9.809448554906176,0.5487445564271766,0.06099736300000003,0.07296147599999991,-0.051484912499999425
115032.0,1.9504446185,1.7802011745,9.490189404499999,-0.19974420624449105,0.15019430878037202,-0.47150069742626816,9.85073831572085,0.533637504296421,0.03236194499999989,0.014415775500000061,0.03353874299999937
115042.0,1.8690494235,1.7657853989999999,9.588353971,-0.16990082136464002,0.15632215978412412,-0.4291328298341058,9.927128270350835,0.48729651382026135,-0.08139519500000003,-0.014415775500000061,0.09816456650000127
115052.0,1.8355106804999999,1.6903722604999998,9.706818303,-0.1389910403118204,0.1150206883649303,-0.3912958369801207,10.022413851201378,0.43088362706985944,-0.03353874300000004,-0.07541313850000009,0.11846433200000028
115062.0,1.8127592524999998,1.6209411784999999,9.749967563,-0.1139438202164498,0.04494048290960199,-0.35292477337502537,10.048652342042365,0.37357561059507066,-0.022751428000000073,-0.06943108199999992,0.043149259999999856
115072.0,1.8378642764999997,1.5586689509999998,9.736826652,-0.09902125511189828,-0.02993588733020674,-0.3142884197236269,10.030602536674646,0.33087547066314416,0.02510502399999992,-0.062272227500000055,-0.013140911000000699
115082.0,1.87503148,1.5215998139999998,9.5811951165,-0.08996125096479572,-0.08376009613245987,-0.2799141601055986,9.88080507374775,0.30571345637196373,0.037167203500000356,-0.03706913700000003,-0.15563153549999953
115092.0,1.9265163925,1.532387129,9.454297065499999,-0.08649851772883899,-0.101880104426665,-0.24367588884644031,9.769514252326877,0.27791993100959345,0.05148491249999987,0.010787315000000186,-0.1268980510000013
115102.0,1.936028843,1.5862256375,9.418306659999999,-0.07184298799984258,-0.10694330458670054,-0.20743587225803004,9.745194702815873,0.24418830115326795,0.009512450500000158,0.05383850849999994,-0.03599040549999977
115112.0,1.8929776495,1.5719079284999997,9.426740379,-0.04812745412374363,-0.1002813828318382,-0.173595683391112,9.742571174503,0.20617485024882629,-0.043051193500000196,-0.014317709000000178,0.008433719000001005
115122.0,1.854633648,1.5455280399999998,9.5129408325,-0.03880041460108594,-0.09468585724994437,-0.15361166345577693,9.814497754514278,0.18457363540339092,-0.038344001499999836,-0.02637988849999995,0.08620045350000005
115132.0,1.8559085124999999,1.5551385569999998,9.534515462499998,-0.05212425811081065,-0.07256904496867222,-0.14588334552794602,9.837166128661726,0.17107061429039666,0.001274864499999806,0.00961051700000004,0.02157462999999815
115142.0,1.8893491889999998,1.5611206135,9.545204710999998,-0.07264234879725598,-0.03952821689916758,-0.14428462393311922,9.854829826169814,0.16630527193547257,0.03344067649999993,0.005982056500000166,0.010689248500000303
115152.0,1.979178103,1.580243581,9.5033303155,-0.08836252936996893,-0.00062482787221397,-0.14135421611902074,9.835019208124999,0.16670135398715674,0.08982891400000015,0.019122967499999977,-0.04187439549999894
115162.0,2.0175221045,1.593384492,9.3991836925,-0.09875596506559514,0.047872636052952465,-0.12509996479519755,9.74443039211888,0.16641673927359338,0.038344001499999836,0.013140911000000033,-0.1041466230000001
115172.0,2.03782187,1.613782324,9.323770554,-0.0960908472977998,0.09450259767848497,-0.08939401895789757,9.679344435794327,0.16172656716765996,0.020299765500000344,0.020397832000000005,-0.07541313850000009
115182.0,1.9755496424999999,1.5874024355,9.354955701,-0.07264234879725598,0.1352717436758205,-0.03849847264049092,9.692153478452846,0.1582955712315721,-0.06227222750000028,-0.02637988849999995,0.031185147000000413
115192.0,1.864244165,1.5538636925,9.380060725,-0.03613704216254259,0.1435323870255097,0.019589575524384357,9.688933784802837,0.14930232218798087,-0.11130547749999997,-0.03353874300000004,0.025105024000000142
115202.0,1.7290104615,1.4952199254999998,9.421935120499999,-0.0014957471689591405,0.12168261011979266,0.07794465906481476,9.69525766632842,0.14451389117274896,-0.13523370349999997,-0.05864376700000018,0.04187439549999894
115212.0,1.5876966349999997,1.357632626,9.462632718,0.02781531228903363,0.08491026810952414,0.12910549542852454,9.690478053622229,0.157008516259509,-0.14131382650000024,-0.13758729949999982,0.04069759750000124
115222.0,1.471585899,1.242698688,9.4697915725,0.05259549700884912,0.048404961474810736,0.1690752806284467,9.663685503672218,0.1835640954015076,-0.11611073599999977,-0.11493393800000007,0.007158854500000089
115232.0,1.375872995,1.139728863,9.453022201,0.0725795169441842,0.023890066801298383,0.19279081450454563,9.620376141925243,0.20738085670800893,-0.09571290399999999,-0.10296982499999996,-0.016769371500000574
115242.0,1.2584873945,1.0774566355,9.4913662025,0.0904324898628342,0.026555184569093726,0.20504826184130182,9.634870819759737,0.22567233488939073,-0.11738560050000002,-0.062272227500000055,0.0383440015000005
115252.0,1.0394068335,1.0128308119999998,9.55363843,0.09869313321252335,0.03854559653029477,0.2039818656683333,9.663239626048602,0.229857997634877,-0.21908056099999995,-0.06462582350000012,0.06227222749999939
115262.0,0.928101356,0.9015253344999999,9.648174535999999,0.09309760763062953,0.05160240466446434,0.1831984849355848,9.734546313664195,0.21187651497132823,-0.11130547749999997,-0.11130547749999986,0.09453610599999962
115272.0,0.8179726764999999,0.9134894474999999,9.727216134999999,0.08004079949645995,0.05346816163484629,0.1520216685072101,9.8041968568159,0.17993321424450415,-0.11012867950000005,0.011964112999999998,0.07904159899999996
115282.0,0.7724698205,0.930258819,9.739180248,0.074178238539011,0.04520751828515712,0.12404229526848899,9.813955522466154,0.15143520659915327,-0.045502855999999925,0.01676937150000002,0.01196411300000122
115292.0,0.800026507,1.025971723,9.776249385,0.0749775993364244,0.039877282749566444,0.10166019294091372,9.86243947641815,0.13246370412503972,0.027556686499999983,0.0957129040000001,0.037069136999999586
115302.0,0.8526882174999999,1.1564982344999999,9.7428087085,0.0773774270579166,0.048404961474810736,0.09446594576419308,9.848192062154778,0.13135494441628218,0.0526617104999999,0.13052651149999983,-0.03344067649999971
115312.0,0.845529363,1.2522111384999999,9.778701047499998,0.08057487024757022,0.0691883422075592,0.10299187916018539,9.894743393108092,0.14794141943955155,-0.007158854499999867,0.09571290399999999,0.03589233899999833
115322.0,0.7892391919999999,1.2737857685,9.85764458,0.08643568587576718,0.08837474667473288,0.12057956203253224,9.970886888929456,0.17268657858268777,-0.05629017100000011,0.02157463000000015,0.07894353250000208
115332.0,0.6791105125,1.2307345749999998,10.003763665,0.09709441161769655,0.09183747991068962,0.13336933479114668,10.1020387124314,0.1888089694542237,-0.11012867949999994,-0.043051193500000196,0.1461190849999987
115342.0,0.5761406874999999,1.188762113,10.138997368499998,0.10828546278148418,0.06812369136384266,0.13736613877821371,10.224693691820166,0.18771263904615415,-0.10296982500000007,-0.04197246199999993,0.13523370349999908
115352.0,0.5126916619999999,1.1372772005,10.295805702,0.11015121975186613,0.0278868707883654,0.13310229941559157,10.371107328747357,0.17500625955921886,-0.06344902549999998,-0.05148491249999987,0.15680833350000078
115362.0,0.5282842355,1.0942260069999998,10.420350157,0.10055889018290529,-0.026471408764997994,0.12111188745439051,10.490953826147692,0.15962742608833286,0.015592573500000095,-0.043051193500000196,0.12454445500000055
115372.0,0.5761406874999999,1.0894207484999998,10.528027174,0.07471230929012126,-0.0856258531028418,0.10379123995759879,10.599911878668506,0.15390366263019226,0.04785645199999988,-0.00480525850000002,0.10767701700000032
115382.0,0.624095206,1.161303493,10.5196915215,0.0368735711068842,-0.1469113444573707,0.09206786337195288,10.601982377674714,0.17725432249263556,0.0479545185000001,0.0718827445000001,-0.008335652499999568
115392.0,0.662341141,1.2402470255,10.4178984945,-0.0012304571226560022,-0.20393474177852944,0.08780402400933074,10.51235071299603,0.22203702295166294,0.03824593499999995,0.07894353250000008,-0.10179302700000115
115402.0,0.7257901665000001,1.2714321724999997,10.326990849000001,-0.0276093634372983,-0.2500323779822036,0.08513890624153539,10.430246935254502,0.26556938894543797,0.06344902550000009,0.031185146999999747,-0.09090764549999797
115412.0,0.7928676525,1.2869266795,10.17734137,-0.04173256774443641,-0.27694535504795625,0.08380722002226372,10.288979383510458,0.29234224296369254,0.06707748599999996,0.015494507000000324,-0.1496494790000007
115422.0,0.8862269605,1.3156601639999999,10.064761027999998,-0.05212425811081065,-0.27321558643644434,0.08194146305188177,10.189002622602525,0.2899622360282378,0.09335930800000003,0.028733484499999795,-0.11258034200000289
