timestamp,ax,ay,az,gx,gy,gz,acc_mag,gyro_mag,dax,day,daz
99252.0,-0.165928518,0.160240661,9.585117776499999,0.011789699097221697,-0.12046262497264863,-0.0029181905093345188,9.587892997520346,0.12107335320355503,0.0,0.0,0.0
99262.0,0.1621039245,0.002157463,9.598356754,-0.009793042432940184,-0.06237457680777335,-0.007714355293814937,9.599725762439379,0.06360819750347745,0.32803244249999997,-0.158083198,0.01323897750000036
99272.0,0.065116156,0.20564545049999997,9.575605326,-0.012458160200735525,0.03888069974667768,0.007740535232594852,9.578034637878647,0.04155514954931019,-0.0969877685,0.20348798749999997,-0.022751427999999407
99282.0,-0.015102240999999999,0.37324109899999997,9.623461778,-0.011925834778877254,0.10762921898273431,0.054105206811824215,9.63070888295835,0.1210522520160477,-0.080218397,0.1675956485,0.04785645199999955
99292.0,-0.176715833,0.29910282499999996,9.817437315000001,-0.0161896741414994,0.1438674902418926,0.1036673215807072,9.82358215823079,0.1780642408262444,-0.161613592,-0.074138274,0.1939755370000018
99302.0,-0.29998542349999996,0.0740402075,10.035243011499999,-0.006330309196983434,0.10682985818532091,0.13111262406831803,10.039998780204044,0.16924305481911298,-0.12326959049999997,-0.22506261749999995,0.21780569649999748
99312.0,-0.47238633049999995,-0.049327449499999995,10.095161642999999,0.015254177662430441,0.02555860156620496,0.13617582422835356,10.106328247232813,0.13939077141062262,-0.172400907,-0.12336765699999999,0.05991863150000043
99322.0,-0.545445873,-0.0983606995,10.107125756,0.03470587217590724,-0.08928755387352591,0.11885517673156185,10.12231085647825,0.15265424290238055,-0.07305954250000007,-0.04903325,0.01196411300000122
99332.0,-0.46042221749999995,-0.1666149835,10.053189180999999,0.050960123499730434,-0.1902757950524218,0.08554731328650207,10.065106153442683,0.21475603642384056,0.08502365550000007,-0.06825428400000001,-0.053936575000001596
99342.0,-0.34911674,-0.08159132799999999,9.8952040495,0.058419660722754195,-0.2470339023272774,0.05383817143626909,9.901696966893818,0.2594940353102661,0.11130547749999997,0.08502365550000002,-0.1579851314999985
99352.0,-0.246146915,0.0871811185,9.7108390295,0.05229180971900211,-0.24197070216724184,0.03385415150093401,9.714349361025032,0.24986067646759577,0.10296982499999999,0.1687724465,-0.18436501999999955
99362.0,-0.14798234849999997,0.18897414549999997,9.682105544999999,0.04589692333969489,-0.17588730069898056,0.04184775947506804,9.685080164234819,0.1865317803815387,0.09816456650000002,0.10179302699999997,-0.028733484500001794
99372.0,-0.1850514855,0.22486648449999996,9.762323942,0.04003436238224593,-0.09088627546835272,0.06529625797561185,9.766666664562868,0.11885565424278281,-0.03706913700000003,0.035892338999999995,0.08021839700000122
99382.0,-0.2772339955,0.186522483,9.891575588999999,0.03070906818884023,-0.02213950156154807,0.08687899950577374,9.89721763718602,0.09476900840224542,-0.09218251,-0.038344001499999975,0.12925164699999847
99392.0,-0.3813806185,0.106304086,10.016120044,0.01312138531649337,0.010103711039795174,0.09407499201174636,10.023941962655524,0.09552151512308475,-0.104146623,-0.08021839699999998,0.12454445500000055
99402.0,-0.45444016099999995,0.014121576,10.110656149999999,-0.001267109036947883,0.00663923247458643,0.07995178770460824,10.120873631380407,0.08023698231068928,-0.07305954249999996,-0.09218251000000001,0.09453610599999962
99412.0,-0.43649399149999996,-0.0516810455,10.1023204975,-0.009527752386637046,-0.020540779966721264,0.04557752808657992,10.111878033742704,0.05089216809751091,0.017946169499999998,-0.0658026215,-0.008335652499999568
99422.0,-0.3431346835,-0.079237732,10.054464045499998,-0.012458160200735525,-0.048251372500635235,0.00401076662108297,10.060629566356438,0.04999486926346585,0.09335930799999997,-0.027556686500000004,-0.047856452000001326
99432.0,-0.2401648585,0.032067745499999994,10.0017042685,-0.014590952546672595,-0.061575216010359944,-0.0245009320394964,10.004638712821711,0.0678579309568584,0.10296982499999999,0.1113054775,-0.052759776999998564
99442.0,-0.1599464615,0.160240661,9.92629113,-0.019387117331153014,-0.05651201585032439,-0.0253002928369098,9.928872823110424,0.0648812227960648,0.080218397,0.1281729155,-0.07541313850000009
99452.0,-0.10247949249999999,0.1901509435,9.8832399365,-0.020985838925979817,-0.040257764526501205,-0.0029181905093345188,9.885600187653026,0.04549295413519723,0.05746696900000001,0.029910282499999996,-0.04305119349999842
99462.0,-0.1360182355,0.1901509435,9.905991364499998,-0.012725195576290656,-0.02586927017305995,0.032787755327965476,9.90874983311472,0.04365989740240058,-0.03353874300000001,0.0,0.02275142799999763
99472.0,-0.20299765499999997,0.11709140099999998,9.937078445000001,-0.0002007128639793479,-0.03439520356905225,0.06742730499229693,9.939841370273838,0.07569353851376313,-0.06697941949999997,-0.07305954250000002,0.03108708050000253
99482.0,-0.248500511,0.0416782625,9.925114332,0.0125890598946351,-0.062107541432218215,0.08847772110060054,9.92831224754762,0.10883077810500605,-0.045502856000000036,-0.07541313849999998,-0.01196411300000122
99492.0,-0.248500511,-0.043345393,9.890398790999999,0.016852899257257248,-0.09195267164132126,0.09167690961950614,9.893615091162372,0.1309349830745588,0.0,-0.0850236555,-0.03471554100000063
99502.0,-0.188679946,-0.105519554,9.834108619999999,0.015786503084288712,-0.10767285221403418,0.0788853915316397,9.836484476084797,0.13440819089860406,0.05982056500000002,-0.062174161,-0.056290171000000555
99512.0,-0.1264077185,-0.048052584999999995,9.798216281,0.011789699097221697,-0.09568244025283312,0.05890137159630463,9.799149465717678,0.11297565203824217,0.0622722275,0.05746696900000001,-0.03589233899999833
99522.0,-0.0809048625,0.015396440499999999,9.8018447415,0.0040613811693908045,-0.0727662671741476,0.04264712027248144,9.80219072369169,0.08444051943822947,0.045502855999999994,0.06344902549999999,0.003628460499999875
99532.0,-0.049817782,0.0860043205,9.854506451999999,-0.0017994344588061538,-0.050649454892875444,0.0399820025046861,9.855007659411417,0.06455358835573502,0.031087080499999996,0.07060788,0.052661710499998904
99542.0,-0.0809048625,0.114737805,9.903539702,0.003796091123087667,-0.037859682134261,0.0501084028247572,9.904534768971363,0.06291754821009955,-0.031087080499999996,0.028733484500000003,0.049033250000000805
99552.0,-0.17553903499999998,0.17455837,9.972970784000001,0.01818458547652892,-0.04398927846726508,0.06822666578971033,9.976042844528255,0.08319022595115731,-0.09463417249999999,0.05982056499999999,0.06943108200000125
99562.0,-0.24497011699999996,0.1936813375,9.993368616,0.02964267201587169,-0.06424033377815529,0.09247627041691955,9.998246802013467,0.11643611586785507,-0.06943108199999998,0.019122967500000004,0.020397831999998672
99572.0,-0.267721545,0.17220477399999998,9.995722211999999,0.033107150581080436,-0.08502371451090376,0.10846348636518761,10.000789561295434,0.14173723336978622,-0.022751428000000046,-0.021476563500000018,0.0023535959999989586
99582.0,-0.26409308449999996,0.14582488549999997,9.972970784000001,0.02857627584290316,-0.09994627961545528,0.11086156875742781,9.9775325763953,0.1519741747053701,0.0036284605000000414,-0.026379888500000004,-0.02275142799999763
99592.0,-0.24977537549999998,0.14229449149999998,9.9179554775,0.02431243648028101,-0.10554180519734911,0.10633243934850252,9.922120555314255,0.1517786377252275,0.014317708999999984,-0.0035303939999999923,-0.055015306500001415
99602.0,-0.24379331899999998,0.149453346,9.903539702,0.01765226005467065,-0.09328435786059293,0.09620603902843143,9.907667238765635,0.13516351450018219,0.005982056499999999,0.007158854500000006,-0.014415775499999839
99612.0,-0.29763182749999995,0.1554354025,9.89883251,0.009923942126839757,-0.07409969872267125,0.08634667408391547,9.904525729691667,0.11421470178344569,-0.053838508499999965,0.005982056499999999,-0.004707191999999694
99622.0,-0.36225765099999996,0.13503757049999998,9.94786576,0.003796091123087667,-0.060243529791088275,0.07728666993681291,9.955375378665284,0.0980659091602499,-0.06462582350000001,-0.020397832000000005,0.04903324999999903
99632.0,-0.4843504435,0.12189665949999999,10.047207124499998,0.0003316125578789226,-0.04931776867360377,0.07115881893306081,10.059613568637685,0.08657903779656927,-0.12209279250000005,-0.013140910999999991,0.09934136449999897
99642.0,-0.6746975199999999,0.1566122005,10.125071925499999,-0.0017994344588061538,-0.0690364985626357,0.0647639325537536,10.148735173477917,0.09467651798618011,-0.19034707649999993,0.034715541,0.07786480100000048
99652.0,-0.7752156825,0.1685763135,10.152530545499998,0.002197369528260861,-0.1087392483870027,0.05650328920406442,10.183479454743239,0.1225629400083571,-0.10051816250000001,0.011964112999999998,0.0274586199999991
99662.0,-0.906918992,0.3062616795,10.199308266000001,0.01845162085208405,-0.13245478226310167,0.05730265000147783,10.244129410510022,0.1454933859446078,-0.1317033095000001,0.137685366,0.046777720500003284
99672.0,-1.054214875,0.46905206949999995,10.290215911499999,0.032573079829970174,-0.12952262911975118,0.07462329749826956,10.354705324240824,0.15298939019820124,-0.14729588299999996,0.16279038999999995,0.09090764549999797
99682.0,-1.3390980575,0.6079142335,10.5057660785,0.0320407544081119,-0.09594947562838826,0.1137919765715263,10.60819797227849,0.1522548053378231,-0.2848831825,0.138862164,0.21555016700000174
99692.0,-1.8478670594999997,0.6522402915,10.916370513999999,0.02404714643397787,-0.05438096883363932,0.17401281708233865,11.090859987682189,0.18389131445458176,-0.5087690019999997,0.044326058,0.41060443549999803
99702.0,-2.5816986789999996,0.6210551445,11.360415625999998,0.0029967303256742636,-0.05144881569028885,0.2515543050899427,11.666615651384303,0.2567791452549488,-0.7338316194999999,-0.03118514699999997,0.4440451119999995
99712.0,-3.3286712095,0.37088750299999995,11.653732527499999,-0.024982642913046832,-0.11486709939075482,0.3309598047386767,12.125472831331043,0.3512164223410251,-0.7469725305000003,-0.25016764150000004,0.2933169015000008
99722.0,-3.9511973515,0.0967916355,11.836920749499999,-0.03377561168459427,-0.2227842977000682,0.3829200018997999,12.47934381132065,0.4442987318250232,-0.6225261419999999,-0.2740958674999999,0.18318822200000007
99732.0,-4.419268755999999,-0.14621715149999998,11.841726007999998,-0.02151816434783809,-0.3557504614340042,0.4018376256621664,12.640323992750112,0.5371172121662224,-0.4680714044999994,-0.24300878699999998,0.004805258499999354
99742.0,-4.712487591,-0.2587974935,11.684819607999998,-0.009527752386637046,-0.4575380634103135,0.381054244929418,12.601965113008054,0.5955117086284114,-0.2932188350000011,-0.112580342,-0.15690640000000045
99752.0,-4.8908705545,-0.251638639,11.522029217999998,-0.030045843073082383,-0.4975078486102356,0.32376555756195613,12.51962835254939,0.5943407678917556,-0.17838296349999982,0.007158854499999978,-0.16279038999999962
99762.0,-4.986681524999999,-0.22643554849999997,11.3389390625,-0.07774220087158341,-0.49883953482950727,0.24702343035176544,12.389100239827313,0.5620545404567339,-0.09581097049999876,0.025203090500000025,-0.18309015549999863
99772.0,-4.9926635815,-0.17142024199999997,11.323346489,-0.11477983292815508,-0.4887148798386882,0.16069071890186593,12.376358521283729,0.5271035486163579,-0.00598205650000061,0.0550153065,-0.015592573499999318
99782.0,-5.0393432355000005,-0.0385401345,11.464562249,-0.09745918543136335,-0.5345454806668073,0.09354092126063608,12.52328443932912,0.5513502223419715,-0.04667965400000096,0.13288010749999996,0.1412157599999997
99792.0,-5.064448259499999,0.22123802399999998,11.639414818499999,-0.03350857630903913,-0.6496586714820933,0.07062474818195054,12.695414910649173,0.6543447632356364,-0.025105023999998366,0.25977815849999997,0.17485256949999872
99802.0,-5.0968102045,0.5899680639999999,11.8620257735,0.049094366529348496,-0.7988773412106005,0.0967383644502897,12.924132157650412,0.8062093861281654,-0.03236194500000078,0.3687300399999999,0.2226109550000004
99812.0,-5.056112607,0.7060787999999999,11.969800857,0.1410243488903938,-0.9909962039531283,0.17241409548751185,13.013030182194756,1.0157204160359514,0.04069759749999946,0.11611073599999999,0.10777508349999998
99822.0,-5.040520033499999,0.6545938875,12.018834106999998,0.20950408742164334,-1.162864011384766,0.25102023433883247,13.049433269581236,1.2079552266817537,0.015592573500001095,-0.05148491249999987,0.04903324999999903
99832.0,-5.057289405000001,0.6749917195,11.802205208499998,0.22149624471209636,-1.2475997465690907,0.3171036358070938,12.857831766315163,1.306185450042565,-0.016769371500001462,0.020397832000000005,-0.21662889849999978
99842.0,-4.987858322999999,0.5863396035,11.419157459500001,0.16793732595614638,-1.2020344357872745,0.3261636399541963,12.47476179595456,1.256770643473145,0.06943108200000125,-0.088652116,-0.3830477489999975
99852.0,-4.852624619499999,0.26075882349999996,11.0612147345,0.05468989211124232,-0.9638179368410726,0.256083434498868,12.081656850967525,0.998756589515412,0.13523370349999997,-0.32558078000000007,-0.3579427250000009
99862.0,-4.8071217635,-0.22045349199999997,10.742792809,-0.13716368058498238,-0.5622578185299734,0.08448091711353352,11.771347277535925,0.5848801203033381,0.0455028559999997,-0.48121231549999993,-0.31842192549999915
99872.0,-4.5903947985,-0.6634198725,10.5871612735,-0.3868382660705272,-0.10314372280510889,-0.20036728878745302,11.55853944771665,0.44769355821430323,0.21672696499999944,-0.44296638050000003,-0.1556315355000013
99882.0,-4.3677838435,-0.8932877485,10.408778309999999,-0.6032049881110123,0.32506233719618793,-0.5531629077978308,11.323345998947762,0.8806310142782879,0.2226109550000004,-0.22986787600000003,-0.1783829635000007
99892.0,-3.981107634,-0.9938059109999999,10.363275453999998,-0.7404332458783184,0.6426843357911239,-0.9174166133475514,11.146046219072954,1.3427351896480821,0.38667620950000003,-0.1005181624999999,-0.04550285600000059
99902.0,-3.437623091,-0.8118925535,10.2998264285,-0.779338380234524,0.8390687832255259,-1.2494288516251808,10.888656780862927,1.6948383961792801,0.5434845429999999,0.18191335749999993,-0.06344902549999887
99912.0,-2.7516479234999998,-0.40481851199999996,10.2303953465,-0.7449641206164958,0.9301976594599058,-1.50576710419484,10.601718411099618,1.9203056524277353,0.6859751675000001,0.40707404150000004,-0.06943108199999948
99922.0,-1.876600544,-0.000196133,10.175281973499999,-0.6935362488772308,0.9427221421722172,-1.6619129857245127,10.346883244747826,2.032651553505479,0.8750473794999998,0.404622379,-0.055113373000001076
99932.0,-0.9487933875,0.41756715699999997,10.029260954999998,-0.6466392518761431,0.9176749220768465,-1.7117421358689506,10.082690440862313,2.0470297321692428,0.9278071565,0.41776328999999995,-0.14602101850000082
99942.0,-0.1468055505,0.9167256419999998,9.813808854499998,-0.590682250727953,0.857187046190479,-1.6464580951981027,9.857625576426631,1.9479474871579991,0.801987837,0.4991584849999999,-0.2154521005000003
99952.0,0.43982825249999996,1.2184762624999999,9.609144069,-0.5224678022430065,0.7599285736230951,-1.47245924074978,9.69607049442046,1.7374119422459626,0.586633803,0.3017506205,-0.20466478549999856
99962.0,0.722357839,1.2806504235,9.570800067499999,-0.4539863183825051,0.6213686296365172,-1.236106753444708,9.683082168753577,1.4560777647799177,0.2825295865,0.06217416100000017,-0.0383440015000005
99972.0,0.7522681215,0.9479107889999999,9.623461778,-0.38444018367828703,0.39407614647854766,-0.9954904267770137,9.699250423777842,1.1375814053748672,0.02991028250000005,-0.3327396345000001,0.05266171050000068
99982.0,0.655280353,0.4714056655,9.7802701115,-0.32741678635712823,0.03221877799181533,-0.8220238977505493,9.813526333402969,0.8854169018698033,-0.09698776850000002,-0.4765051234999999,0.15680833350000078
99992.0,0.803753034,-0.218099896,9.798216281,-0.24161640032908702,-0.39145640727130415,-0.7306262408113623,9.833546094545595,0.8633836386357374,0.148472681,-0.6895055615,0.017946169500000053
100002.0,1.0288156515,-0.7029406719999999,9.637779487,-0.1352979236146004,-0.799941992054317,-0.7101098954541689,9.71799262570008,1.0781784557336425,0.2250626175,-0.48484077599999986,-0.16043679400000066
100012.0,1.383129916,-0.8154229475,9.243944423,-0.03430793710645254,-1.1439463876223994,-0.7391539195366066,9.382348929951208,1.3624018823640716,0.3543142644999999,-0.11248227550000012,-0.39383506399999924
100022.0,1.999575935,-0.6622430745,8.7519447925,0.034971162222210375,-1.3397950189764392,-0.7695313751675678,9.001855778700422,1.5454618120253043,0.6164460190000001,0.15317987300000002,-0.4919996305000005
100032.0,2.4545064285,-0.025301156999999998,8.297112365499999,0.08186990455255001,-1.3757680001892942,-0.7516784022489178,8.652590107119737,1.5698600867669001,0.4549304934999998,0.6369419175,-0.45483242700000126
100042.0,2.8722697184999997,0.5612345795,7.848163928499999,0.13169730936773613,-1.2944967435701784,-0.6530864981330101,8.376072745484434,1.4558804808266836,0.4177632899999999,0.5865357365,-0.4489484369999994
100052.0,3.3104308404999996,0.7755098819999999,7.574068061,0.17593093393028042,-1.1085057318314027,-0.5012027106367076,8.30222108350973,1.2292033225492998,0.4381611219999999,0.21427530249999993,-0.2740958674999989
100062.0,3.3642693489999997,0.6761685175,7.4818855509999995,0.20710600502940313,-0.7754288427100567,-0.3562478802708226,8.231289298459968,0.8781203446130555,0.05383850850000016,-0.09934136449999997,-0.09218251000000066
100072.0,3.1464636525,0.078845466,7.430400638499999,0.17326581616248507,-0.3736034343526542,-0.2808391846091556,8.069529340217656,0.4984688724709753,-0.2178056964999997,-0.5973230515,-0.05148491250000031
100082.0,2.9310115519999997,-0.29831829299999996,7.503362114499999,0.07360926120286085,0.039947095919646215,-0.3050870439071128,8.061033776334757,0.3163735105333962,-0.2154521005000003,-0.377163759,0.07296147599999969
100092.0,2.7094793284999996,-0.46463907699999996,7.625454907,-0.02897944690011385,0.43138081391067445,-0.3914197553570123,8.105845436605277,0.5832140600470944,-0.22153222350000012,-0.166320784,0.12209279250000105
100102.0,2.600527447,-0.5496627325,7.922400269,-0.09026493825464274,0.7047709332723183,-0.49907166362002253,8.356392651398746,0.8682870221833942,-0.10895188149999946,-0.08502365550000002,0.29694536199999977
100112.0,2.644853505,-0.45993188499999993,8.271909275,-0.0899996482083396,0.8427985518370379,-0.6037914187396823,8.696624083837445,1.0406600852343244,0.04432605799999978,0.08973084750000004,0.3495090060000008
100122.0,2.7777336125,-0.26840801049999996,8.591606064999999,-0.04550073359949217,0.8523908814059986,-0.6855950007806566,9.033467864461446,1.0948429278017993,0.13288010750000012,0.19152387449999997,0.3196967899999983
100132.0,2.878251775,-0.161809725,8.850109359,0.007260569688296411,0.7775145111661899,-0.7367558371443663,9.307789820019282,1.0711632436339915,0.10051816249999979,0.10659828549999997,0.2585032940000005
100142.0,2.9381704065,-0.1534740725,9.058402605,0.02857627584290316,0.6895830781214636,-0.7676656181971859,9.524235264987572,1.0323041831430257,0.059918631499999986,0.008335652499999985,0.2082932460000002
100152.0,3.0913502795,-0.24202812199999998,9.113515978,-0.019919442753011284,0.6179041510713085,-0.8023051678615173,9.62658805827199,1.0128651966022144,0.15317987300000002,-0.08855404949999998,0.055113373000001076
100162.0,3.3080772445,-0.1103248125,9.0608542675,-0.14329153158873448,0.6016498997474853,-0.8545324003981957,9.64648260645842,1.0548652464753527,0.21672696500000033,0.13170330949999998,-0.05266171050000068
100172.0,3.4924422644999997,0.1362143685,9.0177050075,-0.2797204285586272,0.5997841427771033,-0.9134198093604843,9.671334495680641,1.1279717568326035,0.18436501999999955,0.246539181,-0.043149259999999856
100182.0,3.6803376785,0.5672166359999999,9.089587752,-0.34846720246543184,0.539565047595543,-0.9597844809397137,9.82279113293418,1.154879249806481,0.1878954140000002,0.4310022674999999,0.07188274449999987
100192.0,3.9233464654999994,0.9419287324999999,9.16137243,-0.31649277056889574,0.3842167815340317,-0.9747070460442653,10.010525561958499,1.0944606135640893,0.2430087869999995,0.3747120964999999,0.07178467800000021
100202.0,4.1975403995,1.1765038005,9.206875285999999,-0.2221647058156102,0.15985470619016065,-0.9592521555178555,10.18675901010636,0.9975346517624996,0.2741939340000008,0.23457506800000005,0.045502855999998815
100212.0,4.3722949025,1.3226228854999997,9.063207863499999,-0.11184942511405661,-0.051183525643985706,-0.9200817311153467,10.149287205941315,0.9282674394418382,0.17475450299999995,0.14611908499999982,-0.14366742250000009
100222.0,4.458495355999999,1.413530531,8.8848249,-0.04683241981876385,-0.15243880219843672,-0.8593285651826761,10.040735177525734,0.874000255663974,0.08620045349999916,0.09090764550000019,-0.17838296349999894
100232.0,4.495564493,1.4399104194999999,8.616711088999999,-0.04550073359949217,-0.13005669987086146,-0.7807224263313556,9.825026825317199,0.7927878460951014,0.037069137000000474,0.02637988849999995,-0.268113811000001
100242.0,4.5578367205,1.4267695085,8.474220464499998,-0.0713473144922762,0.00930435024238177,-0.6938556441303457,9.727381933597247,0.6975762790621751,0.06227222750000028,-0.01314091099999981,-0.1424906245000006
100252.0,4.5219443815,1.410000137,8.585525942,-0.10598686415660766,0.19183088341594876,-0.6115179913382612,9.805474852166745,0.6496049237315527,-0.035892339000000106,-0.01676937150000013,0.11130547750000197
100262.0,4.436920725999999,1.432751565,8.905222731999999,-0.11424750750629681,0.3229295448502508,-0.5411724958366299,10.05196669723631,0.640471431180688,-0.08502365550000057,0.022751428000000073,0.3196967899999983
100272.0,4.196265535,1.490218534,9.246396085499999,-0.07507708310378808,0.38954527174037035,-0.4628316470316123,10.262808401663536,0.609586106006893,-0.2406551909999992,0.057466969000000034,0.34117335350000033
100282.0,3.8862773284999994,1.436281959,9.43791996,-0.03457497248200767,0.40579952306419353,-0.37383381781391745,10.30729792482629,0.5528294537943756,-0.3099882065000008,-0.05393657500000004,0.1915238745000014
100292.0,3.5594216839999997,1.364497281,9.485776412,-0.024982642913046832,0.4231201705609853,-0.2885657572077345,10.223076332143929,0.5127621353174894,-0.3268556444999997,-0.07178467799999999,0.04785645199999955
100302.0,3.213443072,1.2651559165000001,9.53010247,-0.05322730619807107,0.48547205808848276,-0.20995961835641386,10.136552123811125,0.531600702266411,-0.3459786119999997,-0.09934136449999986,0.044326057999999335
100312.0,2.8710929204999998,1.1070727185,9.5970818895,-0.11851134686891895,0.5502220280082204,-0.1449426130611211,10.078331476785287,0.5812035620358412,-0.34235015150000025,-0.15808319800000015,0.06697941950000086
100322.0,2.5682635685,1.0148902085,9.78507537,-0.17207026562486896,0.5766026796521148,-0.09085136888331283,10.167284784502407,0.6085497495868222,-0.30282935199999983,-0.09218251,0.18799348049999942
100332.0,2.2366026655,0.8018897704999999,10.049658787,-0.17686643040934935,0.5182475961116842,-0.03755774017366598,10.326715858513808,0.548883310848706,-0.33166090299999995,-0.21300043800000013,0.26458341700000076
100342.0,1.948189089,0.566039838,10.33817043,-0.13583024903645868,0.351175953464527,0.01946565714749276,10.535350476582547,0.3770322514761963,-0.2884135765,-0.23584993249999986,0.28851164299999965
100352.0,1.729108528,0.4092315045,10.389557275999998,-0.08893325203537107,0.14493388641486113,0.06502922260005672,10.540407350627497,0.18205426262757604,-0.21908056099999995,-0.1568083335,0.05138684599999799
100362.0,1.5208152819999998,0.360100188,10.223236492,-0.07827452629344168,-0.03492927432016252,0.0975377252477031,10.342007331206203,0.1298482326313773,-0.2082932460000002,-0.04913131650000002,-0.16632078399999806
100372.0,1.4560913919999998,0.334995164,9.9538478165,-0.11184942511405661,-0.1583013631558857,0.1332436710850031,10.065361903866235,0.2352094627338897,-0.06472389,-0.025105023999999976,-0.2693886755000001
100382.0,1.4848248764999998,0.300279623,9.670141432,-0.15821409669328595,-0.20786347792476867,0.17641089947457886,9.788079897546059,0.3152137866605507,0.028733484500000017,-0.034715541000000016,-0.2837063845000003
100392.0,1.4693303694999997,0.22368968649999998,9.372117338499999,-0.1909878893872355,-0.21825516829114291,0.22863813201125716,9.489233489444434,0.36930622495157467,-0.015494507000000102,-0.07658993650000001,-0.2980240935000005
100402.0,1.3615552859999998,0.15896579649999998,9.142249462499999,-0.17286962642228235,-0.20786347792476867,0.28512745858130567,9.24444850469042,0.3929234032625118,-0.10777508349999998,-0.06472389,-0.22986787600000014
100412.0,1.1939596375,0.17220477399999998,8.9147351825,-0.10838494654884787,-0.16762665734929139,0.3376217264935391,8.995982296240406,0.39221731615645355,-0.16759564849999986,0.013238977499999999,-0.2275142799999994
100422.0,0.9174121074999999,0.18534568499999998,8.8105885595,-0.02977880769752725,-0.08529074988645889,0.38265296652424474,8.860161892580066,0.39317245859022926,-0.27654753,0.013140911000000005,-0.1041466230000001
100432.0,0.598990182,-0.024124358999999998,8.850109359,0.028310985796600022,0.021827087625441083,0.40503681418107207,8.870389331313984,0.40661130642535787,-0.3184219254999999,-0.20947004399999997,0.03952079949999998
100442.0,0.33440676499999994,-0.29468983249999997,9.11233918,0.06161884924165981,0.13347579987551833,0.3919800060469025,9.123233818839662,0.4186418479736653,-0.26458341700000004,-0.2705654735,0.26222982100000003
100452.0,0.030400614999999995,-0.4898421675,9.439096758,0.08000414758216808,0.20808513473977194,0.35254254626883863,9.451847287876566,0.41711669093880027,-0.3040061499999999,-0.195152335,0.3267575780000005
100462.0,-0.15631800099999998,-0.6071297015,9.825772967499999,0.09119519874595572,0.22114194287394154,0.2928557765091365,9.845753206369427,0.37813334818175626,-0.18671861599999998,-0.11728753400000003,0.38667620949999915
100472.0,-0.34911674,-0.5700605645,10.1490001515,0.09359328113819591,0.18063983225216113,0.22783877121384377,10.170990886855288,0.30545205342006876,-0.192798739,0.03706913700000003,0.3232271840000003
100482.0,-0.4376707895,-0.5496627325,10.45781156,0.05389053131382891,0.10816154440459258,0.1636211267159644,10.481388622885355,0.20340841221806708,-0.08855404950000001,0.020397832000000005,0.30881140850000044
100492.0,-0.34195788549999995,-0.390500803,10.4973323595,0.0328401152055253,0.04394389990671323,0.12818221625421955,10.510157598171642,0.13942818965175913,0.09571290400000004,0.15916192949999997,0.03952079949999998
100502.0,-0.23055434149999998,-0.3174412605,10.388380478,0.012056734472776828,-0.02213950156154807,0.10899581178704588,10.39578632013682,0.11187318428764761,0.11140354399999997,0.07305954250000002,-0.10895188149999946
100512.0,-0.1275845165,-0.20966617699999998,10.271092944,-0.014323917171117462,-0.08635540073017543,0.12205261992121547,10.274024916210536,0.15019744294769768,0.10296982499999999,0.10777508350000001,-0.1172875340000008
100522.0,-0.1958388005,-0.010983447999999998,10.209997514500001,-0.05375963161992934,-0.12925733907344805,0.1428377459832159,10.211881448489669,0.20000044843405862,-0.068254284,0.19868272899999997,-0.06109542949999813
100532.0,-0.3227368515,-0.012160246,10.087904722,-0.07640876932305976,-0.16496328491074805,0.17401281708233865,10.093073299399386,0.25165779524374093,-0.12689805099999998,-0.0011767980000000015,-0.12209279250000193
100542.0,-0.41374256349999994,-0.105519554,9.985032963499998,-0.058555796404409756,-0.1908098658035321,0.19746131558288246,9.994158322105443,0.2807635256443388,-0.09100571199999996,-0.093359308,-0.10287175850000096
100552.0,-0.5502511314999999,-0.24202812199999998,9.9897401555,-0.015655603390389135,-0.2110609211144223,0.1993270725532644,10.00781006484261,0.29072855413914866,-0.136508568,-0.136508568,0.00470719200000147
100562.0,-0.5944791229999999,-0.40599530999999994,10.029260954999998,0.013655456067603634,-0.23317773339569442,0.18680258984095308,10.055064043700186,0.299087837270684,-0.04422799150000001,-0.16396718799999996,0.039520799499998205
100572.0,-0.510730332,-0.5735909585,10.0616229,0.010458012877950023,-0.250231345516931,0.1620224051211376,10.090892301551046,0.2982890478609751,0.08374879099999999,-0.16759564850000003,0.03236194500000167
100582.0,-0.35392199849999995,-0.6861713005,10.0483839225,-0.015655603390389135,-0.2510307063143444,0.12285198071862886,10.07800135387015,0.2799180640771262,0.1568083335,-0.112580342,-0.01323897750000036
100592.0,-0.2629162865,-0.645473703,9.945512163999998,-0.044699627472826776,-0.2369075020072063,0.08474795248908866,9.969903383646374,0.2555492841989521,0.09100571199999996,0.040697597500000016,-0.10287175850000096
100602.0,-0.2150598345,-0.291061372,9.867647362999998,-0.058555796404409756,-0.21559005052334757,0.058102010798891233,9.874281337657262,0.23083261215887307,0.047856451999999994,0.35441233099999997,-0.07786480100000048
100612.0,-0.22574908299999996,0.046483521,9.795862685,-0.05322730619807107,-0.17268985750932692,0.06556329335116699,9.798573830388548,0.1922328755617676,-0.01068924849999997,0.337544893,-0.07178467799999844
