timestamp,ax,ay,az,gx,gy,gz,acc_mag,gyro_mag,dax,day,daz
55522.0,-3.549615034,2.4677454059999997,10.201465728999999,0.2394975706171659,0.27137251874633833,-0.12263555989138157,11.079685794208896,0.38215390984802017,0.0,0.0,0.0
55532.0,-3.170097679,2.0942101075,10.722198844000001,0.20032714621465716,0.19916126627432493,-0.1695343022217212,11.375446510754262,0.3294511422416184,0.37951735499999995,-0.3735352984999998,0.5207331150000023
55542.0,-3.111453912,2.0930333095,11.039443971499999,0.15582823160580972,0.15945851644995793,-0.21110106368721815,11.658956088821345,0.3070392732594485,0.05864376699999996,-0.0011767979999999234,0.3172451274999979
55552.0,-3.2467856819999996,2.3229011854999997,11.2512676115,0.12864996449375402,0.10536552694289768,-0.23295084059293514,11.938530481094665,0.28621460788218644,-0.13533176999999963,0.2298678759999997,0.21182364000000042
55562.0,-3.237175165,2.3576167265,11.333937671,0.09480803029758397,0.07472278126563323,-0.2534689312793805,12.020640698734748,0.28074642610884754,0.009610516999999597,0.03471554100000018,0.08267005949999984
55572.0,-3.3544626989999995,2.4282246064999997,11.385422583499999,0.04897742946946488,0.04754451415357753,-0.2766521397336212,12.11513690155692,0.28494854946591186,-0.11728753399999947,0.07060787999999985,0.051484912499999425
55582.0,-3.501758582,2.5311944315,11.4105276075,0.006609561877302526,-0.006281439977927592,-0.2931716811037475,12.20120480518981,0.2933134456474909,-0.1472958830000004,0.10296982500000018,0.02510502400000192
55592.0,-3.467043041,2.4881432379999997,11.335114469,-0.03522598029300155,-0.08195717101514972,-0.30969296780312583,12.11181506820034,0.3222849389517254,0.03471554099999974,-0.043051193500000196,-0.07541313850000009
55602.0,-3.413106466,2.44381718,11.178306135499998,-0.06986552995733301,-0.16482714922909247,-0.31981762279394493,11.940522024454,0.36651397415211684,0.053936575000000264,-0.04432605799999978,-0.15680833350000256
55612.0,-3.2874832794999995,2.3672272435,10.907740661999998,-0.08505338510818766,-0.2421016018611414,-0.31315744636833454,11.635725911382103,0.4048639897027502,0.12562318650000037,-0.07658993650000001,-0.2705654734999996
55622.0,-3.1079235179999998,2.2511165075,10.676695987999999,-0.08265530271594747,-0.28100499088809505,-0.2894419124922356,11.345419839928875,0.41179160345767896,0.17955976149999975,-0.11611073599999999,-0.23104467399999962
55632.0,-3.0121125474999997,2.201985191,10.5187108565,-0.07572809091478196,-0.28180435168550844,-0.26306126084834136,11.160861922935934,0.39287359715512354,0.09581097050000009,-0.04913131650000002,-0.1579851314999985
55642.0,-3.0431996279999995,2.1157847375,10.442120919999999,-0.08238826734039233,-0.2495611390841652,-0.24094619389632116,11.080410567266851,0.35654404649280236,-0.031087080499999864,-0.08620045350000005,-0.07658993650000134
55652.0,-3.142639059,2.0128149124999997,10.421723088,-0.10344042877794793,-0.20746030686755798,-0.2302874681543918,11.069774896089218,0.3267598800653273,-0.09943943100000041,-0.10296982500000018,-0.020397831999998672
55662.0,-3.2072648825,1.8548297809999998,10.389361143,-0.14101038625637788,-0.1650924392753956,-0.24360956633486455,11.030220600816673,0.32632049176834393,-0.06462582350000012,-0.15798513149999982,-0.03236194499999989
55672.0,-3.249139278,1.6633059065,10.317576465,-0.18924081480598917,-0.11126823047314251,-0.2865097593488852,10.94421658674398,0.3609439669854798,-0.04187439549999983,-0.19152387449999986,-0.07178467800000021
55682.0,-3.261103391,1.553177227,10.191855211999998,-0.23826885882376186,-0.04251971123708585,-0.34406722742115414,10.813004554129932,0.4206687912290893,-0.011964112999999887,-0.11012867950000005,-0.1257212530000018
55692.0,-3.2994473925,1.5747518569999999,10.145175558,-0.27291015381734535,0.02356194490192345,-0.40188824021047426,10.783820455183804,0.4863633157667632,-0.03834400150000006,0.021574629999999928,-0.046679653999998294
55702.0,-3.2898368755,1.5579824855,10.177537503,-0.2843682403566881,0.07152533807597962,-0.450918029557499,10.80891325330608,0.5378738137244272,0.00961051700000004,-0.016769371499999908,0.03236194499999989
55712.0,-3.1868670504999996,1.5100279669999999,10.2757020695,-0.2819701579644479,0.09417447577911003,-0.484758218424417,10.863993698443096,0.5686532618395683,0.10296982500000018,-0.0479545185000001,0.0981645664999995
55722.0,-3.111453912,1.5591592834999999,10.402600120499999,-0.26917863987658147,0.06806085951077087,-0.4999478189045237,10.969330534943822,0.5718717009876793,0.07541313849999964,0.04913131650000002,0.1268980509999995
55732.0,-3.0360407734999995,1.5842643074999998,10.460067089499999,-0.2606527064805892,0.006775368156241987,-0.490620779381866,11.006381807443075,0.5556028151211785,0.07541313850000053,0.02510502399999992,0.057466969000000034
55742.0,-2.99298958,1.6129977919999998,10.4061305145,-0.256388867117967,-0.04971395841380648,-0.47463356343359797,10.947479197869868,0.5417414036058897,0.04305119349999931,0.028733484500000017,-0.05393657499999982
55752.0,-2.9247352959999997,1.575928655,10.327186981999999,-0.25212502775534484,-0.08382118265627966,-0.4615767552994284,10.848429316657253,0.5325843795261734,0.06825428400000044,-0.03706913699999981,-0.0789435325000003
55762.0,-2.8708967875,1.4454021435,10.213429841999998,-0.25878694951020725,-0.08781973197259868,-0.45731291593680623,10.707258512727165,0.5327458058428635,0.053838508499999715,-0.13052651150000005,-0.11375714000000059
55772.0,-2.8504989554999995,1.2885938099999998,10.061426766999999,-0.28010440099406597,-0.055843554746810575,-0.4756982142773145,10.536513981871849,0.5548565302216695,0.02039783200000045,-0.15680833350000012,-0.15200307499999965
55782.0,-2.8169602124999997,1.1641474214999998,9.950023223,-0.30355289949460973,0.0006457718232379018,-0.5209982350128273,10.40641466577382,0.6029792207856863,0.033538742999999815,-0.1244463885,-0.11140354399999808
55792.0,-2.7822446715,1.057549136,9.9057952315,-0.3080820289035351,0.07152533807597962,-0.5777545969584309,10.343310628399045,0.6586583217623541,0.03471554099999974,-0.10659828549999983,-0.044227991499999675
55802.0,-2.704477937,0.9977285709999999,9.9081488275,-0.30435226029202317,0.13867339038795745,-0.6361096804988613,10.318966828176118,0.7186766541156863,0.07776673449999993,-0.0598205650000001,0.0023535959999989586
55812.0,-2.626613136,1.0299924495,9.960810537999999,-0.3011548171023696,0.19756254467949813,-0.6965958110559768,10.35266765554495,0.7842008077686062,0.07786480100000004,0.03226387850000001,0.052661710499998904
55822.0,-2.5129540624999995,1.0480366855,10.043480597499999,-0.2910284167822985,0.22181040397745536,-0.7472243219978284,10.405999304571763,0.832010566082287,0.11365907350000048,0.018044236000000158,0.08267005949999984
55832.0,-2.3465352119999996,0.9929233125,10.1021243645,-0.2683792790791681,0.20795423504587235,-0.7730709028906124,10.41849513516642,0.8443405842482491,0.16641885049999994,-0.05511337300000008,0.05864376700000129
55842.0,-2.1681522484999998,0.9605613674999999,10.1499808165,-0.2329403686174232,0.17118189303560383,-0.7885257934170221,10.423323504944431,0.8398436656418968,0.17838296349999982,-0.032361945000000114,0.04785645199999955
55852.0,-2.0077154545,0.9474204565,10.199112132999998,-0.19590273656085153,0.12428489603451622,-0.80211492697305,10.437931556067063,0.8349927985601565,0.16043679399999977,-0.013140910999999922,0.04913131649999869
55862.0,-1.9095508879999998,1.001258965,10.261286294,-0.15486655518796086,0.07179237345153476,-0.8085098133523572,10.485366017277924,0.8263328101247426,0.09816456650000016,0.05383850849999994,0.062174161000001504
55872.0,-1.8221736364999999,1.009692684,10.319930060999999,-0.11942764472621599,0.033953635268297686,-0.8125066173394242,10.528093490352857,0.8219384495770576,0.08737725149999997,0.008433719000000117,0.058643766999999514
55882.0,-1.800697073,0.9892948519999999,10.360627658499999,-0.10770252281131808,0.020364501712269837,-0.8165051666557432,10.56237756052015,0.8238296143775329,0.021476563499999823,-0.020397832000000116,0.04069759749999946
55892.0,-1.7791224429999999,0.9833127955,10.354645601999998,-0.11916060935066085,0.027558748888990462,-0.8303595902580742,10.552291991032005,0.8393186430639462,0.02157463000000015,-0.005982056499999944,-0.00598205650000061
55902.0,-1.7096913609999997,0.9653666259999999,10.3474867475,-0.14394253939972831,0.04408003558836879,-0.8503453555226613,10.532115611887328,0.8635680215508651,0.06943108200000014,-0.017946169500000053,-0.007158854499998313
55912.0,-1.5959342209999998,0.9198637699999999,10.280507327999999,-0.18124720683185516,0.07179237345153476,-0.875659610993587,10.444232203191348,0.8970977924371423,0.11375713999999992,-0.045502856000000036,-0.06697941950000086
55922.0,-1.4726646305,0.9593845695,10.1631217275,-0.2174854780910134,0.10430087609918114,-0.8999074702915442,10.313980953739588,0.931671648716467,0.12326959049999986,0.03952079950000009,-0.11738560049999869
55932.0,-1.3085993759999999,1.070690047,10.055444710499998,-0.2499939807386598,0.13281257475976052,-0.9110985214553319,10.196606191745117,0.9540632506380121,0.1640652545000001,0.11130547750000008,-0.1076770170000021
55942.0,-1.1158987034999999,1.1449263875,9.9968009435,-0.2555895063205536,0.14746810448875688,-0.8943119447096504,10.12383896815972,0.9417359991170816,0.1927006725,0.07423634049999994,-0.05864376699999774
55952.0,-0.980665,1.159342163,9.950023223,-0.23400676479039173,0.1482674652861703,-0.853542798712315,10.065224301096018,0.8973726742350152,0.13523370349999986,0.014415775500000061,-0.04677772049999973
55962.0,-0.9099590535,1.1221749595,9.916582546499999,-0.20096419139163507,0.15252955931954043,-0.80211492697305,10.021272949098027,0.8408568420134834,0.07070594650000006,-0.037167203500000134,-0.03344067650000149
55972.0,-0.9974343714999999,1.113839307,9.984738764,-0.17325359885772113,0.15759275947957602,-0.752552812204167,10.096064654735136,0.7881548214113392,-0.08747531799999997,-0.008335652500000013,0.06815621750000034
55982.0,-1.167383616,1.05519554,10.0817265325,-0.16392655933506342,0.1599908418718162,-0.714715819350182,10.20379498082236,0.7505249421356271,-0.16994924450000004,-0.05864376699999996,0.09698776850000002
55992.0,-1.293104869,0.9306510849999999,10.158316468999999,-0.18098017145630002,0.1599908418718162,-0.7096526191901464,10.282491192731447,0.7496384007417438,-0.12572125300000003,-0.124544455,0.07658993649999957
56002.0,-1.4044103465,0.8420970354999999,10.073390879999998,-0.2156197211206315,0.16985020681633217,-0.7376319924288675,10.205620983547316,0.7870463221096141,-0.11130547749999997,-0.08855404950000001,-0.08492558900000091
56012.0,-1.4163744594999998,0.8205224054999999,9.995526079,-0.25106037691162836,0.2026257448395337,-0.7914562012311206,10.128667988606425,0.8546879101718831,-0.011964112999999887,-0.02157463000000004,-0.0778648009999987
56022.0,-1.3936230314999998,0.7882585269999999,9.8614691735,-0.2798373656185108,0.2556505928443734,-0.8476802377548659,9.990601129021528,0.9285623093245459,0.022751428000000073,-0.03226387850000001,-0.1340569054999996
56032.0,-1.338607725,0.7750195495,9.7584993485,-0.29422760530120406,0.30494741756695326,-0.8948442701315087,9.880325676728058,0.9901055898181907,0.05501530649999986,-0.013238977499999915,-0.10296982500000063
56042.0,-1.2524072714999999,0.7798248079999999,9.665140040499999,-0.2944928953475072,0.35184441456804083,-0.9225566079946748,9.777094798934632,1.0303549157584124,0.08620045350000005,0.004805258499999909,-0.09335930800000014
56052.0,-1.2308326415,0.8062046965,9.649547467,-0.28170312258889274,0.3931458859872347,-0.9268204473572967,9.761079926008527,1.04542645775999,0.021574629999999928,0.02637988850000017,-0.015592573499999318
56062.0,-1.2404431584999998,0.8073814945,9.619637184499998,-0.2534584593038685,0.4027382155561955,-0.90736875284382,9.732830198279716,1.0245766513538306,-0.009610516999999819,0.0011767979999999234,-0.029910282500001273
56072.0,-1.236814698,0.7869836625,9.56344508,-0.21641908191804488,0.38275419562086044,-0.8671319322683427,9.675150421590713,0.9722426555356698,0.003628460499999653,-0.020397832000000005,-0.05619210449999912
56082.0,-1.3158562969999998,0.8013994379999999,9.624442443,-0.1721872026847526,0.3489122614246904,-0.8210342960646686,9.746979593299715,0.9085623337203108,-0.07904159899999974,0.01441577549999995,0.06099736300000025
56092.0,-1.431967033,0.7259862994999999,9.6878914685,-0.12742125270035,0.30174997437729967,-0.7797328246454748,9.820021730938054,0.845737843841718,-0.11611073600000021,-0.07541313849999998,0.06344902550000064
56102.0,-1.6246677055,0.63743225,9.8147895195,-0.09517978542825878,0.2353995375334832,-0.7653443302920334,9.968749085954654,0.8063647299673444,-0.1927006725,-0.0885540494999999,0.1268980509999995
56112.0,-1.829332491,0.5165162555,9.900989973,-0.07652745171219535,0.16265595963961155,-0.7935889935770576,10.081807816570922,0.8136933714849178,-0.2046647854999999,-0.12091599450000001,0.08620045350000005
56122.0,-1.8580659755,0.48415431049999996,9.9046184335,-0.06986552995733301,0.10083639753397239,-0.867666003019453,10.08901783519657,0.8762953064690018,-0.028733484500000017,-0.03236194500000006,0.003628460499999875
56132.0,-1.7754939824999998,0.557213853,9.8363641495,-0.06799977298695108,0.06033428691219198,-0.9481361535119035,10.01084041634056,0.952484310054411,0.08257199300000018,0.07305954250000007,-0.068254284
56142.0,-1.6485959315,0.674501387,9.680732614,-0.06799977298695108,0.04647811798060899,-1.000630421424137,9.843241570244354,1.004014653706181,0.12689805099999973,0.11728753399999992,-0.15563153549999953
56152.0,-1.3804821205,0.7882585269999999,9.540693652,-0.06799977298695108,0.05127428276508942,-1.0168846727479601,9.672224033371098,1.0204447358231004,0.2681138110000001,0.11375713999999992,-0.1400389620000002
56162.0,-1.191311842,1.009692684,9.425759714,-0.06107256118578558,0.05873556531736517,-0.9859748916951406,9.554247715392243,0.9896091205199082,0.1891702785,0.22143415700000013,-0.11493393800000007
56172.0,-1.003416428,0.9929233125,9.4089903425,-0.0581404080424351,0.05953492611477857,-0.923088933416533,9.514296637048085,0.9268321819352765,0.18789541399999998,-0.01676937150000002,-0.016769371500000574
56182.0,-0.8848540295,1.0264620555,9.289251146,-0.05547703560389176,0.054738761330298154,-0.8260974962247041,9.387586370221367,0.8297656938799626,0.11856239849999994,0.033538742999999926,-0.11973919649999942
56192.0,-0.8572973429999999,1.0384261685,9.17314041,-0.04135383129675365,0.04514643176133732,-0.7136494231772134,9.271450405590024,0.7162707859914927,0.027556686500000094,0.01196411300000011,-0.11611073599999955
56202.0,-0.8549437469999999,1.0037106274999998,9.126460756,0.0031450833120937817,0.03182258825161261,-0.5934747775311439,9.221206524370817,0.594335662936116,0.002353596000000069,-0.03471554100000018,-0.04667965400000007
56212.0,-0.938692538,0.9354563435,9.1228322955,0.07082720637518188,0.019032815492998165,-0.48635694001924384,9.21858402051579,0.4918554811460227,-0.0837487910000001,-0.06825428399999989,-0.003628460499999875
56222.0,-1.1697372119999998,0.7750195495,9.297684865,0.13717589788974632,0.00944048592403733,-0.41414568754723047,9.40297209908095,0.43637483915815806,-0.23104467399999984,-0.160436794,0.1748525695000005
56232.0,-1.4570720569999998,0.571531562,9.5586398215,0.17368120452445973,-0.02413441289657759,-0.40455335797826963,9.685933230351008,0.4409206846388857,-0.28733484499999995,-0.20348798749999997,0.2609549564999991
56242.0,-1.6090751319999999,0.4949416255,9.697501985499999,0.17981080085746382,-0.08142310026403946,-0.4533161119497392,9.84254208788816,0.49442607406450445,-0.1520030750000001,-0.07658993650000001,0.13886216399999896
56252.0,-1.5887753664999997,0.582318877,9.774091922,0.18220888324970402,-0.14590778013747396,-0.5228622466539572,9.919484630736287,0.5726029046518829,0.020299765500000122,0.08737725149999997,0.07658993650000134
56262.0,-1.4032335484999998,0.7331451539999999,9.830382093,0.196065052181287,-0.21598798559280227,-0.5596345886642258,9.957056708829404,0.6310968130458785,0.18554181799999991,0.15082627699999995,0.056290171000000555
56272.0,-1.1685604139999999,1.000082167,9.820771576,0.2245750055126144,-0.27567475535250435,-0.5505745845171233,9.940485507755081,0.6554104644845524,0.23467313449999994,0.26693701300000006,-0.009610517000000485
56282.0,-0.9758597415,1.1090340484999999,9.867451229999999,0.2528214141268906,-0.3039194186375286,-0.5076743915031026,9.977417127305104,0.6434430575071423,0.1927006724999999,0.1089518814999999,0.046679653999998294
56292.0,-0.8345459149999999,1.1186445655,9.9046184335,0.24722588854499677,-0.3015213362452884,-0.4666399554594639,10.002464639347338,0.6081024619331992,0.14131382650000013,0.00961051700000004,0.03716720350000102
56302.0,-0.7735485520000001,1.100698396,9.920112940500001,0.20219290318503907,-0.2671488219565121,-0.4373288960014711,10.010921789402504,0.5509147179455386,0.060997362999999805,-0.01794616949999983,0.015494507000001434
56312.0,-0.7459918655,0.9485972544999999,9.887849062,0.12198804273889166,-0.19999902431528221,-0.4298676134491954,9.961219789138848,0.489557818230735,0.027556686500000094,-0.1521011415000002,-0.03226387850000023
56322.0,-0.810617689,0.7248095015,9.8483282625,0.02606125639077933,-0.10647206568866208,-0.45518186892012114,9.908179419910635,0.46819442932428307,-0.06462582350000001,-0.22378775299999987,-0.03952079949999998
56332.0,-0.9016234009999999,0.5931061919999999,9.714271357,-0.06160488660764385,-0.009211847792026072,-0.5119382308657248,9.774035385123698,0.5157138474150293,-0.09100571199999996,-0.1317033095000001,-0.13405690550000138
56342.0,-1.0093984845,0.546426538,9.6268941055,-0.11356508376876703,0.08511447163200746,-0.582016690991801,9.695079029097814,0.5990700544390851,-0.10777508349999998,-0.04667965399999996,-0.08737725149999953
56352.0,-1.0596085325,0.549956932,9.6388582185,-0.12022700552362939,0.1562610732603043,-0.6470336962870938,9.712507947257837,0.6764056918777223,-0.05021004800000006,0.0035303939999999923,0.011964112999999443
56362.0,-1.1027577924999998,0.5392676835,9.705837638,-0.10130763643201086,0.20902063121884093,-0.7035247681863942,9.783157396188837,0.74087783130978,-0.043149259999999856,-0.01068924849999997,0.06697941950000086
56372.0,-1.088342017,0.5786904165,9.817143115499999,-0.08052425569926237,0.24179442391279043,-0.7541515337989938,9.89422406731956,0.7960485130459156,0.014415775499999839,0.03942273299999999,0.11130547749999842
56382.0,-1.0488212175,0.651749959,9.9560052795,-0.0759933809610851,0.24179442391279043,-0.7858606756492268,10.032290121441193,0.8257218290181471,0.03952079949999998,0.07305954250000002,0.13886216400000073
56392.0,-0.9890006524999999,0.734321952,10.007490192,-0.08851786367339641,0.22500784716710895,-0.7965194013911562,10.083015965613201,0.8324104157617231,0.0598205650000001,0.08257199299999995,0.0514849125000012
56402.0,-0.938692538,0.7607018405,9.968067458999998,-0.10184170718312112,0.19436510148984454,-0.7911909111848174,10.041024840035586,0.8210557739524105,0.050308114499999945,0.02637988850000006,-0.0394227330000021
56412.0,-0.9579135719999999,0.769037493,9.903343568999999,-0.10184170718312112,0.16958317144077703,-0.7722715420931989,9.97923999725005,0.7972035625139241,-0.01922103399999997,0.008335652500000013,-0.06472388999999978
56422.0,-1.0345035084999998,0.672147791,9.823223238499999,-0.09837722861791237,0.19143294834649405,-0.7528198475797222,9.900388626485901,0.7829829983678628,-0.0765899364999999,-0.09688970200000002,-0.08012033049999978
56432.0,-1.0800063645,0.546426538,9.744181639499999,-0.11543084073914897,0.25485123204696003,-0.7712051459202304,9.819066734285904,0.8203845479794485,-0.04550285600000015,-0.12572125300000003,-0.07904159899999996
56442.0,-1.167383616,0.537992819,9.835187351499998,-0.1375476530204211,0.3403863280286981,-0.8157058058583299,9.918827098972255,0.894515606834936,-0.08737725149999997,-0.008433719000000006,0.0910057119999994
56452.0,-1.14345539,0.5775136184999999,9.98120837,-0.1466059118382717,0.40140652933692383,-0.8708634462091066,10.063077696899247,0.9700637283825466,0.023928225999999997,0.03952079949999998,0.14602101850000082
56462.0,-1.039308767,0.6673425325,10.145175558,-0.14793934338679535,0.4328486358116017,-0.9220242825728164,10.220082967935593,1.0292583584793458,0.10414662299999988,0.08982891400000004,0.16396718800000087
56472.0,-0.938692538,0.8313097205,10.3008070935,-0.155133590563516,0.4232563062426409,-0.9489355143093169,10.376841827347787,1.0505669621746063,0.10061622900000011,0.16396718799999999,0.15563153549999953
56482.0,-0.7878662609999999,0.9618362319999999,10.366707781499999,-0.18817441863302062,0.40300525093175066,-0.9558644714397345,10.44100054637594,1.054276876284025,0.15082627700000006,0.13052651149999994,0.06590068799999926
56492.0,-0.5843782734999999,1.067159653,10.355920466499999,-0.2641171850457979,0.40806845109178624,-0.9420083025081515,10.427148047285197,1.0600270705068124,0.20348798749999997,0.10532342100000014,-0.010787314999999964
56502.0,-0.359315656,1.2430909540000001,10.292471440999998,-0.3789615951562768,0.4499022479328383,-0.9047036350760247,10.373492720601096,1.0791258455890045,0.22506261749999995,0.1759313010000001,-0.06344902550000064
56512.0,-0.162986523,1.262311988,10.188324818,-0.5172562490965515,0.5165179748229579,-0.83595686116922,10.26751960109173,1.110481300734298,0.196329133,0.01922103399999986,-0.10414662299999833
56522.0,-0.0038245934999999996,1.146201252,10.132034647,-0.657147879302401,0.5836660271349358,-0.7301707098765918,10.196662102159227,1.1426542049390134,0.1591619295,-0.11611073599999999,-0.056290171000000555
56532.0,-0.11150161049999999,0.9725254804999999,10.167926986,-0.7256293631629025,0.604184117821381,-0.6094637388086639,10.214938943135827,1.123842724688128,-0.10767701699999999,-0.17367577150000013,0.035892339000000106
56542.0,-0.30430034949999996,0.710393726,10.276878867499999,-0.6598129970701962,0.5071909353003001,-0.4967486303856181,10.305896234967342,0.9692033005224113,-0.19279873899999997,-0.2621317544999999,0.10895188149999946
56552.0,-0.5388754175,0.46022608449999997,10.366707781499999,-0.49513943681527933,0.34305144579649344,-0.42507144866471497,10.390901067349867,0.7372469686765324,-0.23457506800000005,-0.2501676415,0.08982891399999993
56562.0,-0.705294268,0.20407638649999998,10.480366855,-0.3163426722532242,0.15972555182551307,-0.407218475746065,10.506054282716377,0.5398257359400569,-0.16641885049999994,-0.256149698,0.11365907350000093
56572.0,-0.750797124,0.19564266749999998,10.5522495995,-0.1839105792703985,0.00757472895365539,-0.43093400962216394,10.580734567358785,0.46859854709050275,-0.045502856000000036,-0.008433719000000006,0.07188274449999987
56582.0,-0.6885248964999999,0.31057660549999994,10.516259194,-0.1116993267983851,-0.08142310026403946,-0.4527837865278809,10.543350122061478,0.47341273557683883,0.062272227500000055,0.11493393799999996,-0.03599040549999977
56592.0,-0.495824224,0.43747465649999995,10.4528101685,-0.09358106383343195,-0.1067373557349652,-0.4474535509922902,10.473703554850212,0.46943046227646906,0.19270067249999995,0.126898051,-0.06344902550000064
56602.0,-0.287530978,0.570354764,10.3139480045,-0.09571211085011704,-0.07369652766546057,-0.4048203933538248,10.333707082149013,0.4224589177996797,0.208293246,0.1328801075,-0.13886216399999896
56612.0,-0.195348468,0.7259862994999999,10.104477960499999,-0.1007753110101526,0.006775368156241987,-0.32514785832953563,10.132408005269125,0.34047422618919243,0.09218251,0.15563153549999997,-0.20947004400000147
56622.0,-0.287530978,0.7738427514999999,10.049462654,-0.10130763643201086,0.10136872295583066,-0.21803002081763564,10.083313260109469,0.2609136737905376,-0.09218251,0.047856451999999994,-0.05501530649999964
56632.0,-0.48621370699999994,0.6648908699999999,10.088885387,-0.07705977713405363,0.1554617124628909,-0.11810643048245628,10.122454840102087,0.20989445494141062,-0.19868272899999995,-0.10895188150000001,0.03942273300000032
56642.0,-0.7220636395,0.48180071449999995,10.226570753,-0.017638297420654692,0.18210765415308833,-0.050424307419368174,10.263345321779624,0.1897812372595438,-0.23584993250000003,-0.18309015549999996,0.13768536600000125
56652.0,-0.996159507,0.39197180049999997,10.4624206855,0.058569759038425706,0.18503806196718683,-0.04083197785040734,10.517044368840134,0.19833494766573007,-0.27409586750000003,-0.08982891399999998,0.23584993249999897
56662.0,-1.1446321879999999,0.2986124925,10.701801011999999,0.14516950586388036,0.14240490432872133,-0.09465793198191245,10.766981803965628,0.22430663453569052,-0.14847268099999988,-0.09335930799999997,0.23938032649999919
56672.0,-1.1374733334999998,0.4733669955,10.998746373999998,0.231770998018587,0.08591383242942088,-0.1959132085363635,11.06753557466297,0.31540603577651316,0.007158854500000089,0.174754503,0.2969453619999989
56682.0,-0.9087822555,0.7044116695,11.448871609,0.30531393670987206,0.013437289911104343,-0.30676081465977534,11.506465230791152,0.4330119607125926,0.22869107799999977,0.231044674,0.45012523500000157
56692.0,-0.49464742599999995,1.044408225,11.773275590999999,0.3556754122761684,-0.041188025017814184,-0.38963079287371816,11.829855567932029,0.5291631195180676,0.4141348295000001,0.33999655549999996,0.32440398199999976
56702.0,-0.09953749749999999,1.440596885,11.995886546,0.3615379732336174,-0.043319072034499265,-0.4346637782336758,12.082488200821222,0.5670263205532667,0.39510992849999993,0.39618865999999997,0.2226109550000004
