timestamp,ax,ay,az,gx,gy,gz,acc_mag,gyro_mag,dax,day,daz
1681.0,-0.3192064575,0.0536423755,10.085551126,-0.011393509357018983,-0.021605430810437806,-0.00851371609122834,10.09074386663931,0.02586677516922306,0.0,0.0,0.0
1685.0,-0.665087003,-0.15582766850000002,9.888045194999998,-0.02658136450787364,0.003974114706791088,-0.012777555453850486,9.911612419893759,0.0297595102476402,-0.3458805455,-0.20947004400000002,-0.19750593100000202
1688.0,-0.40776050699999994,-0.127094184,9.518138357,-0.0417692196587283,-0.022671826983406338,-0.009046041513086609,9.527716376218919,0.04837882095215935,0.25732649600000007,0.028733484500000017,-0.3699068379999986
1692.0,-0.259287826,-0.045698988999999995,9.621108181999999,-0.0534943415736262,-0.02826735256530016,-0.0010524335389525807,9.624709929346169,0.06051277070008187,0.14847268099999994,0.081395195,0.10296982499999885
1696.0,-0.09885103199999999,-0.0516810455,9.633072295,-0.059622192577378295,-0.018675022996339326,0.008007570608149984,9.63371809311898,0.06298955086911077,0.160436794,-0.005982056500000006,0.01196411300000122
1699.0,-0.058153434500000004,-0.048052584999999995,9.606692406499999,-0.06468539273741385,-0.008016297254409955,0.013868386236346942,9.606988595078796,0.06663927664722231,0.04069759749999999,0.0036284605000000067,-0.02637988850000106
1703.0,-0.09051537949999999,0.026085689,9.5947282935,-0.06761580055151233,-0.0010873401239924673,0.021596704164177836,9.595190697593562,0.07098941064357524,-0.03236194499999999,0.07413827399999999,-0.011964112999999443
1707.0,-0.1371950335,0.07158854499999999,9.601887148,-0.06415306731555558,0.0002443460952792061,0.03252071995241034,9.603134082158794,0.07192546821002685,-0.046679654000000015,0.045502855999999994,0.007158854500000089
1711.0,-0.1719105745,0.069234949,9.598356754,-0.05775643560699636,-0.0002879793265790644,0.04131543405320977,9.600145785395416,0.0710130542725968,-0.03471554099999999,-0.0023535959999999856,-0.0035303940000002143
1724.0,-0.34911674,0.08237586,9.6880876015,-0.010327113184050447,-0.023738223156374878,0.0796847523290531,9.694725867955059,0.08378431988791563,-0.17720616549999998,0.013140910999999991,0.08973084750000027
1728.0,-0.3909911355,0.0201036325,9.7228031425,0.0027296949501191318,-0.037327356712402726,0.08261690547240358,9.730682359006853,0.09069915029090256,-0.041874395499999995,-0.0622722275,0.03471554100000063
1732.0,-0.410114103,-0.028929617499999997,9.748006233,0.010990338299808293,-0.04851840787619037,0.08208283472129332,9.756672384519993,0.0959813273229109,-0.019122967500000032,-0.04903325,0.025203090499999803
1735.0,-0.44129925,-0.079237732,9.7563418855,0.019250981649497456,-0.06717074159225377,0.07755370531236803,9.766638655800918,0.10438910876236199,-0.03118514699999997,-0.05030811450000001,0.008335652499999568
1739.0,-0.45444016099999995,-0.1342530385,9.7814469095,0.02511354260694641,-0.08582307530831716,0.07062474818195054,9.792918021797348,0.11394799398590533,-0.013140910999999977,-0.0550153065,0.025105024000000142
1743.0,-0.4532633629999999,-0.17975589449999999,9.804198337499999,0.028043950421044888,-0.09887988344248674,0.06289817558337166,9.816316259110813,0.12049844395897583,0.0011767980000000344,-0.04550285599999998,0.022751427999999407
1746.0,-0.4532633629999999,-0.22643554849999997,9.829401428,0.02964267201587169,-0.11566646018816822,0.050640728246615474,9.842451583148938,0.12969927283546814,0.0,-0.04667965399999999,0.02520309050000158
1750.0,-0.4496349025,-0.239674526,9.844895935,0.02884331121845829,-0.13112135071457798,0.036784559315032495,9.858072397529805,0.13920434267385967,0.0036284604999999304,-0.013238977500000026,0.015494506999999658
1754.0,-0.44129925,-0.23486926749999998,9.855683249999998,0.027776915045489754,-0.1444451942243027,0.02079734336676443,9.868353506294609,0.1485547058664113,0.008335652500000013,0.00480525850000002,0.010787314999998188
1768.0,-0.34793994199999995,-0.1570044665,9.8389138785,0.023513075682867608,-0.17189049671191353,-0.024235641993193262,9.84631600723234,0.1751758371772741,0.09335930800000003,0.07786480099999998,-0.016769371499998798
1771.0,-0.29047297299999997,-0.09953749749999999,9.830578226,0.02404714643397787,-0.17508793990156715,-0.031962214591772155,9.83537241384165,0.17959853872513123,0.05746696899999998,0.05746696900000001,-0.008335652499999568
1775.0,-0.2544825675,-0.050504247499999995,9.813808854499998,0.02324778563656447,-0.17268985750932692,-0.037025414751807706,9.8172377117415,0.17813794587661178,0.03599040549999999,0.049033249999999994,-0.01676937150000235
1779.0,-0.2197670265,-0.0026477955,9.786252167999999,0.022181389463595932,-0.1692253789441182,-0.037824775549221104,9.788719837263827,0.17481406282866688,0.03471554099999999,0.047856451999999994,-0.02755668649999876
1782.0,-0.176715833,0.0416782625,9.753988289499999,0.022448424839151066,-0.1606994455481259,-0.03729245012736283,9.755677993604596,0.16649015110130672,0.0430511935,0.044326058,-0.03226387850000023
1786.0,-0.118072066,0.0860043205,9.7335904575,0.021382028666182534,-0.1473756020384012,-0.0346273323595675,9.7346864844354,0.15289150196267484,0.058643766999999986,0.044326057999999995,-0.020397831999998672
1790.0,-0.07737446849999999,0.10032202949999999,9.7312368615,0.020315632493213994,-0.1335194331068182,-0.031429889169913884,9.73206155820004,0.13866507085058769,0.040697597500000016,0.014317708999999998,-0.002353596000000735
1793.0,-0.0461893215,0.115914603,9.727608401,0.020849703244324263,-0.11300308774962485,-0.02476796741505153,9.728408649507639,0.11754939462285144,0.03118514699999999,0.015592573500000012,-0.003628460499999875
1797.0,-0.02941995,0.126701918,9.74192611,0.02058266786876913,-0.09328435786059293,-0.0167743594409175,9.742794426763947,0.09698967353647668,0.016769371499999998,0.010787314999999992,0.014317709000000178
1811.0,-0.049817782,0.232025339,9.835383484500001,0.014454816865017038,-0.032264156552367175,0.01013861762483506,9.838246076233144,0.036779193791863556,-0.020397831999999998,0.105323421,0.09345737450000158
1815.0,-0.071392412,0.22368968649999998,9.8700990255,0.012056734472776828,-0.024003513202678014,0.01520181778487061,9.872891609124132,0.030864684611746664,-0.021574630000000004,-0.008335652500000013,0.03471554099999885
1818.0,-0.0797280645,0.196133,9.922760736,0.008325220532012952,-0.015742869852988853,0.02319542575900464,9.925019160780558,0.029243375732912424,-0.008335652499999999,-0.027556686499999983,0.05266171050000068
1822.0,-0.082179727,0.16141745899999999,9.9885633575,0.004595451920501069,-0.009082693427378491,0.03092199835758354,9.990205555962875,0.03255431585329018,-0.002451662499999993,-0.034715541000000016,0.0658026214999996
1826.0,-0.07737446849999999,0.14582488549999997,10.0221021005,0.001663298777150596,-0.00588525023772488,0.03545287309576081,10.023461588615644,0.03597650544350899,0.004805258500000006,-0.015592573500000012,0.03353874299999937
1829.0,-0.09885103199999999,0.10395048999999999,10.062799698,-0.002333505209916419,-0.0034871678454846703,0.042114794850623166,10.063822086710774,0.042323297738448555,-0.021476563500000004,-0.04187439549999998,0.04069759749999946
1833.0,-0.119248864,0.0860043205,10.090356384499998,-0.007661995416255106,-0.0034871678454846703,0.046643924259548455,10.091427500652712,0.04739749132255619,-0.020397832000000005,-0.017946169499999998,0.02755668649999876
1837.0,-0.14562875249999999,0.08953471449999999,10.126248723499998,-0.01112647398146385,-0.006150540284028018,0.04984136744920207,10.127691613039994,0.05143723824479715,-0.02637988849999999,0.0035303939999999923,0.035892339000000106
1840.0,-0.16955697849999998,0.068058151,10.1717515795,-0.015390313344085998,-0.01494350905557545,0.05144008904402887,10.173392338641833,0.055733768655823336,-0.023928225999999997,-0.02147656349999999,0.04550285600000237
1844.0,-0.191033542,0.0405014645,10.1729283775,-0.018853046580042748,-0.02586927017305995,0.05197241446588714,10.174802502090175,0.06103923631607776,-0.021476563500000018,-0.027556686499999997,0.0011767979999994793
1858.0,-0.16955697849999998,-0.0169655045,10.1717515795,-0.0239162467400783,-0.07170161633043105,0.047710320432516995,10.173178834187558,0.0893833503416721,0.021476563500000018,-0.057466969,-0.0011767979999994793
1862.0,-0.165928518,-0.028929617499999997,10.154982208,-0.02338392131822003,-0.08662243610573056,0.044512877242863375,10.156378923644535,0.10015812724660092,0.003628460499999986,-0.011964112999999998,-0.016769371500000574
1865.0,-0.15631800099999998,-0.0193191005,10.145371691,-0.02205048976969636,-0.09941220886434501,0.0399820025046861,10.14659427067156,0.10939639799671819,0.009610517000000013,0.009610516999999999,-0.009610517000000485
1869.0,-0.15631800099999998,-0.0026477955,10.126248723499998,-0.019919442753011284,-0.113268377795928,0.035718163142063955,10.12745553129921,0.12042548229654164,0.0,0.016671304999999997,-0.01912296750000131
1873.0,-0.152787607,-0.00980665,10.086727923999998,-0.01965240737745615,-0.12072966034820376,0.03198839453055207,10.08788979103352,0.12643229566912242,0.0035303939999999923,-0.007158854500000001,-0.03952079949999998
1876.0,-0.13003617899999997,-0.0050013915,10.052012383,-0.018320721158184478,-0.12952262911975118,0.026125833573103118,10.05285468758756,0.13339535021033547,0.022751428000000018,0.0048052585,-0.03471554099999885
1880.0,-0.09885103199999999,-0.021770763000000002,9.991015019999999,-0.01778839573632621,-0.1343187939042316,0.019997982569351026,9.991527742168094,0.1369594272972973,0.031185146999999983,-0.0167693715,-0.06099736300000025
1884.0,-0.074922806,-0.032558078,9.9430605015,-0.017521360360771076,-0.13671687629647183,0.016001178582284014,9.943396079398195,0.13876072949209703,0.023928225999999997,-0.010787314999999995,-0.04795451849999921
1888.0,-0.062958693,-0.030106415499999997,9.901186106,-0.01645496418780254,-0.13698391167202695,0.012004374595216999,9.901432042837337,0.13848993794790232,0.011964112999999998,0.0024516625,-0.04187439549999894
1901.0,-0.0079433865,0.0189268345,9.8245961695,-0.01725432498521594,-0.12712454672751097,0.009072221451866525,9.824617611704149,0.1286105256712773,0.0550153065,0.04903325,-0.07658993650000134
1905.0,0.006472388999999999,0.011767979999999999,9.811357192,-0.018320721158184478,-0.12152902114561716,0.009339256827421658,9.811366384259777,0.12325653541478583,0.014415775499999998,-0.007158854500000001,-0.01323897750000036
1909.0,0.0136312435,-0.0026477955,9.793411022499999,-0.018853046580042748,-0.11753221715855014,0.011470303844106734,9.793420866951692,0.11958606652043531,0.0071588545,-0.014415775499999998,-0.017946169500000053
1912.0,0.033931009,-0.0146119085,9.7922342245,-0.019919442753011284,-0.1124690169985146,0.016001178582284014,9.792303913212194,0.11533473761284933,0.020299765499999997,-0.011964113,-0.0011767979999994793
1916.0,0.051975244999999996,-0.022947561,9.7887038305,-0.021251128972282957,-0.10740756216773104,0.021596704164177836,9.788868713896107,0.11159933926402354,0.018044235999999998,-0.008335652499999999,-0.0035303940000002143
1920.0,0.056682437,-0.036088471999999996,9.776641651,-0.02045176817486955,-0.10181029125658524,0.025326472775689716,9.776872569924576,0.10688798085138981,0.004707192000000006,-0.013140910999999998,-0.012062179499999104
1923.0,0.048346784500000003,-0.034911674,9.787428966,-0.017521360360771076,-0.09355139323614806,0.0306567083112804,9.787610637997856,0.09999347483610786,-0.008335652499999999,0.0011767979999999997,0.010787314999999964
1927.0,0.025595356499999996,-0.0385401345,9.768305998499999,-0.015123277968530866,-0.0844913890890455,0.035185837720205684,9.768415559576317,0.09276611203873199,-0.022751428000000008,-0.0036284605000000067,-0.01912296750000131
1931.0,0.0244185585,-0.0420705285,9.7563418855,-0.012992230951845788,-0.077562431958628,0.03891735166096956,9.75646314922212,0.08774559348905486,-0.0011767979999999963,-0.003530393999999999,-0.011964112999999443
1945.0,0.0016671305000000001,-0.048052584999999995,9.837737080499998,0.003796091123087667,-0.056246725804021264,0.0509077636221706,9.83785457786879,0.07595857337060993,-0.022751428,-0.005982056499999992,0.08139519499999892
1948.0,-0.005491723999999999,-0.045698988999999995,9.8593117105,0.006726498937186146,-0.05144881569028885,0.053571136060713946,9.859419149292242,0.07457944115318112,-0.007158854499999999,0.0023535959999999995,0.021574630000001704
1952.0,-0.000784532,-0.036088471999999996,9.888045194999998,0.008059930485709814,-0.048251372500635235,0.053571136060713946,9.888111082085612,0.0725467025195843,0.004707191999999999,0.009610516999999999,0.02873348449999824
1956.0,-0.021084297499999998,-0.020593965,9.934724849,0.007792895110154682,-0.04558800006209189,0.054105206811824215,9.934768567225587,0.07117842628219194,-0.020299765499999997,0.015494506999999998,0.04667965400000185
1959.0,-0.0461893215,-0.013337044000000001,9.961006671,0.004860741966804208,-0.04585329010839503,0.05383817143626909,9.96112268922885,0.07088511641969412,-0.025105024,0.007256920999999998,0.02628182199999962
1963.0,-0.05099458,-0.008629852,9.968263592,0.0019303341527057286,-0.04851840787619037,0.05303881063885568,9.968397762987172,0.07190881397134752,-0.0048052584999999995,0.004707192000000001,0.00725692099999975
1967.0,-0.04265892749999999,-0.03138128,9.993368616,-0.0044645522266014955,-0.05304753728511565,0.05144008904402887,9.993508936508919,0.0740274016797659,0.008335652500000006,-0.022751427999999997,0.025105024000000142
1970.0,-0.062958693,-0.048052584999999995,10.0221021005,-0.010327113184050447,-0.059709459039978006,0.04744328505696186,10.02241504632471,0.07695930133881895,-0.020299765500000004,-0.016671304999999997,0.028733484500000017
1974.0,-0.0689407495,-0.068450417,10.025730561,-0.0161896741414994,-0.06743777696780891,0.04424584186730825,10.026201253131639,0.08226575128031542,-0.005982056499999999,-0.020397832000000005,0.003628460499999875
1988.0,-0.097674234,-0.0169655045,10.011314785499998,-0.02284985056710976,-0.09834755802062847,0.036252233893174224,10.011805622299171,0.10727806067321287,-0.028733484500000003,0.0514849125,-0.014415775500001615
1992.0,-0.107284751,0.0057859235,9.968263592,-0.021251128972282957,-0.10554180519734911,0.03598519851761908,9.968842587497338,0.11351483444583024,-0.009610516999999999,0.022751427999999997,-0.04305119349999842
1995.0,-0.11326680749999998,0.0273605535,9.934724849,-0.01858775653373961,-0.11140436615479805,0.036252233893174224,9.935408184614618,0.11861982108212482,-0.005982056499999985,0.021574629999999997,-0.03353874299999937
1999.0,-0.1156204035,0.0405014645,9.913150219,-0.015655603390389135,-0.113268377795928,0.036784559315032495,9.913907186916362,0.1201163066783165,-0.0023535960000000133,0.013140911000000002,-0.021574629999999928
2003.0,-0.128859381,0.0536423755,9.878434678,-0.011393509357018983,-0.11406773859334139,0.03865031628541443,9.879420728566728,0.12097565041044382,-0.013238977499999999,0.013140910999999998,-0.03471554100000063
2006.0,-0.128859381,0.05727083599999999,9.853329654,-0.007929030791810239,-0.11273605237406972,0.042114794850623166,9.854338636312615,0.12060656275467162,0.0,0.003628460499999993,-0.025105024000000142
2010.0,-0.13003617899999997,0.0860043205,9.858134912499999,-0.0060632738214283005,-0.10900628376255785,0.046643924259548455,9.859367632056578,0.11872147598260137,-0.001176797999999979,0.028733484500000003,0.004805258499999354
2014.0,-0.14435388799999999,0.106304086,9.855683249999998,-0.00339815605363296,-0.1007456404128687,0.05437224218737935,9.857313575615393,0.11453197041545612,-0.014317709000000012,0.02029976550000001,-0.0024516625000003955
2018.0,-0.1611232595,0.137489233,9.852152856,-0.002333505209916419,-0.08955458924908104,0.06236585016151338,9.854429455424183,0.10915570973844962,-0.01676937150000002,0.031185146999999983,-0.003530393999998438
2031.0,-0.2772339955,0.209273911,9.8963808475,-0.001267109036947883,-0.04532096468653675,0.08954411727356908,9.902474849089542,0.10036804443513143,-0.11611073599999999,0.07178467800000002,0.044227991499999675
2035.0,-0.3215600535,0.22486648449999996,9.927565994499998,-0.00046774823953448034,-0.03626096053943419,0.09487435280915976,9.935317427189283,0.10156878885078285,-0.044326058,0.015592573499999957,0.031185146999998636
2039.0,-0.38265548299999996,0.220061226,9.983758099,0.0027296949501191318,-0.02560223479750482,0.09993580763994332,9.993511792218323,0.10319927959920566,-0.061095429499999965,-0.004805258499999965,0.056192104500000895
2042.0,-0.4592454194999999,0.220061226,10.042401866,0.008325220532012952,-0.019207348418197597,0.1036673215807072,10.055305491965953,0.10575984632119341,-0.07658993649999996,0.0,0.05864376700000129
2046.0,-0.5094554675,0.2283968785,10.098692037,0.013388420692048502,-0.013878858211858908,0.10793116094332934,10.114113449316326,0.10964035760825946,-0.05021004800000012,0.008335652500000013,0.05629017099999878
2050.0,-0.559763582,0.24398945199999997,10.140566432499998,0.020315632493213994,-0.010147344271095033,0.1129926157741129,10.158934673102612,0.11525200535709461,-0.050308114499999945,0.015592573499999957,0.04187439549999894
2053.0,-0.6004611795,0.25840522749999995,10.2052903225,0.02617819345066295,-0.00694990108144142,0.11592476891746338,10.226205428026468,0.11904684366227203,-0.040697597500000016,0.014415775499999978,0.06472389000000156
2057.0,-0.639981979,0.26674087999999996,10.248341515999998,0.02911034659401342,-0.004818854064756344,0.11965453752897524,10.271768662653821,0.12323896293215857,-0.03952079949999998,0.008335652500000013,0.04305119349999842
2061.0,-0.6878384309999999,0.278704993,10.329736710999999,0.03150842898625363,-0.003220132469929538,0.12338430614048713,10.356363198481635,0.1273846040621673,-0.04785645199999988,0.011964113000000054,0.0813951950000007
2064.0,-0.7489338604999999,0.3158721965,10.407601512,0.0320407544081119,-0.0005550147021341969,0.1263164592838376,10.439293386264698,0.13031794147532386,-0.06109542950000002,0.03716720349999997,0.07786480100000048
2078.0,-1.0062603565,0.37324109899999997,10.558427789,0.018983946273942322,0.0015760323145508797,0.15163071475476336,10.612834974622645,0.15282260222568142,-0.257326496,0.057368902499999985,0.15082627700000018
2082.0,-1.1200174965,0.4092315045,10.5751971605,0.012322024519079966,0.0015760323145508797,0.16655153453006288,10.642213331830401,0.1670141605386323,-0.11375714000000015,0.035990405500000044,0.016769371500000574
2086.0,-1.243287087,0.40560304399999997,10.6014789825,0.00566010276421761,0.0007766715171374767,0.18413921740240974,10.681836603617949,0.1842278246289603,-0.12326959049999986,-0.0036284605000000414,0.02628182199999962
2089.0,-1.345080114,0.40324944799999995,10.600302184499999,0.000598647933434055,0.0002443460952792061,0.19746131558288246,10.692906856094185,0.19746237422882665,-0.10179302700000004,-0.0023535960000000133,-0.0011767980000012557
2093.0,-1.4540319955,0.39481572899999995,10.585886409,-0.004731587602156627,-2.2689280275926283e-05,0.21504899845522932,10.692571232779066,0.21510104642385527,-0.10895188150000013,-0.008433719000000006,-0.014415775499998063
2097.0,-1.540232449,0.3409772205,10.615894757999998,-0.008728391589223642,-0.0024207716725161347,0.22996981823052884,10.73246490675764,0.2301481311073539,-0.08620045349999983,-0.05383850849999994,0.03000834899999738
2100.0,-1.6287864984999998,0.29910282499999996,10.6110894995,-0.009527752386637046,-0.005618214862169747,0.23982918317504479,10.739535759241086,0.2400841092329681,-0.0885540494999999,-0.04187439550000005,-0.004805258499997578
2104.0,-1.7460740325,0.220061226,10.6469818385,-0.008728391589223642,-0.010946705068508434,0.24729046572732055,10.791451419503693,0.24768647442124658,-0.11728753400000014,-0.07904159899999996,0.035892339000000106
2108.0,-1.8729720834999999,0.160240661,10.685325839999999,-0.005796238445873169,-0.018675022996339326,0.2512872697143876,10.849418869321054,0.25204690988890655,-0.12689805099999996,-0.05982056499999999,0.038344001499998726
2121.0,-2.259648293,0.0644296905,10.7523052595,0.006194173515327876,-0.06477265920001356,0.25208663051180097,10.987366835895992,0.2603488706489282,-0.38667620950000026,-0.09581097050000001,0.06697941950000086
2125.0,-2.3362382294999997,0.0740402075,10.754756922,0.006993534312741278,-0.07862882813159654,0.24808982652473396,11.005829703780213,0.2603458548942238,-0.07658993649999957,0.009610516999999999,0.0024516625000003955
2129.0,-2.441659717,0.0644296905,10.747500000999999,0.006459463561631014,-0.09941220886434501,0.24169494014542675,11.0215520517817,0.26142103211618917,-0.10542148750000013,-0.009610516999999999,-0.007256921000001526
2132.0,-2.5038338779999996,0.056094038,10.7487748655,0.005927138139772743,-0.12152902114561716,0.23423365759315098,11.036688440783504,0.2639504504572881,-0.06217416099999973,-0.008335652499999999,0.0012748645000009162
2136.0,-2.5421778795,0.0501119815,10.741517944499998,0.006726498937186146,-0.13645158625016868,0.22757173583828863,11.038359811753033,0.265430171854277,-0.0383440015000005,-0.005982056499999999,-0.007256921000001526
2140.0,-2.584052275,0.0165732385,10.697289952999999,0.007792895110154682,-0.15350519837140525,0.21984516323970973,11.00498128897645,0.26824703342467177,-0.04187439549999983,-0.033538742999999996,-0.044227991499999675
2143.0,-2.607980501,-0.032558078,10.645805040499999,0.011257373675363426,-0.1684260181467048,0.21211684531187883,10.960647210925751,0.2710859791945803,-0.02392822600000022,-0.049131316499999994,-0.051484912499999425
2147.0,-2.6127857595,-0.056486304,10.617071555999999,0.013388420692048502,-0.17588730069898056,0.20545492355701647,10.933985940763314,0.27079017332543726,-0.004805258499999798,-0.023928226000000004,-0.028733484500000017
2151.0,-2.619944614,-0.08521978849999999,10.5871612735,0.016053538459843843,-0.1809505008590161,0.19639666473916592,10.906849041949638,0.26753027824692815,-0.007158854500000089,-0.02873348449999999,-0.029910282499999497
2165.0,-2.861776603,-0.0971839015,10.599125386499999,0.014454816865017038,-0.13831559789129863,0.16548688368634634,10.979101465736518,0.21616210357703064,-0.24183198900000002,-0.011964113000000012,0.011964112999999443
2168.0,-2.953959113,-0.1067944185,10.6242304105,0.011522663721666564,-0.12712454672751097,0.16095600894816905,11.02776275155081,0.20542701617956877,-0.09218250999999977,-0.009610516999999999,0.025105024000000142
2172.0,-3.0640877925,-0.113953273,10.6816973795,0.004860741966804208,-0.11300308774962485,0.15349472639589332,11.113067904759339,0.19066713320540438,-0.11012867950000027,-0.007158854499999992,0.057466969000000034
2176.0,-3.1754913364999995,-0.125917386,10.7283770335,-0.0020664698343612863,-0.10101093045917181,0.14416943220248762,11.18917665376742,0.17604631081448893,-0.11140354399999941,-0.011964112999999998,0.04667965400000007
2179.0,-3.262868588,-0.164163321,10.763092574499998,-0.007929030791810239,-0.0938166832824512,0.1340430318824165,11.24799638983654,0.16380468243505056,-0.08737725150000042,-0.03824593500000001,0.03471554099999885
2183.0,-3.3502458395,-0.219276694,10.782215542,-0.018053685782629343,-0.08582307530831716,0.11885517673156185,11.292847357852889,0.14770947451536678,-0.08737725149999997,-0.05511337299999999,0.01912296750000131
2187.0,-3.437623091,-0.25997429149999995,10.8229131395,-0.028447121478255576,-0.07782946733418314,0.10313325082959691,11.358709784706143,0.13229940337205554,-0.08737725149999997,-0.04069759749999996,0.04069759750000124
2191.0,-3.532159197,-0.29586663049999995,10.876849714499999,-0.037240090249803015,-0.07036818478190737,0.08847772110060054,11.439822785682207,0.1190244213700272,-0.09453610600000006,-0.035892338999999995,0.053936574999998044
2194.0,-3.5920778285,-0.33058217149999997,10.919900908,-0.044167302050968506,-0.06290690222963162,0.07782074068792316,11.50028449816152,0.10938051288875408,-0.059918631499999986,-0.034715541000000016,0.04305119350000197
2208.0,-4.025433692,-0.309105608,11.1700685495,-0.07347836150896127,-0.01707630140151252,0.05543689303109589,11.877293213780437,0.09361580416007795,-0.4333558635000001,0.02147656349999999,0.25016764149999915
2212.0,-4.165472654,-0.2850793155,11.267056317999998,-0.07960621251271335,-0.003220132469929538,0.05597096378220615,12.015780903475706,0.09736666323979788,-0.1400389620000002,0.02402629249999999,0.09698776849999824
2216.0,-4.322280987499999,-0.25997429149999995,11.3497263775,-0.08600284422127258,0.008504989444968369,0.06129945398854484,12.147674197609359,0.10595492965832796,-0.156808333499999,0.02510502400000003,0.08267005950000161
2219.0,-4.455161094999999,-0.25399223499999996,11.390423975,-0.09026493825464274,0.01463284044872046,0.0671620149459938,12.233345035929325,0.11345754866608952,-0.13288010750000012,0.005982056499999999,0.04069759749999946
2223.0,-4.617951485,-0.25634583099999997,11.482606485,-0.09479581299282001,0.017030922840960666,0.07595498371754122,12.379072695167794,0.12265992844167328,-0.1627903900000005,-0.0023535960000000133,0.09218251000000066
2227.0,-4.7724062225,-0.2587974935,11.586753107999998,-0.09879261697988703,0.01516516587057873,0.0858143486620572,12.533781746980686,0.13173483161984892,-0.15445473750000005,-0.002451662500000007,0.10414662299999833
2230.0,-4.887340160499999,-0.231240807,11.6298043015,-0.10305645634250918,0.007438593271999833,0.09247627041691955,12.61712781287588,0.1386644383177063,-0.11493393799999918,0.027556686499999983,0.04305119350000197
2234.0,-5.0262023245,-0.2013305245,11.68364281,-0.10731855037587934,-0.005618214862169747,0.09940348221808505,12.720485568505998,0.14638950737706172,-0.13886216400000073,0.029910282499999996,0.05383850850000016
2238.0,-5.153100375499999,-0.1893664115,11.689624866499999,-0.11477983292815508,-0.02560223479750482,0.1044666823781206,12.776448357711846,0.15729962555814586,-0.1268980509999995,0.011964112999999998,0.0059820564999988335
2251.0,-5.305103450499999,-0.16543818549999997,11.575965793,-0.1435585669642896,-0.10420837364882543,0.1028679607832938,12.734774299312674,0.20506161182212262,-0.15200307499999965,0.023928226000000025,-0.11365907349999915
2255.0,-5.3386421935,-0.12827098199999998,11.552037567,-0.1499534533435968,-0.11939797412893209,0.09540667823101803,12.726630577824634,0.21411293432868647,-0.03353874300000115,0.037167203499999996,-0.023928226000000663
2259.0,-5.417585726,-0.11630686900000001,11.5017294525,-0.15474961812807722,-0.12765861747862126,0.0858143486620572,12.71430465203825,0.21819319275273413,-0.0789435325000003,0.01196411299999997,-0.050308114499999945
2263.0,-5.527714405499999,-0.16063292699999998,11.4550497985,-0.15981281828811275,-0.1372509470475821,0.07435626212271441,12.720046987811156,0.2233983282648045,-0.11012867949999894,-0.044326057999999974,-0.04667965400000007
2266.0,-5.613914858999999,-0.244381718,11.433475168500001,-0.16407491232148294,-0.15004071980619654,0.06289817558337166,12.739706311249869,0.23106054389484273,-0.08620045350000005,-0.08374879100000002,-0.02157462999999815
2270.0,-5.718061482,-0.3832438819999999,11.4215110555,-0.16940514785707364,-0.1769536968719491,0.04184775947506804,12.77865477176417,0.2485195161958307,-0.10414662300000099,-0.13886216399999993,-0.01196411300000122
2274.0,-5.7922978225,-0.5580964515,11.413175403,-0.17127090482745555,-0.21319196813110736,0.008806931405563387,12.811040492222299,0.2736093934001768,-0.07423634049999972,-0.17485256950000005,-0.008335652499999568
2277.0,-5.818677710999999,-0.6885248964999999,11.4095469425,-0.16913811248151847,-0.24330238838651355,-0.023169245820224723,12.826099885417221,0.2972214111403663,-0.026379888499999282,-0.13042844499999995,-0.003628460499999875
2291.0,-5.842605936999999,-1.154242705,11.207235752999999,-0.13156640967383654,-0.395186175882816,-0.2435345171770288,12.691353496788071,0.4824840876339823,-0.023928225999999775,-0.4657178085,-0.20231118950000138
2295.0,-5.809067194,-1.1662068179999998,11.092301814999999,-0.11611326447667876,-0.43275787869049803,-0.3197425736361092,12.575550069949584,0.5504516192651028,0.03353874299999937,-0.011964112999999887,-0.11493393800000007
2299.0,-5.743264572499999,-1.1255092205,10.928334626999998,-0.10465517793733597,-0.46286829894590414,-0.40074679487966997,12.396788159634387,0.6211262046029764,0.06580262150000049,0.040697597499999905,-0.16396718800000087
2302.0,-5.679815547,-1.0584317344999998,10.796631317500001,-0.1001243031991587,-0.48152063266196754,-0.462299321609754,12.245318705144484,0.6749871543452789,0.06344902549999976,0.06707748600000007,-0.1317033094999971
2306.0,-5.555271092,-0.9746829435,10.591868465500001,-0.10199006016954065,-0.4956420916398537,-0.5425041820559015,11.999946722232313,0.7418718507442227,0.12454445499999967,0.08374879099999988,-0.204762852
2310.0,-5.3841450495,-0.8800487709999999,10.4182907605,-0.10918430734626126,-0.4919123230283418,-0.6147154345279148,11.760284270531628,0.7948421302149664,0.17112604250000008,0.09463417250000006,-0.17357770500000136
2314.0,-5.238025964499999,-0.8142461495000001,10.2447130555,-0.11931070766633237,-0.4761903971263769,-0.6640122592504947,11.534906084848886,0.8257751629312688,0.14611908500000048,0.06580262149999982,-0.17357770499999958
2327.0,-4.3581733265,-0.415605827,9.5372613245,-0.19152196013834574,-0.26834960848188416,-0.8281517487543013,10.49408197600228,0.8913627166044259,0.8798526379999991,0.3986403225000001,-0.7074517310000008
2331.0,-4.1163413375,-0.287530978,9.351719506499999,-0.21363702709036592,-0.18681306181646506,-0.8574628082122941,10.221624029398336,0.9032067132592437,0.24183198900000047,0.128074849,-0.1855418180000008
2335.0,-3.8542095829999994,-0.1809326925,9.188929116499999,-0.22829255681936228,-0.10287668742955376,-0.8814453774639484,9.9661470216411,0.916322572988444,0.26213175450000037,0.1065982855,-0.16279038999999962
2339.0,-3.6567036519999996,-0.09120184499999999,9.0967466065,-0.23149000000901593,-0.04345520771615481,-0.8939681148470076,9.804621267440716,0.924475508353218,0.1975059309999998,0.0897308475,-0.09218250999999889
2342.0,-3.3825097179999997,0.0177500365,8.977007409999999,-0.223763427410437,0.030087730975130247,-0.9051591660107953,9.593140731551637,0.9328925226493436,0.2741939339999999,0.10895188149999999,-0.1197391965000012
2346.0,-3.1036085919999996,0.14582488549999997,8.8896301585,-0.20244597592657826,0.0927066538781828,-0.9118210877656575,9.416962118670757,0.9386141874787003,0.27890112600000005,0.12807484899999996,-0.08737725149999953
2350.0,-2.8055844985,0.2858638475,8.8429505045,-0.16833875168410506,0.14413452561744772,-0.9134198093604843,9.281745317695794,0.9399193821417201,0.2980240934999996,0.14003896200000002,-0.04667965400000007
2364.0,-1.8634596329999997,0.9167256419999998,8.9937767815,0.007792895110154682,0.21128257792942556,-0.9054262013863503,9.230432736441411,0.9297836646809932,0.9421248655000003,0.6308617944999999,0.15082627700000018
2367.0,-1.6036814745,1.1346294049999999,9.127833687,0.07494094742213252,0.2014232129849096,-0.8995636404289015,9.336837043446629,0.9248795594624141,0.25977815849999963,0.21790376300000003,0.13405690550000138
2371.0,-1.3749903964999999,1.3118355705,9.283465222499999,0.1407573135148387,0.1827708792688462,-0.8897060208136374,9.47598214919505,0.9191270962650695,0.22869107800000021,0.17720616550000012,0.15563153549999775
2375.0,-1.2218105235,1.413530531,9.382806587,0.18792134589148143,0.16305214937981424,-0.8798466558691214,9.567024039190821,0.914347074968318,0.1531798729999998,0.10169496049999993,0.09934136450000075
2378.0,-1.0457811559999999,1.4973773885,9.5025457835,0.24174730002298658,0.12654684274510086,-0.865191126140125,9.676475269298704,0.9071998375378906,0.1760293675000002,0.08384685749999998,0.1197391965000012
2382.0,-0.884167564,1.5236592105,9.5611895505,0.2798513282525268,0.0756530417569462,-0.8516002472548453,9.722120925577997,0.8995905345079479,0.16161359199999992,0.026281822000000066,0.058643766999999514
2386.0,-0.7357929495,1.5153235579999997,9.57913572,0.29743726579562163,0.02715732316103177,-0.8420079176858843,9.726121420799949,0.8934113166570966,0.1483746145,-0.008335652500000235,0.017946169500000053
2389.0,-0.5071018715,1.4829616129999998,9.5804105845,0.3054308737697557,-0.04239055687243827,-0.8345466351336086,9.707759495440232,0.8896926796240038,0.228691078,-0.03236194499999989,0.0012748644999991399
2403.0,0.22908334399999997,1.065198323,9.423504184499999,0.2654610885698335,-0.19187451664724864,-0.8454723962510932,9.48628261022774,0.9067022623253246,0.7361852154999999,-0.4177632899999999,-0.15690640000000045
2407.0,0.29135557149999997,0.9060363935,9.3493659105,0.2441453824152268,-0.20146859154546146,-0.8547994357737508,9.397682317668014,0.9115254448083784,0.0622722275,-0.15916192949999997,-0.07413827399999917
2410.0,0.402661049,0.6761685175,9.2452192875,0.20870472662422995,-0.21399132892852074,-0.8731847341142591,9.27865396802801,0.9229309463129288,0.11130547750000003,-0.22986787600000003,-0.1041466230000001
2414.0,0.527205504,0.47503412599999995,9.1063571235,0.1698013375972763,-0.23024558025234396,-0.8992983503825983,9.133966450837866,0.9437070755676389,0.124544455,-0.2011343915,-0.13886216399999896
2418.0,0.6385109815,0.3445076145,9.005740894499999,0.14049027813928355,-0.2470339023272774,-0.9270106882457642,9.034918418492456,0.969593772294656,0.11130547749999997,-0.13052651149999994,-0.10061622900000167
2421.0,0.8013013715,0.206920315,8.846578964999999,0.10798177549163716,-0.2728804832200614,-0.9768380930609503,8.885204515862757,1.01996886325794,0.16279039000000006,-0.1375872995,-0.15916192949999974
2425.0,0.9856663915,0.0871811185,8.698106284,0.08160286917699489,-0.30325619352177074,-1.0373259689473178,8.754209942108758,1.083821255106082,0.18436502,-0.11973919649999999,-0.14847268099999944
2429.0,1.1364926685,0.0177500365,8.602295313499999,0.06561565322872683,-0.3269717273978697,-1.0866210483406458,8.67706259687079,1.1366447233692256,0.15082627700000006,-0.069431082,-0.09581097050000054
2442.0,1.7949111494999999,-0.182207557,8.432346069,0.017385224679115515,-0.4468793376683841,-1.323505861067576,8.623187685294056,1.3970222449024579,0.6584184809999998,-0.1999575935,-0.1699492444999997
2446.0,1.9900634844999998,-0.14268675749999998,8.465884812,0.007260569688296411,-0.4956420916398537,-1.3866571093924869,8.697811094359226,1.4725935413093645,0.19515233499999995,0.03952079950000001,0.03353874300000115
2450.0,2.2342490695,-0.07560927149999999,8.463433149499998,0.002197369528260861,-0.5502674065687722,-1.4439475420892007,8.753701293884424,1.5452454664130906,0.24418558500000032,0.06707748599999999,-0.002451662500002172
2454.0,2.438913855,-0.00980665,8.4599027555,0.0013980087308474581,-0.5953003919287299,-1.4801858133483592,8.804450669690397,1.595410465396493,0.2046647854999999,0.06580262149999999,-0.003530393999998438
2457.0,2.7059489345,0.10748088399999998,8.465884812,0.004860741966804208,-0.6597833264729124,-1.5222866455649662,8.888471039869534,1.659124557099185,0.26703507949999983,0.11728753399999998,0.00598205650000061
2461.0,2.9429756649999996,0.29066910599999995,8.429992473,0.012322024519079966,-0.7285301003797171,-1.5510653796011007,8.933664835262272,1.7136836788756076,0.23702673049999978,0.18318822199999996,-0.035892339000000106
2465.0,3.098509134,0.47503412599999995,8.377232696,0.019783307071355723,-0.7831554153086355,-1.5619893953893333,8.944520329077319,1.74743659543763,0.1555334690000003,0.18436502,-0.05275977700000034
2468.0,3.2841490185,0.7575637125,8.238370532,0.03230778978366703,-0.8577647501728891,-1.5611900345919199,8.901139622359446,1.781605591602413,0.18563988450000002,0.28252958650000004,-0.13886216400000073
2482.0,4.0382804035,1.6709550935,7.6279065694999995,0.09945584209564488,-1.0893210726934808,-1.4604670834593272,8.791175016731664,1.8246851689563388,0.754131385,0.913391381,-0.6104639624999999
2486.0,4.2226454234999995,1.767942862,7.438736291,0.1199739327820902,-1.1162340497592333,-1.4298243377820625,8.73448074832973,1.8179025923582963,0.18436501999999955,0.09698776850000002,-0.1891702784999998
2489.0,4.505175009999999,1.8433560004999998,7.207691616999999,0.15141603925676805,-1.1298231833152612,-1.3898545525821404,8.697435349634967,1.797532453068411,0.28252958649999993,0.07541313849999987,-0.2310446740000005
2493.0,4.815163216499999,1.8816019355,7.001850033499999,0.18738902046962316,-1.1125025358184697,-1.3544156421203957,8.70356975825643,1.7627303448955243,0.3099882064999999,0.038245935000000175,-0.20584158349999981
2497.0,5.060623666000001,1.8767966769999997,6.8557309485,0.2161660091765057,-1.0781300215296932,-1.3307001082442966,8.725441220585825,1.7262256124065292,0.24546044950000123,-0.004805258500000242,-0.1461190849999996
2500.0,5.3742403329999995,1.8493380569999998,6.710886728,0.2537377119841876,-0.9947259725646402,-1.303254805756686,8.794231693670518,1.659016478430982,0.3136166669999989,-0.02745861999999999,-0.14484422049999957
2504.0,5.675892886999999,1.814622516,6.6366503875,0.2878449362266608,-0.8705545229315036,-1.2819373542728272,8.919290515852438,1.5760974795322287,0.30165255399999946,-0.03471554099999974,-0.07423634050000061
2508.0,5.873398818,1.79069429,6.6091917675000005,0.30702959536458246,-0.7517133088339577,-1.2715456639064528,9.021353309515828,1.5086975994238003,0.19750593100000113,-0.023928225999999997,-0.0274586199999991
2522.0,6.437281193,1.767942862,6.870146724,0.2801166182988299,-0.0698358593600491,-1.2766088640664883,9.579307236451715,1.3088439780634125,0.5638823749999995,-0.022751428000000073,0.2609549564999991
2525.0,6.517499589999999,1.8098172574999998,7.103544994,0.2380157860822227,0.1121583483916596,-1.2888663114032444,9.808852679746874,1.315449496639262,0.08021839699999944,0.04187439549999983,0.23339827000000035
2529.0,6.555745525,1.8780715415,7.2819279575,0.20124518940120617,0.23473107642996938,-1.2981916055966503,9.9765438345035,1.3345035591337733,0.03824593500000084,0.06825428400000022,0.17838296349999982
2532.0,6.564179243999999,1.9785897039999998,7.5680860045,0.14981731766194126,0.3770225343573111,-1.3099167275115482,10.211718373302505,1.371303413945722,0.008433718999999229,0.10051816249999979,0.2861580469999998
2536.0,6.557020389499999,2.0624365614999998,7.852969187,0.10132159906602681,0.49266630526520333,-1.3144458569204736,10.436344475461803,1.4073926479687044,-0.007158854500000089,0.08384685749999998,0.28488318250000066
2540.0,6.557020389499999,2.142556892,8.051651915999999,0.06881309641838043,0.561147789125705,-1.3120477745282333,10.602554644999566,1.428667717184035,0.0,0.08012033050000023,0.19868272899999884
2543.0,6.511517533499999,2.2192448949999997,8.3461456155,0.03337244062738357,0.6272294452647142,-1.3016560841618592,10.815870521053373,1.4452816536011568,-0.0455028559999997,0.07668800299999967,0.29449369950000026
2547.0,6.4588558229999995,2.2611192905,8.607100572,0.007260569688296411,0.6653352188235063,-1.2819373542728272,10.995983777938878,1.444329273247322,-0.05266171049999979,0.04187439550000027,0.2609549565000009
2551.0,6.427670676,2.3066221465,8.771165826499999,-0.0044645522266014955,0.6765262699872939,-1.2606216481182204,11.116150682758667,1.4306902760254587,-0.031185146999999525,0.04550285600000015,0.16406525449999876
2565.0,6.255269769,2.6765289845,9.412814936,0.014454816865017038,0.5843292522506935,-1.085554652167677,11.614357162891908,1.232914644089096,-0.1724009070000001,0.3699068379999999,0.6416491095000012
2568.0,6.189467147499999,2.7388012119999994,9.471458703,0.032573079829970174,0.5281069610562001,-1.0125440388982503,11.641265636152664,1.1424549875395555,-0.06580262150000049,0.06227222749999939,0.058643766999999514
2572.0,6.134451841,2.7639062359999995,9.5468718415,0.048027970356379956,0.48387333649365594,-0.9512585475437215,11.679616390488755,1.0683318379516014,-0.05501530649999964,0.025105024000000142,0.07541313850000009
2576.0,6.091302581,2.7710650904999996,9.6151261255,0.06774670024541189,0.42578528832878065,-0.8619936829504714,11.71466684453116,0.963802799642065,-0.043149259999999856,0.007158854500000089,0.068254284
2579.0,6.046976522999999,2.7890112599999997,9.647390003999998,0.0863990339614753,0.369028926383177,-0.7708630613868396,11.722484496359934,0.8589976722830434,-0.04432605800000111,0.017946169500000053,0.032263878499998455
2583.0,6.017066240499999,2.7997985749999996,9.683282342999998,0.09945584209564488,0.3274604195884281,-0.7026486129018932,11.739246787481399,0.7815605313326267,-0.029910282499999497,0.010787314999999964,0.035892339000000106
2587.0,5.969209788499999,2.798621777,9.701228512499998,0.11650945421688148,0.2744338262543364,-0.6147154345279148,11.729347125972774,0.6832008806795802,-0.04785645200000044,-0.0011767979999994793,0.017946169500000053
2590.0,5.9069375609999994,2.7997985749999996,9.750359828999999,0.13143201932143297,0.22673746845583534,-0.5310460955165587,11.73883725950324,0.5921944029354317,-0.06227222749999939,0.0011767979999994793,0.049131316500000466
2594.0,5.8411349395,2.7806756075,9.748006233,0.13995795271742528,0.19529536198115752,-0.47135932575685663,11.699343559969508,0.5290634375178112,-0.0658026214999996,-0.019122967499999532,-0.0023535959999989586
2608.0,5.5382075209999995,2.4119455674999997,9.8018447415,0.13009858777290934,0.08657880287443072,-0.2366055600466113,11.513704195553883,0.28355550196151286,-0.3029274185000004,-0.3687300400000004,0.05383850850000016
2611.0,5.416114728499999,2.3401608895,9.779093313499999,0.11224561485425931,0.06419495521760343,-0.18118088432027937,11.421090918785316,0.22259061788961207,-0.12209279250000016,-0.07178467799999977,-0.022751428000001184
2615.0,5.3239322184999995,2.2634728865,9.7659524025,0.09599136353043614,0.05060582166157559,-0.14361092684184942,11.350832132623514,0.1799983037888151,-0.09218250999999977,-0.07668800300000012,-0.013140910999998923
2619.0,5.167123885,2.1569726675,9.740749312,0.07307519045175058,0.03621732730813433,-0.09937730227930514,11.235385952004854,0.12855942775703594,-0.1568083334999999,-0.10650021899999995,-0.025203090499999803
2622.0,4.9995282365,2.0396851335,9.701228512499998,0.05175948429714383,0.023959879971378155,-0.059407517079382986,11.102676825123059,0.08235516467402823,-0.16759564849999986,-0.11728753399999992,-0.03952079950000176
2626.0,4.8583124765,1.9498562195,9.6737698925,0.038168605411863996,0.017030922840960666,-0.030895818418803622,10.99940740808694,0.05197544004305316,-0.1412157599999997,-0.08982891399999993,-0.0274586199999991
2630.0,4.679929512999999,1.8229581684999998,9.613851260999999,0.022980750261009337,0.009569640288684908,0.006408849013323179,10.846707002559835,0.02570537382512216,-0.1783829635000007,-0.12689805100000018,-0.05991863150000043
2633.0,4.482423582,1.7344041189999997,9.5839409785,0.010990338299808293,0.0037088246604879502,0.04264712027248144,10.72157653966269,0.0441963774968263,-0.19750593099999936,-0.08855404950000012,-0.029910282499999497
2637.0,4.3304205069999995,1.6637962389999998,9.518138357,0.0040613811693908045,0.001043706892692609,0.07009242276009227,10.588470969660886,0.07021774611492765,-0.15200307500000054,-0.07060787999999985,-0.0658026214999996
2640.0,4.1184988005,1.5656316724999997,9.436743161999999,-0.003932226804743225,-0.0005550147021341969,0.10633243934850252,10.414670249662676,0.10640656984776124,-0.2119217064999992,-0.09816456650000016,-0.0813951950000007
2644.0,3.9102055544999996,1.4722723645,9.3648604175,-0.009527752386637046,-2.2689280275926283e-05,0.14070495363727886,10.254652799240516,0.14102716957527475,-0.20829324600000065,-0.0933593079999997,-0.07188274449999987
2658.0,3.327200212,1.1621860915,9.160195631999999,-0.02684665455417678,0.02022836603061428,0.2435589517865567,9.814790969680441,0.24586763237235207,-0.5830053424999995,-0.310086273,-0.20466478550000033
2662.0,3.152445709,1.0448985575,9.0979234045,-0.03190985471421233,0.033552209540338995,0.26807384646006904,9.685140020557625,0.27204333615954945,-0.17475450299999995,-0.11728753399999992,-0.06227222749999939
2665.0,3.00279623,0.9442823284999999,9.039279637499998,-0.036973054874247874,0.05087111170787872,0.2888589725220695,9.57167857168959,0.2956254095974081,-0.14964947900000025,-0.10061622900000011,-0.05864376700000129
2669.0,2.8914907524999998,0.8665155939999999,9.023687063999999,-0.04043753343945662,0.06339559442019004,0.3019157806562391,9.515171899416169,0.3111387698629386,-0.1113054775000002,-0.07776673450000005,-0.015592573499999318
2673.0,2.760964241,0.7707046234999999,9.011722951,-0.044167302050968506,0.0793828103684581,0.3149708434611567,9.456641036982694,0.3278094162514075,-0.13052651149999983,-0.09581097049999998,-0.011964112999999443
2676.0,2.623278875,0.6761685175,9.0188818055,-0.04390026667541337,0.09217432845632453,0.3226991613889876,9.416954122308251,0.3384643097901205,-0.13768536599999992,-0.09453610599999995,0.007158854500000089
2680.0,2.5287427689999995,0.6019321769999999,9.024863862,-0.04283561583169683,0.10016793643045857,0.3245649183593695,9.391753300907734,0.34236076250359254,-0.09453610600000051,-0.07423634050000005,0.00598205650000061
2684.0,2.4161624269999997,0.520536982,9.0404564355,-0.03830474109351955,0.10656282280976578,0.32376555756195613,9.372227706658089,0.34299712048183645,-0.11258034199999978,-0.08139519499999992,0.015592573499999318
2687.0,2.3132906684999996,0.4810161825,9.0728183805,-0.030578168494940654,0.10762921898273431,0.319501718199334,9.375431918068344,0.33852683955583934,-0.10287175850000008,-0.03952079949999998,0.03236194499999989
2691.0,2.2354258675,0.46307001299999995,9.101551865,-0.022584560520806624,0.10629578743421066,0.3157719495878221,9.383485972564403,0.33394727270434615,-0.0778648009999996,-0.017946169500000053,0.028733484500000017
2705.0,1.8666958274999998,0.5516240625,9.221192995,0.01765226005467065,0.09537177164597815,0.28965833331948293,9.424396143508186,0.3054657545017952,-0.3687300400000002,0.08855404950000001,0.11964112999999976
2708.0,1.7817702384999998,0.6090910315,9.246396085499999,0.023780111058422742,0.08844281451556066,0.2824640861427623,9.436182365629003,0.2969403729401757,-0.08492558900000002,0.057466969000000034,0.025203090499999803
2712.0,1.7350905845,0.672540057,9.2583601985,0.026445228826218085,0.08124856733884002,0.27820024678014016,9.443520690391855,0.29102587020884574,-0.04667965399999985,0.06344902549999998,0.01196411300000122
2716.0,1.6560489854999998,0.7396175429999999,9.3073934485,0.02617819345066295,0.07378728478656427,0.2702066388060061,9.482463032222674,0.2813209712469963,-0.07904159900000018,0.06707748599999996,0.04903324999999903
2719.0,1.6417312764999998,0.7731562859999999,9.2811116265,0.020849703244324263,0.06792472382911531,0.2664751248652422,9.456853876970559,0.2757851888781999,-0.014317708999999956,0.033538742999999926,-0.02628182199999962
2723.0,1.652420525,0.7959077139999999,9.263165457,0.019783307071355723,0.0655266414368751,0.26354471705114374,9.442997244752537,0.27228833589091506,0.010689248500000081,0.022751428000000073,-0.017946169500000053
2726.0,1.6309439615,0.8150306815,9.266695851,0.020849703244324263,0.06606071218798537,0.2638117524266989,9.444358380127275,0.2727551439269406,-0.021476563499999823,0.019122967500000088,0.0035303940000002143
2730.0,1.6081925334999998,0.8150306815,9.2487496815,0.026445228826218085,0.06819175920467045,0.26487640327041545,9.422840808781492,0.27478896477218756,-0.022751428000000296,0.0,-0.017946169500000053
2734.0,1.569848532,0.8078718269999999,9.276306367999998,0.037636279990005725,0.07005751617505239,0.27340408199565974,9.442824849338264,0.2847355566064647,-0.038344001499999836,-0.007158854500000089,0.02755668649999876
2737.0,1.4801176845,0.835330447,9.3744709345,0.04776268031007683,0.07138920239432406,0.2821970507672072,9.527288733813002,0.29497943540289395,-0.08973084750000004,0.0274586200000001,0.09816456650000127
2751.0,1.1856239849999999,0.691761091,9.6665129715,0.04776268031007683,0.08124856733884002,0.3088429924574046,9.763488652577342,0.322903386967466,-0.29449369950000004,-0.14356935599999998,0.29204203699999987
2755.0,1.0994235315,0.680973776,9.729961996999998,0.05468989211124232,0.08471304590404877,0.321632765216019,9.815529422719889,0.3370681238354995,-0.08620045349999983,-0.010787315000000075,0.06344902549999887
2758.0,0.9725254804999999,0.68450417,9.751536627,0.0608194884442464,0.08551240670146217,0.3352236441012989,9.823788391282239,0.35126382312878507,-0.12689805100000018,0.0035303939999999923,0.021574630000001704
2762.0,0.888678623,0.7132376545,9.78507537,0.06534861785317168,0.08497833595035191,0.3432172520754329,9.851200822405076,0.35956896634501423,-0.08384685749999987,0.028733484500000017,0.03353874299999937
2766.0,0.7665858305,0.7563869145,9.799393079,0.0669473394479985,0.08311432430922197,0.3504114992521536,9.85839133513695,0.3663033660406168,-0.12209279250000005,0.04314925999999997,0.014317709000000178
2769.0,0.666067668,0.8042433665,9.832931821999999,0.06481629243131341,0.07805112414918643,0.3560070248340474,9.888225409395481,0.3701812143757207,-0.10051816250000001,0.047856451999999994,0.03353874299999937
2773.0,0.5906545295,0.8293483905,9.8473475975,0.0592190215201676,0.07165623776987919,0.35840510722628754,9.8998457680932,0.3702644052660561,-0.07541313849999998,0.02510502400000003,0.014415775500001615
2777.0,0.49003830049999997,0.8281715924999999,9.872452621499999,0.04936140190490362,0.06073047665239469,0.361335515040386,9.91924021719119,0.3697135285892924,-0.100616229,-0.0011767980000000344,0.025105023999998366
2780.0,0.4278641395,0.7934560514999999,9.910796623,0.03630459377073405,0.05193750788084726,0.3634683073863231,9.951709899811199,0.3689508622133979,-0.06217416099999995,-0.03471554100000007,0.0383440015000005
2784.0,0.3847148795,0.7599173084999999,9.922760736,0.02617819345066295,0.045010296079681766,0.3647999936055948,9.95924999576624,0.36849729971895717,-0.04314926000000002,-0.033538742999999926,0.01196411300000122
2798.0,0.251834772,0.6270372009999999,10.025730561,-0.0161896741414994,0.022361158376551348,0.36533231902745306,10.048475988208141,0.36637389410099336,-0.1328801075,-0.1328801075,0.10296982499999885
2801.0,0.20280152199999998,0.568393434,10.060446101999998,-0.02524793295934997,0.0164985974191024,0.3616025504159412,10.078530414915996,0.3628581903482829,-0.04903325,-0.05864376699999996,0.03471554099999885
2805.0,0.1728912395,0.533677893,10.087904722,-0.033243286262735997,0.010903071837208577,0.3578727818044293,10.10349074104206,0.3595788105735295,-0.029910282499999996,-0.03471554099999996,0.027458620000000877
2809.0,0.1417060925,0.507396071,10.098692037,-0.04150218428317316,0.0021101030656611444,0.3530766170199489,10.112423658435453,0.3555136865459245,-0.031185146999999996,-0.026281822000000066,0.010787314999999964
2812.0,0.109442214,0.48464464299999993,10.131053982,-0.04683241981876385,-0.009882054224791895,0.3469470206869448,10.143229900499733,0.3502330162981925,-0.032263878499999996,-0.022751428000000018,0.03236194499999989
2816.0,0.09139797799999999,0.461893215,10.150176949499999,-0.04789881599173238,-0.021073105388579535,0.34215085590246436,10.161092019985185,0.34612942743851893,-0.018044236000000005,-0.022751427999999907,0.019122967499999532
2820.0,0.056682437,0.47268053,10.2280417505,-0.04683241981876385,-0.037594392087957854,0.3349566087257438,10.23911509028375,0.34029772786722373,-0.03471554099999999,0.010787314999999964,0.07786480100000048
2823.0,-0.013925443,0.461893215,10.287862315499998,-0.04603305902135044,-0.0573113766477378,0.3261636399541963,10.29823529944382,0.3343446671390058,-0.07060788,-0.010787314999999964,0.05982056499999899
2827.0,-0.06413549099999999,0.4463006415,10.311790541499999,-0.04230154508058657,-0.07649778111491147,0.3189693927774757,10.321643367002077,0.3307307133614013,-0.05021004799999999,-0.01559257350000004,0.023928226000000663
2841.0,-0.2891981085,0.35058773749999994,10.417113962499998,-0.020718803550424686,-0.20333260318659138,0.27899960757755354,10.427023094601727,0.34585285508092284,-0.2250626175,-0.09571290400000004,0.10532342099999958
2845.0,-0.30724234449999993,0.312243736,10.387203679999999,-0.019919442753011284,-0.24197070216724184,0.26354471705114374,10.396436615433704,0.35833283800464893,-0.018044235999999936,-0.03834400149999995,-0.029910282499999497
2848.0,-0.29518016499999994,0.30508488149999996,10.389557275999998,-0.02205048976969636,-0.268084318435581,0.2496885481195608,10.398226219217092,0.36701470944937303,0.012062179499999992,-0.007158854500000034,0.0023535959999989586
2852.0,-0.29047297299999997,0.303810017,10.3561165995,-0.028180086102700445,-0.29552962092319185,0.23130324977905253,10.364643076194783,0.37634168976358684,0.004707191999999971,-0.0012748644999999725,-0.033440676499997934
2856.0,-0.2353596,0.32538464699999997,10.275898202499999,-0.03803945104721641,-0.313647883888145,0.21291620610929224,10.28374217772685,0.38099252712810455,0.055113372999999966,0.021574629999999984,-0.08021839700000122
2859.0,-0.1826978895,0.31940259049999997,10.218431233499999,-0.04789881599173238,-0.31897811942373566,0.19959410792881954,10.225054200707895,0.3793140455670131,0.052661710500000014,-0.005982056499999999,-0.057466969000000034
2863.0,-0.116895268,0.31459733199999995,10.144194892999998,-0.06361899656444531,-0.3144472446855584,0.1830728212294412,10.149745120551035,0.36937799648478425,0.06580262149999999,-0.00480525850000002,-0.07423634050000061
2867.0,-0.0569766365,0.3278363095,10.053189180999999,-0.08413708725089065,-0.29526258554763674,0.16974897771971648,10.058694532189993,0.35081869863538956,0.0599186315,0.013238977500000026,-0.0910057119999994
