timestamp,ax,ay,az,gx,gy,gz,acc_mag,gyro_mag,dax,day,daz
60032.0,1.0197935335,-1.0366609715,10.214018240999998,-0.7567904716280093,-0.09910677624524601,0.2955174036184279,10.31701572395237,0.8184647254989349,0.0,0.0,0.0
60042.0,1.1622841579999998,-2.0744987409999998,10.0776077395,-0.877497442695937,-0.027961919946201154,0.28352699165722683,10.354353057607156,0.9225893918223774,0.14249062449999994,-1.0378377694999998,-0.13641050149999856
60052.0,1.2269099815,-2.444405579,10.052404649,-0.8870915175941498,0.08368679230387611,0.2715365796960258,10.417834034221675,0.9314864217510742,0.06462582350000012,-0.36990683800000035,-0.025203090499999803
60062.0,1.0425449615,-2.3678156424999997,9.971009454,-0.7722453621544191,0.17081886455118903,0.2574133753888877,10.301188302587915,0.8317473352435028,-0.18436502,0.07658993650000046,-0.08139519499999892
60072.0,0.7840416674999999,-2.2696510759999997,10.014158714,-0.5604077695228593,0.19773184161694157,0.2803295484675732,10.29802952473658,0.6570687978247384,-0.25850329400000005,0.09816456649999994,0.043149259999999856
60082.0,0.547014937,-2.3893902725,10.157826136499999,-0.29767637590314483,0.12259018133082972,0.34161678515135413,10.449394386038897,0.4694055871277019,-0.2370267304999999,-0.11973919650000031,0.1436674224999983
60092.0,0.5074941374999999,-2.6611325439999995,10.287077783500001,-0.03973940173865889,-0.030892327760299633,0.39970483331622936,10.637816789177753,0.40286165086956466,-0.03952079950000009,-0.2717422714999995,0.12925164700000202
60102.0,0.536227622,-2.973572413,10.430745206,0.16570155918434165,-0.1929025155766733,0.41169524527743045,10.859563458557732,0.4839022238179673,0.028733484500000017,-0.3124398690000003,0.1436674224999983
60112.0,0.35784465849999997,-2.8850183635,10.387595946,0.2906741149441436,-0.30135203930784493,0.3919782607176505,10.78672949946854,0.5735428925274835,-0.1783829635,0.0885540494999999,-0.043149259999999856
60122.0,0.1028717585,-2.6539736894999995,10.198523734,0.319184068275471,-0.32719862020062895,0.367196330668583,10.538692769799129,0.5863194963145497,-0.25497289999999995,0.2310446740000005,-0.18907221199999924
60132.0,-0.004903325,-2.7461561994999997,10.0201407705,0.26908962808472975,-0.23633503401255218,0.3298916632364562,10.389639982948623,0.4869209234746519,-0.1077750835,-0.09218251000000022,-0.1783829635000007
60142.0,-0.14494228699999998,-2.8765846445,10.042892198499999,0.18302220668113336,-0.05514018705825685,0.2718036150715809,10.447747661301268,0.33228718532803997,-0.140038962,-0.13042844500000017,0.022751427999999407
60152.0,-0.30175062049999996,-2.9232642985,10.1505692155,0.09082693427378491,0.13591227951130244,0.20012468802142583,10.56743029286274,0.2584019552310041,-0.15680833349999998,-0.04667965400000007,0.10767701700000032
60162.0,-0.41070250199999997,-3.0178004045,10.248733781999999,0.00902160690355869,0.2702101294645101,0.13430832192871964,10.691694905900441,0.30188346890092915,-0.10895188150000001,-0.09453610600000006,0.0981645664999995
60172.0,-0.5076902704999999,-3.0705601815,10.376906697499999,-0.038407715519387216,0.3410879503879998,0.08367981098686814,10.833571980080901,0.3532965514664738,-0.09698776849999996,-0.0527597769999999,0.12817291550000043
60182.0,-0.6728342565,-3.054967608,10.5995176525,-0.027748989777457846,0.3496156291132441,0.04957258674439494,11.051484402029812,0.35420126469346425,-0.16514398600000002,0.015592573499999762,0.2226109550000004
60192.0,-0.8440583654999999,-3.0848778905,10.801828841999999,0.02287777583514167,0.2771373412656756,0.02745751979237479,11.265363396514527,0.27943230655047596,-0.17122410899999996,-0.02991028249999994,0.2023111894999996
60202.0,-0.9829205295,-3.066931721,10.826933866,0.07110820438475297,0.1425742012661648,0.009070476122614532,11.295782393766546,0.1595808670693313,-0.13886216400000007,0.017946169500000053,0.025105024000000142
60212.0,-1.0894207484999998,-3.0933116094999997,10.730044163999999,0.10095158926460401,0.021067869400823554,-0.009047786842338604,11.220038415358488,0.10352265907946852,-0.10650021899999984,-0.026379888499999726,-0.09688970200000036
60222.0,-1.12776475,-3.1315575444999997,10.5887303375,0.1070811855976081,-0.025563837553960942,-0.04368908183592206,11.099536753673563,0.11844250069607865,-0.03834400150000028,-0.03824593499999995,-0.14131382649999935
60232.0,-1.1564982344999999,-3.1088061165,10.464283948999999,0.08070053395371381,0.022132520244540092,-0.10124480457893907,10.97740416499677,0.13135042857568852,-0.028733484499999795,0.02275142799999985,-0.12444638850000089
60242.0,-1.1780728645,-3.0812494299999997,10.436727262499998,0.025010568181078743,0.13751100110612924,-0.1769205356161612,10.945648892402737,0.22546769140757092,-0.02157463000000015,0.027556686500000094,-0.027556686500000538
60252.0,-1.276237431,-3.0202520669999995,10.549209538,-0.03574259775159187,0.2635482077096477,-0.24806539191520607,11.047014366114196,0.3636916685147523,-0.09816456649999994,0.06099736300000025,0.11248227550000145
60262.0,-1.348022109,-3.0333929779999997,10.775448953499998,-0.07890982614116764,0.3368258563546297,-0.3045547184852545,11.275146860011036,0.4609034548821386,-0.07178467799999999,-0.013140911000000255,0.2262394154999985
60272.0,-1.348022109,-3.1064525205,10.925098432499999,-0.10235832464171145,0.3184388126848694,-0.34958770384521226,11.437875092353805,0.48383061780686754,0.0,-0.07305954250000024,0.1496494790000007
60282.0,-1.345668513,-3.0393750344999995,10.974229749,-0.11674856432440468,0.22144737549304055,-0.40074854020892203,11.466575030542383,0.47251302613171137,0.002353596000000069,0.06707748600000052,0.049131316500000466
60292.0,-1.2498575425,-2.9783776714999997,10.8641010695,-0.1183472859192315,0.09541016888952202,-0.4425823370499741,11.334088824380412,0.46796186327583605,0.09581097049999987,0.060997362999999805,-0.11012867949999894
60302.0,-1.0643157245,-3.0178004045,10.6473741045,-0.10875321102101866,-0.0007819075048934596,-0.4686959533183132,11.11784433080422,0.4811483855773506,0.18554181800000014,-0.03942273300000032,-0.21672696499999944
60312.0,-0.932612415,-2.9460157264999998,10.4271167455,-0.09116727347792379,-0.03169168855771304,-0.4894810793803137,10.875363819279057,0.498906365912838,0.13170330949999987,0.07178467800000021,-0.22025735900000143
60322.0,-0.8523940179999999,-2.880213105,10.319439728499999,-0.0701168573696202,0.0037472219040318258,-0.5195914996357198,10.747699260878118,0.5243145447659123,0.08021839700000011,0.0658026214999996,-0.10767701700000032
60332.0,-0.733929686,-2.8406923054999997,10.349350010999999,-0.0615909239736279,0.06396806241484417,-0.5550304100974647,10.757194392996002,0.5620890597209613,0.11846433199999995,0.039520799500000425,0.029910282499999497
60342.0,-0.6847983695,-2.8287281925,10.384065552,-0.06825110039923825,0.11379546723003028,-0.591268681356623,10.784223170082639,0.6059754736134191,0.04913131650000002,0.011964112999999887,0.03471554100000063
60352.0,-0.687250032,-2.8706025879999997,10.4259399475,-0.071715578964447,0.14017611887392456,-0.6288403841643049,10.835723123704877,0.6482535748645533,-0.0024516625000000625,-0.04187439549999983,0.041874395500000716
60362.0,-0.699214145,-2.8347102489999996,10.491742569,-0.06372197099031297,0.15270060158623588,-0.6688101693642271,10.890415269883901,0.6889738790089903,-0.011964112999999998,0.035892339000000106,0.0658026214999996
60372.0,-0.6596933454999999,-2.7533150539999998,10.5312633685,-0.05199684907541507,0.13831036190354265,-0.7074465230156256,10.905202759847702,0.722712952319632,0.03952079950000009,0.08139519499999981,0.03952079949999998
60382.0,-0.538777351,-2.6455399705,10.549209538,-0.049333476636871716,0.10926633782110501,-0.7319614176891379,10.889214142723702,0.7417145282946864,0.1209159944999999,0.10777508349999998,0.017946169500000053
60392.0,-0.352058735,-2.5593395169999997,10.475071263999999,-0.0639890063658681,0.1145948280274437,-0.7458175866207208,10.788942584982372,0.7572783108336636,0.186718616,0.08620045350000005,-0.07413827400000095
60402.0,-0.09228057649999999,-2.4432287809999997,10.3804370915,-0.10608983858247532,0.2041267279962488,-0.7671350381045796,10.664490460950063,0.8008863475054528,0.2597781585,0.11611073599999999,-0.09463417249999928
60412.0,0.133958839,-2.2696510759999997,10.372101439,-0.17856638110079184,0.3541447585221694,-0.7833892894284028,10.618368482880976,0.8780679024080636,0.22623941549999999,0.17357770500000003,-0.008335652499999568
60422.0,0.24408751849999996,-2.106860686,10.494194231499998,-0.2561078691083959,0.5007000558121333,-0.779657775487639,10.7063790907733,0.9613313858331323,0.11012867949999997,0.16279038999999962,0.12209279249999838
60432.0,0.238105462,-2.028995885,10.606676507,-0.3083351016450742,0.5880991634350012,-0.7604731163497173,10.801625110904695,1.0095793785681624,-0.0059820564999999715,0.07786480100000004,0.11248227550000145
60442.0,0.234575068,-2.0338011435,10.749167131499998,-0.31179783488103097,0.5974262029576589,-0.742086072679957,10.942393091766947,1.0024109422200393,-0.0035303939999999923,-0.004805258499999798,0.14249062449999883
60452.0,0.19024901,-2.0302707494999996,10.758777648499999,-0.27236212043221913,0.530011115270126,-0.7308950215161694,10.950319195893078,0.9430272739604826,-0.044326058,0.0035303940000002143,0.009610517000000485
60462.0,0.2178056965,-2.001537265,10.715628388499999,-0.20867680135619804,0.41703071680077713,-0.7239678097150039,10.903131775092815,0.8611562086422905,0.02755668650000001,0.028733484499999573,-0.043149259999999856
60472.0,0.32793437599999997,-2.0422348625,10.6677719365,-0.12367577612557018,0.3115116008837039,-0.7138414093949328,10.866444785565786,0.7886093664497869,0.11012867949999997,-0.040697597499999905,-0.04785645199999955
60482.0,0.4164884255,-1.9990856025,10.6677719365,-0.034943236954178475,0.2390333130361354,-0.7031826836530034,10.861453123034467,0.7435212445783287,0.08855404950000001,0.04314926000000008,0.0
60492.0,0.477583855,-1.8411004709999998,10.6114817655,0.009822713030224086,0.21371905756520965,-0.6906599462699441,10.78059750396109,0.7230376771921623,0.06109542950000002,0.15798513150000004,-0.05629017099999878
60502.0,0.5302455655,-1.7812799059999997,10.514493996999999,-0.014692181643288267,0.2606177998955493,-0.6839980245150817,10.677485775040902,0.7321139223948485,0.052661710500000014,0.0598205650000001,-0.09698776850000179
60512.0,0.557802252,-1.8422772689999998,10.441532521,-0.08850215571012847,0.36427115884224054,-0.6943897148814561,10.617472876127866,0.7891154445724393,0.027556686499999983,-0.06099736300000003,-0.07296147599999969
60522.0,0.5350508239999999,-1.8769928099999997,10.485760512499999,-0.16257916515252377,0.4841787691127549,-0.7263658921072441,10.665859314586848,0.8879574734287597,-0.022751428000000073,-0.03471554099999996,0.044227991499999675
60532.0,0.4523807644999999,-1.9524059484999998,10.615110226,-0.20254895035244594,0.5550583353654966,-0.769798410543123,10.80264330865171,0.9704150791400102,-0.0826700595,-0.07541313850000009,0.12934971350000168
60542.0,0.385401345,-1.9488755544999998,10.7287692995,-0.19935150716279232,0.5374723978224017,-0.8089688349456317,10.91114754760237,0.9914878606126913,-0.06697941949999991,0.0035303939999999923,0.11365907349999915
60552.0,0.37579082799999997,-1.933282981,10.834190787,-0.16311149057438204,0.45700050200069925,-0.8404109414203096,11.011743360619555,0.970435658683902,-0.00961051700000004,0.015592573499999762,0.10542148750000102
60562.0,0.39618865999999997,-1.8901337209999998,10.905975465000001,-0.11514984272957789,0.3424213819365235,-0.857199263495243,11.075643176843315,0.9302163546319491,0.020397832000000005,0.0431492600000003,0.07178467800000021
60572.0,0.44885037049999993,-1.826782762,10.826933866,-0.07064918279147847,0.22730993645048947,-0.8638594399208533,10.989135491628813,0.896054823199228,0.05266171049999996,0.06335095899999987,-0.07904159900000174
60582.0,0.5230867109999999,-1.8566930444999998,10.718080051,-0.038407715519387216,0.12605291456678647,-0.8585309497145146,10.890278635019566,0.8685849880696225,0.0742363405,-0.02991028249999994,-0.1088538149999998
60592.0,0.5457400724999999,-1.85541818,10.5551915945,-0.01815666020849701,0.06556678400967098,-0.8524030987107626,10.730912283958446,0.855113858013661,0.02265336149999997,0.001274864499999806,-0.16288845649999928
60602.0,0.5410328805,-1.9608396674999997,10.471442803499999,-0.009896016858807848,0.07702487054901375,-0.8532024595081761,10.667179719419542,0.8567293614342647,-0.004707191999999916,-0.10542148749999969,-0.08374879100000143
60612.0,0.4583628209999999,-2.0912681125,10.436727262499998,-0.017357299411083608,0.14150780509319624,-0.8715877578486843,10.654049687599786,0.8831709655422537,-0.08267005950000006,-0.13042844500000017,-0.03471554100000063
60622.0,0.19142580799999998,-2.1367709685,10.521750918,-0.04000643711421402,0.20439376337180395,-0.9144879508627048,10.73823432377161,0.9379048660652803,-0.26693701299999995,-0.04550285600000015,0.08502365550000235
60632.0,0.028635417999999996,-2.1751149699999996,10.653356161,-0.06958453194776193,0.2321061012349699,-0.978173269938726,10.873175369366521,1.0077391504449487,-0.16279038999999998,-0.038344001499999614,0.1316052429999992
60642.0,0.008335652499999999,-2.199043196,10.6473741045,-0.10235832464171145,0.2211803401174854,-1.0477194046429439,10.872094360432754,1.0756922981704895,-0.020299765499999997,-0.02392822600000022,-0.0059820564999988335
60652.0,0.10522535449999999,-2.1344173725,10.598340854499998,-0.12660618393966866,0.1822769510905318,-1.1111376883434099,10.81164366613251,1.1330847166773375,0.096889702,0.06462582349999968,-0.04903325000000258
60662.0,0.30518294799999995,-1.9823162309999998,10.5169456595,-0.12154472910888511,0.11432953798114055,-1.160699803112293,10.706486831650794,1.1726331043314653,0.19995759349999997,0.15210114150000043,-0.08139519499999892
60672.0,0.6583204144999999,-1.9165136094999997,10.4259399475,-0.0850394224741717,0.024265312590477164,-1.1724231796979387,10.621046745609515,1.1757536396128567,0.35313746649999994,0.06580262150000005,-0.0910057119999994
60682.0,0.9719370815,-1.9608396674999997,10.467814343,-0.020287707225182087,-0.06553362275388308,-1.129257696637615,10.694142836691157,1.131339556539501,0.3136166670000001,-0.044326058,0.041874395500000716
60692.0,1.1347274715,-1.8698339554999999,10.465460747,0.05405459226351638,-0.15000232256265264,-1.0506498124570425,10.691573976862122,1.0626794550262952,0.16279038999999995,0.09100571199999985,-0.002353596000000735
60702.0,1.2963410635,-1.8674803594999998,10.405640181999999,0.09482373826085193,-0.17904634664509028,-0.9653817518508595,10.651071807254308,0.9864132310504309,0.16161359199999992,0.002353596000000069,-0.05982056500000077
60712.0,1.4436369465,-1.8100133905,10.340916292000001,0.07990117315630041,-0.13747783985034134,-0.8937045701299564,10.596923415087995,0.9077401679956877,0.14729588300000018,0.05746696899999981,-0.06472388999999801
60722.0,1.6064273365,-1.7441127025,10.305023953000001,0.018081611050661254,-0.030627037713996493,-0.8404109414203096,10.574311163304213,0.8411631890164315,0.16279038999999984,0.06590068799999993,-0.035892339000000106
60732.0,1.6650711034999999,-1.7297949934999999,10.338562696,-0.06212324939548617,0.10526953383403799,-0.7948456306384936,10.61369545061338,0.8041893740992814,0.05864376699999996,0.014317709000000178,0.03353874299999937
60742.0,1.706945499,-1.7525464215,10.326598583,-0.1369996196352949,0.22704290107493436,-0.759939045598607,10.612432340914426,0.8048755976758518,0.04187439550000005,-0.022751428000000073,-0.011964112999999443
60752.0,1.7393074439999998,-1.8255078975,10.381613889499999,-0.18709405982603614,0.3125779970566725,-0.7415537472580987,10.683425313037386,0.8262028513256764,0.03236194499999989,-0.07296147600000014,0.05501530649999786
60762.0,1.6854689354999999,-1.770492591,10.521750918,-0.1982851109898238,0.35334539772475604,-0.7221020527446219,10.801976297315008,0.8280104648562779,-0.05383850849999994,0.05501530650000008,0.14013702850000165
60772.0,1.644771338,-1.7489179609999999,10.6426669125,-0.17856638110079184,0.3211039304526648,-0.692523957911074,10.910102923393389,0.7839535183238876,-0.040697597499999905,0.02157463000000015,0.1209159944999989
60782.0,1.7273433309999997,-1.815995447,10.743185074999998,-0.14765834537722428,0.2297080188427297,-0.6538876042596756,11.031662612787684,0.7086167933972845,0.08257199299999973,-0.06707748600000007,0.10051816249999845
60792.0,1.8147205825,-1.8662054949999998,10.733574557999999,-0.1183472859192315,0.11273081638631374,-0.6107203758700999,11.044707172861678,0.6322133299373631,0.0873772515000002,-0.05021004799999984,-0.009610516999998708
60802.0,1.9331849145,-1.838746875,10.640215249999999,-0.09436471666757741,0.0016161748873467492,-0.569418904450906,10.969611412912728,0.577187318397666,0.11846433200000006,0.027458619999999767,-0.09335930800000014
60812.0,2.0852860559999997,-1.7512715569999997,10.4043653175,-0.0778451752974511,-0.058871700999020726,-0.529716154626539,10.754821600645085,0.5386324841373163,0.15210114149999976,0.0874753180000003,-0.23584993249999897
60822.0,2.3103486734999996,-1.6495765965,10.132623045999999,-0.08850215571012847,-0.020767672769480525,-0.49267852256996736,10.522778327665847,0.5009950642464712,0.2250626174999999,0.10169496049999971,-0.27174227150000085
60832.0,2.4947136935,-1.563376143,9.9962125445,-0.133268105694531,0.10953337319666014,-0.45297577274560036,10.420748850819558,0.4847112527409708,0.18436502000000043,0.08620045350000005,-0.13641050149999856
60842.0,2.5341364264999995,-1.607702201,10.062015166,-0.19082382843754803,0.26994309408895495,-0.4092744736049143,10.50003347594799,0.5261070255095068,0.03942273299999943,-0.044326058,0.0658026214999996
60852.0,2.5006957499999998,-1.8710107534999998,10.1793027,-0.23905425698715932,0.38052541016606367,-0.36317683740124,10.647645933820677,0.5777922990058802,-0.03344067649999971,-0.26330855249999985,0.11728753399999903
60862.0,2.3689924405,-2.0183066364999998,10.287077783500001,-0.27236212043221913,0.4223592070071158,-0.32533984454725495,10.747541867137127,0.598677240957134,-0.13170330949999975,-0.14729588299999996,0.10777508350000176
60872.0,2.2384659289999997,-2.199043196,10.265503153500001,-0.28515189319083356,0.40317454786919416,-0.2890998279588447,10.734387532024646,0.5722237576033341,-0.13052651150000028,-0.18073655950000012,-0.021574629999999928
60882.0,2.130788912,-2.3546747315,10.1925416775,-0.27822468138966805,0.3839898887312725,-0.25126283510485964,10.675797877734537,0.5366472028131417,-0.10767701699999987,-0.15563153549999997,-0.07296147600000147
60892.0,1.9679004554999997,-2.420477353,10.129092651999999,-0.26090403389287636,0.36293947262296883,-0.2174226462379416,10.598578242950483,0.49705993882682104,-0.16288845650000017,-0.06580262150000005,-0.06344902550000064
60902.0,1.787163896,-2.4156720944999996,10.124287393499998,-0.23905425698715932,0.3261671306127003,-0.1817167004006416,10.560805920264555,0.4433428628954138,-0.18073655949999967,0.004805258500000242,-0.0048052585000011305
60912.0,1.6267271019999998,-2.5641447754999995,10.071625683,-0.21560575848661553,0.2893947886024318,-0.1441449975929597,10.51944501352474,0.3886038691185528,-0.16043679400000022,-0.14847268099999988,-0.05266171049999713
60922.0,1.4962986569999999,-2.7616507065,10.0452457945,-0.1961540639731387,0.25875204292516735,-0.11909777749758907,10.524855693432185,0.345851582526365,-0.13042844499999995,-0.1975059310000007,-0.02637988850000106
60932.0,1.3298798065,-2.8454975639999995,9.9758147125,-0.18469597743379593,0.24436354857172607,-0.11136945956975818,10.45860009105415,0.32592837322892215,-0.16641885049999994,-0.08384685749999932,-0.06943108199999948
60942.0,1.159930562,-2.7832253364999997,9.8334221545,-0.1969534247705521,0.25448820356254515,-0.1153662635568252,10.285328067252332,0.34185416780902905,-0.16994924449999993,0.06227222749999983,-0.14239255800000095
60952.0,1.0498018825,-2.766455965,9.791449692499999,-0.2148063976892021,0.2835322276449828,-0.12176289526538439,10.22877557088545,0.37597674830359784,-0.11012867950000005,0.016769371499999686,-0.04197246200000038
60962.0,0.9958653074999999,-2.9232642985,9.793901355,-0.21027552295102483,0.31177863625925906,-0.1201641736705576,10.269261201324932,0.39479253059542335,-0.05393657500000004,-0.1568083334999999,0.0024516625000003955
60972.0,0.9229038314999999,-2.9915185825,9.8801018085,-0.1759030086622485,0.3013852005636328,-0.11616562435423859,10.36423401211904,0.36778983109490987,-0.07296147600000003,-0.068254284,0.08620045350000005
60982.0,0.8785777735,-2.906494927,9.9650273975,-0.11648152894884956,0.2483603525587931,-0.10417521239303754,10.417359679769657,0.29343361461585166,-0.04432605799999989,0.08502365550000013,0.08492558900000091
60992.0,0.8917186844999999,-2.82627653,10.0464225925,-0.033344515359351665,0.15456461322736584,-0.07699694528098185,10.474426387321154,0.17587099234745265,0.013140910999999922,0.08021839699999989,0.0813951950000007
61002.0,1.1000119305,-2.7448813349999996,10.119482135,0.06791076119509937,0.031192524391642655,-0.03436204231326436,10.542690286215272,0.08225323711538414,0.2082932460000001,0.08139519500000025,0.07305954249999935
61012.0,1.417257058,-2.6012139124999996,10.184107958499999,0.17129883009548746,-0.07379252077432025,0.009070476122614532,10.606176799272081,0.18673751324091817,0.3172451274999999,0.14366742250000009,0.06462582349999835
61022.0,1.8099153239999999,-2.5330576949999997,10.2033289925,0.26562514951952104,-0.14600551857558566,0.0772849246075609,10.667712842753117,0.31280551638900167,0.392658266,0.0681562174999999,0.01922103400000097
61032.0,2.066065022,-2.4360699264999996,10.075156076999999,0.3050626092975849,-0.17877931126953514,0.17427810712864178,10.5693817859816,0.3942056523615594,0.2561496980000002,0.09698776850000002,-0.12817291550000043
61042.0,2.1175499345,-2.324764449,9.912365687,0.305327899343888,-0.16225802457015684,0.26727274033340365,10.399208670915792,0.4370211784118569,0.05148491249999987,0.11130547749999975,-0.16279038999999962
61052.0,1.9619183989999998,-2.199043196,9.7532037575,0.29014004419303335,-0.09830741544783261,0.33335614180166495,10.188714262237445,0.4527382361290681,-0.1556315355000002,0.12572125300000003,-0.15916192949999974
61062.0,1.6746816205,-1.9763341744999998,9.665826505999998,0.27521922441773383,-0.03622256329589032,0.3647982482763428,10.006930465603787,0.45840534194783544,-0.28723677849999985,0.22270902150000005,-0.08737725150000131
61072.0,1.4459905425,-1.9284777224999998,9.6957367885,0.25896497309391064,-0.02396511595913414,0.36240016588410257,9.990857162778903,0.4460617270124054,-0.228691078,0.047856451999999994,0.029910282500001273
61082.0,1.4914933984999998,-2.2325819389999997,9.911188888999998,0.24271072177008746,-0.07832339551249752,0.3397510281809722,10.268429279376427,0.4248220920535933,0.045502855999999925,-0.30410421649999986,0.21545210049999852
