timestamp,ax,ay,az,gx,gy,gz,acc_mag,gyro_mag,dax,day,daz
82812.0,-3.0817397624999994,-1.1596363625,9.794293621,-0.011360348101231092,-0.10642494179885822,-0.05136503988619312,10.332960078862545,0.11871686092708869,0.0,0.0,0.0
82822.0,-3.608454934,-1.4265733754999999,10.328167646999999,-0.012693779649754757,-0.12054640077674435,-0.09293354668094206,11.033000750064867,0.1527390286754595,-0.5267151715000007,-0.26693701299999995,0.5338740259999994
82832.0,-3.6360116204999997,-1.512773829,10.3365032995,-0.0039008108782073265,-0.10589261637699995,-0.14516077921762038,11.061300358578677,0.1797223256908856,-0.02755668649999965,-0.08620045350000005,0.008335652500001345
82842.0,-3.8706847549999996,-1.5139506269999998,10.467029811,0.014751522837856072,-0.09629854147878714,-0.22030243950373227,11.262014031155609,0.24088209017748308,-0.23467313449999994,-0.0011767979999999234,0.1305265114999994
82852.0,-3.9663976589999996,-1.478058288,10.5532302645,0.02381152698495864,-0.10802366339368505,-0.30184073149840335,11.370472096953797,0.3214715039654974,-0.09571290399999999,0.035892338999999884,0.08620045350000005
82862.0,-3.9556103439999997,-1.4720762314999998,10.5293020385,0.0043598324714818355,-0.09390045908654691,-0.3948353647031652,11.343723508745587,0.405871001151998,0.010787314999999964,0.005982056500000166,-0.023928226000000663
82872.0,-3.8323407535,-1.4744298275,10.585494143,-0.04600164309481454,-0.05179962686993971,-0.5011538414176517,11.354006571190892,0.5059194849765687,0.12326959049999964,-0.002353596000000291,0.056192104500000895
82882.0,-3.6527809919999994,-1.424121713,10.5328324325,-0.10995225221713878,0.009220574438286043,-0.6159999968573826,11.23883849337103,0.6258038933155408,0.17955976150000064,0.05030811450000017,-0.05266171050000068
82892.0,-3.5079367714999994,-1.328408809,10.5220451175,-0.16058076315899028,0.07050606579281493,-0.7324431285626883,11.170663534964081,0.7531468803553548,0.1448442205,0.09571290399999999,-0.010787314999999964
82902.0,-3.3774102599999996,-1.2337746365,10.5316556345,-0.18056478309432533,0.11074288636829221,-0.8376969544334584,11.128561017567346,0.8640623908272903,0.13052651149999983,0.09463417249999995,0.009610517000000485
82912.0,-3.213443072,-1.109328248,10.549601804,-0.17337053591760473,0.11207457258756388,-0.9213662934448145,11.083813592881992,0.9442107281964544,0.16396718799999954,0.1244463885,0.017946169500000053
82922.0,-2.9692574869999997,-0.9548735104999999,10.5220451175,-0.152053084433746,0.07903374451805922,-0.9818524240019301,10.974593700901448,0.9966948659328128,0.24418558500000032,0.15445473750000005,-0.027556686500000538
82932.0,-2.7561589825,-0.8279754595,10.4490836415,-0.1365981939073362,0.03240203756327473,-1.0124951696791944,10.838141198813226,1.0221816997191344,0.21309850449999956,0.12689805099999996,-0.07296147599999969
82942.0,-2.5502193324999998,-0.6879364975,10.407209245999999,-0.12887162130875732,-0.02168920661453353,-1.0159596482444033,10.737172791683907,1.0243301827649165,0.20593965000000036,0.140038962,-0.041874395500000716
82952.0,-2.4186140894999997,-0.600559246,10.235985136999998,-0.1318020291228558,-0.07524812537048352,-1.001571153890962,10.5349778000131,1.0130048526829214,0.1316052430000001,0.08737725149999997,-0.17122410900000062
82962.0,-2.2425847219999997,-0.587418335,9.996604810500001,-0.15178604905819085,-0.10562558100144483,-0.9789220161878315,10.261888436002106,0.9962349531249329,0.17602936749999998,0.013140911000000033,-0.2393803264999974
82972.0,-2.0199737669999998,-0.6376283829999999,9.764285272,-0.1736358259639079,-0.08803964345834996,-0.965865208053662,9.991402846806423,0.9852897944295301,0.22261095499999994,-0.05021004799999995,-0.23231953850000053
82982.0,-1.9349501115,-0.7322625555,9.6541565925,-0.1808318184698805,-0.041407936503565466,-0.9730594552303826,9.873346945017806,0.9905854164027735,0.08502365549999968,-0.09463417250000006,-0.11012867950000071
82992.0,-1.9193575379999999,-0.830427122,9.646997738,-0.17230413974463618,0.007087782092348972,-1.0050356324561707,9.871074304279537,1.0197232839033847,0.015592573500000206,-0.09816456650000005,-0.007158854500000089
83002.0,-1.8691474899999998,-0.948891454,9.621892714,-0.15818268076675007,0.04545884569744431,-1.0705849631733217,9.84758481713023,1.0831622364722295,0.05021004800000006,-0.11846433199999995,-0.025105024000000142
83012.0,-1.792459487,-1.0123404795,9.631405164499999,-0.14592523342999392,0.07530223057729535,-1.1569176746232213,9.848944598368286,1.168513202979374,0.0766880029999999,-0.06344902549999998,0.009512450499999048
83022.0,-1.627315501,-0.9752713424999999,9.566779340999998,-0.1365981939073362,0.10861009402235514,-1.245650213794613,9.7530803795868,1.2578154372676686,0.1651439859999999,0.03706913700000003,-0.06462582350000012
83032.0,-1.3088935755,-0.7920831204999998,9.484207348,-0.13313371534212745,0.14937924001969066,-1.318927862439595,9.606809412162988,1.3340200335186643,0.31842192550000004,0.18318822200000007,-0.0825719929999984
83042.0,-0.8767145099999999,-0.567020503,9.436350895999999,-0.1357988331099228,0.2077343235601211,-1.3554331690743084,9.493938003552945,1.3779673247525939,0.43217906550000007,0.2250626174999999,-0.047856452000001326
83052.0,-0.47326892899999995,-0.35872725699999997,9.460279122,-0.14139435869181663,0.2831430192217881,-1.3402453139234538,9.478900241600849,1.3771056007066695,0.40344558099999994,0.208293246,0.023928226000000663
83062.0,-0.172793173,-0.15043401099999998,9.468614774499999,-0.15391884140412793,0.34656130292225407,-1.2792251126152279,9.471386045356859,1.3342460924311534,0.300475756,0.208293246,0.008335652499999568
83072.0,-0.08306232549999999,-0.04746418599999999,9.5272585415,-0.1645775671460573,0.38493236652734936,-1.1846300124863873,9.52773884588861,1.2564262687844276,0.0897308475,0.10296982499999999,0.05864376700000129
83082.0,-0.22545488349999998,-0.1336646395,9.6398388835,-0.15604988842081302,0.37880277019434533,-1.084973457526763,9.643401362599462,1.1597458816140012,-0.142392558,-0.0862004535,0.11258034199999933
83092.0,-0.47326892899999995,-0.417371024,9.795470418999999,-0.13020330752802897,0.3047275060812019,-1.0108964480843676,9.815774181404931,1.06382488361727,-0.24781404549999997,-0.28370638449999996,0.15563153549999953
83102.0,-0.6252720039999999,-0.702352273,9.8265574995,-0.08970119690624857,0.18321942888660872,-0.9847845771452804,9.87144853024895,1.0056919643862914,-0.152003075,-0.28498124900000005,0.031087080500000752
83112.0,-0.7210829744999999,-0.9033885979999999,9.8026292735,-0.04360356070257433,0.05105437127933812,-1.0026375500639304,9.870542654220653,1.004883016142114,-0.09581097049999998,-0.2010363249999999,-0.023928226000000663
83122.0,-0.7079420635,-0.9872354554999999,9.555992025999998,-0.0137584304934713,-0.05659579165442013,-1.0410068683397737,9.632901920545256,1.0426349687082326,0.013140910999999922,-0.08384685749999998,-0.2466372475000007
83132.0,-0.564274641,-0.9872354554999999,9.2483574155,-0.002035053907825388,-0.0952338906350706,-1.090836018484212,9.318001641978059,1.0949871481402824,0.14366742249999997,0.0,-0.3076346104999992
83142.0,-0.400307453,-0.970466084,8.9814204025,-0.007363544114164076,-0.04300665809839228,-1.1411974940505083,9.042563957394213,1.14203131080101,0.16396718800000004,0.016769371499999908,-0.2669370129999997
83152.0,-0.25664003049999995,-0.9836069949999999,8.754004189,-0.0332101250069481,0.09102415647926027,-1.1875621656297377,8.812827932445833,1.1915083745827935,0.14366742250000003,-0.013140910999999922,-0.22741621349999974
83162.0,-0.1656343185,-0.8854424284999999,8.731252761,-0.06491926685718108,0.2445066655703896,-1.2312617194411717,8.777597495791378,1.256981878341472,0.09100571199999996,0.09816456650000005,-0.022751427999999407
83172.0,-0.15121854299999998,-0.683131239,8.868938127,-0.06012310207270066,0.3670793936086994,-1.255509578739129,8.896493626030368,1.3094526990008766,0.014415775500000005,0.20231118949999993,0.13768536599999948
83182.0,-0.20996037649999996,-0.497589421,9.162156962,-0.004700171675620729,0.4153080768290587,-1.247515970764995,9.178060731326427,1.3148380081237991,-0.05874183349999998,0.18554181799999997,0.29321883499999934
83192.0,-0.29733762799999996,-0.43659205799999995,9.432722435499999,0.07816980653832202,0.3835989349788257,-1.2168732250877305,9.447500983610341,1.2782953913343122,-0.0873772515,0.06099736300000003,0.2705654734999996
83202.0,-0.36912230599999996,-0.4796432515,9.6529797945,0.145584894225855,0.29779854895078445,-1.1851640832374974,9.67193506174031,1.2306473261581174,-0.07178467799999999,-0.04305119350000003,0.22025735900000143
83212.0,-0.3511761365,-0.6088948985,9.845680467000001,0.18981851878839928,0.18481815048143554,-1.1729066359007414,9.870739665016586,1.2024553194869216,0.017946169499999942,-0.12925164700000003,0.1927006725000009
83222.0,-0.183580488,-0.6879364975,9.887652928999998,0.21726382127601013,0.08303054850512624,-1.1798338477019068,9.913255714674625,1.202541287525548,0.16759564850000003,-0.07904159899999996,0.041972461999996824
83232.0,0.0175539035,-0.5945771895,9.85176059,0.22552446462569928,0.029736919795479388,-1.1907596088193912,9.869701965939953,1.2122928749024886,0.20113439149999998,0.09335930799999992,-0.03589233899999833
83242.0,0.16955697849999998,-0.4557150254999999,9.875688815999998,0.2122006211159746,0.026274186559522638,-1.1846300124863873,9.887651659716374,1.2037722803607285,0.152003075,0.13886216400000012,0.023928225999998887
83252.0,0.29164977099999995,-0.35872725699999997,9.937862976999998,0.19328299735360802,0.03213500218771959,-1.1595827923910167,9.948611228883475,1.1760200796929223,0.12209279249999996,0.09698776849999996,0.06217416099999973
83262.0,0.29645502949999997,-0.2689964095,10.0313203515,0.1796921184683282,0.029736919795479388,-1.116682599376996,10.039304390606842,1.1314387166744486,0.00480525850000002,0.08973084749999999,0.09345737450000158
83272.0,0.289296175,-0.31685286149999997,10.0660358925,0.17089914969678077,0.0038903389026953604,-1.0703179277977666,10.075175760343274,1.0838828906617013,-0.007158854499999978,-0.047856451999999994,0.03471554100000063
83282.0,0.3515684025,-0.46532554249999997,10.0564253755,0.1666353103341586,-0.0222232773656438,-1.0306151779733996,10.073322169728298,1.044236010572406,0.0622722275,-0.148472681,-0.009610517000000485
83292.0,0.418547822,-0.5969307855,10.015727777999999,0.1642372279419184,-0.027019442150124216,-1.003702200907647,10.042226424701814,1.017409467914961,0.06697941950000003,-0.13160524300000004,-0.04069759750000124
83302.0,0.534658558,-0.6640082715,10.014550980000001,0.15624361996778438,0.00628842129493557,-0.9927781851194145,10.050771019642326,1.0050174813763284,0.11611073599999994,-0.06707748599999996,-0.001176797999997703
83312.0,0.568197301,-0.669990328,10.0672126905,0.14425320800658334,0.06677629718130305,-0.9845175417697254,10.105469141422455,0.997267693218696,0.03353874300000004,-0.005982056500000055,0.052661710499998904
83322.0,0.568197301,-0.635274787,10.1354669745,0.13492616848392563,0.11793713354501283,-0.9730594552303826,10.17123950258973,0.98942354016054,0.0,0.03471554100000007,0.068254284
83332.0,0.6137001569999999,-0.6077181005,10.3006109605,0.13039703907500033,0.14591476145448193,-0.9565381685310043,10.3367565189449,0.9763502308426487,0.045502855999999925,0.027556686499999983,0.16514398600000035
83342.0,0.6914668915,-0.580161414,10.5771584905,0.14345384720916993,0.1309939416791824,-0.9288258306678383,10.615601511995983,0.9489235178619828,0.07776673450000005,0.027556686499999983,0.2765475300000002
83352.0,0.8040472334999998,-0.5359334225,10.8321313905,0.16637002028785547,0.06757565797871645,-0.8888577907971681,10.875145380550416,0.9068150999308846,0.11258034199999989,0.04422799150000001,0.2549729000000003
83362.0,1.0027299625,-0.5143587924999999,10.976975610999999,0.17569531448126116,-0.015294320235226309,-0.8382292798553167,11.03467380168558,0.8565810442502739,0.19868272900000006,0.02157463000000004,0.1448442204999978
83372.0,1.248190412,-0.5060231399999999,11.009337556,0.15704298076519776,-0.0789796393112474,-0.7798741963148863,11.091417950143988,0.7994398309511122,0.24546044950000012,0.008335652500000013,0.03236194500000167
83382.0,1.4719781650000001,-0.508376736,10.9613830375,0.11094534456152355,-0.11841535376005928,-0.7121920732517981,11.071453595564382,0.7304441215374998,0.2237877530000001,-0.002353596000000069,-0.04795451850000099
83392.0,1.6407506114999997,-0.5215176469999999,10.890775157499998,0.05685410038371528,-0.13173919726978398,-0.6373174483412414,11.026015905869588,0.6532695728318589,0.16877244649999956,-0.013140910999999922,-0.07060788000000073
83402.0,1.771277123,-0.587418335,10.7962390515,0.008623671834103981,-0.13466960508388248,-0.5605753211310508,10.956334268535757,0.5765890745674357,0.13052651150000028,-0.06590068800000004,-0.09453610599999784
83412.0,1.8945467134999998,-0.715493184,10.662182146,-0.02841396022246768,-0.13706768747612266,-0.49156151184869096,10.852804515905797,0.5111043181352969,0.12326959049999986,-0.128074849,-0.13405690550000138
83422.0,1.9772167729999999,-0.6879364975,10.534107296999998,-0.04360356070257433,-0.13680065210056755,-0.430276020494162,10.740114493651067,0.45360020142563445,0.08267005950000006,0.027556686499999983,-0.12807484900000077
83432.0,1.9975165385,-0.6532209565,10.4861527785,-0.0324107642095347,-0.1413315268387448,-0.37192093695373163,10.694679519912462,0.3991869755637808,0.020299765500000122,0.03471554099999996,-0.04795451849999921
83442.0,1.9927112799999998,-0.5982056499999999,10.490958036999999,-0.004433136300065597,-0.13999984061947315,-0.3058375354854703,10.695276937939758,0.3363869887239386,-0.004805258500000242,0.05501530650000008,0.004805258499999354
83452.0,1.9388727714999998,-0.6316463265,10.437119528499998,0.007291985614832309,-0.1248102401393665,-0.22456627886635439,10.634456674322438,0.25702292252196984,-0.05383850849999994,-0.033440676500000044,-0.05383850850000016
83462.0,1.9161213435,-0.7226520385,10.4263322135,-0.010295697257514549,-0.10642494179885822,-0.14649246543689204,10.625542357829659,0.18136237771017386,-0.02275142799999985,-0.09100571200000007,-0.010787314999998188
83472.0,1.8598311725,-0.7944367164999999,10.469383406999999,-0.04013908213736559,-0.09683261222989739,-0.08920377806943018,10.66293067638972,0.13764089046484698,-0.05629017099999989,-0.07178467799999988,0.04305119349999842
