timestamp,ax,ay,az,gx,gy,gz,acc_mag,gyro_mag,dax,day,daz
142002.0,1.010281083,-1.7656873324999998,10.288254581499999,-0.1798998126493155,0.3362917856035194,0.05383642610701709,10.487444967987882,0.385168104120316,0.0,0.0,0.0
142012.0,0.7265746985,-2.0744987409999998,9.655039190999998,-0.21027552295102483,0.33842457794945646,0.05356939073146196,9.902082487974782,0.40201575856666955,-0.28370638449999996,-0.3088114085,-0.6332153905000002
142022.0,0.9599729685,-2.2983845604999997,9.7794855795,-0.18629469902862272,0.3506820252862127,0.07062300285269855,10.091702427630528,0.4033251867624154,0.23339827000000002,-0.22388581949999997,0.12444638850000089
142032.0,0.7373620135,-2.0924449105,9.8477398635,-0.10955257181843207,0.3898507043594694,0.07995004237535625,10.094553425565547,0.4127679093115505,-0.22261095500000005,0.20593964999999992,0.068254284
142042.0,0.5218118465,-2.001537265,9.943550834,-0.021621138773705754,0.3991777438821271,0.09647132907473457,10.156408923171295,0.4112384493042238,-0.21555016699999996,0.09090764549999975,0.09581097050000054
142052.0,0.3231291175,-2.0744987409999998,10.182931160499999,0.04765970588420916,0.3914494259542962,0.1137902312422743,10.397117123148549,0.41042943043973784,-0.198682729,-0.07296147599999969,0.23938032649999919
142062.0,0.110030613,-2.0744987409999998,10.5169456595,0.09508902830715506,0.3738634884112013,0.12045215299713666,10.720158476770928,0.4041343247399768,-0.2130985045,0.0,0.33401449900000024
142072.0,-0.0946341725,-2.028995885,10.859295810999999,0.11454246814988386,0.3386898679957596,0.10286621545404179,11.047628045818424,0.3720379845858344,-0.2046647855,0.0455028559999997,0.3423501514999998
142082.0,-0.261053023,-2.0194834345,11.109463452499998,0.09135925969564318,0.2627488469122343,0.06902428125787174,11.294540283936772,0.28661441395891185,-0.1664188505,0.009512450499999936,0.25016764149999915
142092.0,-0.401091985,-1.9380882394999999,11.2842179555,0.03033905838741743,0.16016013880925967,0.036250488563922226,11.456466980345558,0.16699049807806285,-0.140038962,0.08139519500000025,0.17475450300000261
142102.0,-0.48493884249999997,-1.8482593255,11.24234356,-0.03973940173865889,0.05277701125105653,0.01653175867489029,11.403574743751909,0.06810236421759147,-0.08384685749999998,0.08982891399999993,-0.041874395500000716
142112.0,-0.47297472949999997,-1.839923673,11.067589057,-0.09036791268051039,-0.030092966962886228,0.006672393730374321,11.229450198110214,0.09548019240111978,0.011964112999999998,0.008335652500000013,-0.17475450300000084
142122.0,-0.5040618099999999,-1.8841516644999998,10.894011352,-0.11808025054367637,-0.08205316412400941,0.0008098327729253688,11.067230418702028,0.14379263938164258,-0.031087080499999975,-0.0442279914999999,-0.17357770499999958
142132.0,-0.5351488904999999,-2.001537265,10.757502783999998,-0.12980362712932228,-0.11402934134979753,0.001609193570338772,10.955199765679984,0.17278385864583415,-0.031087080499999975,-0.11738560050000024,-0.13650856800000177
142142.0,-0.5412290135,-2.118824799,10.600694450499999,-0.13273578027267274,-0.13801016527219961,0.0010768681484805013,10.82391196410859,0.19148564627163137,-0.006080123000000048,-0.11728753399999992,-0.156808333499999
142152.0,-0.5866338029999999,-2.1739381719999997,10.475071263999999,-0.12634089389336553,-0.15479848734713308,-0.009847147639752007,10.714348528043105,0.20005389141772334,-0.04540478949999993,-0.055113372999999743,-0.12562318650000037
142162.0,-0.5890854655,-2.315153932,10.340916292000001,-0.11435048193216449,-0.16145866377274343,-0.029832912904339075,10.613270427755502,0.20008731973255067,-0.0024516625000000625,-0.14121576000000013,-0.13415497199999749
142172.0,-0.6153672874999999,-2.4156720944999996,10.2547158385,-0.09249895969719549,-0.16252505994571195,-0.05541245842156797,10.553357072280548,0.19504100390364756,-0.026281821999999955,-0.10051816249999979,-0.08620045350000183
142182.0,-0.5771213525,-2.488731637,10.220000297499999,-0.06665237880441145,-0.15959465213161347,-0.09085311421256483,10.534479593098853,0.19536448231809903,0.03824593499999995,-0.07305954250000024,-0.03471554100000063
142192.0,-0.5412290135,-2.4599981525,10.190090015,-0.03947411169235575,-0.14760424017041246,-0.12682435009616796,10.496783043826346,0.19856896280008304,0.035892338999999995,0.028733484500000017,-0.029910282499999497
142202.0,-0.48376204449999993,-2.3965491269999997,10.199700531999998,-0.025350907385217634,-0.12522039251358516,-0.15773413114898752,10.488630243092008,0.20298490420678136,0.057466969000000034,0.0634490255000002,0.009610516999998708
142212.0,-0.3341125655,-2.3641871819999998,10.166161788999998,-0.03654195854900528,-0.07912275630991095,-0.17825222183543288,10.442789749778637,0.19841769046620603,0.14964947899999992,0.03236194499999989,-0.03353874299999937
142222.0,-0.216726965,-2.315153932,10.200877329999999,-0.05945813162769082,-0.021832323613197067,-0.1833154219954684,10.462543027769161,0.1939496422074138,0.11738560050000002,0.04903324999999992,0.03471554100000063
142232.0,-0.1293497135,-2.2277766805,10.1948952735,-0.08850215571012847,0.047181485669162714,-0.17265669625353905,10.436264174703263,0.19967237895231296,0.0873772515,0.08737725149999997,-0.0059820564999988335
142242.0,-0.11022674599999999,-2.189432679,10.1733206435,-0.11648152894884956,0.12498826372306991,-0.1433456367955463,10.406835172465746,0.2230201431330588,0.019122967500000004,0.03834400150000006,-0.021574629999999928
142252.0,-0.10787314999999999,-2.1583455985,10.141056765,-0.14685723925055888,0.2139860929407648,-0.10337585159562414,10.368757141046729,0.27936295993826743,0.0023535959999999995,0.031087080499999864,-0.03226387850000023
142262.0,-0.1569064,-2.1104891465,10.176949104,-0.17643533408410678,0.317639451887456,-0.06074269395715865,10.394665801326259,0.36839370702810176,-0.049033250000000014,0.047856451999999994,0.035892339000000106
142272.0,-0.31018433949999996,-2.109214282,10.223628757999998,-0.20174958955503253,0.4124998420625998,-0.016243779348311223,10.443542703185946,0.45948109531819753,-0.15327793949999996,0.001274864500000028,0.046679653999998294
142282.0,-0.48376204449999993,-2.155893936,10.303847155,-0.22519808805557637,0.4868438868805503,0.018130480269717093,10.538081920946619,0.5367120861054461,-0.17357770499999997,-0.04667965400000007,0.08021839700000122
142292.0,-0.6920552904999999,-2.220617826,10.387595946,-0.2411853040038444,0.5377376878687049,0.034117696217985154,10.644821914509121,0.5903356579243967,-0.208293246,-0.06472388999999978,0.08374879099999966
142302.0,-0.9314356169999999,-2.2708278739999996,10.509786805000001,-0.2449168179446083,0.5372053624468466,0.029588566809059868,10.792583111957196,0.5911423960769304,-0.23938032649999996,-0.05021004799999984,0.1221908590000016
142312.0,-1.150516178,-2.324764449,10.5732358305,-0.23052657826191503,0.4793826043282745,-0.0013212142437597075,10.886759533788878,0.531932260936281,-0.21908056100000006,-0.053936575000000264,0.06344902549999887
142322.0,-1.2965371964999999,-2.4229290155,10.598340854499998,-0.1990844717872372,0.37706093160085496,-0.05621181921898137,10.948809185670541,0.430080622286584,-0.14602101849999993,-0.09816456649999994,0.025105023999998366
142332.0,-1.3516505695,-2.5066778065,10.6450205085,-0.15751596499248824,0.2531565173432735,-0.12416097765762461,11.01938539638282,0.32297902389131566,-0.05511337300000019,-0.0837487910000001,0.04667965400000185
142342.0,-1.3252706810000001,-2.5737552925,10.582748280999999,-0.11008664256954234,0.1193927381411761,-0.19690455555149627,10.97155959117018,0.25523537918951184,0.02637988849999995,-0.06707748600000007,-0.062272227500001165
142352.0,-1.2726089704999999,-2.558162719,10.487035377,-0.057859410032864024,0.0077440258910988395,-0.2709815649938916,10.869298095421254,0.2771979253762405,0.052661710500000236,0.015592573500000206,-0.0957129039999991
142362.0,-1.2259293165,-2.5593395169999997,10.403188519499999,-0.0032340951039454926,-0.06713234434870989,-0.34399217826331835,10.783295081958414,0.3504965473941758,0.04667965399999985,-0.0011767979999999234,-0.08384685750000109
142372.0,-1.102659726,-2.6012139124999996,10.400834923499998,0.041797144926760205,-0.10789974501679343,-0.41673575615719005,10.777733499944372,0.43250207717261036,0.12326959050000008,-0.04187439549999983,-0.002353596000000735
142382.0,-1.022441329,-2.5892497994999997,10.363667719999999,0.0705758789628947,-0.12335463554320324,-0.4873482870343766,10.731039530540741,0.507647194099133,0.08021839699999989,0.011964112999999887,-0.037167203499999246
142392.0,-0.8536688825,-2.572480428,10.366119382499999,0.07883477698333187,-0.13348103586327434,-0.5592942494600869,10.714608586674272,0.5803810528232863,0.16877244650000012,0.016769371499999686,0.0024516625000003955
142402.0,-0.5866338029999999,-2.5066778065,10.4043653175,0.06311459641061895,-0.11296294517682899,-0.6320378273539585,10.718133723014411,0.6451479632374351,0.26703507950000005,0.06580262150000005,0.03824593500000084
142412.0,-0.3233252505,-2.394195531,10.319439728499999,0.03193777998224424,-0.0695304267409501,-0.6853297107343534,10.598469123812901,0.6895877858896614,0.2633085524999999,0.11248227550000012,-0.08492558900000091
142422.0,-0.087475318,-2.200219994,10.324146920499999,0.0020943951023931952,0.0013491395117916165,-0.7037167544041136,10.556354938582075,0.7037211643096482,0.2358499325,0.19397553700000003,0.004707191999999694
142432.0,0.09443803949999999,-2.051747313,10.269131614,-0.024551546587804236,0.09407848267025035,-0.6914593070673575,10.472518784197122,0.69826177947204,0.18191335749999998,0.14847268099999988,-0.05501530649999786
142442.0,0.201036325,-1.9979088044999997,10.2511854445,-0.046401323493521246,0.18041119412014986,-0.6618812122338096,10.445997233993355,0.687595826699018,0.1065982855,0.05383850850000016,-0.017946169500000053
142452.0,0.270467407,-1.9990856025,10.257167501,-0.05732708461100575,0.24329715239875754,-0.6285733487887498,10.453658737874633,0.6764498161747441,0.069431082,-0.0011767980000001454,0.0059820564999988335
142462.0,0.2764494635,-1.9979088044999997,10.2751136705,-0.054929002218765545,0.2869967062101916,-0.601128046301139,10.471199780286117,0.668385541966665,0.005982056499999999,0.0011767980000001454,0.017946169500000053
142472.0,0.258503294,-2.015854974,10.266778018,-0.04107283328718256,0.32483369906417664,-0.5787459439735637,10.46600334894354,0.6649441911527644,-0.017946169499999998,-0.017946169500000053,-0.008335652499999568
142482.0,0.24173392249999998,-1.9871214895,10.291883041999998,-0.02908242132598151,0.3688002882511658,-0.5651550650882838,10.484748144496704,0.6754699752315177,-0.01676937150000002,0.028733484499999795,0.025105023999998366
142492.0,0.192602606,-1.9296545205,10.313457671999998,-0.03068114292080832,0.42182688158525755,-0.5624916926497405,10.494192274037088,0.7037585913215129,-0.049131316499999966,0.057466969000000034,0.021574629999999928
142502.0,0.18063849299999998,-1.9548576109999998,10.372101439,-0.04347091567942277,0.4705896355567271,-0.5656891358393941,10.556258182014297,0.7371217837034402,-0.011964113000000026,-0.025203090499999803,0.05864376700000129
142512.0,0.1734796385,-1.9859446914999999,10.445062915,-0.053330280623938735,0.5030981382043734,-0.5662214612612525,10.633598205733533,0.7593145584597749,-0.007158854499999978,-0.031087080500000086,0.07296147599999969
142522.0,0.16985117799999996,-2.0194834345,10.5528379985,-0.05572836301617894,0.5222827973422952,-0.5635563434934571,10.745675994904806,0.7703770006534927,-0.0036284605000000414,-0.03353874300000026,0.10777508349999998
142532.0,0.0789435325,-2.081755662,10.684541308,-0.04959876668317486,0.5030981382043734,-0.5603589003038034,10.885741209488263,0.7546985301899606,-0.09090764549999997,-0.06227222749999983,0.13170330950000064
142542.0,0.023830159499999996,-2.140399429,10.814969752999998,-0.037875390097528945,0.4311539211079152,-0.5587601787089767,11.024765228814179,0.7067822763571946,-0.055113373,-0.05864376699999996,0.13042844499999795
142552.0,-0.014415775499999998,-2.1655044529999996,10.882047239,-0.025350907385217634,0.3157754402463261,-0.5598265748819451,11.095430116150235,0.6432438037883187,-0.038245934999999995,-0.025105023999999698,0.0670774860000023
142562.0,-0.046777720499999995,-2.1714865094999998,10.854490552499998,-0.008831366015091307,0.1782801471034648,-0.5611582611012168,11.069666073120155,0.5888636496499567,-0.032361944999999996,-0.005982056500000166,-0.027556686500002314
142572.0,-0.0072569209999999995,-2.178645364,10.712097994499999,0.005024802916491674,0.05863782687925349,-0.5563620963167364,10.931403923044469,0.5594661970158915,0.039520799499999995,-0.007158854500000089,-0.14239255799999917
142582.0,0.0573689025,-2.2121841069999997,10.4737963995,0.00555887366760194,-0.001048942880448592,-0.5510336061103978,10.705020351798337,0.5510626429187954,0.0646258235,-0.033538742999999815,-0.23830159499999937
142592.0,0.157887065,-2.213360905,10.270308411999999,-0.016025613191811935,0.022132520244540092,-0.5443716843555354,10.507289360185846,0.5450570607364253,0.1005181625,-0.0011767980000003675,-0.20348798750000086
142602.0,0.16151552549999998,-2.2373871975,10.214018240999998,-0.04746771966648978,0.10207209064438437,-0.535845750959543,10.45744506865779,0.5475422950971445,0.003628460499999986,-0.02402629249999988,-0.056290171000000555
142612.0,0.07649186999999999,-2.302013021,10.3206165265,-0.06345493561475783,0.1705535745048859,-0.5259863860150271,10.574508992955398,0.5565758968042147,-0.08502365549999999,-0.06462582350000012,0.10659828550000228
142622.0,-0.027654752999999997,-2.3666388444999997,10.503706681999999,-0.05812644540841915,0.17961183332273645,-0.5315819115969209,10.76706079982607,0.5641085206433325,-0.104146623,-0.06462582349999968,0.18309015549999863
142632.0,-0.1030678915,-2.4432287809999997,10.722787242999999,-0.03547730770528874,0.11965802818747924,-0.5590272140845317,10.998097841227297,0.5727897599982424,-0.0754131385,-0.07658993650000001,0.21908056100000017
142642.0,-0.1605348605,-2.4863780409999996,10.883224037,-0.004300491276914028,-0.015172147187586705,-0.5957995560948003,11.164784487115607,0.5960082208478887,-0.05746696899999999,-0.043149259999999856,0.16043679400000066
142652.0,-0.1185623985,-2.4576445565,10.8556673505,0.02634225440035042,-0.1819767544591888,-0.634968235168057,11.131019155187175,0.6610553026811218,0.04197246199999999,0.028733484499999573,-0.027556686500000538
142662.0,-0.0097085835,-2.4241058134999998,10.685718106,0.04552865886752408,-0.3106790788305026,-0.6701418555834987,10.957232985226439,0.7400570622635392,0.10885381499999999,0.03353874300000026,-0.1699492444999997
142672.0,0.17465643649999998,-2.4025311835,10.415152632499998,0.03993138795637827,-0.3634386367890392,-0.6941226795059008,10.690091922746616,0.784530721297547,0.18436502,0.021574629999999928,-0.2705654735000014
142682.0,0.3794192885,-2.3666388444999997,10.075156076999999,0.011421434625050892,-0.3202714083994635,-0.7045161152015271,10.356336629942662,0.7739813827126087,0.20476285200000002,0.035892339000000106,-0.3399965554999991
142692.0,0.5337759595,-2.325941247,9.755557353499999,-0.030946432967111456,-0.19050443318443308,-0.6930580286621842,10.043197635059462,0.7194296712462053,0.154356671,0.040697597499999905,-0.3195987235000004
142702.0,0.5936945909999999,-2.361833586,9.541282051,-0.06452133178772637,-0.0007819075048934596,-0.6634799338286365,9.847171895121718,0.6666102581180849,0.059918631499999875,-0.035892339000000106,-0.21427530249999904
142712.0,0.5661379044999999,-2.4133184985,9.5364767925,-0.06558772796069491,0.2057254495910756,-0.6312384665565451,9.853375457984184,0.6671481936790018,-0.027556686499999983,-0.05148491249999987,-0.004805258499999354
142722.0,0.418940088,-2.454016096,9.692108328,-0.03760835472197381,0.38212413176089055,-0.6120538074186235,10.006731216458624,0.7225255037675429,-0.1471978164999999,-0.04069759750000035,0.15563153549999953
142732.0,0.22731814699999997,-2.4611749505000002,9.9542400825,0.0004956735075663896,0.4873762123024086,-0.6136525290134504,10.256507753469199,0.7836486740721712,-0.19162194100000002,-0.007158854500000089,0.26213175450000037
142742.0,0.11120741099999999,-2.467157007,10.287077783500001,0.03913202715896487,0.5156208755874327,-0.6312384665565451,10.579376168244979,0.8160013508271781,-0.11611073599999998,-0.005982056499999722,0.33283770100000076
142752.0,0.041776328999999994,-2.398902723,10.503706681999999,0.0689771573680679,0.4916400516650307,-0.6512224864918802,10.774243991926902,0.8188763737905986,-0.069431082,0.068254284,0.216628898499998
142762.0,0.052563644,-2.2648458175,10.6103049675,0.07643669459109166,0.4490068940265652,-0.6634799338286365,10.849463628081942,0.8047703907057259,0.010787315000000006,0.13405690550000005,0.1065982855000005
142772.0,0.0909076455,-2.1810970265,10.604322910999999,0.06844308661695764,0.4138332736111235,-0.6616159221875065,10.826685219390882,0.7833760673810377,0.038344001499999995,0.0837487910000001,-0.00598205650000061
142782.0,0.133958839,-2.1271604515,10.563625313500001,0.05352226684165812,0.40956943424850134,-0.6394991099062343,10.776499260937658,0.761295518238071,0.0430511935,0.05393657499999982,-0.040697597499997684
142792.0,0.11964113,-2.1344173725,10.5169456595,0.032737140779657635,0.42768944254270647,-0.6139178190597534,10.732017402375629,0.7489226049519417,-0.014317708999999998,-0.007256921000000194,-0.04667965400000185
142802.0,0.038245934999999995,-2.1655044529999996,10.4845837145,0.0138195170172911,0.4444760192883879,-0.593134438327005,10.705950119156425,0.7413220438530979,-0.081395195,-0.03108708049999942,-0.03236194499999989
142812.0,-0.030008348999999997,-2.248076446,10.468991140999998,0.006623524511318481,0.44074625067687606,-0.5840744341799025,10.707685264257917,0.7317404411574154,-0.068254284,-0.08257199300000018,-0.015592573500001095
142822.0,-0.051582978999999994,-2.2972077625,10.433098801999998,0.023677136632555076,0.42848880334011985,-0.5843414695554575,10.683135069824147,0.7249953202808942,-0.021574629999999997,-0.04913131650000002,-0.035892339000000106
142832.0,-0.1185623985,-2.3211359885,10.452319836,0.0596501178454102,0.40903710882664307,-0.5928674029514498,10.707601004589543,0.722745633289214,-0.0669794195,-0.02392822600000022,0.01922103400000097
142842.0,-0.109049948,-2.373797699,10.500176287999999,0.10441606782981275,0.39651262611433175,-0.6029938032715209,10.765709892339377,0.7291957930987929,0.009512450500000005,-0.05266171049999979,0.04785645199999955
142852.0,-0.1377834325,-2.352223069,10.593535596,0.14012201366711274,0.3997100693039854,-0.6136525290134504,10.852416047329108,0.7456351283179508,-0.028733484500000003,0.021574629999999928,0.09335930800000192
142862.0,-0.1497475455,-2.313977134,10.691700162499998,0.16197179057282976,0.389051343562056,-0.6355023059191673,10.940263564871763,0.762534582623889,-0.011964112999999998,0.03824593499999995,0.09816456649999772
142872.0,-0.09826263299999999,-2.1379477665,10.6593382175,0.17369691248772767,0.33256201699200755,-0.670674181005357,10.872072821333681,0.7684868051051807,0.05148491250000001,0.17602936749999998,-0.032361944999998116
142882.0,0.1758332345,-1.9990856025,10.5408738855,0.16117242977541638,0.2704754195108132,-0.7135761193486296,10.730204231164166,0.779951525919343,0.2740958675,0.13886216400000007,-0.11846433200000028
142892.0,0.4404166515,-1.7190076785,10.364844518,0.11400839739877358,0.2635482077096477,-0.7452852611988626,10.51565290925747,0.7986899855542582,0.264583417,0.280077924,-0.17602936749999998
142902.0,0.7360871489999999,-1.4675651725,10.255990702999998,0.041264819504901934,0.32270265204749154,-0.7487479944348194,10.386573887788037,0.8163720635454284,0.29567049749999996,0.25144250599999984,-0.10885381500000157
142912.0,0.9001524034999999,-1.4100982035,10.210487847,-0.03627666850270214,0.40104350085250906,-0.7039820444504168,10.34662811580543,0.8110133199660039,0.16406525449999998,0.057466969000000034,-0.045502855999998815
142922.0,0.939673203,-1.485511342,10.1493924175,-0.09809623060834129,0.46179666678517967,-0.6251106155527931,10.30048038297503,0.7833532495562006,0.03952079950000009,-0.07541313849999987,-0.06109542949999991
142932.0,0.870242121,-1.655558653,10.090748650499998,-0.14126171366866505,0.478316208155306,-0.543572323558122,10.262621698681741,0.7377073523227579,-0.06943108200000003,-0.17004731100000003,-0.05864376700000129
142942.0,0.7277514964999999,-1.8303131559999999,9.9866020275,-0.1503217178157676,0.4548677096547622,-0.4713610710861086,10.178992511312295,0.6720732932270823,-0.14249062450000005,-0.17475450299999995,-0.10414662299999833
142952.0,0.572119961,-2.028995885,9.841757806999999,-0.11301705038364081,0.40157582627436733,-0.41966790930054054,10.065005826265924,0.5917407811044004,-0.15563153549999997,-0.19868272900000017,-0.14484422050000134
142962.0,0.4583628209999999,-2.1942379375,9.7328059255,-0.0445373118523913,0.3362917856035194,-0.39435365382961474,9.987606709592006,0.5201831807163783,-0.11375714000000003,-0.16524205250000001,-0.10895188149999946
142972.0,0.35549106249999995,-2.4372467245,9.6298361005,0.030873129138527695,0.2814011806282978,-0.40314662260116224,9.939833439957454,0.4926123972014184,-0.10287175849999997,-0.24300878699999995,-0.10296982499999885
142982.0,0.21054877549999998,-2.4623517484999997,9.6286593025,0.09482373826085193,0.26567925472633286,-0.43485576445139523,9.940753838810481,0.5183401813542045,-0.14494228699999998,-0.025105023999999698,-0.0011767980000012557
142992.0,0.075315072,-2.3749744969999997,9.647782269999999,0.12519944856256124,0.2734075726541637,-0.47429147890020706,9.936089721354024,0.5615861551555174,-0.13523370349999997,0.08737725149999997,0.019122967499999532
143002.0,0.0226533615,-2.312800336,9.6992671825,0.12093735452919108,0.2584850075496122,-0.5161270210705111,9.971225724378646,0.5897689757248699,-0.0526617105,0.06217416099999973,0.0514849125000012
143012.0,0.017848103,-2.2313070745,9.657392787,0.10095158926460401,0.21718353613041838,-0.545438080528504,9.911825526001458,0.5957034593082206,-0.0048052584999999995,0.08149326149999991,-0.041874395500000716
143022.0,0.0250069575,-2.0530221775,9.426348113,0.08389797714336743,0.15776205641701943,-0.5494348845155709,9.647360476145218,0.5777598370744669,0.007158854499999999,0.17828489700000016,-0.23104467399999962
143032.0,0.15671026700000001,-2.084109258,9.286309151,0.10654711484649784,0.1201920989385895,-0.5105314954886173,9.518592708746963,0.5352016780758638,0.1317033095,-0.031087080499999864,-0.1400389620000002
143042.0,0.29920089149999995,-2.256510165,9.2252137215,0.16170475519727465,0.13937675807651118,-0.43698681146808027,9.501890733194873,0.4863453319837339,0.14249062449999994,-0.1724009070000001,-0.06109542949999991
143052.0,0.351862602,-2.2301302764999997,9.2587524645,0.21766175634546484,0.20812353198331582,-0.365042594371622,9.530046460523318,0.47323159282339483,0.05266171050000007,0.02637988850000017,0.03353874300000115
143062.0,0.30518294799999995,-2.1906094769999997,9.447922743,0.24484176878677252,0.2747392588734354,-0.3077521616749081,9.703357700825464,0.4797296583749422,-0.04667965400000007,0.03952079949999998,0.1891702784999989
143072.0,0.28243152,-2.2420943895,9.729275531499999,0.2515036905416349,0.2963237457328493,-0.25792475685972205,9.98827098064332,0.4664622694734865,-0.022751427999999962,-0.05148491250000031,0.28135278849999956
143082.0,0.30400615,-2.325941247,10.004548197,0.2685573026628715,0.25262244659216326,-0.21982072863018182,10.275865270128335,0.4292578223763331,0.021574629999999984,-0.08384685749999976,0.27527266550000107
143092.0,0.3219523195,-2.324764449,10.278742131,0.2992000483401359,0.17108589992674417,-0.200369034116705,10.543278561954063,0.3986712980806931,0.017946169499999998,0.0011767979999999234,0.2741939339999995
143102.0,0.29920089149999995,-2.1714865094999998,10.433098801999998,0.3237149430136483,0.04638037954249731,-0.19717159092705142,10.660882958118838,0.38186272429439894,-0.022751428000000018,0.15327793950000013,0.1543566709999986
