timestamp,ax,ay,az,gx,gy,gz,acc_mag,gyro_mag,dax,day,daz
53972.0,-0.22359162,0.441103117,9.625815374,0.07872307591120424,-0.13550212713708376,-0.09140812891469903,9.638510610394952,0.18142104390417854,0.0,0.0,0.0
53982.0,0.039814999,0.5177911199999999,9.671318229999999,0.0435512008250145,-0.09606641268827189,-0.08474620715983666,9.68525111620894,0.1353047758509361,0.263406619,0.07668800299999995,0.045502855999998815
53992.0,0.409721837,0.40403397999999996,9.666611038,-0.010007717930935486,0.005188863866179142,-0.09753597991845112,9.68372265199147,0.0981852641950889,0.36990683799999996,-0.11375713999999998,-0.004707191999999694
54002.0,0.355785262,0.4183516889999999,9.674946690499999,-0.05104389930382616,0.10537948957691362,-0.11032749800631755,9.69052087105551,0.16088030735911713,-0.05393657499999999,0.014317708999999956,0.008335652499999568
54012.0,0.2995931575,0.45551889249999994,9.686910803499998,-0.08195368035664573,0.16666498093144252,-0.12071918837269179,9.702241722221222,0.2215101443145185,-0.056192104500000006,0.03716720350000002,0.011964112999999443
54022.0,0.2336924695,0.4566956905,9.748006233,-0.09554281391267358,0.20343732294171105,-0.12897983172238095,9.761496229709312,0.259135043263499,-0.06590068799999999,0.0011767980000000344,0.061095429500001686
54032.0,0.202605389,0.417174891,9.852152856,-0.08648280976557102,0.2138290133080853,-0.12338256081123514,9.86306239112993,0.26158245283198067,-0.031087080500000003,-0.03952079949999998,0.1041466230000001
54042.0,0.133174307,0.437572723,9.9036377685,-0.06196791509205867,0.20237092676874252,-0.11405726661782944,9.914194184784673,0.24042269978191944,-0.069431082,0.020397832000000005,0.051484912499999425
54052.0,0.05295591,0.5093574009999999,10.020925302499998,-0.03612133419927464,0.17412626348371826,-0.10419790167331347,10.034001854127897,0.20611139981150597,-0.080218397,0.07178467799999994,0.11728753399999903
54062.0,-0.033244543499999994,0.5465246045,10.029260954999998,-0.022799236018801926,0.13948671381938682,-0.08607789337910833,10.044195818804205,0.1654864109942496,-0.0862004535,0.03716720350000002,0.008335652499999568
54072.0,-0.072765343,0.5201447159999999,10.005332729,-0.03638836957482978,0.11337309755104766,-0.06982364205528516,10.019108160845615,0.13803229215838717,-0.0395207995,-0.02637988850000006,-0.023928225999998887
54082.0,-0.144550021,0.528578435,9.971793986,-0.06703111525209422,0.10804460734470897,-0.06902428125787174,9.98683959867905,0.1446760484371123,-0.071784678,0.008433719000000117,-0.03353874299999937
54092.0,-0.167301449,0.5010217485,9.977776042499999,-0.09687450013194526,0.12163374090073682,-0.07515387759087583,9.991747961272564,0.17270651701156556,-0.02275142799999999,-0.027556686499999983,0.0059820564999988335
54102.0,-0.23918419349999998,0.498570086,9.9754224465,-0.1157938692235638,0.14188479621162703,-0.07701963456125777,9.990737419991095,0.19867445647019755,-0.07188274449999998,-0.002451662500000007,-0.0023535959999989586
54112.0,-0.3372506935,0.47827032049999996,9.9526710185,-0.1307164343281153,0.16160352610065895,-0.07968300699980112,9.969861630545694,0.22260248753361495,-0.0980665,-0.020299765500000067,-0.022751427999999407
54122.0,-0.47856452,0.472288264,9.955024614500001,-0.1445708579304463,0.17172818109147805,-0.08288045018945474,9.977704910419824,0.23929160070370095,-0.14131382650000002,-0.005982056499999944,0.002353596000000735
54132.0,-0.5659417714999999,0.4914112315,9.9526710185,-0.14590428947896997,0.17386097343741513,-0.0818157993457382,9.980853444954631,0.2412665016025862,-0.08737725149999992,0.019122967499999977,-0.002353596000000735
54142.0,-0.608992965,0.4447315775,9.923937533999998,-0.14563725410341483,0.17918946364375382,-0.07755195998311604,9.952547150663447,0.24358444154120684,-0.043051193500000084,-0.046679654000000015,-0.028733484500001794
54152.0,-0.6197802800000001,0.3405849544999999,9.956299479,-0.15203214048272207,0.1975747619842621,-0.07888364620238772,9.981383923196438,0.26148076019294314,-0.010787315000000075,-0.10414662300000005,0.03236194500000167
54162.0,-0.7371658805,0.2819411875,10.0124915835,-0.15682830526720248,0.20956691927471516,-0.0935391759313841,10.043549774767913,0.2779622068217193,-0.11738560049999991,-0.0586437669999999,0.05619210449999912
54172.0,-0.836507245,0.2603665575,10.1119310145,-0.14643661490082824,0.19597604038943528,-0.11485662741524284,10.149812015855707,0.2702634556345696,-0.09934136449999997,-0.02157463000000004,0.09943943100000041
54182.0,-0.8328787845,0.250854107,10.17538004,-0.12885067735773337,0.16719905168255278,-0.1332419257557511,10.212491067858975,0.24962257653944833,0.003628460499999986,-0.009512450499999991,0.06344902550000064
54192.0,-0.850824954,0.2460488485,10.178910433999999,-0.11632619464542207,0.14428287860386724,-0.14923088703327117,10.217370540486007,0.23794787299667097,-0.017946169500000053,-0.0048052584999999925,0.003530393999998438
54202.0,-0.8831868989999999,0.18975867749999997,10.146646555499998,-0.11046537901722511,0.1384203176464183,-0.1665497892008109,10.186778871482966,0.243108240464179,-0.03236194499999989,-0.05629017100000003,-0.03226387850000023
54212.0,-0.9047615289999998,0.19211227349999999,10.071135350499999,-0.11792491624024887,0.15733968673803683,-0.1883995661065279,10.11351906104292,0.27231683642812327,-0.021574629999999928,0.0023535960000000133,-0.07551120499999975
54222.0,-0.884363697,0.2268278145,10.011314785499998,-0.14217277553820606,0.1938449933727502,-0.21637893934524902,10.052858983412293,0.32343287549674604,0.020397831999999894,0.034715541000000016,-0.05982056500000077
54232.0,-0.860435471,0.31547993049999995,10.006509527,-0.16961982335506892,0.23754454718418425,-0.22756999050903665,10.048388413086203,0.37011673422344327,0.023928225999999997,0.08865211599999995,-0.004805258499997578
54242.0,-0.7969864454999999,0.366964843,9.980227704999999,-0.1850747138814787,0.2785807285570749,-0.2171783001426624,10.01872225555526,0.39878100016745804,0.06344902550000009,0.051484912500000035,-0.026281822000001398
54252.0,-0.723926903,0.366964843,10.0232788985,-0.19306832185561273,0.3206815607736821,-0.20039172339698094,10.05608538318965,0.4245808322691915,0.07305954249999991,0.0,0.043051193500000196
54262.0,-0.7622709044999999,0.348920607,10.029260954999998,-0.19679809046712463,0.35292302804577336,-0.18040595813239385,10.064237568009013,0.44252735719520364,-0.03834400149999995,-0.01804423599999999,0.0059820564999988335
54272.0,-0.8149326149999999,0.33224930199999997,10.008961189499999,-0.2045264083949555,0.3766385619218723,-0.1620206597918856,10.047577263131021,0.4581903013562313,-0.052661710500000014,-0.016671305000000025,-0.020299765499999012
54282.0,-0.8209146715,0.358531124,9.987386559499999,-0.21651682035615655,0.3979560134057311,-0.1502955378769877,10.027479032819858,0.47732302564265183,-0.005982056500000055,0.02628182200000001,-0.021574629999999928
54292.0,-0.812579019,0.3968751255,9.9646351315,-0.23197171088256635,0.4166083471217945,-0.12631471395458563,10.005585831488512,0.4932836876512008,0.008335652500000013,0.0383440015,-0.022751427999999407
54302.0,-0.8496481559999999,0.46150094899999994,9.945512163999998,-0.23889892268373186,0.43632533168157445,-0.0818157993457382,9.992401979463898,0.5041292645235602,-0.03706913699999992,0.06462582349999996,-0.01912296750000131
54312.0,-0.9334950134999999,0.3849110125,9.9669887275,-0.25142340539604313,0.443519578858295,-0.03305304537426861,10.018005476235537,0.5108971025755538,-0.08384685749999998,-0.07658993649999996,0.021476563500002044
54322.0,-1.0029260955,0.22329742049999998,10.032889415499998,-0.27487190389658694,0.4285987590829955,0.0021205750411731105,10.085365264316842,0.5091718341362996,-0.06943108200000003,-0.161613592,0.06590068799999749
54332.0,-1.0292079175,0.10954028049999999,10.108302553999998,-0.2895274336255833,0.38383280909859296,0.015177383175342691,10.161153897747027,0.48102402551471857,-0.026281822000000066,-0.11375713999999999,0.07541313850000009
54342.0,-1.0220490629999999,0.0401091985,10.143018094999999,-0.2700757391121065,0.30229451710392186,0.01064650843716541,10.194459726267052,0.40550737116598334,0.007158854500000089,-0.06943108199999999,0.03471554100000063
54352.0,-0.962228498,0.0736479415,10.1166382065,-0.21758321652912507,0.19730947193795895,0.0037192966359999163,10.162562487033771,0.2937470289195499,0.05982056499999988,0.033538742999999996,-0.026379888499999282
54362.0,-0.9071151249999999,0.022163028999999997,10.049658787,-0.17388191738843906,0.1176369369136698,-0.00853815070075626,10.090539667678064,0.21011013811451246,0.05511337300000008,-0.051484912499999994,-0.06697941949999908
54372.0,-0.7825706699999999,-0.1238579895,9.911973420999999,-0.18001151372144317,0.08512843426602343,-0.04131368872395778,9.943589631200478,0.2033662122105097,0.124544455,-0.1460210185,-0.13768536600000125
54382.0,-0.6976450809999999,-0.199271128,9.737218918,-0.22211234593805038,0.09818524240019301,-0.08767661497393515,9.764212712684776,0.25818873882603105,0.08492558900000002,-0.07541313849999999,-0.17475450299999906
54392.0,-0.6473369664999999,-0.22202255599999998,9.5731536635,-0.2735402176773153,0.1501454395613162,-0.14549937309250727,9.597583561946916,0.34429343775089083,0.050308114499999945,-0.02275142799999999,-0.16406525450000053
54402.0,-0.5755522885,-0.24477398399999997,9.506174243999999,-0.3193708185054344,0.21569477027846723,-0.2126474254044851,9.5267267987137,0.4401600631241639,0.07178467799999999,-0.02275142799999999,-0.06697941950000086
54412.0,-0.490528633,-0.194563936,9.504997445999999,-0.33136123046663546,0.2777813677596615,-0.28192827006240007,9.519634967447605,0.5161843689915151,0.08502365549999996,0.05021004799999998,-0.0011767979999994793
54422.0,-0.4294332035,-0.11787593299999999,9.581587382499999,-0.304715288776438,0.32334493321222546,-0.3368188750376217,9.591930169696402,0.5575395121690799,0.061095429499999965,0.076688003,0.07658993649999957
54432.0,-0.37324109899999997,-0.07482473949999999,9.6618057795,-0.2402323542322555,0.34972558485611976,-0.37518993864271705,9.669301866236443,0.5663806659673798,0.05619210450000006,0.0430511935,0.08021839700000122
54442.0,-0.30253515249999996,-0.0293218835,9.728785199,-0.16428958781947822,0.36331471841214763,-0.40183588033291445,9.733532182082293,0.5660925083444582,0.0707059465,0.04550285599999999,0.06697941950000086
54452.0,-0.25585549849999994,0.001765197,9.764677537999999,-0.10113833949456741,0.36837791857218316,-0.4215546102219464,9.76802910382411,0.568893262402245,0.046679654000000015,0.0310870805,0.03589233899999833
54462.0,-0.2319272725,0.0975761675,9.8473475975,-0.058238146480546794,0.36811088319662805,-0.4351437437779742,9.85056171363757,0.5729287754881949,0.02392822599999994,0.09581097050000001,0.08267005950000161
54472.0,-0.24634304799999998,0.162201991,9.925114332,-0.046780059941204016,0.36997664016701,-0.4428720617058052,9.929495902937576,0.5789704235251766,-0.014415775499999978,0.06462582349999998,0.07776673449999905
54482.0,-0.2187863615,0.009022117999999999,9.764677537999999,-0.05184326010123957,0.3782372835166991,-0.4540631128695928,9.767132449788594,0.5932322283295481,0.027556686499999983,-0.153179873,-0.16043679400000066
54492.0,-0.200840192,0.218492162,9.7779165155,-0.06196791509205867,0.39582322105979395,-0.45992567382704175,9.782419281121909,0.6099571052756624,0.017946169499999998,0.209470044,0.01323897750000036
54502.0,-0.11699333449999999,0.401680384,9.7551650875,-0.09580984928822871,0.39902066424944765,-0.4450031087224902,9.764132345251507,0.6053303102368028,0.08384685750000001,0.183188222,-0.022751427999999407
54512.0,-0.084729456,0.5739832244999999,9.787428966,-0.11845898699135914,0.3875625777101048,-0.39997186869178447,9.80461124100376,0.5693986116817621,0.032263878499999996,0.17230284049999994,0.03226387850000023
54522.0,-0.0691368825,0.5488782004999999,9.836560282499999,-0.15842702686202928,0.37157536176183675,-0.3525408009395866,9.852104616718318,0.5361458650739622,0.015592573499999998,-0.02510502400000003,0.04913131649999869
54532.0,-0.08953471449999999,0.24477398399999997,9.828126563499998,-0.2021283260027153,0.3723747225592502,-0.32269741605973556,9.831581892885707,0.5325902895334917,-0.02039783199999999,-0.30410421649999997,-0.008433719000001005
54542.0,-0.17210670749999998,-0.018534568499999998,9.807826797999999,-0.2167838557317117,0.3678455931503249,-0.32562782387383404,9.80935424727657,0.5369721596012503,-0.082571993,-0.26330855249999996,-0.020299765499999012
54552.0,-0.2882174435,-0.19211227349999999,9.807826797999999,-0.18454064313036844,0.3353370905026785,-0.35733696572406703,9.813941253132398,0.5236372029436551,-0.11611073600000002,-0.173577705,0.0
54562.0,-0.32293298449999996,-0.257914895,9.7779165155,-0.11552683384800866,0.2929692229105162,-0.39863843714326086,9.786646881829782,0.5080256080944726,-0.03471554099999996,-0.06580262149999999,-0.029910282499999497
54572.0,-0.22712201399999998,-0.2364383315,9.748006233,-0.037720055794101454,0.2639251988280785,-0.44660183031731704,9.753517981346668,0.5201273959601903,0.09581097049999998,0.02147656349999999,-0.029910282499999497
54582.0,-0.1493552795,-0.10591182,9.779093313499999,0.024898867108951107,0.2713847360511023,-0.48577225471982577,9.780807244152735,0.5569957917259509,0.07776673449999999,0.1305265115,0.031087080499998976
54592.0,-0.0475622525,-0.0042168595,9.798216281,0.037955675243120685,0.29963114466537855,-0.5052239492333025,9.79833262545319,0.5886176135790883,0.101793027,0.1016949605,0.01912296750000131
54602.0,-0.010493115499999999,0.1179739995,9.8245961695,0.02196671396560063,0.3270764471529894,-0.5110865101907516,9.825310064511195,0.6071828058366194,0.037069137,0.122190859,0.026379888499999282
54612.0,-0.0008825985,0.1813249585,9.8030215395,0.009709266628844455,0.33640174134639506,-0.4980297020565819,9.804698405532731,0.6010773540651192,0.009610516999999999,0.063350959,-0.021574629999999928
54622.0,0.0265760215,0.2017227905,9.80665,-0.007077310116837007,0.3380004629412219,-0.4716490504126876,9.808760502307408,0.5802992572993353,0.027458620000000003,0.020397832000000005,0.003628460499999875
54632.0,-0.0033342610000000003,0.1442558215,9.7073086355,-0.028660051646998884,0.34732750246387956,-0.4394075831405964,9.708381008396092,0.5608358196920602,-0.029910282500000003,-0.05746696900000001,-0.09934136449999897
54642.0,-0.1242502555,0.070019481,9.6618057795,-0.03851941659151485,0.36118367139546254,-0.4098312336363005,9.662858364608836,0.5476303771715992,-0.1209159945,-0.0742363405,-0.04550285600000059
54652.0,-0.24036099149999998,-0.1238579895,9.597179956,-0.03931877738892826,0.3726417579348053,-0.40210291570846957,9.6009883509796,0.5496313317427917,-0.11611073599999998,-0.19387747049999998,-0.06462582350000012
54662.0,-0.22359162,-0.26870221,9.567171606999999,-0.01960004749989632,0.381967052128211,-0.4242197279897418,9.573555590687299,0.5711789285234568,0.01676937149999999,-0.1448442205,-0.030008349000000933
54672.0,-0.1624961905,-0.29027684,9.586392641,0.02649758870377791,0.3966225818572074,-0.4639224778141087,9.592162922051852,0.6109301597297141,0.06109542949999999,-0.021574629999999984,0.01922103400000097
54682.0,-0.09188831049999999,-0.1693608455,9.678575151,0.08698371926089339,0.40568258600430995,-0.49429993344507006,9.680492937405083,0.645350255448468,0.07060788000000001,0.12091599449999998,0.09218251000000066
54692.0,0.0122583125,-0.060408963999999996,9.726431603,0.12881926143119748,0.4171406725436528,-0.5108194748151964,9.726626919800824,0.6719652361962806,0.104146623,0.1089518815,0.04785645199999955
54702.0,0.142784824,0.044914457,9.774288055,0.13974327721943,0.443519578858295,-0.5185477927430273,9.775434097600371,0.6965124648685991,0.1305265115,0.105323421,0.04785645199999955
54712.0,0.202605389,0.135920169,9.7420241765,0.1352141478105047,0.47869319927373677,-0.5145509887559603,9.745078670359892,0.7156764386430385,0.05982056499999999,0.09100571200000002,-0.03226387850000023
54722.0,0.16788984799999998,0.277135929,9.679751949,0.1368128694053315,0.5098700157021114,-0.49429993344507006,9.685173675178646,0.7231995702092144,-0.034715541000000016,0.14121576,-0.06227222749999939
54732.0,0.170243444,0.336956494,9.725254805,0.11096628851254747,0.5341178750000687,-0.47111672499082935,9.732579490106893,0.7207956646282798,0.0023535960000000133,0.05982056499999999,0.04550285600000059
54742.0,0.1271922505,0.38971627099999995,9.830578226,0.07579266809710576,0.552503173340577,-0.43034757899349385,9.839122160943765,0.7044170098984316,-0.0430511935,0.05275977699999995,0.10532342099999958
54752.0,0.0146119085,0.5656475719999999,9.969440389999999,0.07552563272155062,0.5402457260038208,-0.38345058199240617,9.985485084528584,0.6667862584769583,-0.112580342,0.17593130099999998,0.13886216399999896
54762.0,0.0014709974999999999,0.49023443349999996,10.086727923999998,0.07605970347266089,0.49841192916276866,-0.3549388833318268,10.098634173809051,0.616588307158793,-0.013140911,-0.07541313849999998,0.11728753399999903
54772.0,-0.0201036325,0.29508209849999995,10.139389634499999,0.08964883702868874,0.443519578858295,-0.3237638122327041,10.14370246808831,0.5563897347387795,-0.02157463,-0.195152335,0.05266171050000068
54782.0,0.0002941995,0.182599823,10.110656149999999,0.10537076293065366,0.3907600208997584,-0.31603549430487327,10.112304908646978,0.5134927704210578,0.020397832,-0.11248227549999995,-0.028733484500000017
54792.0,-0.026085689,0.12748644999999997,10.110656149999999,0.10137395894358664,0.3435959885231157,-0.33095805940942474,10.111493511921818,0.4877172541228425,-0.0263798885,-0.05511337300000002,0.0
54802.0,-0.0344213415,0.08198359399999999,10.0795690695,0.08032179750603104,0.2956343406783115,-0.3477446361551062,10.079961248202142,0.46344102809046483,-0.008335652500000002,-0.04550285599999998,-0.031087080499998976
54812.0,-0.06080122999999999,0.1311149105,10.0448535285,0.06220353454107791,0.24873559834797188,-0.3616008050866892,10.045893206596606,0.4432762342312843,-0.02637988849999999,0.049131316499999994,-0.03471554100000063
54822.0,-0.026085689,0.1693608455,9.9658119295,0.05900609135142429,0.19970755433019916,-0.37785505641051237,9.96728503522015,0.4314386048189401,0.03471554099999999,0.03824593500000001,-0.07904159899999996
54832.0,0.090025047,0.2603665575,9.885593532499998,0.09471203718872429,0.16933009869923787,-0.3847822682116778,9.88943146713488,0.4309297462975323,0.11611073599999999,0.09100571199999999,-0.08021839700000122
54842.0,0.097281968,0.36215958449999996,9.768305998499999,0.14587287355243408,0.17865713822189555,-0.39384227235878044,9.77550128772301,0.4564088121112581,0.0072569209999999995,0.10179302699999998,-0.11728753399999903
54852.0,0.14994367849999998,0.32381558299999996,9.7192727485,0.15679688934066657,0.21942453888997912,-0.40023715873808763,9.725821425373308,0.48262011562794016,0.052661710499999986,-0.0383440015,-0.04903324999999903
54862.0,0.1020872265,0.44237798149999996,9.80665,0.14374008120649698,0.2639251988280785,-0.40396867267885156,9.8171535743733,0.5034961867061202,-0.04785645199999998,0.1185623985,0.08737725149999953
54872.0,0.13072264449999998,0.47827032049999996,9.921583938,0.12535478286598872,0.29350154833237446,-0.4053003588981232,9.93396490571795,0.5158733966622313,0.028635417999999982,0.035892338999999995,0.11493393800000007
54882.0,0.178677163,0.5045521425,10.008961189499999,0.1133643709047877,0.3094905096098945,-0.4013035549110562,10.023263065788322,0.5193076153047262,0.047954518500000015,0.026281822000000066,0.08737725149999953
54892.0,0.20378218699999998,0.5297552329999999,10.053189180999999,0.10350500596027172,0.3073577172639574,-0.40210291570846957,10.069199595578826,0.5165934643816154,0.025105023999999976,0.025203090499999914,0.044227991499999675
54902.0,0.2001537265,0.5417193459999999,10.1274255215,0.09471203718872429,0.2951002699272013,-0.39730675092398915,10.143878403135165,0.5038920456102896,-0.003628460499999986,0.011964112999999998,0.07423634050000061
54912.0,0.24810824499999998,0.4890576354999999,10.2160776375,0.06593330315258979,0.27671497158669295,-0.4023699510840247,10.230785764910992,0.4927676465639724,0.04795451849999999,-0.052661710500000014,0.08865211600000045
54922.0,0.2756649315,0.5081806029999999,10.2303953465,0.049946087204321726,0.2599283948410115,-0.4013035549110562,10.246717895278136,0.48073061610001244,0.02755668650000001,0.019122967499999977,0.014317709000000178
54932.0,0.251638639,0.6387071145,10.3129673395,0.04514992241984131,0.2308826254293219,-0.40370163730329645,10.335790445260798,0.4672475940879916,-0.02402629249999999,0.13052651150000005,0.08257199300000018
54942.0,0.272036471,0.6973508815,10.329736710999999,0.05580864816177068,0.17918946364375382,-0.3901125037472686,10.356822032460732,0.4329101923846828,0.020397832000000005,0.05864376700000007,0.016769371499998798
54952.0,0.251638639,0.7895333914999999,10.3368955655,0.07712435431637743,0.11364013292660279,-0.3647982482763428,10.37005761377365,0.3897948278078896,-0.020397832000000005,0.09218250999999988,0.0071588545000018655
54962.0,0.28282378599999997,0.8517075525,10.272269741999999,0.09044819782610214,0.05102121002355023,-0.3336214318479681,10.311397611445386,0.3494099313851073,0.03118514699999997,0.06217416100000006,-0.0646258235000019
54972.0,0.32469818149999996,0.8852462955,10.204015457999999,0.09497732723502741,0.014248868013281707,-0.2995142076054949,10.24748854011893,0.31453534536823824,0.041874395499999995,0.03353874300000004,-0.068254284
54982.0,0.3594137225,0.8960336105,10.17538004,0.07526034267524749,0.009985028650659561,-0.269937858101199,10.221076920437365,0.28041088996865515,0.034715541000000016,0.010787314999999964,-0.02863541799999858
54992.0,0.3725546335,0.8553360130000001,10.165769523,0.023832470935982567,0.02890439774227809,-0.24089383401876133,10.208489929702273,0.24378943813876924,0.013140911000000033,-0.040697597499999905,-0.009610517000000485
55002.0,0.35107806999999996,0.811009955,10.150176949499999,-0.02945941244441229,0.05421865321320385,-0.21611190396969387,10.1885762039897,0.22474846912766688,-0.021476563500000045,-0.04432605800000011,-0.015592573500001095
55012.0,0.33068023799999996,0.7523661879999999,10.157335803999999,-0.0630343112650272,0.07127226533444043,-0.19959236259956756,10.190528687750685,0.22111121954943053,-0.020397832000000005,-0.05864376700000007,0.007158854500000089
55022.0,0.3019467535,0.6542016215,10.097515239,-0.06862983684692102,0.06940650836405851,-0.18466979749501602,10.123189497651401,0.2088785580565304,-0.02873348449999996,-0.09816456649999983,-0.05982056499999899
55032.0,0.29233623649999996,0.599186315,10.014943245999998,-0.05637238951016486,0.0670084259718183,-0.1790742719131222,10.037109789967191,0.1993378296047221,-0.00961051700000004,-0.05501530650000008,-0.08257199300000195
55042.0,0.27085967299999997,0.644689171,10.074763810999999,-0.06010390345092873,0.07526906932150745,-0.1790742719131222,10.09900267041739,0.2033359458329473,-0.02147656349999999,0.045502856000000036,0.05982056500000077
55052.0,0.263602752,0.7081381964999999,10.165769523,-0.08381769199777568,0.0973858816027796,-0.16521810298153922,10.193812638603864,0.20929987334015063,-0.007256920999999972,0.06344902549999987,0.09100571200000118
55062.0,0.26840801049999996,0.7643303009999999,10.211272379,-0.13044939895256016,0.11417245834846106,-0.1417696044809954,10.24335527389613,0.2239442267331604,0.004805258499999965,0.056192104500000006,0.04550285600000059
55072.0,0.28635417999999996,0.822974068,10.2866855175,-0.18054383914330144,0.12190077627629195,-0.11512366279079797,10.323525752810818,0.24639264364776448,0.017946169499999998,0.05864376700000007,0.07541313850000009
