timestamp,ax,ay,az,gx,gy,gz,acc_mag,gyro_mag,dax,day,daz
117202.0,0.4631680795,-0.6847003029999998,10.3421911565,-0.01309346004846146,0.16415694279632667,-0.07326543134021797,10.3751750391202,0.1802408499584523,0.0,0.0,0.0
117212.0,0.49906041849999994,-1.5466067714999998,10.1709670475,0.004225442119078272,0.06556678400967098,-0.046886525025575665,10.299981771260272,0.08071681209913124,0.03589233899999994,-0.8619064685,-0.17122410900000062
117222.0,0.6511615599999999,-1.7776514454999999,10.212841443,0.03220481535779937,0.05144357970253286,-0.012245230031992215,10.386827541591716,0.06191556899017569,0.15210114149999998,-0.23104467400000006,0.041874395500000716
117232.0,0.4751321925,-1.6986098465,10.196072071499998,0.07403861219885145,0.07329335660824987,0.030920253028331544,10.347507511386443,0.10867241722981984,-0.17602936749999992,0.07904159899999996,-0.01676937150000235
117242.0,0.308713342,-1.655558653,10.3002186945,0.11107798958467512,0.11965802818747924,0.07382044604235216,10.436986324393612,0.17918097480977327,-0.1664188505,0.04305119349999997,0.10414662300000188
117252.0,0.1364105015,-1.6735048224999998,10.451044971499998,0.1225360761240179,0.19213631603504774,0.1105927880526207,10.58506340142399,0.25330262268804626,-0.1723028405,-0.01794616949999983,0.1508262769999984
117262.0,-0.0838468575,-1.6591871135,10.619915484499998,0.1001522284671906,0.256086925157372,0.13564000814799132,10.749071451573847,0.30660918758884076,-0.22025735899999999,0.014317708999999734,0.1688705129999999
117272.0,-0.32214845249999996,-1.6136842574999999,10.7048410735,0.04499458811641381,0.30405031833142815,0.1470980946873341,10.830576111973182,0.34074764635702537,-0.23830159499999998,0.04550285600000015,0.08492558900000269
117282.0,-0.5759445544999999,-1.608878999,10.7383798165,-0.02615026818263104,0.32243561667193643,0.14816449086030262,10.873500119404792,0.35581073589273293,-0.25379610199999997,0.004805258499999798,0.03353874299999937
117292.0,-0.8009091055,-1.7058667674999999,10.697682218999999,-0.07890982614116764,0.3053820045506998,0.1433683260758222,10.86240496770593,0.3464670349208077,-0.22496455100000012,-0.0969877684999998,-0.04069759750000124
117302.0,-0.9852741254999999,-1.8542413819999999,10.639038452,-0.09516407746499081,0.26887669791598645,0.1268470393764439,10.844266475342424,0.31215549285658345,-0.18436501999999988,-0.1483746145,-0.058643766999999514
117312.0,-1.1445341214999998,-2.1056838879999997,10.5516612005,-0.07890982614116764,0.20972225357814261,0.09540493290176605,10.820416677817803,0.2435411372427963,-0.15925999599999985,-0.25144250599999984,-0.08737725149999953
117322.0,-1.2450522839999998,-2.187079083,10.5192992555,-0.03627666850270214,0.14710333067509007,0.03358537079612688,10.816151206966024,0.15518815581375137,-0.10051816250000001,-0.08139519500000025,-0.03236194499999989
117332.0,-1.3061477135,-2.2265998825,10.506158344499998,0.009822713030224086,0.09647656506249055,-0.04315501108481179,10.818647422202888,0.10614409206009223,-0.06109542950000013,-0.03952079949999998,-0.013140911000002475
117342.0,-1.3192886245,-2.1942379375,10.49899949,0.0425965057241736,0.04824613651287925,-0.11883074212203394,10.806673535002323,0.13514028733727876,-0.013140911000000033,0.03236194499999989,-0.007158854499998313
117352.0,-1.242698688,-2.1463814855,10.4845837145,0.060716514018378735,0.004279547325890096,-0.18571350438770862,10.773938424587952,0.1954336596183523,0.07658993650000001,0.047856451999999994,-0.014415775499999839
117362.0,-1.1337468065,-2.096073371,10.47742486,0.06231523561320554,-0.025830872929516076,-0.23340986218620968,10.74501452278266,0.2429621088804086,0.1089518814999999,0.050308114499999945,-0.007158854500000089
117372.0,-1.071474579,-2.0410580645,10.440355722999998,0.05005778827644937,-0.02902831611916969,-0.267784121804238,10.691819462508827,0.27396489044093086,0.062272227500000055,0.05501530650000008,-0.03706913700000136
117382.0,-1.000866699,-1.9716269825,10.349350010999999,0.02740865057331895,-0.007443829259755816,-0.28803517711512816,10.582915135135256,0.28943204379619397,0.07060788000000007,0.06943108200000014,-0.0910057119999994
117392.0,-0.9123126495,-1.9464238919999999,10.2966883005,0.004759512870188536,0.02639635960716224,-0.3026907068441246,10.518681965695118,0.3038767591854762,0.0885540494999999,0.025203090500000025,-0.052661710499998904
117402.0,-0.8380763089999999,-1.9392650375,10.245203388,-0.01256113462660319,0.06396806241484417,-0.311483675615672,10.460751084260806,0.3182322662573144,0.07423634050000016,0.007158854499999867,-0.051484912499999425
117412.0,-0.8236605334999999,-1.8949389795,10.258344298999999,-0.01762433478663874,0.09168040027801014,-0.3157475149782942,10.464360380228683,0.3292603926784632,0.01441577549999995,0.044326058,0.013140910999998923
117422.0,-0.8284657919999999,-1.863851899,10.322970122500001,-0.005899212871740834,0.1007404044251127,-0.3149481541808808,10.522547772281568,0.3307200774343542,-0.00480525850000002,0.031087080500000086,0.0646258235000019
117432.0,-0.8296425899999998,-1.8494361234999999,10.373278237,0.013020156219877699,0.08341975692832097,-0.3136147226323571,10.569466504240715,0.3247808100330752,-0.0011767979999999234,0.014415775500000061,0.05030811449999817
117442.0,-0.815324881,-1.8614983029999999,10.3349342355,0.019415042599184924,0.05384166209477308,-0.31228303641308536,10.532843692268463,0.3174847449683721,0.014317708999999845,-0.012062179499999992,-0.038344001499998726
117452.0,-0.8105196225,-1.875816012,10.252362242499999,0.016482889455834447,0.0439822971502571,-0.317346236573121,10.454021203382588,0.32080330729989376,0.00480525850000002,-0.014317709000000178,-0.08257199300000195
117462.0,-0.7913966549999999,-1.9176904074999999,10.164984990999999,0.013552481641735968,0.07089527421600968,-0.32906961315876687,10.374524809928307,0.33689259411461286,0.019122967500000088,-0.04187439549999983,-0.08737725149999953
117472.0,-0.7362832819999999,-1.965644926,10.048874255,0.009288642279113822,0.13458059329203076,-0.3485213076722437,10.265756028625658,0.3737182319178382,0.055113372999999966,-0.0479545185000001,-0.11611073599999955
117482.0,-0.7207887749999999,-1.9823162309999998,10.0105302535,0.0044924774946334045,0.2321061012349699,-0.3765006809109648,10.230338706714008,0.44231910122778784,0.01549450699999999,-0.016671304999999803,-0.038344001499998726
117492.0,-0.7327528879999999,-1.9404418354999997,10.071625683,0.0004956735075663896,0.33336137778942093,-0.40314662260116224,10.2829900909364,0.5231225986407116,-0.011964112999999998,0.04187439550000005,0.06109542949999991
117502.0,-0.7949270489999999,-1.8734624159999997,10.199700531999998,0.003426081321664869,0.4138332736111235,-0.4257957603042926,10.400752923701122,0.5937775222034195,-0.06217416099999995,0.06697941949999997,0.12807484899999722
117512.0,-0.8404299049999999,-1.8422772689999998,10.398383261,0.006890559886873613,0.4554017804058724,-0.44045129003328903,10.59370956765086,0.6335894572231939,-0.045502856000000036,0.03118514699999997,0.1986827290000015
117522.0,-0.9003485365,-1.8004028735,10.598340854499998,0.00902160690355869,0.45033858024583684,-0.4500436196022498,10.787812885949057,0.6367303085244591,-0.0599186315000001,0.04187439549999983,0.19995759349999886
117532.0,-0.9530102469999999,-1.7477411629999997,10.727592501499998,0.010887363873940629,0.3986454184602688,-0.46123467076603747,10.91073180781063,0.6097328315484918,-0.0526617104999999,0.052661710500000236,0.12925164700000025
117542.0,-0.9158430435,-1.7286181955,10.8317391245,0.012753120844322566,0.31790648726301113,-0.47002938486683693,11.006973326367474,0.5675868210005179,0.03716720349999991,0.019122967499999755,0.10414662300000188
117552.0,-0.8523940179999999,-1.7525464215,10.894011352,0.0223454504132834,0.2321061012349699,-0.4694953141157266,11.066954317197641,0.5242121816223803,0.06344902550000009,-0.023928225999999997,0.06227222749999939
117562.0,-0.8560224785,-1.7776514454999999,10.950301522999998,0.03486993312559471,0.14204187584430653,-0.46576554550421473,11.126631232767698,0.488189870960461,-0.003628460500000097,-0.02510502399999992,0.05629017099999878
117572.0,-0.8332710504999999,-1.7560768155,10.9598139735,0.04206418030231533,0.04931253268584779,-0.4668319416771833,11.13084312885883,0.4713100708816729,0.022751428000000073,0.021574629999999928,0.009512450500000824
117582.0,-0.7614863725,-1.7872619625,10.951478321,0.03300417615521277,-0.03568849254478005,-0.47242746725907714,11.122456753498101,0.4749217366731381,0.07178467799999999,-0.03118514699999997,-0.008335652499999568
117592.0,-0.6932320885,-1.850710988,10.788687930999998,0.008222246106145286,-0.09111316827111197,-0.4814857260769277,10.968203552183695,0.4900997033045993,0.068254284,-0.06344902549999998,-0.1627903900000014
117602.0,-0.6357651194999999,-1.932106183,10.648648969,-0.018423695584052144,-0.1161603883664826,-0.5044018991556132,10.84116951507283,0.5179323742113591,0.057466969000000034,-0.08139519500000003,-0.14003896199999843
117612.0,-0.49690295549999997,-2.0098729174999996,10.494194231499998,-0.03973940173865889,-0.1068350941730769,-0.535578715583988,10.696476721805757,0.5475742123074377,0.13886216399999995,-0.07776673449999971,-0.15445473750000183
117622.0,-0.3915795345,-2.013501378,10.386419148,-0.050932198231698526,-0.06206914418867434,-0.5654221004638389,10.587030983660537,0.5710944047790759,0.10532342099999997,-0.003628460500000319,-0.1077750834999982
117632.0,-0.2789991925,-1.9739805784999997,10.3565088655,-0.053862606045797005,-0.005578072289373877,-0.5806099556146936,10.546644762904029,0.583129673211205,0.112580342,0.0395207995000002,-0.029910282499999497
117642.0,-0.2060377165,-1.9392650375,10.3696497765,-0.051731559029111925,0.02852740662384732,-0.5822086772095204,10.551437670457846,0.5851981809150848,0.072961476,0.03471554099999974,0.013140910999998923
117652.0,-0.1377834325,-1.9033726985,10.4271167455,-0.04506963727424957,0.032791245986469465,-0.5782118732224535,10.60031016187513,0.5808919937069165,0.068254284,0.035892339000000106,0.057466969000000034
117662.0,-0.0695291485,-1.9153368115,10.4498681735,-0.0352102723297336,0.011473794502610723,-0.5734157084379731,10.624174991381983,0.5746102904762885,0.068254284,-0.01196411300000011,0.022751428000001184
117672.0,-0.006080123,-1.9176904074999999,10.394852866999999,-0.030946432967111456,-0.015172147187586705,-0.5747491399864967,10.570266770214047,0.5757815989408547,0.0634490255,-0.002353595999999847,-0.055015306500001415
117682.0,0.063350959,-1.9045494964999998,10.330128977,-0.028016025153012977,-0.028761280743614556,-0.5763478615813236,10.504422250180143,0.5777447243244648,0.069431082,0.013140911000000033,-0.06472388999999978
117692.0,0.16269232349999999,-1.8949389795,10.273936872499998,-0.024818581963359364,-0.018901915799098588,-0.5774125124250401,10.448494694848122,0.5782546618372785,0.09934136449999999,0.009610516999999819,-0.056192104500000895
117702.0,0.19740786449999997,-1.863851899,10.244026589999999,-0.021621138773705754,0.019734437852299884,-0.5739497791890833,10.41407674942908,0.5746958071105231,0.03471554099999999,0.031087080500000086,-0.029910282499999497
117712.0,0.2309466075,-1.8147205825,10.2272572185,-0.024284511212249102,0.07009591341859626,-0.5710176260457328,10.389578304311742,0.5758162066299537,0.03353874300000004,0.04913131650000002,-0.016769371499998798
117722.0,0.3003776895,-1.839923673,10.224805556,-0.0405387625360723,0.1303167539294086,-0.5712846614212879,10.393372625708349,0.5873602063452117,0.06943108199999998,-0.025203090500000025,-0.0024516625000003955
117732.0,0.34107528699999995,-1.82795956,10.235592870999998,-0.0631896455684547,0.18200991571497666,-0.5710176260457328,10.403130775168767,0.6026455591643767,0.04069759749999996,0.011964112999999887,0.010787314999998188
117742.0,0.38657814299999993,-1.850710988,10.339739494,-0.071715578964447,0.20386143794994568,-0.5704853006238745,10.511174369476164,0.6100459723472796,0.04550285599999998,-0.02275142799999985,0.10414662300000188
117752.0,0.3794192885,-1.8447289315,10.441532521,-0.06025749242510423,0.19186928065949263,-0.5632910534471539,10.610022865870722,0.5981150367176511,-0.007158854499999923,0.005982056499999944,0.10179302699999937
117762.0,0.4260989425,-1.8362952124999998,10.490565770999998,-0.04560196269610784,0.14284123664171994,-0.5523652923296694,10.65858858441993,0.5723552865637864,0.046679654000000015,0.008433719000000117,0.04903324999999903
117772.0,0.4847427095,-1.8063849299999999,10.527732974500001,-0.03734131934641868,0.08741656091538799,-0.5371774371788147,10.692575161864383,0.545523260976839,0.05864376699999996,0.02991028249999994,0.0371672035000028
117782.0,0.53740442,-1.7620588719999999,10.49899949,-0.032812189937493394,0.05544038368959987,-0.5129295778808576,10.659392349944236,0.5169594063533218,0.052661710500000014,0.044326058,-0.028733484500001794
117792.0,0.550545331,-1.7405823085,10.472619601499998,-0.03680899392456041,0.04851317188843438,-0.4809534006550694,10.630545059020777,0.4847933616316243,0.013140911000000033,0.021476563499999823,-0.02637988850000106
117802.0,0.55897905,-1.760882074,10.415152632499998,-0.04800004508834805,0.08741656091538799,-0.4473785018344545,10.57773924877831,0.45835922959442865,0.008433719000000006,-0.0202997654999999,-0.057466969000000034
117812.0,0.5230867109999999,-1.8219775035,10.3912244065,-0.06984982199406507,0.15829612716812969,-0.4207325601442571,10.562706395461635,0.4549203761918916,-0.035892339000000106,-0.06109542950000013,-0.023928225999998887
117822.0,0.44404511199999996,-1.9344597789999998,10.4475145775,-0.09756215985723103,0.22651057565307608,-0.4039459833985756,10.634372174469672,0.47328403039035466,-0.07904159899999996,-0.11248227549999967,0.056290171000000555
117832.0,0.37579082799999997,-2.0314475475,10.496547827499999,-0.11808025054367637,0.26194948611482094,-0.394885979251473,10.697921021378296,0.48835992408639645,-0.068254284,-0.09698776850000024,0.04903324999999903
117842.0,0.2860599805,-2.0565525715,10.591182,-0.11568216815143616,0.25448820356254515,-0.3884910928721658,10.792792731675657,0.47861460385337,-0.08973084749999999,-0.025105024000000142,0.09463417250000106
117852.0,0.234575068,-2.1056838879999997,10.6785592515,-0.09249895969719549,0.20892289278072923,-0.37783236713023644,10.886714737996318,0.4415451622701457,-0.05148491249999998,-0.04913131649999958,0.08737725149999953
117862.0,0.21054877549999998,-2.08293246,10.7144515905,-0.06372197099031297,0.12338954212824312,-0.36157811580641325,10.917069721539484,0.3873295786841276,-0.024026292500000018,0.02275142799999985,0.035892339000000106
117872.0,0.25134443949999996,-2.0422348625,10.683364509999999,-0.04107283328718256,0.024265312590477164,-0.34052769969810964,10.879713898554753,0.3438530169869623,0.04079566399999998,0.040697597499999905,-0.031087080500000752
117882.0,0.34950900599999996,-2.0183066364999998,10.595889192,-0.030147072169698055,-0.057805304826052194,-0.30801919705046327,10.79206124859183,0.3148430164034926,0.0981645665,0.02392822600000022,-0.08747531799999919
117892.0,0.44885037049999993,-1.9967320065,10.439080858499999,-0.028815385950426382,-0.09937381162080114,-0.2629879570197576,10.637801207541932,0.2826095299896031,0.09934136449999997,0.021574629999999706,-0.15680833350000078
117902.0,0.5385812179999999,-1.9859446914999999,10.2847241875,-0.03867475089494235,-0.09377828603890732,-0.20916200288825243,10.488546022162792,0.23246257062461967,0.08973084749999999,0.010787315000000186,-0.1543566709999986
117912.0,0.5781020175,-2.014678176,10.164984990999999,-0.051197488278001656,-0.03622256329589032,-0.14281331137368802,10.37882700321879,0.15597723809331562,0.03952079950000009,-0.028733484500000017,-0.1197391965000012
117922.0,0.5063173395,-2.0804807975,10.1038895615,-0.06718644955552172,0.06050358384963543,-0.08019438847063545,10.328278746627305,0.12085463418796036,-0.07178467799999999,-0.06580262150000005,-0.06109542949999813
117932.0,0.388931739,-2.236112333,10.108694819999998,-0.089568551883097,0.16095949960667305,-0.04262268566295352,10.360365689843727,0.18906924481043597,-0.11738560050000002,-0.15563153549999997,0.004805258499997578
117942.0,0.21662889849999997,-2.373797699,10.143410360999999,-0.10449111698764853,0.23050737964014312,-0.03729419545661483,10.419722517758577,0.2558181045443182,-0.17230284050000003,-0.13768536599999992,0.03471554100000063
117952.0,0.0801203305,-2.4611749505000002,10.176949104,-0.10342472081467997,0.2582197175033091,-0.06207438017643033,10.47063008943275,0.2850040772644687,-0.13650856799999997,-0.08737725150000042,0.03353874300000115
117962.0,0.036971070499999995,-2.525800774,10.235592870999998,-0.08690343411530164,0.25022436419992306,-0.10017840840597052,10.542694049950368,0.28319631496727093,-0.04314926000000001,-0.06462582349999968,0.05864376699999774
117972.0,0.0214765635,-2.5043242104999996,10.257167501,-0.06478836716328151,0.22091330474193027,-0.138816507386621,10.558484083316449,0.26883125460910406,-0.015494506999999994,0.021476563500000267,0.021574630000001704
117982.0,0.030989014,-2.439698387,10.232062477,-0.05253091982652533,0.17534973928936629,-0.17052564923685398,10.518944389612033,0.25017199214604363,0.009512450499999998,0.06462582349999968,-0.025105024000000142
117992.0,0.0693330155,-2.3893902725,10.217646701499998,-0.04800004508834805,0.12205611057971945,-0.18677815523142516,10.493535965442236,0.22822746927130946,0.0383440015,0.050308114499999945,-0.014415775500001615
118002.0,0.1375872995,-2.3953723289999997,10.188913217,-0.038940040941245486,0.08288743150646272,-0.1934400769862875,10.467601989141537,0.21402270083966624,0.06825428400000001,-0.005982056499999722,-0.02873348449999824
118012.0,0.18789541399999998,-2.4599981525,10.182931160499999,-0.025884978136327903,0.0618352700689071,-0.2019677557115318,10.477546593377074,0.2128018023061972,0.05030811449999997,-0.06462582350000012,-0.00598205650000061
118022.0,0.19858466249999998,-2.4851031765,10.164984990999999,-0.016290903238115072,0.06023654847408029,-0.21608921468941794,10.46623588179083,0.22491861640485256,0.010689248499999998,-0.025105024000000142,-0.017946169500000053
118032.0,0.21054877549999998,-2.5234471779999996,10.147038821499999,-0.014159856221429996,0.07942295294125397,-0.23740666617327666,10.45822706255935,0.2507397697327447,0.011964112999999998,-0.038344001499999614,-0.017946169500000053
118042.0,0.19740786449999997,-2.513836661,10.202054127999999,-0.02108706802259549,0.10526953383403799,-0.2669847610068246,10.509055764139607,0.287762405121476,-0.013140911000000005,0.009610516999999597,0.05501530649999964
118052.0,0.110030613,-2.4803959845,10.257167501,-0.03467794690787534,0.1279186715371684,-0.2965611105111205,10.553386002572418,0.3248295534540668,-0.08737725149999997,0.033440676500000155,0.055113373000001076
118062.0,0.017848103,-2.4719622655,10.2392213315,-0.06212324939548617,0.14150780509319624,-0.3288043231124637,10.533402559110765,0.36331259256347453,-0.09218251,0.008433718999999673,-0.017946169500000053
118072.0,-0.040795663999999995,-2.455192894,10.1805775645,-0.10395704623653824,0.13697867568427097,-0.36131108043085813,10.47252576887496,0.4001448761343277,-0.058643767,0.01676937150000013,-0.058643766999999514
118082.0,-0.062370294,-2.4456804434999997,10.108694819999998,-0.1346015372430547,0.11139738483779008,-0.3818291711173034,10.400526614031945,0.41990530729322667,-0.021574630000000004,0.00951245050000038,-0.07188274450000165
118092.0,-0.041972461999999995,-2.524623976,10.01651231,-0.1276725801126372,0.06236934082001737,-0.394885979251473,10.329859958592948,0.41967268078388903,0.020397832000000005,-0.0789435325000003,-0.09218250999999889
118102.0,-0.018044235999999998,-2.579737349,9.900401574,-0.08983558725865212,1.7453292519943296e-05,-0.41966790930054054,10.230998079891329,0.42917547359956515,0.023928225999999997,-0.05511337300000019,-0.11611073599999955
118112.0,0.096889702,-2.568950034,9.856075515999999,-0.05013283743428512,-0.0407516927048156,-0.46150170614159264,10.185829198874135,0.4660019598876394,0.11493393799999999,0.010787314999999964,-0.04432605800000111
118122.0,0.222610955,-2.5114830649999997,9.786644434,-0.024551546587804236,-0.052476814619713506,-0.502003816763373,10.10621156025397,0.5053359541507799,0.125721253,0.05746696900000048,-0.06943108199999948
118132.0,0.3458805455,-2.452839298,9.718488216499999,-0.017889624832941875,-0.039420006485543925,-0.5331806331917477,10.029210696152406,0.5349351018569792,0.12326959050000003,0.05864376699999996,-0.06815621750000034
118142.0,0.442868314,-2.3809565535,9.667003304,-0.016290903238115072,0.0008168140899333463,-0.5512988961567009,9.965743290530149,0.5515401468770592,0.09698776849999996,0.07188274449999987,-0.051484912499999425
118152.0,0.500335283,-2.293579302,9.729275531499999,-0.010962413031776384,0.06396806241484417,-0.5582278532871184,10.008478594562817,0.561987921306262,0.05746696899999998,0.08737725149999997,0.06227222749999939
118162.0,0.49906041849999994,-2.233758737,9.821359975,0.0012950343049797925,0.11885866739006584,-0.5507665707348426,10.084535247346267,0.5634473137451378,-0.001274864500000028,0.05982056499999988,0.092084443500001
118172.0,0.547014937,-2.1271604515,9.9028532365,0.007689920684287016,0.12285547137713286,-0.5414412765414369,10.143497382628208,0.5552578299044948,0.0479545185000001,0.10659828550000006,0.08149326150000036
118182.0,0.6032070415,-2.0541989755,9.981796768999999,0.010355038452082358,0.08182103533349416,-0.5273180722342988,10.208812805781054,0.5337286369956986,0.056192104500000006,0.07296147600000014,0.07894353249999853
118192.0,0.7229462379999999,-2.0266422889999998,9.944727632000001,0.010088003076527224,0.021067869400823554,-0.49853933819816426,10.174848298882193,0.49908625973695747,0.11973919649999987,0.027556686500000094,-0.03706913699999781
118202.0,0.8270928609999999,-2.0326243455,9.840581009,0.008756316857255551,-0.027429594524342887,-0.46576554550421473,10.082295320279401,0.4666546893791096,0.104146623,-0.005982056500000166,-0.10414662300000188
118212.0,0.873772515,-2.1332405745,9.692108328,0.010355038452082358,-0.056473618606780525,-0.43698681146808027,9.962487520611981,0.44074252099942407,0.04667965400000007,-0.10061622899999989,-0.14847268099999944
118222.0,0.9503624514999999,-2.2050252525,9.5484409055,0.017016960206944712,-0.05220977924415837,-0.41886854850312716,9.845712207819679,0.4224527179561342,0.0765899364999999,-0.07178467800000021,-0.14366742250000009
118232.0,1.0018473639999999,-2.24572285,9.494602397,0.033271211530767904,0.0016161748873467492,-0.40661110116637095,9.807876627327854,0.40797325050757965,0.05148491249999998,-0.040697597499999905,-0.05383850850000016
118242.0,1.033032511,-2.2744563345,9.4982308575,0.05805139625058339,0.06370102703928904,-0.4004815048333669,9.821237050835057,0.409650120427299,0.03118514700000019,-0.028733484500000017,0.003628460499999875
118252.0,1.0737301085,-2.2289534785,9.587961705,0.07936884773444214,0.11033273399407353,-0.39595237542444156,9.90202704559845,0.418629919840374,0.040697597499999905,0.04550285600000015,0.08973084750000027
118262.0,1.1466915845,-2.1822738244999997,9.7220186105,0.09055989889822977,0.13937675807651118,-0.3860930104799256,10.029699222706997,0.4203507924600926,0.07296147600000014,0.04667965400000007,0.1340569054999996
118272.0,1.229361644,-2.069791549,9.8118475245,0.09082693427378491,0.15136717003771225,-0.3674406767638622,10.102856969792603,0.4076447020328919,0.08267005949999984,0.11248227549999967,0.08982891399999993
118282.0,1.2891822089999998,-1.9811394329999998,9.857350380499998,0.08016820853185554,0.13617931488685756,-0.33812961730586943,10.13677763122646,0.3732336876029208,0.05982056499999988,0.08865211600000023,0.045502855999998815
118292.0,1.3657721455,-1.9236724639999998,9.829793694,0.07084116900919785,0.09567720426507716,-0.2970951812622308,10.10894125854818,0.32005959659383565,0.07658993650000023,0.057466969000000034,-0.02755668649999876
118302.0,1.41608026,-1.924849262,9.8334221545,0.07430564757440658,0.0642350977903993,-0.24353626250628077,10.119610627528859,0.26259738803941324,0.050308114499999945,-0.0011767980000001454,0.003628460499999875
118312.0,1.425690777,-1.9643700614999997,9.876473348,0.09349030671232826,0.047713811091020984,-0.18278135124435815,10.170352487691598,0.21077492161238792,0.00961051700000004,-0.03952079949999976,0.043051193500000196
118322.0,1.4220623165,-2.0601810319999996,9.9614970035,0.11427543277432874,0.03438996758129627,-0.12309458148465609,10.271223377347091,0.1714462609591862,-0.003628460500000097,-0.09581097049999987,0.08502365550000057
118332.0,1.3526312345,-2.1379477665,10.095553909,0.1289309625033251,0.022399555620095227,-0.07726223532728498,10.407720242125674,0.1519683723403667,-0.06943108199999992,-0.07776673450000038,0.1340569054999996
118342.0,1.2855537485000001,-2.2169893655,10.2188234995,0.1427871314349081,0.0048136180770003605,-0.04288972103850865,10.535276171081415,0.14916723498530782,-0.06707748599999985,-0.07904159899999996,0.12326959049999964
118352.0,1.230538442,-2.3115254715,10.3541552695,0.15264649637942407,-0.022898719786165606,-0.023703316571334992,10.680164147031997,0.15616386086812717,-0.05501530650000008,-0.09453610600000006,0.13533177000000052
118362.0,1.1563021015,-2.4563696919999995,10.485760512499999,0.16037306897800296,-0.07459188157173365,-0.024237387322445254,10.831526214676016,0.17852428684650462,-0.07423634050000016,-0.14484422049999957,0.1316052429999992
118372.0,1.1227633584999999,-2.558162719,10.612658563499998,0.17289755169031426,-0.14547144782447535,-0.04528780343074887,10.97421139952669,0.2304484555214812,-0.03353874300000004,-0.10179302700000026,0.1268980509999995
118382.0,1.1466915845,-2.3223127865,10.622269080499999,0.1824898812592751,-0.24699375975448154,-0.09191776505628137,10.933464166806914,0.3205578725481884,0.02392822600000022,0.23584993249999986,0.009610517000000485
118392.0,1.3083051765,-1.9380882394999999,10.745538670999998,0.1614394651509715,-0.37756009576692534,-0.15213860556709372,10.997020041306705,0.4379046495844287,0.16161359199999992,0.3842245470000001,0.12326959049999964
