timestamp,ax,ay,az,gx,gy,gz,acc_mag,gyro_mag,dax,day,daz
157442.0,0.4260989425,-1.4005857529999999,10.151844079999998,-0.11781321516812124,0.2763379804682622,-0.1707909392831571,10.25685814394141,0.34556067203712687,0.0,0.0,0.0
157452.0,-0.095909037,-1.6783100809999998,10.2272572185,-0.14739131000166913,0.29552438493543587,-0.14467732301481798,10.364492919806779,0.36054179806259606,-0.5220079795,-0.2777243279999999,0.07541313850000186
157462.0,0.023830159499999996,-1.782456704,10.244026589999999,-0.13406746649194443,0.2454281994154426,-0.10364288697117927,10.397970982589023,0.29824643276927143,0.1197391965,-0.1041466230000001,0.016769371499998798
157472.0,-0.0695291485,-1.7489179609999999,10.270308411999999,-0.09356535587016401,0.2073241711859024,-0.09618160441890351,10.418386785601573,0.24695888079926634,-0.093359308,0.03353874300000004,0.02628182199999962
157482.0,-0.179657828,-1.7788282434999998,10.222451959999999,-0.0530632452483836,0.19879823778991013,-0.09618160441890351,10.377621641279026,0.22712848428424426,-0.11012867949999999,-0.02991028249999994,-0.04785645199999955
157492.0,-0.3448998805,-1.7693157929999999,10.199700531999998,-0.02615026818263104,0.1971995161950833,-0.09778032601373032,10.357766421647534,0.22165847123209578,-0.1652420525,0.009512450499999936,-0.022751428000001184
157502.0,-0.43463072799999997,-1.8123669864999998,10.265503153500001,-0.00243473430653209,0.19106991986207922,-0.103110561549321,10.433318405857044,0.21712998436480643,-0.08973084749999999,-0.04305119349999997,0.06580262150000316
157512.0,-0.550741464,-1.8674803594999998,10.3696497765,0.03540225854745298,0.17907950790087818,-0.11669969510534885,10.550849991377643,0.21666012299904838,-0.11611073600000005,-0.055113372999999966,0.10414662299999833
157522.0,-0.6226242085,-1.9261241265,10.445062915,0.06764372581954423,0.15030077386474366,-0.1342856326484437,10.639405733122688,0.2125996881533067,-0.07188274449999998,-0.05864376700000018,0.07541313850000009
157532.0,-0.723142371,-1.899744238,10.4702660055,0.08229925554854062,0.12525355376937305,-0.15666948030527098,10.665759854997608,0.21681085363704675,-0.10051816250000001,0.02637988849999995,0.025203090499999803
157542.0,-0.781786138,-1.8602234384999998,10.418781092999998,0.06950948278992618,0.12338954212824312,-0.18811158677994885,10.612380518553222,0.23546234600294536,-0.05864376699999996,0.0395207995000002,-0.0514849125000012
157552.0,-0.7709988229999999,-1.826782762,10.385242349999999,0.03700098014227979,0.16069420956036992,-0.22621561500948903,10.572834677268023,0.27993786094746603,0.010787315000000075,0.03344067649999993,-0.03353874299999937
157562.0,-0.790219857,-1.7752978494999998,10.406816979999999,-0.0040334559013588955,0.23956738378724568,-0.26085516467382047,10.586688317507639,0.35419516806159235,-0.01922103400000008,0.05148491250000009,0.021574629999999928
157572.0,-0.8309174545,-1.746564365,10.405640181999999,-0.04506963727424957,0.3019192713147431,-0.28696878094215966,10.58386784188718,0.41897207523973135,-0.040697597500000016,0.028733484499999795,-0.0011767979999994793
157582.0,-0.8907380194999999,-1.7417591064999998,10.4737963995,-0.06878517115034852,0.32909753842679873,-0.30615344008008133,10.654930784507124,0.45471586561459343,-0.05982056499999988,0.004805258500000242,0.06815621750000034
157592.0,-0.966151158,-1.7597052759999998,10.533715031,-0.0709162181670336,0.31017991466443223,-0.3258721699691132,10.723300008523603,0.45544852686195764,-0.07541313850000009,-0.017946169500000053,0.05991863150000043
157602.0,-0.9733100125,-1.758528478,10.6091281695,-0.052796209872828466,0.2454281994154426,-0.3493206684696571,10.797840307452605,0.43017132664245544,-0.007158854500000089,0.0011767979999999234,0.07541313850000009
157612.0,-0.9242767624999999,-1.7728461869999999,10.6450205085,-0.02321986036853256,0.1465710052532318,-0.37570132011355134,10.831146419601367,0.40394764936999233,0.04903325000000014,-0.014317708999999956,0.035892339000000106
157622.0,-0.80218397,-1.7668641305,10.534891829,-3.665191429188092e-05,0.04051956391430036,-0.40421301877413074,10.71210781434277,0.406238847169573,0.12209279249999994,0.005982056499999944,-0.11012867950000071
157632.0,-0.6500828285,-1.7537232194999999,10.396029665,0.010887363873940629,-0.02503151213210267,-0.4311242505106313,10.562934516983622,0.43198753531797274,0.15210114149999998,0.013140911000000033,-0.13886216399999896
157642.0,-0.571139296,-1.7238129369999997,10.29305984,0.01994736802104319,-0.0338244809036501,-0.4567055413571122,10.452024301876873,0.4583906025494647,0.07894353249999997,0.029910282500000163,-0.10296982500000063
157652.0,-0.49445129299999996,-1.6866457335,10.190090015,0.028475046746287487,-0.01623679803130325,-0.4769565966680024,10.340560450250548,0.4780816426120502,0.07668800300000006,0.03716720349999969,-0.10296982500000063
157662.0,-0.38079221950000003,-1.703415105,10.131446248,0.03220481535779937,0.018669787008583346,-0.49107980097514053,10.280701766440226,0.4924886618034566,0.11365907349999993,-0.016769371499999908,-0.058643766999999514
157672.0,-0.30175062049999996,-1.6698763619999997,10.083589796,0.032737140779657635,0.07409271740566327,-0.49827404815186116,10.22537645641146,0.5048152911913681,0.07904159900000007,0.03353874300000026,-0.04785645199999955
157682.0,-0.2562477645,-1.6040737404999998,10.100359167499999,0.024211207383665338,0.12818570691272355,-0.5014714913415147,10.230150086595708,0.5181615719521976,0.04550285599999998,0.06580262149999982,0.016769371499998798
157692.0,-0.24673531399999996,-1.6196663139999998,10.093102246499999,0.016482889455834447,0.16788845673709055,-0.49907340894927454,10.22520954514793,0.526813522103054,0.00951245050000002,-0.015592573499999984,-0.00725692099999975
157702.0,-0.2562477645,-1.6711512265,10.168613451499999,0.018348646426216385,0.188671837469839,-0.49294381261627046,10.308205899411906,0.5281357188039684,-0.00951245050000002,-0.05148491250000009,0.07551120499999975
157712.0,-0.3005738225,-1.7297949934999999,10.2990418965,0.032737140779657635,0.17241758614601582,-0.49054573022403025,10.44762170678917,0.5209939134384134,-0.044326058,-0.05864376699999996,0.1304284450000015
157722.0,-0.3615711855,-1.818349043,10.367296180499999,0.04819203130606743,0.11139738483779008,-0.49587596575962095,10.531759447431979,0.5105142727173654,-0.06099736300000003,-0.08855404950000012,0.06825428399999822
157732.0,-0.3496070725,-1.8829748664999997,10.3421911565,0.0596501178454102,0.04185125013357203,-0.5203908604331332,10.518019650609117,0.5254677072085885,0.011964112999999998,-0.06462582349999968,-0.025105023999998366
157742.0,-0.30420228299999996,-1.8829748664999997,10.279918928999999,0.06577971417841429,-0.007443829259755816,-0.5635563434934571,10.455375008275198,0.5674311708772771,0.04540478950000004,0.0,-0.062272227500001165
157752.0,-0.179657828,-1.8674803594999998,10.211664644999999,0.06018244326726847,-0.014638076436476442,-0.6080570034315566,10.382574567525287,0.6112033370176754,0.12454445499999997,0.01549450699999988,-0.068254284
157762.0,-0.0934573745,-1.7907923565,10.210487847,0.048726102057177686,0.018135716257473077,-0.6323048627295137,10.366760999400052,0.6344387887395025,0.0862004535,0.0766880029999999,-0.0011767979999994793
157772.0,-0.027654752999999997,-1.702238307,10.270308411999999,0.03593458396931125,0.0687642271993246,-0.6347029451217538,10.410456998459752,0.6394275891870759,0.06580262149999999,0.0885540494999999,0.05982056499999899
157782.0,-0.014415775499999998,-1.6746816205,10.3553320675,0.027675685948874085,0.12312250675268799,-0.6213791016120292,10.489884106739101,0.6340639425026304,0.013238977499999999,0.027556686500000094,0.08502365550000057
157792.0,0.019024901,-1.7393074439999998,10.45585023,0.022078415037728265,0.1604271741848148,-0.6085893288534147,10.599545101739174,0.6297660723012576,0.0334406765,-0.0646258234999999,0.10051816250000023
157802.0,-0.0072569209999999995,-1.8004028735,10.532440166499999,0.0223454504132834,0.17907950790087818,-0.5957995560948003,10.685214037664945,0.6225318468536002,-0.026281822,-0.06109542950000013,0.07658993649999957
157812.0,-0.1042446895,-1.7105739595,10.641392048,0.02527585822738188,0.17721375093049627,-0.5782118732224535,10.778504300015197,0.6052871656192664,-0.0969877685,0.08982891399999993,0.10895188150000124
157822.0,-0.214373369,-1.679486879,10.7048410735,0.02927440754370089,0.16389165275002351,-0.5670208220586659,10.83790821731584,0.5909569167259608,-0.1101286795,0.031087080500000086,0.06344902550000064
157832.0,-0.3256788465,-1.6866457335,10.726415703499999,0.032737140779657635,0.1257876245204833,-0.5691518690753509,10.863095064744794,0.5838048449104363,-0.1113054775,-0.007158854500000089,0.02157462999999815
157842.0,-0.32813050899999996,-1.6758584184999998,10.764759704999998,0.0324718507333545,0.07329335660824987,-0.5851408303528709,10.89936798975911,0.5906065767996498,-0.0024516624999999515,0.010787315000000186,0.038344001499998726
157852.0,-0.3233252505,-1.6950794525,10.758777648499999,0.028740336792590627,0.019202112430441613,-0.5997963600818673,10.896289738152237,0.6007914793405444,0.004805258499999965,-0.01922103400000008,-0.0059820564999988335
157862.0,-0.30420228299999996,-1.6483997984999998,10.6809128475,0.017016960206944712,-0.015437437233889843,-0.6099210150726865,10.811644656599098,0.6103536155625944,0.019122967500000032,0.04667965400000007,-0.0778648009999987
157872.0,-0.2874329115,-1.6483997984999998,10.501353086,-0.005099852074327432,-0.02396511595913414,-0.6227107878313008,10.633826038221141,0.6231926351904314,0.016769371499999963,0.0,-0.1795597615000002
157882.0,-0.22751427999999996,-1.6962562505,10.3684729785,-0.03307922531304853,-0.0002495820830351891,-0.6381656783577107,10.508771570495234,0.6390224804122971,0.05991863150000004,-0.047856452000000216,-0.13288010750000012
157892.0,-0.22633748199999998,-1.7178308804999998,10.27148521,-0.056260688438037214,0.0423835755554303,-0.654686965057089,10.416601173559744,0.6584653785553549,0.001176797999999979,-0.021574629999999706,-0.09698776850000002
157902.0,-0.23947839299999998,-1.6723280244999998,10.182931160499999,-0.06691941417996658,0.07222870576453333,-0.670674181005357,10.32211790001082,0.6778635932087044,-0.013140911000000005,0.045502855999999925,-0.08855404950000079
157912.0,-0.18201142399999998,-1.702238307,10.1805775645,-0.06452133178772637,0.0906140041050416,-0.6861290715317668,10.323512142632733,0.6950877662544888,0.05746696900000001,-0.029910282500000163,-0.0023535959999989586
157922.0,-0.1617116585,-1.7153792179999998,10.130269449999998,-0.054661966843210404,0.09700889048434883,-0.6957231464299797,10.275749882691986,0.7045774279173322,0.020299765499999983,-0.01314091099999981,-0.05030811450000172
157932.0,-0.1401370285,-1.7082203635,10.124287393499998,-0.03547730770528874,0.10313848681735291,-0.7029173936067002,10.268342145800162,0.7113290722723385,0.021574629999999984,0.007158854499999867,-0.00598205650000061
157942.0,-0.15210114149999998,-1.6675227659999998,10.1493924175,-0.013892820845874863,0.10793465160183333,-0.7106439662052793,10.28658997806272,0.7189281926530875,-0.01196411299999997,0.04069759750000013,0.02510502400000192
157952.0,-0.15808319799999998,-1.5645529409999999,10.1590029345,0.002626720524251466,0.10793465160183333,-0.720503331149795,10.279988172457266,0.7285477601880833,-0.005982056499999999,0.10296982499999996,0.009610517000000485
157962.0,-0.10189109349999999,-1.485511342,10.205682588499998,0.015683528658421046,0.10633593000700652,-0.724233099761307,10.313732730653694,0.7321658868531815,0.05619210449999999,0.07904159899999996,0.046679653999998294
157972.0,-0.004903325,-1.4903166005,10.27148521,0.013552481641735968,0.1100656986185184,-0.7197039703523817,10.379040226898182,0.7281977291313219,0.09698776849999999,-0.00480525850000002,0.06580262150000138
157982.0,0.033440676499999995,-1.456875924,10.319439728499999,-0.001635373509118687,0.12152378515786118,-0.7066471622182122,10.421825274246338,0.7170222567512536,0.038344001499999995,0.03344067649999993,0.04795451849999921
157992.0,0.0716866115,-1.461583116,10.315811268,-0.028815385950426382,0.13271483632164882,-0.688527153924007,10.419084714706967,0.7017928440345108,0.038245935,-0.004707191999999916,-0.003628460499999875
158002.0,0.05619210449999999,-1.41608026,10.328952179,-0.054929002218765545,0.15003548381844053,-0.6741386595705658,10.425722707392454,0.6928136647158325,-0.015494507000000005,0.045502855999999925,0.013140911000000699
158012.0,0.045404789499999994,-1.4089214055,10.294236638,-0.07198261434000214,0.1620258957796416,-0.6616159221875065,10.390304571133955,0.684959499651214,-0.010787314999999999,0.007158854500000089,-0.03471554100000063
158022.0,0.075315072,-1.401762551,10.301493558999999,-0.07597941832706914,0.1596278133874014,-0.64882440409964,10.396700445601713,0.6724782659472467,0.029910282500000003,0.007158854499999867,0.00725692099999975
158032.0,0.0669794195,-1.4388316879999998,10.270308411999999,-0.06638708875810831,0.13697867568427097,-0.6363016667165807,10.37082242383059,0.6542554655578294,-0.008335652499999999,-0.03706913699999981,-0.031185147000000413
158042.0,0.0801203305,-1.5334658605,10.327775380999999,-0.032812189937493394,0.09647656506249055,-0.6312384665565451,10.44130648592733,0.639410954766502,0.013140911000000005,-0.09463417250000017,0.057466969000000034
158052.0,0.0920844435,-1.6172146514999999,10.370924640999998,0.021279054240314867,0.03998549316319009,-0.6317707919784035,10.496663311884493,0.6333924308119611,0.011964112999999998,-0.08374879099999988,0.043149259999999856
158062.0,0.08492558899999998,-1.596914886,10.442709318999999,0.0783024515614736,-0.017570229579826915,-0.6360346313410257,10.564446385396861,0.6410772489748323,-0.00715885450000002,0.0202997654999999,0.07178467800000021
158072.0,0.07776673449999999,-1.5298374,10.464283948999999,0.10894519723873804,-0.05434082626084345,-0.646693357082955,10.575806763587002,0.6580534017048472,-0.007158854499999992,0.06707748600000007,0.021574629999999928
158082.0,0.14837461449999997,-1.473547229,10.557643257,0.0961554244801236,-0.05434082626084345,-0.6600172005926797,10.661012503716483,0.6691946623620525,0.07060787999999998,0.05629017099999989,0.09335930800000192
158092.0,0.2178056965,-1.449619003,10.583925079,0.043928191943445286,-0.02769488457064602,-0.666944412393845,10.684956932677443,0.6689630347800788,0.06943108200000003,0.023928225999999997,0.02628182199999962
158102.0,0.2309466075,-1.4592295199999998,10.559996853000001,-0.028548350574871248,0.017603390835614807,-0.6642792946260498,10.662842991572422,0.6651254535486817,0.013140911000000005,-0.009610516999999819,-0.023928225999998887
158112.0,0.26929060899999996,-1.5466067714999998,10.4630090845,-0.1020930345954083,0.05970422305222202,-0.6597501652171245,10.580126135357498,0.6702670083386111,0.03834400149999995,-0.08737725149999997,-0.09698776850000179
158122.0,0.315970263,-1.6783100809999998,10.385242349999999,-0.15698363957062997,0.10207209064438437,-0.654686965057089,10.524724253077608,0.6809387615615805,0.046679654000000015,-0.13170330949999998,-0.07776673450000082
158132.0,0.28360831799999997,-1.7512715569999997,10.3445447525,-0.17643533408410678,0.12631994994234158,-0.6437629492688565,10.495570107472545,0.6793503453433599,-0.032361945,-0.07296147599999991,-0.04069759749999946
158142.0,0.29920089149999995,-1.8171722449999999,10.330128977,-0.164977247544764,0.1153941888248571,-0.6293727095861632,10.493007234483725,0.6607899201666305,0.015592573499999984,-0.06590068800000015,-0.014415775499999839
158152.0,0.35303939999999995,-1.8650286969999998,10.3074756155,-0.13673258425973978,0.08608487469611631,-0.6123190974649266,10.480793024514556,0.6332780450718746,0.05383850849999999,-0.047856451999999994,-0.022653361499999747
158162.0,0.41413482949999997,-1.8482593255,10.217646701499998,-0.11115129341325888,0.044249332525812236,-0.5955325207192451,10.391721431407623,0.6074303224985055,0.06109542950000002,0.016769371499999908,-0.0898289140000017
158172.0,0.49906041849999994,-1.8291363579999997,10.084766594,-0.10182599921985318,0.025596998809748837,-0.5790112340198669,10.26144816158661,0.5884536936636534,0.08492558899999997,0.0191229675000002,-0.13288010749999835
158182.0,0.5877125344999999,-1.8566930444999998,9.9746379145,-0.10608983858247532,0.061569980022603964,-0.5550304100974647,10.162977743264225,0.5684229696479544,0.088652116,-0.027556686500000094,-0.11012867949999894
158192.0,0.6116407604999999,-1.8530645839999997,9.917170945499999,-0.11514984272957789,0.1425742012661648,-0.5222548720742632,10.107335570497767,0.5534772267696625,0.023928225999999997,0.003628460500000097,-0.05746696900000181
158202.0,0.5912429285,-1.8231543014999998,10.005724995,-0.12021129756036145,0.2337048228297967,-0.48308444767175446,10.187639200675834,0.5499448007367435,-0.020397831999999894,0.02991028249999994,0.08855404950000079
158212.0,0.5110245314999999,-1.8530645839999997,10.168613451499999,-0.12287641532815678,0.2989871181713926,-0.4303248897132179,10.348704940730343,0.5382113162903815,-0.08021839700000011,-0.02991028249999994,0.16288845649999928
158222.0,0.46434487750000003,-1.9021959005,10.367296180499999,-0.1314040940534011,0.32030456965525134,-0.378898763303205,10.550582709184804,0.5132507438949592,-0.046679653999999904,-0.049131316500000244,0.19868272899999972
158232.0,0.35549106249999995,-1.9236724639999998,10.45585023,-0.1417957844197753,0.30778008694294,-0.34212642129293647,10.63727849012426,0.48154450941167937,-0.10885381500000008,-0.021476563499999823,0.08855404950000079
158242.0,0.2764494635,-1.989573152,10.4282935435,-0.15005642776946448,0.2710094902619235,-0.3146811188053256,10.619987375813233,0.44157364262321136,-0.07904159899999996,-0.06590068800000015,-0.02755668649999876
158252.0,0.2178056965,-2.0948965729999998,10.3804370915,-0.14819067079908255,0.23077266968644625,-0.3018913460467112,10.591954738554351,0.40786625847695074,-0.058643766999999986,-0.1053234209999998,-0.047856452000001326
158262.0,0.16632078399999997,-2.1679561154999996,10.3553320675,-0.12554153309595212,0.1953337592247014,-0.3018913460467112,10.581143536977374,0.38085999900597434,-0.051484912500000035,-0.0730595424999998,-0.025105024000000142
158272.0,0.11846433199999999,-2.176291768,10.318164864,-0.09169959889978206,0.16549037434485034,-0.3018913460467112,10.545843058670316,0.356278353618452,-0.04785645199999998,-0.008335652500000457,-0.037167203499999246
158282.0,0.087279185,-2.1379477665,10.2859009855,-0.06532069258513977,0.144972283658405,-0.29975855370077414,10.506102864141702,0.3393213026406024,-0.031185146999999996,0.03834400150000006,-0.03226387850000023
158292.0,0.08610238699999999,-2.0877377184999997,10.2272572185,-0.052796209872828466,0.1433735620635782,-0.2917649457266401,10.438527320252367,0.3293481465419286,-0.0011767980000000067,0.050210048000000285,-0.058643766999999514
158302.0,0.10885381499999999,-2.024288693,10.209311049,-0.05706004923545061,0.1417748404687514,-0.2840383731280612,10.408632280990677,0.32254263596915006,0.022751428000000004,0.06344902549999976,-0.017946169500000053
158312.0,0.1364105015,-2.06135783,10.156551271999998,-0.07491302215410062,0.1316484401486803,-0.2704474942427813,10.364523031427282,0.30997599878706844,0.02755668650000001,-0.03706913700000003,-0.05275977700000212
158322.0,0.16985117799999996,-2.1140195405,10.062015166,-0.09409768129202228,0.11326314180817201,-0.24966411351003287,10.283096675666227,0.289853553525817,0.03344067649999996,-0.052661710500000236,-0.09453610599999784
158332.0,0.16151552549999998,-2.152363542,10.006999859499999,-0.10049431300058151,0.10660122005330966,-0.22781433660431583,10.237128614506185,0.2708547563266658,-0.008335652499999985,-0.038344001499999614,-0.055015306500001415
158342.0,0.10404855649999999,-2.2169893655,9.9530632845,-0.08823686566382533,0.10660122005330966,-0.2096943283101107,10.197516202199033,0.25123947919158446,-0.05746696899999999,-0.06462582350000012,-0.053936574999998044
158352.0,0.039422733,-2.2265998825,9.985425229499999,-0.06212324939548617,0.09780825128176222,-0.2040988027282169,10.230738888397127,0.23469570385787147,-0.06462582349999998,-0.00961051700000004,0.032361944999998116
158362.0,-0.006080123,-2.201396792,9.990230488,-0.03227986451563512,0.07222870576453333,-0.20836264209083905,10.229901759405527,0.22287657169079567,-0.045502856,0.025203090499999803,0.0048052585000011305
158372.0,-0.0132389775,-2.1834506224999997,9.9866020275,0.0012950343049797925,0.031726595142752924,-0.21395816767273287,10.222516908623238,0.216301529044703,-0.007158854500000001,0.017946169500000497,-0.003628460499999875
158382.0,0.038245934999999995,-2.151186744,9.957868543,0.026609289775905546,-0.015172147187586705,-0.21848729708165815,10.187650027301403,0.22062399538288813,0.051484912499999994,0.03226387849999979,-0.028733484500000017
158392.0,0.1364105015,-2.108037484,9.8836322025,0.04472929807011068,-0.05753826945049706,-0.2158239246431148,10.106859817627011,0.22779668348235388,0.09816456650000001,0.043149259999999856,-0.07423634050000061
158402.0,0.18789541399999998,-2.0685166845,9.839404210999998,0.04819203130606743,-0.06473426195646968,-0.20010199874114987,10.056238918606777,0.21576331118301129,0.05148491249999998,0.03952079949999998,-0.04422799150000145
158412.0,0.2058415835,-1.9847678934999997,9.804688669999999,0.023677136632555076,-0.018102555001685183,-0.1769205356161612,10.005678101167986,0.1794134477106303,0.017946169500000025,0.08374879100000032,-0.03471554099999885
158422.0,0.15553346899999998,-2.028995885,9.7651678705,-0.03174579376452486,0.04265061093098543,-0.14467732301481798,9.974944536205282,0.1541375938220784,-0.05030811450000003,-0.04422799150000034,-0.03952079949999998
158432.0,0.08492558899999998,-2.051747313,9.719665014499999,-0.08237430470637637,0.08928231788576993,-0.11136945956975818,9.934222032256223,0.16480295776403595,-0.07060788,-0.02275142799999985,-0.04550285600000059
158442.0,-0.004903325,-2.152363542,9.749575297,-0.10235832464171145,0.11752698117079416,-0.08738863564735608,9.984333294286579,0.17868013758357293,-0.08982891399999998,-0.10061622899999989,0.029910282500001273
158452.0,-0.1258193195,-2.281615189,9.771149927,-0.08477238709861658,0.12125674978230604,-0.0767299099054267,10.034787953302603,0.16666444148726317,-0.1209159945,-0.12925164700000025,0.021574629999999928
158462.0,-0.21319657099999997,-2.373797699,9.8465630655,-0.04000643711421402,0.10180505526882924,-0.08765567102291122,10.130901859979328,0.14017239725188327,-0.08737725149999997,-0.09218250999999977,0.07541313850000009
158472.0,-0.261053023,-2.4336182639999997,9.935117114999999,0.01115439924949576,0.07622550975160035,-0.12389394228206949,10.232164904088368,0.14589193909774878,-0.04785645200000002,-0.05982056499999988,0.08855404949999901
158482.0,-0.2909633055,-2.4001775875,9.969832656,0.0495254628545911,0.05757317603553695,-0.174522453223921,10.25880476884753,0.19033005214383802,-0.029910282499999996,0.03344067649999971,0.03471554100000063
158492.0,-0.25987622499999996,-2.3199591905,9.9877788255,0.07403861219885145,0.051710615078087996,-0.2235504972416937,10.25697188087263,0.24110273458651316,0.03108708050000003,0.08021839699999989,0.017946169500000053
158502.0,-0.189268345,-2.2528817044999996,9.966302262,0.07803541618591847,0.06316870161743077,-0.2595234784545488,10.219514629298017,0.27826650339645653,0.07060787999999996,0.06707748600000052,-0.021476563500000267
158512.0,-0.13297817399999998,-2.1128427425,9.9746379145,0.07350628677699318,0.09967400825214416,-0.27231325121316324,10.196822503833054,0.29915311949413703,0.05629017100000003,0.14003896199999977,0.008335652500001345
158522.0,-0.0814932615,-1.9835910955,10.0560331095,0.06418099258358748,0.14443995823654673,-0.2645866786145844,10.250125691189208,0.3082015766421179,0.05148491249999998,0.1292516469999998,0.08139519499999892
158532.0,-0.0791396655,-1.9188672055,10.1505692155,0.04739267050865402,0.1511001346621571,-0.2352756191565916,10.330651956079786,0.28360524128157677,0.0023535959999999995,0.06472389,0.09453610599999962
158542.0,-0.109049948,-1.8914085855,10.2272572185,0.03300417615521277,0.11752698117079416,-0.19423943778370092,10.401255142617273,0.2294140931532602,-0.029910282499999996,0.02745861999999999,0.076688003000001
158552.0,-0.14494228699999998,-1.956034409,10.241574927499999,0.028740336792590627,0.044249332525812236,-0.15933285274381434,10.427700411468933,0.16784209350283222,-0.03589233899999998,-0.0646258234999999,0.014317708999998402
158562.0,-0.21319657099999997,-2.0397831999999996,10.142233562999998,0.038866737112661726,-0.031159363135854767,-0.13668371504068394,10.347515157144349,0.14547840775228366,-0.068254284,-0.08374879099999966,-0.09934136450000075
158572.0,-0.11738560049999999,-2.118824799,9.990230488,0.0689771573680679,-0.07379252077432025,-0.12416097765762461,10.213124062275305,0.16005977862568987,0.09581097049999998,-0.0790415990000004,-0.15200307499999788
158582.0,-0.12817291549999998,-2.1104891465,9.7987066135,0.09588838910456846,-0.07672467391767072,-0.1262920246743097,10.02423284003373,0.1761559940767798,-0.010787314999999992,0.008335652500000013,-0.19152387449999964
158592.0,-0.095909037,-2.1846274205,9.681321013,0.11933863293436428,-0.04901233605450476,-0.1542713979130308,9.92520891802959,0.20110589899404574,0.03226387849999998,-0.07413827400000006,-0.11738560050000046
158602.0,-0.10189109349999999,-2.1116659445,9.599925817999999,0.1342594527096638,-0.005578072289373877,-0.19077670454774417,9.82995882835725,0.2333505228844821,-0.005982056499999985,0.07296147600000014,-0.0813951950000007
158612.0,-0.085121722,-1.897390642,9.589138503,0.14438585302973492,0.02852740662384732,-0.22648265038504417,9.775423990069305,0.270102718255927,0.01676937149999999,0.21427530249999993,-0.010787314999999964
158622.0,0.0477583855,-1.8207026389999998,9.7328059255,0.14971434323607358,0.03572339912981994,-0.23793899159513493,9.90175490236428,0.2833822675068201,0.1328801075,0.07668800300000012,0.14366742250000009
158632.0,0.177108099,-1.7560768155,9.850093459499998,0.1427871314349081,0.016536994662646274,-0.22541625421207565,10.006973279746113,0.26734645080659897,0.1293497135,0.0646258234999999,0.11728753399999903
158642.0,0.2644853505,-1.6256483705,9.999742938499999,0.13239544106853385,-0.02956064154102796,-0.19024263379663392,10.134473048028644,0.23365496797185573,0.0873772515,0.13042844499999995,0.1496494790000007
158652.0,0.29557243099999997,-1.5824991105000001,10.0991823695,0.12440008776514784,-0.09484468221187585,-0.1326869110536169,10.226688175021284,0.20512608791862297,0.031087080499999975,0.043149259999999856,0.09943943100000041
158662.0,0.317147061,-1.5705349974999998,10.139879966999999,0.13079497414445504,-0.1673212247301924,-0.05754525076750504,10.265686931805448,0.22003448228074446,0.02157463000000004,0.011964113000000332,0.04069759749999946
158672.0,0.281254722,-1.6638943054999997,10.162533328499999,0.1422530606837978,-0.21528461790424855,0.00587303293296092,10.301685887824181,0.2581044216899784,-0.035892338999999995,-0.09335930799999992,0.022653361499999747
158682.0,0.2070183815,-1.8087385259999997,10.166161788999998,0.15451050802055402,-0.24965887752227686,0.044244096538056256,10.327886385211603,0.2969184943598525,-0.07423634050000003,-0.1448442205,0.003628460499999875
158692.0,0.13042844499999998,-1.9739805784999997,10.153020878,0.16756731615472356,-0.2787029016047145,0.04584281813288306,10.343956876005631,0.328413880310423,-0.07658993650000001,-0.16524205250000001,-0.013140910999998923
158702.0,0.1171894675,-2.0804807975,10.153020878,0.18062412428889316,-0.28483075260846663,0.009604546873724796,10.364649857528379,0.3374105499644085,-0.013238977499999971,-0.10650021900000017,0.0
158712.0,0.11483587149999999,-2.001537265,10.107518021999999,0.18542028907337357,-0.2909603489414707,-0.050083968215229285,10.304429109156006,0.34863593063306014,-0.0023535960000000133,0.07894353249999986,-0.04550285600000059
158722.0,0.226141349,-1.8650286969999998,10.182931160499999,0.18755308141931065,-0.3050835532486088,-0.10870608713121481,10.354784351682218,0.37425812775683914,0.1113054775,0.13650856800000022,0.07541313850000009
158732.0,0.397365458,-1.795597615,10.324146920499999,0.1878183714656138,-0.3160075690368413,-0.134819703399554,10.486661992182013,0.39155188260729,0.171224109,0.06943108199999992,0.1412157599999997
158742.0,0.5637843084999999,-1.642417742,10.399560058999999,0.17476156333144421,-0.33386054195549125,-0.12122882451427414,10.54354011736548,0.3958546366862177,0.16641885049999994,0.15317987300000002,0.07541313850000009
158752.0,0.7528565205,-1.4436369465,10.487035377,0.1475832962193885,-0.36237224061607065,-0.07832863150025351,10.612671274104779,0.3990361444841729,0.18907221200000002,0.19878079549999983,0.08747531800000097
158762.0,0.8642600644999999,-1.3670470099999998,10.520476053499998,0.11694055054212406,-0.39541306868557535,-0.006649704450098395,10.644067802250527,0.41239641828914114,0.11140354399999997,0.07658993650000023,0.033440676499997934
158772.0,0.7852184655,-1.3801879209999999,10.4342756,0.08469733794078083,-0.40553946900564647,0.08714428955207688,10.554411117281335,0.42335567455411854,-0.07904159899999996,-0.013140911000000033,-0.08620045349999828
158782.0,0.7253979004999999,-1.5406247149999999,10.2894313795,0.03513522317189785,-0.3517135148741413,0.1620206597918856,10.429387553445213,0.3888284643025248,-0.0598205650000001,-0.160436794,-0.14484422049999957
158792.0,0.6834254384999999,-1.8171722449999999,10.0679972225,-0.01309346004846146,-0.2653790580949898,0.19692724483177218,10.253475185041166,0.3307231817222031,-0.04197246199999993,-0.27654753,-0.22143415699999913
158802.0,0.616446019,-2.1008786295,9.8801018085,-0.0352102723297336,-0.16945401707612945,0.1750774679260552,10.119787964999846,0.2461839697384256,-0.06697941949999997,-0.2837063845000001,-0.18789541400000154
