timestamp,ax,ay,az,gx,gy,gz,acc_mag,gyro_mag,dax,day,daz
123942.0,0.8534727495,0.5111225979999999,9.807532598499998,-0.06400471432913606,-0.07564606043993823,0.04045149607347257,9.857857663557812,0.10702921774459191,0.0,0.0,0.0
123952.0,1.2269099815,0.38422454699999997,9.7584993485,-0.07972664023110097,-0.10575648069534441,0.05350830420764215,9.84282714162433,0.14284225212023835,0.373437232,-0.12689805099999996,-0.04903324999999903
123962.0,1.1862123839999998,0.31479346499999994,9.7488888315,-0.08399047959372312,-0.0644532639468986,0.06416702994957152,9.825834732708826,0.12379835066890596,-0.04069759750000013,-0.06943108200000003,-0.009610516999998708
123972.0,1.0401913655,0.4260989425,9.691421862499999,-0.08425576964002625,-0.04260348704118158,0.05404237495875242,9.756393601254683,0.10878727001301065,-0.14602101849999993,0.11130547750000008,-0.05746696900000181
123982.0,0.9647782269999999,0.39618865999999997,9.6902450645,-0.08372344421816798,-0.017290976899507822,0.0399191706516143,9.746210129669505,0.09435111647142658,-0.07541313849999998,-0.02991028250000005,-0.0011767979999994793
123992.0,0.9372215405,0.37706569249999994,9.751340493999999,-0.07759384788516391,-0.0037000980142279784,0.01913578991886583,9.803530189802132,0.08000421495621225,-0.027556686499999983,-0.019122967500000032,0.06109542949999991
124002.0,0.9443803949999999,0.40815277299999997,9.820771576,-0.07493047544662056,-0.0039671333897831115,-0.0016493361431346415,9.874512512754109,0.07505354493761096,0.007158854499999978,0.03108708050000003,0.06943108200000125
124012.0,0.825916063,0.5996766475,9.9667925945,-0.07413111464920714,-0.019154988540637765,-0.009375908741713538,10.018917309093746,0.07713782087833956,-0.11846433199999995,0.19152387450000008,0.14602101849999904
124022.0,0.677443382,0.775706015,10.129582984499999,-0.07039960070844327,-0.05486093437793776,0.00021642082724729686,10.181802433626116,0.0892517380150275,-0.148472681,0.17602936749999998,0.16279038999999962
124032.0,0.4716017985,0.8295445235,10.333070971999998,-0.06880087911361647,-0.10442304914682073,0.02473131550075965,10.37703753897066,0.1274730250928561,-0.20584158349999998,0.05383850849999994,0.20348798749999908
124042.0,0.2452643165,0.7828648694999999,10.412112570999998,-0.07226535767882522,-0.176369011572531,0.05350830420764215,10.444382230654988,0.1979683024696067,-0.226337482,-0.04667965400000007,0.07904159899999996
124052.0,0.07413827399999999,0.7506009909999999,10.493507766,-0.07759384788516391,-0.2549751504238516,0.0764244772863277,10.520580001428828,0.2772613086815038,-0.17112604250000002,-0.03226387850000001,0.08139519500000247
124062.0,-0.1389602305,0.6644005375,10.572549365,-0.065870471299518,-0.31759407332690415,0.08761552845011533,10.59431631089297,0.3359782660041994,-0.2130985045,-0.08620045349999983,0.07904159899999996
124072.0,-0.330484105,0.581730478,10.619229018999999,-0.04775046300531286,-0.3716853175047124,0.07269470867481581,10.640284538049883,0.38172582128422616,-0.19152387449999997,-0.08267005950000006,0.046679653999998294
124082.0,-0.6106600955,0.545838139,10.7281809005,-0.033629004027426745,-0.3962002121782248,0.027394687939302997,10.759401027012425,0.3985674183488144,-0.2801759905,-0.035892338999999995,0.10895188150000124
124092.0,-0.9194715039999999,0.616446019,10.8454684345,-0.04322133359638758,-0.40632486716904387,-0.03762231735598977,10.901817238641678,0.41034548872995563,-0.3088114084999999,0.07060787999999996,0.1172875340000008
124102.0,-1.102659726,0.6787182464999999,10.925686831499998,-0.08079303640406951,-0.39220340819115773,-0.11676078162916864,11.002142958055348,0.4171140230857788,-0.18318822200000007,0.062272227499999944,0.08021839699999767
124112.0,-1.19837263,0.8044394995,11.05013322,-0.12715596265404688,-0.3522336229912356,-0.18817267330376863,11.143996771734837,0.4191015616557592,-0.09571290399999999,0.12572125300000014,0.12444638850000089
124122.0,-1.2917319379999999,0.994786576,11.129174819,-0.18444639535076074,-0.31439663013725055,-0.23054054089593098,11.247964432878632,0.4312941627197575,-0.09335930799999992,0.19034707649999993,0.07904159899999996
124132.0,-1.4282405059999999,1.1623822245,11.2296929815,-0.2531931692575654,-0.2968089472649037,-0.2470618275953093,11.379675207911825,0.4617812022916534,-0.136508568,0.16759564849999997,0.10051816250000023
124142.0,-1.600641413,1.332331469,11.271665443499998,-0.31128296275169265,-0.3101327907746284,-0.2459954314223408,11.462443105485425,0.5035803640868006,-0.1724009070000001,0.16994924450000015,0.0419724619999986
124152.0,-1.7179289469999999,1.3539060989999998,11.198605900999999,-0.34539018699416585,-0.3471704228312001,-0.2361360664778248,11.410219792701712,0.5436744666179191,-0.11728753399999992,0.021574629999999706,-0.07305954249999935
124162.0,-1.7670602635,1.273687702,11.016594477,-0.3624437991154025,-0.3975318983974965,-0.22121350137327328,11.229876945351345,0.5816635891566077,-0.04913131650000002,-0.08021839699999989,-0.1820114239999988
124172.0,-1.753821286,0.97085835,10.8670430645,-0.359511645972052,-0.4526895387482733,-0.2102894855850408,11.05038822868631,0.6151407235984946,0.013238977499999915,-0.30282935199999994,-0.14955141249999926
124182.0,-1.6843902039999998,0.6559668185,10.744852205499999,-0.33473146125223646,-0.49319164937005366,-0.21961477977844648,10.895839194130131,0.6352273653248474,0.06943108200000014,-0.31489153149999993,-0.1221908590000016
124192.0,-1.6329052914999997,0.3878530075,10.579708219499999,-0.3064850526379603,-0.4950574063404356,-0.2673128829061995,10.712004278200757,0.6406801857640331,0.05148491250000009,-0.26811381100000004,-0.16514398600000035
124202.0,-1.5024768465,0.27174227149999997,10.481543653000001,-0.2942293506304561,-0.44895977013676136,-0.35231390813682734,10.592168705516976,0.6420754440408994,0.13042844499999973,-0.11611073600000005,-0.09816456649999772
124212.0,-1.3073245115,0.312439869,10.3833790865,-0.2966274330226963,-0.3535653092105073,-0.4506387768771799,10.470018018326188,0.6450360990860252,0.19515233499999995,0.040697597500000016,-0.09816456650000127
124222.0,-1.1516929759999999,0.5614307125,10.391714739,-0.3107488920005824,-0.24271770308709545,-0.5337740451374258,10.470402875374749,0.6636199880457457,0.1556315355000002,0.2489908435,0.008335652499999568
124232.0,-0.987725788,0.870242121,10.4420228535,-0.33712954364447667,-0.1686406936447001,-0.5886663954418995,10.524674097303873,0.6990165505003851,0.16396718799999987,0.3088114085,0.050308114499999945
124242.0,-0.7375581465,1.0821638275,10.4288819425,-0.37443421107660346,-0.12707218684995117,-0.6150453017565417,10.510787274967587,0.7311833164864902,0.25016764150000004,0.21192170650000008,-0.013140910999998923
124252.0,-0.5352469569999999,1.2677056455,10.288842980499998,-0.4298571414736834,-0.09642944117268672,-0.6187768156973056,10.380455519195408,0.7595791906347226,0.20231118950000004,0.18554181799999991,-0.140038962000002
124262.0,-0.38795107399999995,1.3359599294999998,9.982385167999999,-0.49380949592525963,-0.07191454649917435,-0.5979916896353051,10.078854528732606,0.7788540178602329,0.14729588299999996,0.06825428399999978,-0.3064578124999997
124272.0,-0.25389416849999996,1.262900387,9.571780732499999,-0.5489671362760364,-0.065252624744312,-0.5582889398109382,9.658072583457907,0.7856903728965728,0.1340569055,-0.0730595424999998,-0.4106044354999998
124282.0,-0.0695291485,1.0845174235,9.1671583535,-0.565753713021718,-0.06285454235207179,-0.5156557821724727,9.231349014229233,0.7680682541155137,0.18436501999999996,-0.17838296350000005,-0.4046223789999992
124292.0,0.15671026700000001,0.903780864,8.755279053499999,-0.5423052145211741,-0.06285454235207179,-0.47275558915845206,8.80319767258305,0.7221796772768534,0.2262394155,-0.1807365594999999,-0.4118793000000007
124302.0,0.3243059155,0.6476311659999999,8.502757815999999,-0.4791539661962632,-0.0676524524658042,-0.43225173320741966,8.533550898163782,0.6488504746912542,0.16759564849999997,-0.2561496980000001,-0.2525212374999999
124312.0,0.38412648050000003,0.392658266,8.3938059345,-0.399214395796419,-0.05939180911611504,-0.411201317099116,8.411760323079044,0.5761823009996339,0.05982056500000005,-0.25497289999999995,-0.10895188149999946
124322.0,0.330287972,0.20113439149999998,8.471572668999999,-0.3048863310431334,-0.026083945671055254,-0.43625028252373865,8.480394370195274,0.5328699241660722,-0.05383850850000005,-0.1915238745,0.07776673449999905
124332.0,0.34705734349999995,0.035892338999999995,8.633186260999999,-0.23480787091705713,0.028274333882308142,-0.5284455549310871,8.640233913314807,0.5789549885159591,0.016769371499999963,-0.1652420525,0.16161359200000014
124342.0,0.4727785965,0.058643767,8.852266822,-0.21775425879582053,0.11034495129883751,-0.6648744519009798,8.865076794963395,0.7082732257338888,0.12572125300000003,0.022751428000000004,0.21908056100000195
124352.0,0.653515156,0.3207755215,9.027021325,-0.25239380846015197,0.2254563967848715,-0.8076982352501799,9.056328891792747,0.8757337841070723,0.1807365595,0.2621317545,0.17475450299999906
124362.0,0.9360447424999999,0.568589567,8.927679960499999,-0.323805700134752,0.3408348776464607,-0.91721415515432,8.994606346737827,1.0306795581923063,0.28252958649999993,0.24781404549999997,-0.09934136450000075
124372.0,1.349002774,0.4931764285,8.7074226015,-0.38988910160301327,0.44875207595577404,-0.9662439445013448,8.825091491593769,1.1344687291895441,0.4129580315,-0.07541313849999998,-0.22025735899999965
124382.0,1.7273433309999997,0.1579851315,8.501581018,-0.3866916584133597,0.5196316422085158,-0.9627794659361361,8.676724848152277,1.1603843252556736,0.3783405569999998,-0.335191297,-0.20584158349999981
124392.0,1.9738825119999996,-0.2729190695,8.409398507999999,-0.3022229586045901,0.5289569364019214,-0.9382645712626236,8.642261292973545,1.1186932389900517,0.24653918099999994,-0.430904201,-0.09218251000000066
124402.0,2.0828343934999998,-0.5698644315,8.5697372355,-0.1562017320657365,0.48072825318156215,-0.9286722416936629,8.837609454289689,1.0573224517618385,0.10895188150000013,-0.296945362,0.160338727500001
124412.0,2.155893936,-0.648807964,8.8474615635,-0.0013857914260834976,0.36241936450587453,-0.9465252146123129,9.129425313514606,1.013538207510503,0.07305954250000024,-0.07894353249999997,0.2777243279999997
124422.0,2.3234895845,-0.6069335685,9.107239722,0.10626437150767475,0.21826214960815088,-0.9771679602895773,9.418534257506671,1.0068702524257953,0.16759564849999986,0.04187439549999994,0.25977815849999963
124432.0,2.5605163149999997,-0.5004333495,9.267676516,0.13770647798235258,0.11780623385111325,-1.012608616080574,9.627902437285645,1.0286970361448033,0.23702673049999978,0.10650021900000006,0.16043679400000066
124442.0,2.7783220115,-0.5471130034999999,9.392220971,0.09400692417091858,0.06877644450408855,-1.0488468873397323,9.80980227151783,1.0552948849458836,0.21780569650000015,-0.04667965399999996,0.12454445500000055
124452.0,3.0656568565,-0.633313457,9.395751364999999,-0.0027192229746071652,0.033337534042343686,-1.0845528331770324,9.903508550484627,1.0850684924473377,0.28733484500000017,-0.08620045350000005,0.003530393999998438
124462.0,3.325435015,-0.6811699089999999,9.313179371999999,-0.10903769968909374,0.021347122081142644,-1.1189270927950608,9.912508284937845,1.124429970503029,0.2597781585000001,-0.04785645199999988,-0.08257199300000018
124472.0,3.5361799235,-0.6536132225,9.114496642999999,-0.18284767375593394,0.021347122081142644,-1.1445066383122897,9.798256362805045,1.1592171567743474,0.21074490850000016,0.027556686499999872,-0.19868272899999972
124482.0,3.7923296215,-0.45728408949999994,8.930131623,-0.20602913688092264,0.02028072590817411,-1.153566642459392,9.712781450270606,1.1719962933739574,0.25614969799999976,0.19632913300000004,-0.18436501999999955
124492.0,4.0114101825,-0.19995759349999997,8.8582488785,-0.18924256013524118,0.04266457356500139,-1.1277200615666083,9.726251481681393,1.1442838588671165,0.21908056099999973,0.25732649599999996,-0.07188274449999987
124502.0,4.137033369,0.1364105015,8.924149566499999,-0.14554300632380715,0.06957580530150195,-1.0672321856802407,9.837382701023738,1.0793554083456236,0.12562318650000037,0.336368095,0.06590068799999926
124512.0,4.2962933649999995,0.30165255399999996,9.1695119495,-0.08585449123485307,0.08876220976867562,-0.9816988350277546,10.130601183222101,0.9894353572836704,0.1592599959999994,0.16524205249999996,0.24536238300000157
124522.0,4.340619423,0.475230259,9.501074786,-0.045085345237517525,0.11301006906663283,-0.8695177973558189,10.45644503947489,0.8779892732739656,0.044326058000000224,0.17357770500000003,0.33156283649999985
124532.0,4.2567725654999995,0.5973230515,9.787232833,-0.0581421533716871,0.13672560294273178,-0.7525405948994031,10.689566596901855,0.7670669771736349,-0.0838468575000002,0.12209279249999999,0.2861580469999989
124542.0,4.116733603499999,0.5793768819999999,9.971597853,-0.12928875499998396,0.1540445051102715,-0.6435570004171212,10.803515024080651,0.6742483997088884,-0.1400389620000002,-0.017946169500000053,0.18436502000000132
124552.0,3.8725480185,0.3782424905,10.043382531,-0.21935298039064732,0.1561772974562086,-0.5582889398109382,10.770758014234834,0.6198335410109767,-0.24418558499999943,-0.20113439149999995,0.07178467800000021
124562.0,3.6474854009999995,0.13288010749999998,10.0015081355,-0.2745106207414241,0.11780623385111325,-0.5047300210549882,10.646688304724151,0.5865038651093393,-0.22506261750000034,-0.245362383,-0.041874395500000716
124572.0,3.4607667849999997,-0.016769371499999998,9.890202658,-0.282237193340003,0.037334338029410705,-0.47435431075327883,10.47822964857566,0.5532302398014364,-0.18671861599999984,-0.14964947899999997,-0.1113054775000002
124582.0,3.3302402735,-0.046679654,9.708191234,-0.24440020048601796,-0.04766668720121713,-0.44824069448493975,10.263608347226297,0.5127604618715113,-0.13052651149999983,-0.029910282500000003,-0.1820114240000006
124592.0,3.264437652,0.020299765499999997,9.5537364965,-0.19004192093265457,-0.0932319979830331,-0.4154651564617382,10.096080740011478,0.4662825681852778,-0.06580262150000005,0.0669794195,-0.15445473750000005
124602.0,3.1973601659999997,0.138862164,9.462828851,-0.14634236712122053,-0.08363966841407226,-0.3840230499870603,9.989370580523694,0.4193869161864999,-0.06707748600000007,0.11856239850000001,-0.09090764549999975
124612.0,3.229722111,0.05619210449999999,9.442431019,-0.11516555069284583,-0.018090337696921227,-0.36936752025806396,9.97966763051074,0.3873276770461496,0.032361945000000336,-0.08267005950000002,-0.020397831999998672
124622.0,3.291896272,-0.1077750835,9.589726901999999,-0.08798728358079012,0.06824411908223028,-0.3786928144514697,10.139578817148838,0.3947242956525621,0.06217416099999973,-0.16396718799999999,0.14729588299999818
124632.0,3.3996713554999998,-0.16406525449999998,9.893733052,-0.05228133774349014,0.12473344565227876,-0.41706387805656503,10.462821628861814,0.43844503546068375,0.10777508349999998,-0.056290170999999986,0.3040061500000011
124642.0,3.5157820914999998,-0.159259996,10.218137034,-0.02909812928924946,0.1407224069297988,-0.4498394160797665,10.807238866002747,0.47223404917396106,0.11611073599999999,0.0048052584999999925,0.32440398199999976
124652.0,3.5720722625,-0.027556686499999997,10.49115417,-0.03815813343635203,0.1127430336910777,-0.4591647102731722,11.082633957602367,0.47434087527163427,0.05629017100000011,0.13170330949999998,0.273017136
124662.0,3.485871809,0.1711260425,10.5904955345,-0.08185768724778605,0.04772602839578494,-0.4247921959843959,11.15074804923271,0.4352319663320205,-0.08620045350000005,0.198682729,0.09934136450000075
124672.0,3.24403982,0.315970263,10.513905598,-0.14580829637011028,-0.05645965597276457,-0.34538495100640987,11.007535713523788,0.37912862780937157,-0.24183198900000002,0.14484422049999998,-0.07658993650000134
124682.0,2.9399356035,0.2058415835,10.3008070935,-0.18737680316485925,-0.17903238401107432,-0.25372200402091966,10.714113070512397,0.3626810116526129,-0.30410421649999986,-0.11012867949999997,-0.21309850449999956
124692.0,2.6598576795,0.027556686499999997,10.000331337499999,-0.19856785432864688,-0.3029385435979078,-0.18284418309742995,10.348054363306684,0.4057498604589664,-0.280077924,-0.178284897,-0.30047575600000087
124702.0,2.4048847794999997,-0.16279038999999998,9.618460386499999,-0.19004192093265457,-0.3903376512207758,-0.13594544076709034,9.91588380934432,0.45492919947798893,-0.2549729000000003,-0.1903470765,-0.3818709509999998
124712.0,2.203750388,-0.3411733535,9.327497080999999,-0.1623295830694886,-0.4236455146658356,-0.11462973461248357,9.590365833784032,0.4679384486161862,-0.20113439149999968,-0.17838296350000002,-0.29096330550000005
124722.0,2.1044090234999997,-0.36039438749999997,9.17314041,-0.12795532345146027,-0.40206277313567373,-0.11809246784844034,9.418329280414053,0.4381470863804197,-0.0993413645000003,-0.01922103399999997,-0.1543566709999986
124732.0,2.0145801094999998,-0.1305265115,9.1479373195,-0.10450682495091647,-0.3194580849680341,-0.12475438960330268,9.36804821664034,0.35852308466548954,-0.08982891399999993,0.22986787599999997,-0.025203090499999803
124742.0,1.9679004554999997,0.14484422049999998,9.163529893,-0.1039744995290582,-0.20727879262535057,-0.10450333429241247,9.373574139615792,0.2543543616743635,-0.04667965400000007,0.27537073199999995,0.015592573499999318
124752.0,1.9751573765,0.2058415835,9.24374829,-0.11143578208133395,-0.08843583319855268,-0.057339301915769705,9.45465493121341,0.15338391592924133,0.007256921000000194,0.06099736300000003,0.08021839699999944
124762.0,1.8972925754999999,0.20466478549999997,9.418502793,-0.1140991545198773,0.0034941491624926476,-0.0003159045946109737,9.609880418258076,0.1141530811508541,-0.07786480100000004,-0.0011767980000000344,0.17475450300000084
124772.0,1.6770352164999998,0.2034879875,9.6112034655,-0.1148985153172907,0.055719636369918966,0.052176617988370484,9.75853915981676,0.13794472140686656,-0.2202573590000001,-0.001176797999999979,0.19270067249999911
124782.0,1.449619003,0.017946169499999998,9.8614691735,-0.11143578208133395,0.06771179366037201,0.08735023840381222,9.967461641699416,0.15694866892709278,-0.22741621349999974,-0.185541818,0.2502657080000006
124792.0,1.2041585535,-0.11012867949999999,9.978756707499999,-0.1255572410592201,0.036002651810139036,0.09241169323459576,10.05175166702261,0.16000228987814594,-0.24546044950000012,-0.128074849,0.11728753399999903
124802.0,1.0174399374999998,-0.19397553699999998,10.054169845999999,-0.14474364552639374,-0.015957545350984155,0.06336766915215812,10.107380562123408,0.1588106661017339,-0.18671861600000006,-0.08384685749999998,0.07541313850000009
124812.0,0.8546495475,-0.33881975749999993,10.102026297999998,-0.159132139879835,-0.07964286442700524,0.024197244749649387,10.143774445569946,0.17958711103625488,-0.16279038999999984,-0.14484422049999995,0.04785645199999955
124822.0,0.7636438354999999,-0.43217906549999996,10.096044241499998,-0.1679251086513824,-0.15531859546422738,-0.032025046444843955,10.13410282059931,0.23097253475760557,-0.09100571200000007,-0.09335930800000003,-0.00598205650000061
