timestamp,ax,ay,az,gx,gy,gz,acc_mag,gyro_mag,dax,day,daz
47492.0,-1.2363243654999998,0.3764772935,9.642584745499999,0.19250283517796657,0.17146289104517493,0.006649704450098395,9.728806384310428,0.2578780392480107,0.0,0.0,0.0
47502.0,-0.50013915,0.483075579,9.852152856,0.17411753683745831,0.18451795385009254,0.030099948279894206,9.876660219040536,0.2554795467622033,0.7361852154999998,0.1065982855,0.20956811050000113
47512.0,-0.40668177549999995,0.38128255199999994,10.071135350499999,0.17251881524263152,0.22208965665777444,0.04182332486554012,10.086552121467186,0.2843162811199842,0.09345737450000002,-0.10179302700000004,0.21898249449999874
47522.0,-0.3337202995,0.39324666499999994,10.160964264499999,0.17971306241935212,0.23861094335715277,0.0556794937971231,10.17404575192573,0.3038620955687566,0.07296147599999997,0.011964112999999998,0.08982891399999993
47532.0,-0.31577413,0.451890432,10.2651108875,0.15120136375877274,0.2412760611249481,0.05381373682674116,10.279903686143244,0.2897790681635583,0.017946169499999998,0.05864376700000007,0.10414662300000188
47542.0,-0.36480737999999996,0.366964843,10.297472832499999,0.11602774334333103,0.21969157426553423,0.04235565028739839,10.310465283224419,0.2520333829870222,-0.04903324999999997,-0.08492558900000002,0.032361944999998116
47552.0,-0.3325435015,0.35019547149999997,10.2639340895,0.08884947623127533,0.1909145855586517,0.023438026525031852,10.275289049085147,0.21187720380680836,0.032263878499999954,-0.01676937150000002,-0.03353874299999937
47562.0,-0.37441789699999994,0.43394426249999996,10.2052903225,0.06406754618220785,0.16480096929031257,-0.0032079151651655774,10.221372067930153,0.17684541462119616,-0.04187439549999994,0.08374879099999999,-0.058643766999999514
47572.0,-0.4055049775,0.5237731765,10.198033401499998,0.04115311843277429,0.14055310999235537,-0.018397515645272228,10.219523368793077,0.1476049608488249,-0.03108708050000003,0.08982891400000004,-0.007256921000001526
47582.0,-0.43306166399999996,0.5704528305,10.2052903225,0.01264141977219493,0.12429885866853217,-0.021860248881228977,10.230391458940565,0.12683801575752376,-0.027556686499999983,0.04667965399999996,0.007256921000001526
47592.0,-0.4917054309999999,0.5596655155,10.234023807,-0.015870278888384437,0.10111565021429147,-0.022661355007894374,10.26110340082184,0.10483213954245073,-0.05864376699999996,-0.010787314999999964,0.028733484500000017
47602.0,-0.536031489,0.5620191115,10.254323572499999,-0.03505493802630611,0.07287098692926725,-0.020795598037512436,10.283693264990935,0.08349542690358192,-0.04432605800000006,0.002353595999999958,0.020299765499999012
47612.0,-0.6162498859999999,0.5584887175,10.266287685499998,-0.05024453850641276,0.04409225289313275,-0.01413367628265008,10.299919242936749,0.06832569955863689,-0.08021839699999989,-0.0035303939999999923,0.011964112999999443
47622.0,-0.6604778774999999,0.4925880294999999,10.290215911499999,-0.06809751142506275,0.025439919177069347,-0.013866640907094947,10.323149591997655,0.07400502874851608,-0.04422799150000001,-0.06590068800000004,0.023928226000000663
47632.0,-0.7466783309999999,0.401680384,10.308162080999999,-0.09767386092935867,0.018779742751458987,-0.03145432377944181,10.34297254898424,0.10431795785520646,-0.08620045350000005,-0.09090764549999991,0.017946169500000053
47642.0,-0.8328787845,0.3729468995,10.365629049999999,-0.12645259496549316,0.010252064026214692,-0.06129770865929285,10.405721602162954,0.14089986755559503,-0.08620045350000005,-0.028733484500000017,0.057466969000000034
47652.0,-0.9705641505,0.4651294095,10.378868027499998,-0.1445708579304463,-0.005735151922053367,-0.08661196413021861,10.434521631108888,0.16862756969371467,-0.13768536600000003,0.09218251,0.013238977499998583
47662.0,-1.048330885,0.522498312,10.377593162999998,-0.15522958367237566,-0.020657717026604884,-0.0943385367287975,10.443488018245247,0.18281882953345105,-0.07776673449999993,0.057368902499999985,-0.0012748644999991399
47672.0,-1.2004320265,0.5716296285,10.3368955655,-0.1586940622375844,-0.028118999578880643,-0.08314748556500987,10.422053896160753,0.18135045597562452,-0.15210114149999998,0.04913131650000002,-0.040697597499997684
47682.0,-1.379991788,0.6063451695,10.293844371999999,-0.16269086622465143,-0.03025004659556572,-0.05730090467222584,10.403617820473773,0.17511932202991431,-0.1795597615000002,0.03471554099999996,-0.04305119350000197
47692.0,-1.545135774,0.5608423134999999,10.281880259,-0.1709515095743406,-0.027584928827770378,-0.018397515645272228,10.412446894036027,0.17413734667238118,-0.1651439859999999,-0.045502856000000036,-0.011964112999999443
47702.0,-1.7761804479999999,0.518967918,10.284233854999998,-0.1888044824929906,-0.02598620723294357,0.024237387322445254,10.449383267355968,0.19211940693229748,-0.23104467399999984,-0.04187439549999994,0.0023535959999989586
47712.0,-1.9988894695,0.383636148,10.3129673395,-0.21172065557167613,-0.03158173281483739,0.05914397236233185,10.511899502512568,0.22208343321842888,-0.22270902150000005,-0.13533176999999996,0.028733484500001794
47722.0,-2.2359162,0.265171816,10.345329284499998,-0.2418310758270823,-0.048103019514215715,0.07939502767322205,10.587515069654277,0.25903617535259577,-0.23702673050000023,-0.118464332,0.032361944999998116
47732.0,-2.4142991635,0.0832584585,10.353664937,-0.29059382979855186,-0.05449790589352294,0.08179311006546226,10.631751974601919,0.3067652335548307,-0.17838296349999982,-0.1819133575,0.008335652500001345
47742.0,-2.5304098994999995,-0.15259147399999998,10.342877622,-0.3486818779634272,-0.05556430206649148,0.05168268981005608,10.649008213025919,0.3568438651710873,-0.11611073599999955,-0.23584993249999997,-0.010787314999999964
47752.0,-2.6225924094999997,-0.298710559,10.254323572499999,-0.3915820709774478,-0.06515663163545231,-0.005073672135547516,10.588596265509146,0.39699829609962306,-0.09218251000000022,-0.146119085,-0.08855404950000079
47762.0,-2.63210486,-0.3166567285,10.196856603499999,-0.4022407967193772,-0.0846083261489291,-0.07168939902566708,10.535849850395623,0.41724764508841056,-0.00951245050000038,-0.017946169499999998,-0.057466969000000034
47772.0,-2.5435508104999998,-0.31185147,10.056817641499999,-0.3811903806110735,-0.10805682464947293,-0.12897983172238095,10.378173400908368,0.4166751499848242,0.08855404950000034,0.004805258499999965,-0.1400389620000002
47782.0,-2.468137672,-0.2268278145,10.048481988999999,-0.33749082679963954,-0.14989236681977702,-0.17161298936084646,10.349644665815044,0.40720854352788927,0.07541313849999964,0.08502365550000002,-0.008335652499999568
47792.0,-2.326921912,-0.0771783355,9.94786576,-0.28712935123334316,-0.19918744621310486,-0.1937298016421186,10.216680246488908,0.3995624345617011,0.14121576000000013,0.149649479,-0.10061622899999989
47802.0,-2.132946375,0.10355822399999999,9.797039482999999,-0.24342979742190912,-0.22583338790330226,-0.19079764849876812,10.027071714904833,0.38296543974282404,0.19397553700000003,0.1807365595,-0.15082627700000018
47812.0,-1.9055301615,0.1813249585,9.6521952625,-0.21891490274839676,-0.20158552860534507,-0.17401107175308667,9.840162464227339,0.344732233887541,0.22741621349999996,0.0777667345,-0.14484422049999957
47822.0,-1.7666679975,0.26281822,9.565994809,-0.2167838557317117,-0.13443747629336722,-0.1526936202692279,9.731312651228999,0.29729449508687583,0.13886216400000007,0.0814932615,-0.08620045350000005
47832.0,-1.634964688,0.35970792199999996,9.542066582999999,-0.2426304366244957,-0.035578536801904405,-0.1324425649583377,9.687803362711373,0.2787048511782696,0.13170330949999998,0.09688970199999997,-0.023928226000000663
47842.0,-1.5427821779999997,0.3334261,9.549225437499999,-0.28899510820372504,0.09472076383498426,-0.12524831778161707,9.678794153669799,0.3289032331466058,0.09218251000000022,-0.026281821999999955,0.007158854500000089
47852.0,-1.473351096,0.1322917085,9.544420179,-0.34308635238153334,0.23754454718418425,-0.13564000814799132,9.658375696851135,0.43878681486319976,0.0694310819999997,-0.2011343915,-0.004805258499999354
47862.0,-1.4924740634999998,-0.04246279449999999,9.586392641,-0.39851102810786526,0.3675785577747698,-0.17001426776601963,9.701969170563052,0.5681812095655605,-0.019122967499999755,-0.17475450299999998,0.04197246200000038
47872.0,-1.4889436694999998,-0.1454326195,9.60071035,-0.4227588874058225,0.46163958715250014,-0.2209080687541743,9.7165705432707,0.6638046099174355,0.0035303939999999923,-0.10296982500000001,0.014317709000000178
47882.0,-1.4457944095,-0.2052531845,9.6629825775,-0.3958459103400699,0.5066725725124579,-0.26700745028710055,9.772700887541651,0.6962069081660774,0.043149259999999856,-0.05982056499999999,0.06227222749999939
47892.0,-1.3943094969999998,-0.2352615335,9.725254805,-0.32443401866546995,0.4965461721923867,-0.30457740776553044,9.827513825212598,0.6667705234242949,0.05148491250000009,-0.030008349000000017,0.062272227500001165
47902.0,-1.3512583034999999,-0.15259147399999998,9.844895935,-0.2269085107225308,0.4331278884919208,-0.3242961376545624,9.938368031608345,0.5867326690456681,0.04305119349999997,0.08267005950000003,0.11964112999999976
47912.0,-1.2674114459999999,-0.0412859965,9.8952040495,-0.13737661075372568,0.3380004629412219,-0.32003229829194024,9.97612647715535,0.48532187059793874,0.08384685749999998,0.11130547749999997,0.050308114499999945
47922.0,-1.2375011635,0.0030400615,9.852152856,-0.08515112354629935,0.2508683906939089,-0.30377804696811705,9.929568684974527,0.40307166249975,0.02991028249999994,0.044326058,-0.043051193500000196
47932.0,-1.126195686,-0.188483813,9.807826797999999,-0.09367705694229166,0.20130627592502598,-0.31337037653707783,9.874072582804672,0.384058069326973,0.11130547749999997,-0.1915238745,-0.04432605800000111
47942.0,-1.0376416364999999,-0.3513722695,9.6976981185,-0.14164045011634782,0.18585138539861618,-0.35893568731889386,9.759380689118055,0.4282961384309148,0.08855404950000012,-0.1628884565,-0.11012867949999894
47952.0,-0.953794779,-0.42198014949999996,9.585117776499999,-0.171750870371754,0.18878179321271465,-0.4220869356438047,9.641694587384315,0.4932487284963241,0.08384685749999987,-0.07060787999999996,-0.11258034200000111
47962.0,-0.840037639,-0.38245935,9.564818011,-0.1693527879795138,0.20503604453653784,-0.48390649774944383,9.609249813221066,0.552164508928051,0.11375714000000003,0.03952079949999998,-0.020299765499999012
47972.0,-0.7227501049999999,-0.28792324399999997,9.589923035,-0.16082510925426952,0.22582117059853832,-0.5313375655016417,9.621428756995325,0.5993158811264334,0.11728753400000003,0.09453610600000001,0.025105024000000142
47982.0,-0.5742774239999999,-0.15259147399999998,9.636602689,-0.16029278383241125,0.23994262957642445,-0.5494575737958468,9.654904976399074,0.6206205502868978,0.148472681,0.13533177,0.04667965400000007
47992.0,-0.4498310355,-0.0760015375,9.657000520999999,-0.1546972582505174,0.2503343199427987,-0.545726059855083,9.66777033533563,0.6200124562106832,0.12444638849999995,0.07658993649999998,0.020397831999998672
48002.0,-0.3696126385,-0.0412859965,9.678575151,-0.1493687680441787,0.2633911280769683,-0.5345350086912953,9.685718093646987,0.6143399634838163,0.080218397,0.034715540999999996,0.021574630000001704
48012.0,-0.30018155649999995,-0.090417313,9.694069657999998,-0.1530985366556906,0.2753832853674213,-0.5254750045441928,9.69913763133141,0.6126982097138752,0.06943108200000003,-0.0491313165,0.015494506999997881
48022.0,-0.2319272725,-0.22565101649999997,9.679751949,-0.1709515095743406,0.29856474849241,-0.5342679733157402,9.685159081561132,0.6354585706236012,0.06825428399999994,-0.13523370349999997,-0.014317708999998402
48032.0,-0.16965504499999998,-0.3190103245,9.691716062,-0.189603843290404,0.31588539598920173,-0.5547860640021856,9.698448878447538,0.6659735562323658,0.06227222750000003,-0.09335930800000003,0.011964112999999443
48042.0,-0.11101127799999999,-0.22565101649999997,9.7694827965,-0.18081087451885655,0.3222802823685089,-0.5707732799504536,9.772718966398253,0.679955358720849,0.058643766999999986,0.09335930800000003,0.07776673450000082
48052.0,-0.032067745499999994,-0.10355822399999999,9.841365541,-0.15123277968530863,0.3220132469929538,-0.5750371193130758,9.84196262732397,0.676189007214825,0.0789435325,0.12209279249999998,0.07188274449999987
48062.0,0.019417167,-0.1585735305,9.894027251499999,-0.13337980676665867,0.294567944505343,-0.5713073507015638,9.895316965331336,0.6564697523487686,0.051484912499999994,-0.055015306500000014,0.052661710499998904
48072.0,0.032558078,-0.032950344,9.920309073499999,-0.07315896625584631,0.23621286096491256,-0.5483911776228784,9.920417222444788,0.6015659845133038,0.013140910999999998,0.1256231865,0.02628182199999962
48082.0,0.11042287899999999,0.019809433,9.836560282499999,-0.04598069914379061,0.14694799637166256,-0.5156156395996768,9.837199998835995,0.5381146960743423,0.07786480099999998,0.052759777,-0.08374879099999966
48092.0,0.42286274799999995,-0.0042168595,9.678575151,-0.024663247659931872,0.07233866150740899,-0.4569935206836913,9.687809228050728,0.4633403022409059,0.312439869,-0.0240262925,-0.1579851314999985
48102.0,0.49709908849999995,0.15984839499999998,9.425955846999999,0.002515019452123829,0.03449992332417191,-0.3789214525834809,9.440407970144356,0.3804970923150313,0.0742363405,0.16406525449999998,-0.2526193040000013
48112.0,0.5233809105,-0.06168382849999999,9.336126933,-0.033723251807034435,0.031569515510073434,-0.3261618946249443,9.350989176619883,0.32941686891735633,0.026281822000000066,-0.22153222349999996,-0.08982891399999993
48122.0,0.5353450235,-0.43394426249999996,9.241590827,-0.10566746890349268,0.08246331649822808,-0.2787308268727464,9.26724894080403,0.30928415155245587,0.011964112999999998,-0.372260434,-0.09453610599999962
48132.0,0.47915291899999995,-0.6302733954999999,9.1865755205,-0.153897897453104,0.15840608291100536,-0.2843263524546403,9.22062914701113,0.360025727752691,-0.05619210450000006,-0.196329133,-0.05501530649999964
48142.0,0.3713778355,-0.787081729,9.2259982535,-0.1477700464493519,0.219159248843676,-0.3290923024390428,9.266955428748503,0.42210011431649525,-0.10777508349999998,-0.1568083335,0.03942273300000032
48152.0,0.37853669,-0.9282974889999999,9.300234593999999,-0.08141960960553547,0.2599283948410115,-0.3959750647047175,9.35411084802795,0.48061229191610133,0.007158854500000034,-0.1412157599999999,0.07423634049999883
48162.0,0.4899402339999999,-0.808656359,9.3887886435,0.024631831733395972,0.2919028267375476,-0.46791928180117576,9.436276740969273,0.5520529337601977,0.11140354399999991,0.11964112999999987,0.08855404950000079
48172.0,0.6288023979999999,-0.43992631899999995,9.471458703,0.13734519482718976,0.324411329385194,-0.502293541419204,9.502497439332139,0.6135187160364656,0.138862164,0.36873004000000004,0.08267005949999984
48182.0,0.805910497,-0.0316754795,9.57913572,0.1943685921483485,0.36091663601990737,-0.49882906285399536,9.613029502053775,0.6456550175732026,0.17710809900000002,0.40825083949999996,0.10767701700000032
48192.0,0.9580116384999999,0.21251010549999996,9.6498416665,0.18370986640641915,0.4043508997850383,-0.4402069439380098,9.699607777274325,0.6253248105291174,0.15210114149999998,0.24418558499999996,0.0707059465000004
48202.0,0.9459494589999999,0.32028518899999997,9.7335904575,0.1213579788789217,0.45524470077319296,-0.34161678515135413,9.784691419539515,0.5819600712392536,-0.012062179499999992,0.10777508350000001,0.08374879099999966
48212.0,0.8130693514999999,0.18377662099999997,9.773111257,0.040086722259805765,0.4813583170415321,-0.23343255146648562,9.80859619203864,0.5364732339742071,-0.1328801075,-0.136508568,0.03952079949999998
48222.0,0.5725122269999999,-0.0197113665,9.7455545705,-0.017469000483211244,0.4597738301821182,-0.15376001644219642,9.762376384601613,0.4851178037905043,-0.2405571245,-0.20348798749999997,-0.027556686500000538
48232.0,0.318716125,-0.28547158149999996,9.671318229999999,-0.01960004749989632,0.4006193858442744,-0.10792767028482535,9.680778393192845,0.4153654248843442,-0.2537961019999999,-0.26576021499999997,-0.07423634050000061
48242.0,0.1726951065,-0.5129858615,9.560012752499999,0.01610589833740367,0.34439709464978113,-0.10259918007848666,9.57532359358526,0.35971565231060326,-0.14602101850000002,-0.22751428000000007,-0.1113054775000002
48252.0,0.08531785499999998,-0.5249499745,9.452237669,0.04674864401466812,0.3092234742343393,-0.14416768687323558,9.467187996621378,0.344367412327509,-0.08737725150000002,-0.011964112999999998,-0.1077750834999982
48262.0,0.019417167,-0.46150094899999994,9.3528963045,0.05847202060031403,0.2964337014757249,-0.19959236259956756,9.36429545855063,0.3621174226294007,-0.06590068799999999,0.06344902550000009,-0.09934136450000075
48272.0,0.013435110499999998,-0.394423463,9.289447279,0.06566801310628666,0.3038932386987487,-0.2552823283722026,9.297826687978194,0.4022840484673425,-0.005982056500000001,0.06707748599999996,-0.06344902550000064
48282.0,0.0577611685,-0.2172172975,9.224821455499999,0.07552563272155062,0.3222802823685089,-0.30377804696811705,9.227559297711005,0.44927697851245385,0.044326058,0.17720616549999998,-0.06462582350000012
48292.0,0.111599677,-0.0412859965,9.309845111,0.0853849976660666,0.3390668591141904,-0.3424161459487675,9.310605512651907,0.48939324656395095,0.05383850849999999,0.17593130099999998,0.08502365550000057
48302.0,0.21339270400000002,0.10355822399999999,9.4582197255,0.11789350031371298,0.33986621991160376,-0.3794537780053392,9.461193430414355,0.5228700550765432,0.10179302700000002,0.14484422049999998,0.14837461449999978
48312.0,0.2995931575,0.2017227905,9.6055156085,0.17678265460525364,0.3377351728949187,-0.41515972384263916,9.612303483003698,0.5636264279473927,0.08620045349999997,0.09816456650000001,0.14729588299999996
48322.0,0.41089863499999996,0.3190103245,9.6521952625,0.21621836905406552,0.3457287808690528,-0.4351437437779742,9.66620290811288,0.5963462507526252,0.11130547749999997,0.117287534,0.04667965400000007
48332.0,0.5341682255,0.5895757979999999,9.7312368615,0.21195452969144338,0.3603843105980491,-0.4375418261702144,9.763703506832718,0.6051813146738076,0.12326959050000003,0.27056547349999993,0.07904159899999996
48342.0,0.643120107,0.8697517885,9.8389138785,0.18477626257938767,0.3710430363399785,-0.42022292400267475,9.898196702135523,0.5902563069434796,0.10895188150000001,0.2801759905000001,0.10767701700000032
48352.0,0.7245153019999999,1.0564704045,9.9658119295,0.16452520726849748,0.36997664016701,-0.38158482502202423,10.04780869406763,0.5563795797682551,0.08139519499999992,0.18671861599999995,0.1268980509999995
48362.0,0.6838177045,1.1174677675,10.146646555499998,0.1453388028013238,0.35212366724836,-0.34454719296545255,10.230873725475702,0.5136411323254093,-0.040697597499999905,0.06099736300000003,0.18083462599999933
48372.0,0.664694737,1.0815754284999999,10.330913509,0.13308135546456762,0.3206815607736821,-0.30937357255001086,10.408621351138159,0.4650368995949549,-0.019122967499999977,-0.035892339000000106,0.18426695350000166
48382.0,0.631155994,1.0552936064999998,10.4973323595,0.12935158685305576,0.2719188068022126,-0.29072123883394746,10.56910540918614,0.41855765340426854,-0.03353874300000004,-0.026281822000000066,0.1664188504999995
48392.0,0.6180150830000001,1.0445062914999999,10.609912701499999,0.12801990063378407,0.2063694760850615,-0.2765997798560614,10.679100316470933,0.3680827268893887,-0.013140910999999922,-0.010787314999999964,0.11258034199999933
48402.0,0.67665885,1.050488348,10.643353378,0.13787926557830005,0.14668096099610745,-0.25661401459147426,10.71645296250355,0.3261544859110577,0.05864376699999996,0.005982056500000166,0.03344067650000149
48412.0,0.6874461649999999,1.075593372,10.64217658,0.14214135961167018,0.12296542712000849,-0.23929511242393453,10.718460975884739,0.3042808130806866,0.010787314999999853,0.02510502399999992,-0.0011767980000012557
48422.0,0.712551189,1.0348957745,10.645805040499999,0.09977349201950783,0.11870333308663833,-0.22410551194382788,10.719696983653897,0.27252249719839533,0.025105024000000142,-0.040697597499999905,0.003628460499999875
48432.0,0.737656213,0.9786056035,10.7187665165,0.041418408479077434,0.12403182329297702,-0.20119108419439435,10.78859403495287,0.23995255803936716,0.02510502399999992,-0.056290171,0.07296147600000147
48442.0,0.6598894785,0.8337613829999999,10.8265416,-0.015337953466526168,0.1035137326065317,-0.19532852323694538,10.878631126393966,0.22159327075659085,-0.07776673449999993,-0.14484422050000012,0.10777508349999998
48452.0,0.6203686789999999,0.6422375085,10.982173135499998,-0.0419838951567236,0.032101840931931705,-0.1961278840343588,11.018414273084234,0.20312390932518185,-0.03952079950000009,-0.19152387449999986,0.15563153549999775
48462.0,0.6168382849999999,0.6829351059999998,10.9725626185,-0.025729643832900405,-0.07235087881217295,-0.19745957025363045,11.011086242771533,0.21186539623404776,-0.0035303939999999923,0.040697597499999794,-0.009610516999998708
48472.0,0.6479253655,0.741578873,10.7858440025,-0.013205161120589098,-0.16374853575135997,-0.1937298016421186,10.830705302537018,0.2540062898536761,0.031087080500000086,0.05864376700000018,-0.18671861600000028
48482.0,0.6814641084999999,0.852982417,10.528517506499998,-0.01853539665617978,-0.19758872461827803,-0.16948194234416136,10.584972990969877,0.2609769986152597,0.033538742999999926,0.11140354399999997,-0.257326496000001
48492.0,0.7065691325,0.8505307544999999,10.3225778565,-0.055040703290893174,-0.15788597479391106,-0.13777280049392837,10.38163070557108,0.21665365127622346,0.02510502400000003,-0.0024516625000000625,-0.2059396499999977
48502.0,0.710197593,0.7583482444999999,10.1717515795,-0.10406874730866589,-0.08087855753741724,-0.10712830948741195,10.224676174632622,0.1698473430153059,0.003628460499999986,-0.09218251,-0.15082627700000018
48512.0,0.6491021634999999,0.7762944139999999,10.1131078125,-0.13178108517183185,-0.002005383310541485,-0.08367981098686814,10.163607443379368,0.15611722114515675,-0.06109542950000002,0.017946169499999942,-0.05864376700000129
48522.0,0.700587076,0.5883989999999999,10.1274255215,-0.15256621123383232,0.0616799357654796,-0.0764855638101475,10.16866674288172,0.1814687431973787,0.05148491250000009,-0.18789541399999998,0.014317709000000178
48532.0,0.7150028515,0.5477014025,10.1586106685,-0.15203214048272207,0.1051124542013585,-0.06929131663342687,10.198459521815812,0.19739221445838398,0.01441577549999995,-0.040697597499999905,0.031185147000000413
48542.0,0.7532487864999999,0.3968751255,10.159787466500001,-0.15896109761313953,0.11630350536514615,-0.07302108524493875,10.195399696140159,0.21006478716087393,0.03824593499999995,-0.150826277,0.0011767980000012557
48552.0,0.795123182,0.3860878105,10.201661862,-0.14190748549190293,0.11470478377031933,-0.061030673283737714,10.239882295151434,0.1924049504038207,0.04187439550000005,-0.010787314999999964,0.04187439549999894
48562.0,0.8118925535,0.44237798149999996,10.2280417505,-0.1461713248545251,0.09818524240019301,-0.06929131663342687,10.269747116989583,0.18922918536976685,0.01676937150000002,0.056290170999999944,0.026379888499999282
48572.0,0.8585722075,0.46150094899999994,10.2890391135,-0.1680211017602421,0.08299738724933835,-0.06582683806821812,10.335107896899393,0.1986273635152057,0.04667965399999996,0.019122967499999977,0.06099736300000025
