timestamp,ax,ay,az,gx,gy,gz,acc_mag,gyro_mag,dax,day,daz
19592.0,-2.5433546775,-0.9229038314999999,9.393986168,-0.12223064350491888,0.3866672238038317,-0.7325810095735958,9.775857027510877,0.837333152194309,0.0,0.0,0.0
19602.0,-2.302797553,-0.903780864,9.216878069,-0.16539612656524263,0.38719954922569,-0.7147280366549459,9.543088481149514,0.8295272967081897,0.2405571245,0.019122967499999866,-0.1771080989999998
19612.0,-2.1818815584999998,-1.0486250844999998,9.082723096999999,-0.21629167288264928,0.41064804772623387,-0.7067344286808118,9.399791516833885,0.8455101770780382,0.12091599450000023,-0.1448442204999998,-0.13415497200000104
19622.0,-2.1961992675,-1.3597900889999999,8.9929922495,-0.22668336324902352,0.4183763656540647,-0.7277848447891154,9.356614233165608,0.8695371819632034,-0.014317709000000178,-0.31116500450000006,-0.08973084749999849
19632.0,-2.0920526445,-1.706945499,8.919932707,-0.1797863662479359,0.3949278671535209,-0.8093231367837866,9.319632326509675,0.9183110025893264,0.1041466230000001,-0.34715541000000005,-0.07305954250000113
19642.0,-1.8538491160000001,-1.8099153239999999,8.809804027499998,-0.10517703138368228,0.36748081933665805,-0.9633379712967742,9.182875204852738,1.0363997334297275,0.2382035284999997,-0.10296982499999996,-0.11012867950000071
19652.0,-1.53179873,-1.6027988759999998,8.673393526,-0.05108404187662203,0.35602447812656735,-1.1301443238976283,8.952269368321934,1.1859971337224111,0.32205038600000013,0.20711644800000006,-0.13641050149999856
19662.0,-1.139140464,-1.2939874675,8.4985409565,-0.04468915549731481,0.38826594539865855,-1.260977695285627,8.67163438759252,1.3201561699220397,0.392658266,0.3088114084999998,-0.1748525695000005
19672.0,-0.8949548789999999,-0.950460518,8.2280735495,-0.0913208624520993,0.46340760568477046,-1.3251935944542546,8.330997165268048,1.4068490223574364,0.2441855850000001,0.34352694950000007,-0.27046740699999994
19682.0,-0.7070594649999999,-0.7014696745,7.9850647624999995,-0.15153995763365968,0.5721241647914972,-1.3355870301498807,8.046940539895171,1.4608501407750756,0.18789541399999998,0.2489908435,-0.24300878699999995
19692.0,-0.5202427825,-0.6139943565,7.8030533385,-0.20376719017033798,0.7029575361794961,-1.3102727746789549,7.844442811700088,1.5008281412361475,0.18681668249999994,0.08747531799999997,-0.1820114239999997
19702.0,-0.44482964399999997,-0.5757484214999999,7.8377688795,-0.20989678650334204,0.8529755667054166,-1.2583125775178319,7.871466233523433,1.534592623832275,0.07541313850000003,0.038245935000000064,0.03471554099999974
19712.0,-0.396973192,-0.596048187,8.2161094365,-0.1411482672672854,0.9779463771359668,-1.1887646974843618,8.247261086502416,1.545788942867365,0.047856451999999994,-0.02029976550000001,0.37834055700000047
19722.0,-0.6411587769999999,-0.7181409795,8.736842551499999,-0.016444492212290572,1.0200489546818259,-1.1314760101169,8.789722908798796,1.5234855603981499,-0.24418558499999993,-0.12209279250000005,0.5207331149999987
19732.0,-0.5657456384999999,-0.9097629205,9.1557826395,0.1053288750286058,0.9566306709813599,-1.1282785669272464,9.218247796667653,1.4829864925765304,0.07541313849999998,-0.19162194099999996,0.41894008800000115
19742.0,-0.36225765099999996,-0.8977988075,9.457435193499999,0.1727439627161388,0.8990749482383429,-1.1797064386665113,9.506858247797156,1.4932794516217909,0.20348798749999997,0.011964112999999998,0.3016525539999986
19752.0,-0.1395486295,-0.7863952634999999,9.866862831,0.18606780622586347,0.8812219753196929,-1.2452557693836621,9.89913498525098,1.5368263823488142,0.22270902149999997,0.11140354400000008,0.4094276375000021
19762.0,0.22074769149999998,-0.7181409795,10.251087378,0.15222587202969343,0.8841523831337915,-1.2972159665447855,10.278582024828653,1.5772341032881219,0.360296321,0.06825428399999989,0.38422454699999875
19772.0,0.432669398,-0.55897905,10.685718106,0.11572056539498003,0.8503121942668733,-1.3217308612182979,10.709072407412362,1.5758789758325804,0.2119217065,0.15916192949999997,0.43463072800000013
19782.0,0.5343643585,-0.3674551755,11.194487108,0.125579930339496,0.7202781836762879,-1.296416605747372,11.21325600282162,1.4883773031196164,0.10169496049999999,0.19152387450000002,0.5087690020000011
19792.0,0.760603774,-0.13042844499999998,11.633825028,0.19192862185406045,0.4900535473749678,-1.226870471043154,11.659391684921104,1.3349907220274,0.22623941550000004,0.23702673050000003,0.4393379199999998
19802.0,1.085007756,0.0850236555,11.929495525499998,0.2785301140087671,0.23584983248049773,-1.1093591978356276,11.97903728792507,1.1678535857346686,0.324403982,0.21545210049999997,0.29567049749999796
19812.0,1.2178878635,0.48248717999999996,12.220360764499999,0.3470098525400166,0.0021607176139689798,-0.9473507553485062,12.290372734032761,1.0089073099744281,0.1328801074999999,0.39746352449999994,0.2908652390000004
19822.0,1.2430909540000001,0.805714364,12.2646868225,0.3803177159850764,-0.2088775142201774,-0.7592286965930453,12.35382505988642,0.8744710371243177,0.025203090500000247,0.323227184,0.04432605800000111
19832.0,1.4501093354999999,0.8320942524999999,12.19162728,0.37552155120059594,-0.3437059442659913,-0.5796325712335769,12.30572930241796,0.7714428878243198,0.20701838149999974,0.02637988849999995,-0.07305954249999935
19842.0,1.647713333,0.7326548214999999,12.122196198000001,0.3640634646612532,-0.384742125638882,-0.4479998390481645,12.255585786816509,0.6937381100454711,0.19760399750000013,-0.09943943099999997,-0.06943108199999948
19852.0,1.84757286,0.678816313,12.052765115999998,0.355804566640816,-0.3740833998969526,-0.3606007314252965,12.212430716334481,0.6297365855858948,0.1998595270000001,-0.05383850849999994,-0.06943108200000303
20472.0,-4.8214394725,0.25742456249999995,12.130629916999998,0.22363776370429342,-0.035943310615571225,0.13342169466870651,13.056214159379234,0.2628823302181688,-6.6690123324999995,-0.42139175050000005,0.07786480100000048
20482.0,-4.473107264499999,0.037167203499999996,11.9569541455,0.24362352896888048,-0.3130631985887269,0.13368698471500967,12.766315930538783,0.4186086478562607,0.3483322080000004,-0.22025735899999996,-0.17367577149999924
20492.0,-4.201364993,0.29576856399999996,11.964211066499999,0.28225988262027896,-0.49638909255970726,0.14301402423766738,12.683898978295971,0.588664406667938,0.2717422714999991,0.25860136049999993,0.00725692099999975
20502.0,-4.0253356254999995,0.5112206645,11.66010685,0.2913198867673816,-0.5387569601518696,0.16912764050600654,12.345961494316601,0.6353979047190604,0.17602936750000087,0.21545210050000008,-0.30410421649999897
20512.0,-3.9739487794999997,0.560351981,11.42670858,0.23962672498181345,-0.43856807977038714,0.2000374215588261,12.110983949165558,0.538310224631576,0.051386845999999764,0.04913131650000002,-0.23339827000000035
20522.0,-3.8972607764999996,0.2646814835,11.381205723999999,0.17194460191872535,-0.24858026404454436,0.21868975527488949,12.032894148115968,0.37307144471754383,0.07668800300000012,-0.2956704975000001,-0.04550285600000059
20532.0,-4.007389455999999,0.0718827445,11.5380140575,0.13277417751621662,-0.038873718429669704,0.20643230793813333,12.214340169329018,0.24850441839195003,-0.11012867949999983,-0.192798739,0.15680833350000078
20542.0,-4.300706357499999,-0.035794272499999995,11.7929869575,0.10346311805822385,0.11407646523960138,0.18937869581689673,12.552764547427385,0.24409495518998472,-0.2933169014999999,-0.10767701699999999,0.2549729000000003
20552.0,-4.5676433705,-0.0789435325,12.1879988195,0.06909060376944753,0.17083282718520498,0.17578956226086886,13.016025248344043,0.2546749625958249,-0.2669370130000006,-0.04314926,0.3950118620000005
20562.0,-4.7651493015,-0.07776673449999999,12.420318358,0.025124014582458373,0.13432752055049157,0.16006763635890398,13.303270411618811,0.21046792414880855,-0.19750593100000025,0.0011767980000000067,0.23231953849999876
20572.0,-4.948337523499999,-0.08492558899999998,12.5459415445,-0.025769786405696275,0.04905945994430861,0.1331546592931514,13.486804878849405,0.14422578061115723,-0.18318822199999918,-0.007158854499999992,0.12562318650000037
20582.0,-5.0381664375,-0.107677017,12.496908294499999,-0.07879637973978801,-0.05992413453797331,0.0998467958480916,13.474696000766931,0.14060282358954418,-0.08982891400000081,-0.022751428000000018,-0.049033250000000805
20592.0,-5.0883764855,-0.132782041,12.338923162999999,-0.12729209833570243,-0.18436261954666502,0.059877010648169464,13.347592709961575,0.2319010784558267,-0.050210048000000285,-0.02510502399999999,-0.15798513150000026
20602.0,-5.047678887999999,-0.11248227549999999,12.076693341999999,-0.16353211492411268,-0.30427022981717944,0.012447688225223557,13.089623237334589,0.3456559999576237,0.04069759750000124,0.020299765499999997,-0.26222982100000003
20612.0,-4.9172504429999995,-0.014317708999999998,11.672070963,-0.18724590347095965,-0.3948667806297011,-0.02992017936693879,12.66557529215639,0.4380365509234021,0.13042844499999973,0.0981645665,-0.4046223789999992
20622.0,-4.744849535999999,0.044326057999999995,11.289023213999998,-0.20403422554589312,-0.4337719149859067,-0.054168038664896015,12.245717906473596,0.48241291010653387,0.1724009070000001,0.05864376699999999,-0.38304774900000105
20632.0,-4.5772538874999995,0.0348136075,10.874790317999999,-0.2258840024516101,-0.420448071476182,-0.07255333700540428,11.798878319500016,0.4827671799969623,0.16759564849999986,-0.009512450499999991,-0.4142328959999997
20642.0,-4.4527094325,-0.06580262149999999,10.5528379985,-0.257326108926288,-0.37008659590988563,-0.10133207104153878,11.453966173245677,0.46200541493458525,0.12454445499999967,-0.100616229,-0.32195231949999936
20652.0,-4.331793438,-0.177108099,10.259521097,-0.29196565859061946,-0.3064012768338645,-0.15062715043486663,11.137934045774347,0.44923738345089287,0.12091599449999979,-0.1113054775,-0.293316901499999
20662.0,-4.16782625,-0.2764494635,9.969832656,-0.31408247087189156,-0.2411189814922686,-0.2159111911057145,10.809475618396228,0.45100310884687916,0.16396718799999999,-0.0993413645,-0.2896884410000009
20672.0,-4.0253356254999995,-0.3709855695,9.769875062499999,-0.32234311422158074,-0.17903238401107432,-0.2747986000680032,10.573145980622611,0.4598607924253711,0.1424906245000006,-0.09453610600000001,-0.19995759350000064
20682.0,-3.8638201,-0.4164884255,9.530494736,-0.33353416538536834,-0.11215136707465162,-0.3310226365917485,10.292370877823203,0.4831138111792917,0.1615155254999996,-0.04550285599999998,-0.23938032649999919
20692.0,-3.647093135,-0.45600922499999996,9.2850342865,-0.34632568347323484,-0.047399651825662005,-0.373657539559466,9.986044985384844,0.511671928970147,0.21672696499999988,-0.03952079949999998,-0.24546044949999946
20702.0,-3.4447819455,-0.525440307,9.0732106465,-0.3524535344769869,0.013353514107008616,-0.405364936080447,9.719349855006968,0.5373290813903817,0.20231118950000004,-0.06943108200000003,-0.21182364000000042
20712.0,-3.2568865315,-0.6343921884999999,8.8911992225,-0.34366056570543946,0.06584603668999008,-0.4298798307539593,9.490162640444078,0.5542877897426705,0.18789541399999976,-0.1089518814999999,-0.1820114240000006
20722.0,-3.023390195,-0.7038232704999999,8.6925164935,-0.3159482278422735,0.11913792007038493,-0.4426713488418258,9.230173262571455,0.5567540298559248,0.2334963365,-0.06943108200000003,-0.19868272899999972
20732.0,-2.7636120365,-0.6787182464999999,8.5452206105,-0.28370676057018224,0.17882643515933902,-0.4434707096392392,9.006608974999065,0.5559988221327041,0.2597781585000001,0.02510502400000003,-0.14729588299999996
20742.0,-2.5553187905,-0.6714613255,8.350166342,-0.25785843434814626,0.2518370484287658,-0.4176223834172032,8.75818430793702,0.551653266333895,0.2082932460000002,0.007256920999999861,-0.19505426849999985
20752.0,-2.363794916,-0.7134337874999999,8.256807034,-0.23867377521022456,0.3389708660053307,-0.3704583510405604,8.618084274986286,0.5559728490036144,0.19152387450000008,-0.04197246199999982,-0.09335930800000014
20762.0,-2.3338846335,-0.837880176,8.225621886999999,-0.21789039447747607,0.42183909889002147,-0.3216973423983428,8.591269760618312,0.5735099209813654,0.02991028249999994,-0.12444638850000012,-0.031185147000000413
20772.0,-2.430872402,-1.0737301085,8.3106455425,-0.18777997422206993,0.4841927317467709,-0.2913198867673816,8.725185746663493,0.5954588118597304,-0.09698776850000002,-0.23584993249999997,0.08502365550000057
20782.0,-2.4943214275,-1.381364719,8.447056044,-0.1440804204106359,0.4980489006783539,-0.30117925171189747,8.915299416231656,0.5996005475934465,-0.0634490255000002,-0.30763461050000007,0.13641050150000034
20792.0,-2.4164566264999996,-1.587304369,8.6219086135,-0.10144551744291841,0.46180888408994364,-0.3608660214715996,9.093739930696707,0.5947965399078927,0.07786480100000048,-0.20593964999999992,0.1748525695000005
20802.0,-2.3362382294999997,-1.6735048224999998,8.6925164935,-0.0726685287360359,0.41464485171330084,-0.44080559187144386,9.155242784638624,0.6095249280760707,0.08021839699999989,-0.08620045349999983,0.07060787999999896
20812.0,-2.130396646,-1.8482593255,8.732037293,-0.060943406821137996,0.3906640277908988,-0.5412615076284815,9.176226222687,0.6702958310216703,0.20584158349999981,-0.17475450300000017,0.03952079949999998
20822.0,-1.9975165385,-2.014678176,8.72007318,-0.06547253623006329,0.40851700070954877,-0.6683651104049685,9.169987826545192,0.7860564316102046,0.1328801074999999,-0.16641885049999994,-0.011964112999999443
20832.0,-1.8550259139999998,-2.1475582835,8.7033038085,-0.07746469352051631,0.4282357305985807,-0.818116105555334,9.154268125071036,0.9266609854054255,0.14249062450000016,-0.13288010750000012,-0.016769371500000574
20842.0,-1.670660894,-2.1032322254999998,8.607492837999999,-0.08625766229206375,0.45461463691322296,-0.9644043674697428,9.01685236506309,1.0696684703189807,0.18436501999999977,0.044326058000000224,-0.09581097050000054
