timestamp,ax,ay,az,gx,gy,gz,acc_mag,gyro_mag,dax,day,daz
140852.0,0.6336076565,1.5766151204999999,9.9330577185,0.08696975662687743,0.06146176960898032,-0.004391248398017733,10.077341392431691,0.10658597822274166,0.0,0.0,0.0
140862.0,0.397757724,1.6568335174999997,9.923545267999998,0.1021576117777321,0.05027071844519267,0.010796606752836923,10.068766518186735,0.11436734452850196,-0.23584993249999997,0.08021839699999989,-0.0095124505000026
140872.0,0.45885315349999994,1.7154772845,9.8971653795,0.08696975662687743,-0.002488839513343914,0.022519983338482836,10.055212134971882,0.08987259059038533,0.061095429499999965,0.05864376700000018,-0.026379888499997506
140882.0,0.5163201225,1.5825971769999998,9.9318809205,0.05899038338815635,0.02069262361164477,0.030248301266313726,10.070424961864257,0.06944789221936508,0.05746696900000009,-0.13288010750000012,0.03471554099999885
140892.0,0.3678474415,1.5252282744999999,9.936686179,0.03154508090054551,0.024157102176853518,0.027317893452215244,10.059789523120351,0.048217476264021605,-0.14847268100000005,-0.05736890249999993,0.0048052585000011305
140902.0,0.2721345375,1.4557971925,9.8373448145,0.012360421762623842,0.024157102176853518,0.014793410739903938,9.948203640434853,0.030906158173613092,-0.09571290399999999,-0.06943108199999992,-0.09934136450000075
140912.0,0.2170211645,1.3169350284999999,9.789488362499998,0.012093386387068708,0.01509709802975095,-0.007056366165813074,9.880055589654045,0.02059040229555703,-0.05511337299999999,-0.13886216400000007,-0.047856452000001326
140922.0,0.184757286,1.3073245115,9.80861133,0.03474252409019912,0.006569419304506657,-0.036634460999360983,9.897074762580262,0.050914477144228754,-0.03226387850000001,-0.009610516999999819,0.01912296750000131
140932.0,0.1595541955,1.3995070215,9.840973275,0.06858271295711718,0.008702211650443726,-0.06381272811141668,9.941269156591309,0.09408177970887369,-0.025203090499999997,0.09218251,0.03236194499999989
140942.0,0.11405133949999999,1.5191481514999998,9.9522787525,0.08457167423463724,0.020425588236089635,-0.08379849337600374,10.06820099033142,0.12079635851186918,-0.04550285600000001,0.11964112999999976,0.1113054775000002
140952.0,0.02549729,1.5275818705,10.064761027999998,0.07924143869904654,0.03534815334064116,-0.09925338390241353,10.180057516223824,0.1318329691987862,-0.08855404949999998,0.008433719000000117,0.1124822754999979
140962.0,-0.04393379199999999,1.5096357009999999,10.1725361115,0.056325265620361,0.035880478762499425,-0.11657228606995326,10.2840371969176,0.13434672375240644,-0.06943108199999999,-0.017946169500000053,0.10777508350000176
140972.0,-0.1301342455,1.4701149014999997,10.212056911,0.0291469985083053,0.026555184569093726,-0.13735741213195374,10.318152891819691,0.14290480753679763,-0.0862004535,-0.0395207995000002,0.03952079949999998
140982.0,-0.2223167555,1.4677613054999998,10.232356676499998,0.006230825429619756,0.012966051013065874,-0.16320399302473776,10.339481183541716,0.16383676328475996,-0.09218251,-0.002353595999999847,0.020299765499999012
140992.0,-0.277332062,1.498848386,10.213233709,-0.012688543661998775,0.0025726153174396417,-0.1922480171071754,10.326354746544489,0.19268346470695086,-0.0550153065,0.031087080500000086,-0.019122967499997756
141002.0,-0.324011716,1.5096357009999999,10.212056911,-0.026542967264329764,-0.0011571532940722405,-0.22129204118961304,10.328121314902429,0.2228812141226951,-0.046679654000000015,0.010787314999999964,-0.0011767980000012557
141012.0,-0.320481322,1.511989297,10.203623192,-0.03800105380367253,-0.004354596483725852,-0.24687333203609393,10.320016771125601,0.2498189037509555,0.0035303939999999923,0.002353596000000069,-0.008433718999999229
141022.0,-0.3372506935,1.5156177574999998,10.174889707499998,-0.04945914034301531,-0.0070197142515211934,-0.2724528775533228,10.29267777485067,0.27699468124628135,-0.016769371499999963,0.003628460499999875,-0.028733484500001794
141032.0,-0.354020065,1.4952199254999998,10.1868538205,-0.04599466177780657,-0.019010126212722238,-0.29270393286421303,10.302087341518236,0.2969048435523681,-0.01676937150000002,-0.020397832000000005,0.01196411300000122
141042.0,-0.355196863,1.478450554,10.22637462,-0.02894279498582197,-0.04245862471326606,-0.31322202355065837,10.338796773352694,0.3174089731423837,-0.001176797999999979,-0.016769371499999908,0.03952079949999998
141052.0,-0.42462794499999995,1.5012019819999998,10.265895419499998,-0.005227261109723017,-0.06937160177901862,-0.3358711612537888,10.383762566938184,0.3430002629066989,-0.06943108199999998,0.02275142799999985,0.039520799499998205
141062.0,-0.4425741145,1.4737433619999998,10.275505936499998,0.011294025589655306,-0.09761626506404285,-0.3651822207117816,10.39008246333547,0.378172638543644,-0.017946169500000053,-0.02745861999999999,0.009610517000000485
141072.0,-0.42815833899999994,1.4916895314999998,10.315026736,0.011826351011513577,-0.10907435160338563,-0.40301921356576664,10.431118529958171,0.41768596248750756,0.014415775500000061,0.017946169500000053,0.03952079950000176
141082.0,-0.367160976,1.466486441,10.354449469,-0.0004310963252425994,-0.11147243399562583,-0.44298899876568876,10.464225411850057,0.4567992364402311,0.06099736299999997,-0.025203090499999803,0.03942273300000032
141092.0,-0.3060655465,1.4317708999999998,10.3688652445,-0.012154472910888512,-0.10907435160338563,-0.4824264585437526,10.471724332097422,0.49475269912604575,0.061095429499999965,-0.03471554100000018,0.014415775499999839
141102.0,-0.263014353,1.4521687319999999,10.4598709565,-0.008689994345679767,-0.11014074777635416,-0.5205304867732928,10.56346870127018,0.5321263834681603,0.04305119350000003,0.020397832000000005,0.0910057119999994
141112.0,-0.22947561,1.5252282744999999,10.614227627499998,0.013692107981895515,-0.11573627335824797,-0.5604985266439629,10.72570783087547,0.5724866436537155,0.03353874299999998,0.07305954250000002,0.1543566709999986
141122.0,-0.1876012145,1.6329052914999997,10.7303383635,0.036341245685025926,-0.12639499910017735,-0.6028663942361253,10.855493323745836,0.6170447886780509,0.041874395499999995,0.10767701699999987,0.11611073600000132
141132.0,-0.1552392695,1.72989306,10.8560596165,0.040870375093951215,-0.1431815758458588,-0.6436355402334609,10.99411932020174,0.660634588765713,0.032361945,0.09698776850000024,0.12572125300000003
141142.0,-0.100223963,1.7682370614999998,10.905190933,0.01715658654710426,-0.15916879179412688,-0.679873811492619,11.048072068628398,0.6984679321891963,0.0550153065,0.038344001499999836,0.049131316500000466
141152.0,-0.05354430899999999,1.7454856335,10.846449099500001,-0.02787639881285343,-0.17435839227423353,-0.7174455143003011,10.98612967144597,0.7388545246236584,0.04667965400000001,-0.02275142799999985,-0.058741833499999174
141162.0,0.043443459499999997,1.6293748974999998,10.690915630500001,-0.08116828219324829,-0.18208496487281242,-0.7536837855594593,10.814454535909137,0.7796040489134038,0.09698776849999999,-0.11611073600000021,-0.15553346899999987
141172.0,0.1176798,1.5179713535000001,10.478993924,-0.1379246441388519,-0.1716932745064382,-0.7941858961812398,10.58902258117356,0.8241559474181881,0.0742363405,-0.11140354399999963,-0.21192170650000186
141182.0,0.1691647125,1.4317708999999998,10.252754508499999,-0.17896082551174258,-0.1501105329762763,-0.8352220775541305,10.353625433712052,0.8672693168861124,0.05148491250000001,-0.08620045350000027,-0.22623941550000026
141192.0,0.20025179299999998,1.3503757049999998,10.040832801999999,-0.19361635524073897,-0.12399691670793714,-0.8781222705681511,10.13320969303276,0.9077231133101923,0.031087080499999975,-0.08139519500000003,-0.21192170650000008
141202.0,0.2721345375,1.3300759395,9.915111549,-0.17816146471432917,-0.10587690841373201,-0.9215565343332819,10.007626903539636,0.9445728522548031,0.07188274450000001,-0.0202997654999999,-0.12572125299999826
141212.0,0.38706847549999995,1.3312527375,9.943845033499999,-0.14192144812591892,-0.08935562171435368,-0.9545973624027866,10.040025393697455,0.9692173383078089,0.11493393799999996,0.0011767980000001454,0.02873348449999824
141222.0,0.485233042,1.4043122799999999,9.9546323485,-0.11527550643572147,-0.061643283851187725,-0.9708516137266098,10.064901851414648,0.979612776919295,0.09816456650000005,0.0730595424999998,0.01078731500000174
141232.0,0.5641765744999999,1.4724684975,9.99297635,-0.1208710320176153,-0.02487268717017119,-0.9756477785110902,10.116621719477495,0.9834210922395827,0.07894353249999991,0.06815621750000012,0.038344001499998726
141242.0,0.555840922,1.543174444,10.065937825999999,-0.1456529620666828,0.023890066801298383,-0.9745813823381216,10.198698486183524,0.9856948774598826,-0.008335652499999902,0.07070594649999995,0.07296147599999969
141252.0,0.5174969205,1.5898540979999998,10.0780000055,-0.1784267547606323,0.07025473838052775,-0.9729826607432948,10.215748784426543,0.991699094073615,-0.03834400150000006,0.04667965399999985,0.01206217950000088
141262.0,0.5007275489999999,1.5898540979999998,10.073194746999999,-0.21386741055162917,0.1142213275675169,-0.9679194605832594,10.210172209235422,0.9978245653135289,-0.01676937150000002,0.0,-0.0048052585000011305
141272.0,0.4480658385,1.5850488395,10.033673947499999,-0.24131271303923998,0.14379767707181282,-0.9665877743639876,10.167976972041746,1.0065791190738733,-0.05266171049999996,-0.004805258499999798,-0.03952079949999998
141282.0,0.36549384549999997,1.5156177574999998,10.0205330365,-0.25197143878116934,0.1595196029737777,-0.9724503353214367,10.141092903308579,1.017150807088673,-0.08257199300000001,-0.06943108200000014,-0.013140910999998923
141292.0,0.348724474,1.4724684975,9.9403146395,-0.253303125000441,0.15978663834933285,-0.9828420256878108,10.054831046176485,1.0274593375837746,-0.016769371499999963,-0.043149259999999856,-0.08021839699999944
141302.0,0.35352973249999997,1.4018606175,9.878042412,-0.2522367288274725,0.1648498385093684,-0.9985639515897758,9.983281943125206,1.0430382553102915,0.004805258499999965,-0.07060788000000007,-0.062272227500001165
141312.0,0.35706012649999996,1.4353993605,9.80861133,-0.2389146306469998,0.17737257589242772,-1.012952445943217,9.919512058617821,1.0557527594840819,0.0035303939999999923,0.03353874300000004,-0.06943108199999948
141322.0,0.39903258849999995,1.4138247304999998,9.836168016499999,-0.20693845342121167,0.18696490546138858,-1.0193473323225242,9.945266644191895,1.0568104765243367,0.04197246199999999,-0.02157463000000015,0.02755668649999876
141332.0,0.4612067495,1.3898965044999998,9.901970637999998,-0.1853557118910498,0.19762363120331794,-1.0196143676980793,10.00967264573721,1.0550001414014014,0.06217416100000006,-0.023928225999999997,0.0658026214999996
141342.0,0.5306378315,1.349198907,9.9403146395,-0.17762739396321892,0.1981559566251762,-1.0174815753521422,10.045485022194152,1.051706247206548,0.06943108199999998,-0.040697597499999905,0.03834400150000228
141352.0,0.5893796649999999,1.327624277,9.941491437499998,-0.1730982645542936,0.1973565958277628,-1.0142841321624887,10.04704964714921,1.0477046033424897,0.05874183349999995,-0.021574629999999928,0.001176797999997703
141362.0,0.7114724575,1.2965371964999999,9.872060355499999,-0.15711104860602554,0.20028874897111326,-1.005225873344638,9.98222307015446,1.0369563737207022,0.12209279250000005,-0.031087080500000086,-0.06943108199999948
141372.0,0.8287599915,1.3252706810000001,9.842150072999999,-0.13552656174661168,0.2277340514587241,-0.987105865050433,9.965495650537568,1.0220607789899907,0.11728753400000003,0.02873348450000024,-0.029910282499999497
141382.0,0.845529363,1.3671450765,9.833716354,-0.11820765957907195,0.279161923197989,-0.9684535313343696,9.964235188654492,1.014793906416851,0.01676937150000002,0.04187439549999983,-0.008433718999999229
141392.0,0.800026507,1.3229170849999998,9.963066067499998,-0.1147431810138632,0.34311253232031325,-0.959393527187267,10.082303183849282,1.0253429413777926,-0.045502856000000036,-0.04422799150000012,0.12934971349999813
141402.0,0.7629573699999999,1.1971958319999998,10.119874401,-0.13845871488996214,0.3998688942659168,-0.9727173706969917,10.21896470786599,1.0607756744882941,-0.03706913700000014,-0.12572125300000003,0.15680833350000256
141412.0,0.7354006835,1.1672855494999999,10.237161935,-0.17976018630915597,0.43104571069429154,-0.9977645907923623,10.329707362881908,1.1016570736526405,-0.027556686499999872,-0.02991028249999994,0.11728753399999903
141422.0,0.8515114195,1.0558820055,10.262266959,-0.22718950873210186,0.4446348442503194,-1.0238782070607015,10.351525570893438,1.1391408167971493,0.11611073599999999,-0.11140354399999985,0.025105024000000142
141432.0,0.9736042119999999,1.0678461184999999,10.198817933499999,-0.26502824691533894,0.45316077764631174,-1.0398654230089697,10.300683847934604,1.164866842188261,0.12209279249999994,0.011964112999999887,-0.06344902550000064
141442.0,1.0490173505,1.1576750325,10.082707197499998,-0.28341354525584717,0.46701694657789466,-1.0281403010940715,10.203020793521993,1.1642596552140918,0.07541313850000009,0.08982891400000015,-0.11611073600000132
141452.0,1.1855259185,1.2714321724999997,9.941491437499998,-0.2762192980791266,0.48700271184248173,-0.9847077826581928,10.092336868861896,1.1327480563659649,0.136508568,0.1137571399999997,-0.1412157599999997
141462.0,1.1902331105,1.2414238235,9.945119897999998,-0.24424312085333846,0.49686207678699773,-0.933813981670038,10.092729945484491,1.0856036006737066,0.004707191999999916,-0.030008348999999823,0.003628460499999875
141472.0,1.132864208,1.1995494279999999,10.0791768035,-0.20347572018525492,0.5040563239637184,-0.8813197137578046,10.21332977927351,1.0354707066309814,-0.05736890249999993,-0.04187439550000005,0.13405690550000138
141482.0,1.0239123264999999,1.0799082979999999,10.274329138499999,-0.16830209976981322,0.4787420684927926,-0.8466801640934732,10.381543123769125,0.9871103612064036,-0.10895188150000013,-0.11964112999999998,0.1951523349999995
141492.0,0.9197657035,1.023618127,10.392793470500001,-0.15924209562271066,0.44170269110696897,-0.8349550421785753,10.48350700575553,0.9579192214424331,-0.10414662299999988,-0.05629017099999989,0.11846433200000206
141502.0,0.79041599,0.9493817864999998,10.4538889,-0.16990082136464002,0.3892101685239875,-0.8458808032960599,10.526627016634,0.9465015466271768,-0.12934971350000002,-0.07423634050000016,0.06109542949999991
141512.0,0.731772223,0.8907380194999999,10.4610477545,-0.17789442933877403,0.3303227595616988,-0.8770558743951825,10.524372899496987,0.9539321570663828,-0.05864376699999996,-0.05864376699999996,0.007158854499998313
141522.0,0.8060085634999999,0.8727918499999999,10.34013176,-0.18988484129997507,0.27649680543019367,-0.9207571735358685,10.408157388895619,0.9799492379640797,0.07423634049999994,-0.017946169499999942,-0.1209159944999989
141532.0,1.007142955,0.9685047539999999,10.235985136999998,-0.20587380257749513,0.24025853417103543,-0.9580618409679953,10.330911388411558,1.0089552403098545,0.2011343915,0.09571290399999999,-0.10414662300000188
141542.0,1.2872208789999997,1.164833887,10.0432844645,-0.21280101437866064,0.23892510262251174,-0.9663207389884325,10.192219503646106,1.0179122000363856,0.28007792399999976,0.196329133,-0.19270067249999911
141552.0,1.5494507,1.4222584495,9.99297635,-0.20374101023155808,0.2602425541063705,-0.9367443894841366,10.211914262299892,0.993341148572831,0.26222982100000025,0.2574245625,-0.050308114499999945
141562.0,1.7541154854999998,1.5719079284999997,9.984542631,-0.16856913514536834,0.2916846605810483,-0.8693293017966036,10.258601621196158,0.9323244765123938,0.2046647854999999,0.1496494789999998,-0.008433718999999229
141572.0,1.7948130829999998,1.6843902039999998,10.0420096,-0.10728189846158745,0.33112212035911226,-0.7787327509840819,10.339268889468505,0.8529806338855959,0.040697597499999905,0.11248227550000012,0.057466969000000034
141582.0,1.5494507,1.72989306,10.262266959,-0.035337681365129194,0.3777520819846447,-0.6958627727701392,10.521760813122,0.7925720066311599,-0.2453623829999998,0.04550285600000015,0.22025735899999965
141592.0,1.191507975,1.4330457645,10.547248208,0.017421876593407395,0.36602870539899884,-0.6484317050179413,10.710637524386641,0.7448115271883066,-0.357942725,-0.2968472954999999,0.28498124899999944
141602.0,0.9149604449999998,1.0978544675,10.779469679999998,0.037939967279852736,0.2946168137243988,-0.6516291482075949,10.873794352927757,0.7161417840344669,-0.2765475300000001,-0.33519129700000017,0.2322214719999991
141612.0,0.7365774814999999,0.8955432779999999,10.814185221,0.02275211212899808,0.19895531742258962,-0.6921312588293753,10.876173322594612,0.7205182554146631,-0.17838296349999994,-0.20231118950000004,0.0347155410000024
141622.0,0.7616825054999999,0.8093428245000001,10.635802257499998,-0.012421508286443643,0.09903347241666224,-0.7462242483364355,10.693712438035561,0.7528695446970147,0.02510502400000003,-0.08620045349999983,-0.1783829635000025
141632.0,0.936535075,0.8404299049999999,10.315026736,-0.05505466592490913,0.03854559653029477,-0.7875257197556293,10.39149637618752,0.790388220135271,0.17485256950000005,0.031087080499999864,-0.3207755214999981
141642.0,1.1041307235,0.9493817864999998,9.963066067499998,-0.08649851772883899,0.019893262814231368,-0.7987167709194171,10.06891830816421,0.8036331349705679,0.16759564849999997,0.1089518814999999,-0.35196066850000207
141652.0,1.2237718535,1.0834386919999999,9.7080931675,-0.08969596091849258,0.04254240051736178,-0.7843282765659757,9.844720915170814,0.7905859008784719,0.11964112999999998,0.13405690550000005,-0.2549728999999985
141662.0,1.205825684,1.1445341214999998,9.656608255,-0.07264234879725598,0.08331154651469733,-0.7603457073143217,9.79867628437668,0.7683380240836509,-0.017946169500000053,0.06109542949999991,-0.051484912499999425
141672.0,1.1053075215,1.1900369775,9.7355517875,-0.047328093326330235,0.11741877075717051,-0.7475559345557072,9.870099357757056,0.7581998360811533,-0.10051816250000001,0.04550285600000015,0.0789435325000003
141682.0,1.053822609,1.1241362895,9.937862976999998,-0.026277677218026627,0.13340598670543857,-0.7542178563105697,10.056607034096423,0.7663760489384682,-0.05148491249999987,-0.06590068799999993,0.20231118949999782
141692.0,1.078927633,1.082261894,10.0576021735,-0.031073842002507044,0.12674406495057622,-0.7768669940137001,10.173039719024366,0.7877512094848695,0.02510502399999992,-0.04187439550000005,0.1197391965000012
141702.0,1.1591460299999998,1.139728863,10.1474310875,-0.058786179865673006,0.11048981362675302,-0.8027135749064841,10.276816582754673,0.812411778101242,0.08021839699999989,0.057466969000000034,0.08982891399999993
141712.0,1.2692747094999999,1.1732676059999998,10.1474310875,-0.08862956474552405,0.08411090731211074,-0.8171020692599252,10.293588919275274,0.8261874097713541,0.11012867950000005,0.033538742999999815,0.0
141722.0,1.4332418974999999,1.2833962854999998,10.0576021735,-0.1107463770267962,0.06385985200122052,-0.8101748574587598,10.239953605499222,0.8201988419770543,0.16396718799999999,0.11012867950000005,-0.08982891399999993
141732.0,1.6032892085,1.369596739,9.970224922,-0.13472720094919827,0.05266880083743288,-0.7797974018277984,10.190766237572221,0.7931011342537871,0.17004731100000003,0.08620045350000005,-0.08737725149999953
141742.0,1.7469566309999998,1.369596739,9.893634985499999,-0.16084081721753746,0.051335369288909215,-0.7297029616370573,10.139608765844166,0.7489803073813935,0.14366742249999986,0.0,-0.07658993650000134
141752.0,1.8139360505,1.3755787955,9.760754877999998,-0.17896082551174258,0.05426752243225969,-0.6732136350670087,10.022720030327772,0.698704901585008,0.06697941950000019,0.005982056500000166,-0.13288010750000012
141762.0,1.8031487355,1.2809446230000001,9.680536480999999,-0.17656274311950237,0.05266880083743288,-0.6159232023702949,9.93000257046793,0.6428917452087993,-0.010787314999999964,-0.09463417249999995,-0.08021839699999944
141772.0,1.737346114,1.130118346,9.6170874555,-0.16323889960977764,0.03961199270326331,-0.5711572523858923,9.837881383841347,0.595345828292041,-0.06580262150000005,-0.15082627700000018,-0.06344902549999887
141782.0,1.6667382339999999,0.9984150365,9.564425745,-0.13206208318140294,0.007635815477475192,-0.5394481105356594,9.759768888524231,0.5554304307946324,-0.07060788000000007,-0.13170330949999998,-0.05266171050000068
141792.0,1.6283942325,0.8835791649999999,9.4458633465,-0.0928934041081462,-0.0365960637558171,-0.5226615337899779,9.625835770363711,0.5321123333591428,-0.038344001499999836,-0.11483587150000008,-0.11856239849999994
141802.0,1.5996607479999998,0.8332710504999999,9.381237523,-0.05212425811081065,-0.07629881358018412,-0.5157343219888124,9.553055669011693,0.5239468848219313,-0.02873348450000024,-0.050308114499999945,-0.06462582350000012
141812.0,1.6092712649999998,0.8823043004999999,9.383591119,-0.019083430041306,-0.09654986889107432,-0.526658337777045,9.561380505534292,0.5357751946806655,0.00961051700000004,0.04903324999999992,0.002353596000000735
141822.0,1.6476152665,0.9075073909999999,9.429093974999999,0.0025010568181078746,-0.084027131508015,-0.5471764284634902,9.61488527859302,0.5535962951291615,0.03834400150000006,0.025203090500000025,0.045502855999998815
141832.0,1.7564690815,0.8967200759999999,9.506958776,0.0017016960206944715,-0.05338438583075056,-0.5708919623395892,9.709354030909076,0.5733850548137963,0.10885381500000002,-0.010787314999999964,0.07786480100000048
141842.0,1.9180826735,0.955363843,9.494994663,-0.020148080885022544,-0.005953318078552658,-0.5855474920685856,9.73379087844459,0.585924272092652,0.16161359200000014,0.05864376700000007,-0.011964112999999443
141852.0,2.058219702,1.0307769814999999,9.4566506615,-0.049726175718570444,0.05373345168114942,-0.5767527779677861,9.73278024312373,0.5813808934551625,0.1401370285000001,0.07541313849999987,-0.0383440015000005
141862.0,2.140791695,1.0654925224999998,9.3980068945,-0.06944490560760237,0.1126226059726901,-0.5455777068686635,9.697463430503563,0.5613924478677976,0.08257199299999973,0.03471554099999996,-0.058643766999999514
141872.0,2.1443220889999997,1.0751030395,9.324947351999999,-0.05985083070938955,0.15285768121891538,-0.49441687050495364,9.628530878825037,0.5209564612173839,0.00353039399999977,0.009610517000000263,-0.07305954250000113
141882.0,2.13000438,1.161303493,9.332204273,-0.011622147489030241,0.16111832456860456,-0.43099858680448777,9.642384614537665,0.46027597227263184,-0.014317708999999734,0.08620045349999983,0.007256921000001526
141892.0,2.0461575224999997,1.3013424550000001,9.5320638,0.06698399136229037,0.14006790846030093,-0.361984777522128,9.835674510644361,0.393876698012222,-0.0838468575000002,0.1400389620000002,0.1998595269999992
141902.0,1.9540730789999998,1.349198907,9.822929039,0.14985396957623315,0.08943939751844943,-0.2956360860075635,10.105873252418714,0.3433020730728105,-0.09208444349999989,0.04785645199999977,0.2908652390000004
141912.0,1.7744152509999997,1.3599862219999999,10.182146628499998,0.19115544099542697,0.05559920865153136,-0.24607397123868052,10.424692895778039,0.3165186786684281,-0.17965782800000007,0.010787314999999964,0.35921758949999827
141922.0,1.5757325219999998,1.2486807444999999,10.535284095,0.16717461707302486,0.01509709802975095,-0.23168373155598726,10.725406637742623,0.28609898012775087,-0.19868272899999995,-0.11130547749999997,0.35313746650000155
141932.0,1.505124642,1.0858903544999998,10.690915630500001,0.09389696842804293,-0.04405734630809287,-0.2514024614450192,10.85081725348008,0.27195751150557046,-0.07060787999999985,-0.16279039000000006,0.1556315355000013
141942.0,1.5338581264999998,1.0307769814999999,10.619032886,0.008895943197415098,-0.08855626091694029,-0.2857767210630475,10.778640052055259,0.29931535786609365,0.028733484499999795,-0.055113372999999966,-0.07188274450000165
141952.0,1.6092712649999998,1.0751030395,10.379652559499998,-0.05931850528753128,-0.11147243399562583,-0.312422662753245,10.558540988499866,0.3369758282314681,0.07541313850000009,0.044326058000000224,-0.23938032650000096
141962.0,1.725382001,1.1756212019999999,10.1031050295,-0.10408445527193383,-0.10800795543041708,-0.3116233019558316,10.316576927308539,0.345844436976178,0.11611073600000021,0.10051816249999979,-0.27654752999999843
