timestamp,ax,ay,az,gx,gy,gz,acc_mag,gyro_mag,dax,day,daz
191962.0,-0.470523067,-1.1886640465,10.033281681499998,0.043395866521587015,-0.0967086938530058,-0.09644863979445864,10.114398423650528,0.1433112445557397,0.0,0.0,0.0
191972.0,-0.6082084329999999,-1.5095376345,10.2859009855,0.024211207383665338,-0.18890571158960626,-0.10044544378152566,10.413855215598787,0.2153156696820229,-0.13768536599999992,-0.320873588,0.2526193040000013
191982.0,-0.258699427,-1.574163458,10.1158536745,0.039399062534519996,-0.16252505994571195,-0.0921848004318365,10.240869667656542,0.19095737395977616,0.34950900599999996,-0.0646258234999999,-0.17004731099999937
191992.0,-0.3568639935,-1.456875924,10.0417154005,0.06364692183247722,-0.06579891280018622,-0.09405055740221843,10.153122059368068,0.1312476092433838,-0.0981645665,0.11728753399999992,-0.07413827400000095
192002.0,-0.4394359865,-1.3263494125,10.0656436265,0.07377332215254831,0.03652275992723334,-0.08339183166028906,10.162159631002181,0.1171776968615785,-0.08257199300000001,0.13052651150000005,0.023928226000000663
192012.0,-0.5088670685,-1.25328987,10.155374474,0.056719710031311724,0.1257876245204833,-0.05860990161122158,10.245062805996808,0.14991588493358285,-0.06943108199999998,0.07305954250000002,0.08973084750000027
192022.0,-0.585457005,-1.2748645,10.267954816,0.018081611050661254,0.19106991986207922,-0.02929884215322881,10.363345767727786,0.19414706046141567,-0.07658993650000001,-0.02157463000000015,0.11258034199999933
192032.0,-0.6668522,-1.250936274,10.405640181999999,-0.026949628980044445,0.24249779160134413,-0.007983135998622062,10.501756091983227,0.24412126473141063,-0.08139519500000003,0.023928225999999997,0.13768536599999948
192042.0,-0.7674684289999999,-1.3598881554999998,10.403188519499999,-0.07571238295151402,0.26914373329154156,0.00587303293296092,10.519725992497975,0.2796519383414619,-0.10061622899999989,-0.10895188149999968,-0.0024516625000003955
192052.0,-0.8955432779999999,-1.5095376345,10.387595946,-0.11701385437070783,0.28459862381795137,0.010669197717441336,10.534839873965739,0.30790006588777286,-0.128074849,-0.14964947900000025,-0.015592573499999318
192062.0,-1.0559800719999999,-1.6339840229999998,10.290706244,-0.1369996196352949,0.3021845613610462,0.0013439035240356337,10.47299540247111,0.33179242152566607,-0.160436794,-0.12444638849999978,-0.09688970199999858
192072.0,-1.221124058,-1.7848102999999997,10.229610814499999,-0.12953833708301912,0.3200375342796962,-0.021839304930205045,10.45569840747847,0.3459496485933988,-0.16514398600000013,-0.15082627699999995,-0.061095429500001686
192082.0,-1.36116302,-1.8854265289999999,10.1590029345,-0.10102663842243978,0.3370911464009328,-0.06047565858160352,10.421753143615144,0.35706319879499226,-0.140038962,-0.10061622900000011,-0.07060787999999896
192092.0,-1.4820790144999998,-1.8614983029999999,10.2080361845,-0.0623902847710413,0.34162202113911005,-0.11776609127831739,10.481685784326606,0.3666974300645631,-0.12091599449999979,0.023928225999999997,0.04903324999999903
192102.0,-1.511989297,-1.8817980685,10.258344298999999,-0.020287707225182087,0.3184388126848694,-0.18011797880581482,10.538543702128804,0.366411455576509,-0.029910282500000163,-0.020299765500000122,0.050308114499999945
192112.0,-1.4820790144999998,-1.8578698425,10.3900476085,0.01168672467135403,0.264080533131506,-0.23474154840548134,10.658392367697337,0.3535232694751046,0.029910282500000163,0.023928225999999997,0.13170330950000064
192122.0,-1.4569739905,-1.8015796715,10.454673431999998,0.03486993312559471,0.19640015539766992,-0.2805738945628525,10.70834530128358,0.3442537488344593,0.025105023999999698,0.05629017099999989,0.06462582349999835
192132.0,-1.3588094239999997,-1.738130646,10.429568408,0.04579394891382722,0.12978442850755034,-0.31414879338346735,10.660363894842767,0.3429731010217013,0.09816456650000038,0.0634490255000002,-0.025105023999998366
192142.0,-1.277414229,-1.7213612744999998,10.3576856635,0.041264819504901934,0.08555080394500605,-0.3359985702891844,10.57716994539056,0.3491658125028637,0.08139519499999981,0.01676937150000013,-0.07188274449999987
192152.0,-1.206806349,-1.6986098465,10.2500086465,0.0316724899359411,0.07782423134642714,-0.3493206684696571,10.45965268199371,0.35928357466420946,0.07060787999999985,0.02275142799999985,-0.10767701700000032
192162.0,-1.1361004024999999,-1.7321485895,10.196072071499998,0.031138419184830835,0.09114632952689987,-0.3621121865575235,10.404371607545059,0.37470320280059943,0.07070594650000017,-0.03353874300000004,-0.053936575000001596
192172.0,-1.1541446385,-1.69262779,10.157826136499999,0.05512098843648491,0.10420313766106945,-0.37490195931613796,10.362358346506893,0.3929988503338223,-0.018044236000000158,0.03952079949999998,-0.038245934999999065
192182.0,-1.1684623475,-1.6758584184999998,10.245203388,0.10361670703239935,0.07888888219014369,-0.3866253359017839,10.44691333159557,0.40796939599756216,-0.014317708999999956,0.01676937150000013,0.08737725150000131
192192.0,-1.2402470255,-1.6615407094999999,10.417604295,0.1707647593443772,0.00721170046924057,-0.3972840616437132,10.621930590094713,0.43248958056088105,-0.07178467799999999,0.014317708999999956,0.1724009070000001
192202.0,-1.2917319379999999,-1.6040737404999998,10.5659789095,0.25017025899311124,-0.12149062390207328,-0.41940087392498543,10.764828576461852,0.503231778835396,-0.05148491249999987,0.057466969000000034,0.14837461449999978
192212.0,-1.2689805099999998,-1.588481167,10.664143476,0.3215821506677112,-0.2837661017647501,-0.45377513354301374,10.856221259231358,0.6243798138639757,0.022751428000000073,0.015592573499999762,0.0981645664999995
192222.0,-1.1720908079999999,-1.588481167,10.7048410735,0.37407641857994467,-0.4476403012222536,-0.4942772441647941,10.885342975258265,0.7646077427773613,0.09688970199999991,0.0,0.04069759750000124
192232.0,-1.0307769814999999,-1.5118912304999998,10.629427935,0.40019003484828386,-0.5603536643160474,-0.5321142370187792,10.785780199123819,0.8702263236321743,0.14131382650000002,0.07658993650000023,-0.07541313850000009
192242.0,-0.8775971085,-1.4401065525,10.485760512499999,0.39086299532562613,-0.6016551357352412,-0.571549951467591,10.620511150265097,0.917296097502937,0.1531798729999999,0.07178467799999977,-0.14366742250000186
192252.0,-0.6465524345,-1.3934268984999998,10.363667719999999,0.3540906533153576,-0.5688813430412917,-0.601128046301139,10.476892534649345,0.9002005894663616,0.23104467399999995,0.04667965400000029,-0.12209279250000016
192262.0,-0.458558954,-1.320367356,10.260697895,0.3015981307323761,-0.4737539174905928,-0.617115262249407,10.355460760465535,0.8344072469125021,0.18799348049999998,0.0730595424999998,-0.10296982499999885
192272.0,-0.318519992,-1.277218096,10.166161788999998,0.23604880001522507,-0.3314624595632511,-0.6221784624094426,10.2510285615726,0.743432873348042,0.14003896200000004,0.04314926000000008,-0.0945361060000014
192282.0,-0.1987807955,-1.2341669024999997,10.120658933,0.15877434738317614,-0.16625657388647586,-0.6237771840042694,10.197569268507017,0.6647920855663964,0.11973919649999998,0.043051193500000196,-0.045502855999998815
192292.0,-0.13297817399999998,-1.1790535295,10.0895718525,0.07883477698333187,0.0061453042962720346,-0.6275086979450333,10.159099890588097,0.6324712268740582,0.06580262150000002,0.055113372999999743,-0.031087080499998976
192302.0,-0.073157609,-1.1288434815,10.096730706999999,0.01062207382763749,0.166822060564122,-0.6280410233668915,10.159902096534017,0.6499061127385953,0.05982056499999998,0.05021004800000006,0.007158854499998313
192312.0,-0.0791396655,-1.0953047384999999,10.154197675999999,-0.03574259775159187,0.29738839657656585,-0.6163159014519937,10.213407169016605,0.685246438950978,-0.005982056499999999,0.03353874300000004,0.057466969000000034
192322.0,-0.07786480099999998,-1.0665712539999999,10.2643263555,-0.04959876668317486,0.37013371979968945,-0.5942008344999735,10.319885304561568,0.701807409414942,0.0012748645000000142,0.028733484500000017,0.11012867950000071
192332.0,-0.112580342,-1.043819826,10.431922004,-0.03174579376452486,0.3799930847442054,-0.5680872182316343,10.484618775143657,0.6841970676591015,-0.034715541000000016,0.02275142799999985,0.16759564850000075
192342.0,-0.1258193195,-1.0031222285,10.5732358305,0.001827359726838063,0.3306962600216256,-0.545438080528504,10.621459439918757,0.6378605296822187,-0.013238977499999999,0.040697597499999905,0.14131382649999935
192352.0,-0.1185623985,-0.9911581154999999,10.618640619999999,0.02927440754370089,0.24942500340250964,-0.5233212682472318,10.665457330512064,0.5804610004636555,0.0072569209999999995,0.01196411300000022,0.045404789499999154
192362.0,-0.0791396655,-0.9815475985,10.6091281695,0.04526162349196895,0.16922014295636223,-0.49987276974668793,10.654731310157707,0.5296761815274741,0.039422733,0.00961051699999993,-0.009512450499999048
192372.0,-0.025203090499999997,-0.974388744,10.545679144000001,0.04925842747903596,0.11512889877855395,-0.4764242712461441,10.590628745660064,0.49260647807767355,0.053936575,0.007158854499999978,-0.06344902549999887
192382.0,0.023830159499999996,-0.9636014289999999,10.433098801999998,0.03913202715896487,0.11246378101075861,-0.4601700199223209,10.477530539338286,0.475327113495659,0.049033249999999994,0.010787315000000075,-0.11258034200000289
192392.0,0.0095124505,-0.9780172045,10.290706244,0.011421434625050892,0.16442397817188178,-0.45377513354301374,10.337080977689645,0.48278107418243077,-0.014317708999999996,-0.014415775500000061,-0.1423925579999974
192402.0,0.0214765635,-1.0198915999999998,10.234416072999998,-0.031480503718221725,0.25448820356254515,-0.45590618055969884,10.285130649331151,0.5230733345711451,0.011964113,-0.04187439549999983,-0.05629017100000233
192412.0,-0.04314926,-1.0390145675,10.2547158385,-0.08530471252047485,0.36933435900227607,-0.46443211395569106,10.307308574914137,0.5994847380802742,-0.0646258235,-0.0191229675000002,0.020299765500000788
192422.0,-0.09228057649999999,-1.100109997,10.3588624615,-0.13193641947525936,0.4609973059877662,-0.484150843844723,10.417523180035278,0.6814160069351813,-0.04913131649999999,-0.06109542949999991,0.1041466230000001
192432.0,-0.147295883,-1.1851336525,10.522927716,-0.16071340818214186,0.49590389102765287,-0.5089327738937905,10.590479005578441,0.7285341701314456,-0.0550153065,-0.08502365550000013,0.16406525450000053
192442.0,-0.216726965,-1.1527717075,10.5899071355,-0.16417788674735062,0.4575328274225575,-0.5366433664277045,10.654669695747701,0.7240695887806401,-0.069431082,0.032361945000000114,0.06697941950000086
192452.0,-0.23830159499999998,-1.124038223,10.649825767,-0.13913066665197996,0.3485492329402756,-0.5627569826960437,10.711630988995172,0.6764165371717593,-0.021574629999999984,0.028733484500000017,0.059918631499998654
192462.0,-0.15572960199999997,-1.1348255379999999,10.6091281695,-0.09063494805606552,0.19453439842728798,-0.5854061203991741,10.67078634532219,0.6235051337249796,0.08257199300000001,-0.010787314999999964,-0.04069759749999946
192472.0,-0.0610954295,-1.1456128529999998,10.5396970875,-0.028016025153012977,0.02586403418530397,-0.6059242110856194,10.601951525861669,0.6071227186569805,0.09463417249999997,-0.010787314999999964,-0.06943108199999948
192482.0,0.0897308475,-1.1408075945,10.386419148,0.03513522317189785,-0.14680487937299905,-0.6237771840042694,10.44926774040186,0.6417819970982016,0.150826277,0.004805258499999798,-0.15327793950000057
192492.0,0.25487483349999995,-1.1383559319999998,10.2631495575,0.10175095006201743,-0.299486282337463,-0.6285733487887498,10.329232994190987,0.703668774320945,0.16514398599999996,0.0024516625000001735,-0.12326959049999964
192502.0,0.4296293365,-1.2449542175,10.1590029345,0.1776937164747947,-0.4156641239964655,-0.614984215232722,10.244014495969443,0.7632544175029586,0.17475450300000006,-0.10659828550000006,-0.1041466230000001
192512.0,0.536227622,-1.25328987,10.130269449999998,0.24510880416232764,-0.4822798508865851,-0.5942008344999735,10.221576917992824,0.8035837306525923,0.10659828549999995,-0.008335652500000013,-0.028733484500001794
192522.0,0.6259584694999999,-1.2748645,10.0668204245,0.26429346330024933,-0.4782830468995181,-0.5835421087580441,10.166512526822036,0.7994542515919919,0.08973084749999993,-0.02157463000000015,-0.06344902549999887
192532.0,0.7001948100000001,-1.262900387,9.971009454,0.21712943092360656,-0.39647946485854385,-0.5867395519476977,10.075029513167348,0.7406783766571774,0.07423634050000016,0.01196411300000011,-0.09581097049999876
192542.0,0.782766803,-1.227008048,9.9159941475,0.12173671532660447,-0.24619439895706813,-0.5965989168922137,10.022235905774213,0.6567813773039741,0.08257199299999995,0.035892338999999884,-0.055015306500001415
192552.0,0.812775152,-1.213867137,9.944727632000001,0.01062207382763749,-0.06206914418867434,-0.601128046301139,10.051451862724187,0.6044173518046437,0.030008348999999934,0.013140911000000033,0.028733484500001794
192562.0,0.7983593764999999,-1.1803283939999998,9.962673801500001,-0.09090023810236866,0.10793465160183333,-0.6008610109255839,10.064065882476255,0.6172087951042103,-0.014415775500000061,0.03353874300000026,0.017946169500000053
192572.0,0.7756079484999999,-1.22583125,10.0321048835,-0.16870876148552788,0.22411249326083588,-0.5907363559347647,10.136437161882744,0.6539560367950233,-0.022751427999999962,-0.04550285600000015,0.06943108199999948
192582.0,0.8151287479999999,-1.2377953629999998,10.090748650499998,-0.21214127992140677,0.27500629424899053,-0.5656891358393941,10.199008803018453,0.663804627077859,0.03952079949999998,-0.011964112999999887,0.05864376699999774
192592.0,0.8534727495,-1.2521130719999998,10.175772305999999,-0.1998838325846506,0.2329054620323833,-0.5283844684072673,10.287980603732148,0.6110553552889272,0.03834400150000006,-0.014317708999999956,0.08502365550000057
192602.0,0.7601134414999999,-1.2856518149999998,10.167338587,-0.13859834123012169,0.11353017718372715,-0.4734921181027937,10.27645108858408,0.5062542713188498,-0.09335930800000003,-0.03353874300000004,-0.008433718999999229
192612.0,0.665479269,-1.3658702119999997,10.154197675999999,-0.06265557481734443,0.0005497787143782138,-0.4164704661108869,10.267238895476305,0.4211575387606709,-0.09463417249999995,-0.08021839699999989,-0.013140911000000699
192622.0,0.618799615,-1.5095376345,10.160179732499998,-0.008831366015091307,-0.07859043088805268,-0.39994917941150865,10.29032890777548,0.4076932608773432,-0.04667965399999996,-0.1436674225000003,0.0059820564999988335
192632.0,0.5541737914999999,-1.5597476824999998,10.141056765,0.019415042599184924,-0.12761847490582537,-0.4191338385494303,10.275259302577325,0.43856196099707145,-0.06462582350000012,-0.05021004799999984,-0.019122967499997756
192642.0,0.49307836199999994,-1.55141203,10.147038821499999,0.026874579822208686,-0.16652186393277899,-0.4548397843867303,10.276789498813791,0.48510926982406194,-0.061095429499999965,0.00833565249999979,0.0059820564999988335
192652.0,0.525440307,-1.5250321415,10.060838367999999,0.01914800722362979,-0.20116315892636244,-0.494010208789239,10.189321823156298,0.5337409006979479,0.03236194500000006,0.02637988849999995,-0.08620045350000005
192662.0,0.640374245,-1.519050085,9.9375687775,-0.0035011304795006253,-0.1875722800410826,-0.5283844684072673,10.07337408924838,0.5607011366213512,0.11493393799999996,0.005982056500000166,-0.12326959049999964
192672.0,0.7804132069999999,-1.527483804,9.773503522999999,-0.032012829140079996,-0.11136422358200218,-0.5486355237181575,9.922883787449882,0.5607385749251349,0.140038962,-0.008433719000000117,-0.16406525450000053
192682.0,0.858278008,-1.5142448265,9.677790619,-0.05812644540841915,0.017336355460059676,-0.5417065665877401,9.833067161308463,0.5450919529407247,0.07786480100000004,0.013238977500000138,-0.0957129039999991
192692.0,0.8462158285,-1.5082627699999998,9.6274825045,-0.07544534757595889,0.1769484608841931,-0.5086657385182354,9.781582550192255,0.5438231254943503,-0.012062179499999992,0.005982056500000166,-0.050308114499999945
192702.0,0.7612902395,-1.507085972,9.661021247499999,-0.09223366965089234,0.32936457380235395,-0.4668319416771833,9.807456474560752,0.5787228473659609,-0.08492558900000002,0.0011767979999997014,0.03353874299999937
192712.0,0.5912429285,-1.5670046034999998,9.76153941,-0.1036917561902351,0.44074625067687606,-0.4255287249287375,9.904177062274007,0.6213565269046556,-0.17004731099999992,-0.059918631499999764,0.10051816250000023
192722.0,0.465619742,-1.7082203635,9.850093459499998,-0.09996024224947123,0.5054962205966137,-0.39088917526440603,10.007954821805544,0.6467710772807647,-0.12562318650000004,-0.14121576000000013,0.08855404949999901
192732.0,0.37461402999999993,-1.7896155585,9.9889556235,-0.09143430885347895,0.5422685626068823,-0.3679730021857205,10.154914769063815,0.6616793461827412,-0.09100571200000007,-0.08139519500000003,0.1388621640000025
192742.0,0.1962310665,-1.8243310995,10.121835731,-0.07651174374892741,0.5633189787151858,-0.3522528216130076,10.28679975295577,0.6687782659795,-0.17838296349999994,-0.03471554099999996,0.13288010749999835
192752.0,0.032263878499999996,-1.8686571575,10.301493558999999,-0.051731559029111925,0.534007919257193,-0.3549161940515509,10.469655680883221,0.6432776358843959,-0.16396718799999999,-0.044326058,0.17965782799999985
192762.0,-0.076688003,-1.7884387604999998,10.490565770999998,-0.020022417178878947,0.4500715448702817,-0.3698387591561024,10.642197350431896,0.5828773459877581,-0.1089518815,0.08021839700000011,0.18907221199999924
192772.0,-0.18328628849999998,-1.6591871135,10.5408738855,-0.00243473430653209,0.34695051134544874,-0.3839619634632406,10.672231163687021,0.5175010866080946,-0.10659828549999997,0.1292516469999998,0.05030811450000172
192782.0,-0.24075325749999998,-1.5298374,10.544502346,-0.006965609044709369,0.23956738378724568,-0.39088917526440603,10.657621419727533,0.4585143382958888,-0.05746696900000001,0.12934971350000013,0.003628460499999875
192792.0,-0.20005566,-1.4867862065,10.490565770999998,-0.009896016858807848,0.14310652668802307,-0.3970170262681581,10.59728860070412,0.422137333432132,0.04069759749999999,0.04305119349999997,-0.053936575000001596
192802.0,-0.15092434349999997,-1.4723704309999999,10.3541552695,-0.016025613191811935,0.07862359214384057,-0.3975510970192684,10.459406493126588,0.4055679527045971,0.04913131650000002,0.014415775500000061,-0.13641050149999856
192812.0,-0.179657828,-1.4795292855,10.2751136705,-0.03574259775159187,0.04744677571546585,-0.3951530146270282,10.382641512809242,0.3995930865125849,-0.028733484500000017,-0.007158854500000089,-0.07904159899999996
192822.0,-0.1856398845,-1.5621993449999998,10.267954816,-0.05945813162769082,0.006412339671827167,-0.3962194107999967,10.387772863499336,0.4007071362122457,-0.005982056499999999,-0.08267005949999984,-0.007158854500000089
192832.0,-0.2550709665,-1.5107144325,10.4282935435,-0.06425429641217124,-0.054075536214540317,-0.40874214818305604,10.540238399766812,0.41728038765991937,-0.069431082,0.05148491249999987,0.160338727500001
192842.0,-0.4118793,-1.4424601485,10.726415703499999,-0.0514645236535568,-0.18837164083849597,-0.4303248897132179,10.830804664569966,0.47255897301158933,-0.1568083335,0.068254284,0.29812215999999836
192852.0,-0.5531931265,-1.4089214055,10.758777648499999,-0.025884978136327903,-0.4596307131834547,-0.45617321593525395,10.864730951659416,0.6480929158163675,-0.14131382649999996,0.03353874300000004,0.03236194499999989
192862.0,-0.4514000995,-1.3527293009999999,10.471442803499999,0.00795695605984215,-0.8060314458145252,-0.49534189500851067,10.568100728067673,0.9461044327885874,0.10179302699999998,0.056192104500000006,-0.28733484500000017
192872.0,-0.130624578,-1.3275262104999999,9.923153001999998,0.04579394891382722,-1.0668988277931097,-0.5326465624406375,10.012410005640188,1.193349301329356,0.3207755215,0.025203090500000025,-0.5482898015000011
192882.0,0.3027312855,-1.332331469,9.327006748499999,0.08603076948930449,-1.1471036882392571,-0.5547633747219096,9.426548056477127,1.2771102406620467,0.4333558635,-0.004805258500000242,-0.5961462534999988
192892.0,0.685877101,-1.297615928,8.8649174005,0.1062818248001947,-1.0538420196589402,-0.5619576218986303,8.985599312898563,1.199030941006802,0.3831458155,0.03471554100000018,-0.46208934799999923
192902.0,0.9850779924999999,-1.2318133064999999,8.522567249,0.10521542862722617,-0.8068308066119387,-0.5507665707348426,8.667288802567139,0.9825426465850228,0.29920089149999995,0.06580262150000005,-0.3423501514999998
192912.0,1.2041585535,-1.1049152555,8.441172053999999,0.08336565172150916,-0.466292634938317,-0.5163923111168143,8.597919584936488,0.7007422295432432,0.21908056099999995,0.12689805099999996,-0.0813951950000007
192922.0,1.279571692,-0.9755655419999999,8.618280153,0.051124184449417895,-0.11083189816014391,-0.462301066939006,8.767199361101538,0.47814189146982505,0.07541313850000009,0.12934971350000002,0.17710809900000157
192932.0,1.1910176424999999,-0.9300626859999999,8.987010193,0.03033905838741743,0.17854718247901993,-0.39994917941150865,9.113171337889005,0.439043165243431,-0.08855404950000012,0.045502856000000036,0.3687300399999991
192942.0,1.0378377694999998,-1.007927487,9.507743308,0.032737140779657635,0.33469306400869264,-0.33466513874066073,9.61718294853902,0.47443853402760156,-0.15317987300000002,-0.07786480100000004,0.5207331150000005
192952.0,0.870242121,-1.031855713,9.9399223735,0.05085714907386277,0.3370911464009328,-0.28483773392547457,10.031156680703337,0.44424027874745403,-0.16759564849999986,-0.023928225999999997,0.43217906549999974
192962.0,0.758838577,-0.982822463,10.2188234995,0.07190756518216639,0.23610290522203692,-0.2461996349448241,10.293985122082418,0.3486108719355699,-0.11140354399999997,0.04903324999999992,0.27890112599999917
192972.0,0.661948875,-0.903780864,10.3804370915,0.0876294910841313,0.10020633367400243,-0.21076072448307925,10.44071215836522,0.2492796020549652,-0.09688970200000002,0.07904159899999996,0.16161359200000014
192982.0,0.6498866954999999,-0.9085861224999999,10.394852866999999,0.09428966750974166,-0.030892327760299633,-0.17985094343025967,10.454704567110712,0.20540506119933336,-0.012062179500000103,-0.004805258499999909,0.014415775499999839
192992.0,0.72176944,-0.997140172,10.396029665,0.09135925969564318,-0.12601975331099857,-0.15293796636450713,10.468651892325685,0.21821437650258524,0.0718827445000001,-0.08855404950000012,0.0011767980000012557
193002.0,0.732556755,-1.1168793685,10.457027027999999,0.08656309491116276,-0.15666249898826304,-0.12975650323951843,10.541986206944097,0.22107251779177267,0.010787314999999964,-0.11973919649999998,0.06099736299999847
193012.0,0.74334407,-1.2245563855,10.489388972999999,0.07777012613961533,-0.16199273452385368,-0.11963010291944734,10.586754921814661,0.21587311106945437,0.010787315000000075,-0.10767701699999987,0.03236194499999989
193022.0,0.701371608,-1.3909752359999998,10.534891829,0.061248839440237006,-0.17025337787354286,-0.12282754610910093,10.649445060114857,0.21868753758115853,-0.041972462000000044,-0.16641885049999994,0.04550285600000059
193032.0,0.643904639,-1.5130680285,10.594712394,0.04819203130606743,-0.18064506823991708,-0.13668371504068394,10.721563260764347,0.23159782062474632,-0.057466969000000034,-0.12209279250000016,0.05982056500000077
193042.0,0.6008534455,-1.6603639114999997,10.674930791,0.03646865472042152,-0.1899703624333228,-0.16226500588716483,10.81998061801502,0.2524849174024599,-0.04305119349999997,-0.14729588299999974,0.08021839699999944
193052.0,0.5936945909999999,-1.6806636769999999,10.708469533999999,0.023677136632555076,-0.21848206109390217,-0.218222007035355,10.855801371763208,0.3097028610999498,-0.007158854500000089,-0.020299765500000122,0.03353874299999937
193062.0,0.6176228169999999,-1.6471249339999998,10.630604732999998,0.01168672467135403,-0.2946901175529826,-0.2986939028570576,10.775167538445306,0.4197581357411862,0.023928225999999997,0.03353874300000004,-0.07786480100000048
193072.0,0.664302471,-1.446088609,10.397206462999998,0.0071575952624287455,-0.41220139076050877,-0.37463492394058284,10.518287516145639,0.5570570383280375,0.04667965400000007,0.2010363249999998,-0.23339827000000035
193082.0,0.805518231,-1.2365204985,10.148215619499998,0.02527585822738188,-0.5345070834232635,-0.43059192508877303,10.254956012755382,0.6868377517219257,0.14121576000000002,0.20956811050000002,-0.24899084349999967
193092.0,1.0066526225,-1.1635590225,9.926781462500001,0.07510500837181999,-0.6653404548112624,-0.44897896875853327,10.045307825321279,0.8061642496901389,0.20113439150000012,0.07296147599999991,-0.22143415699999736
