timestamp,ax,ay,az,gx,gy,gz,acc_mag,gyro_mag,dax,day,daz
121132.0,-2.2364065324999998,1.8548297809999998,9.871079690499998,0.07775441817634739,0.021430897885238373,-0.14715045456489392,10.289806701357161,0.16780431820654892,0.0,0.0,0.0
121142.0,-1.9251434615,1.8368836115,10.2445169225,0.012472122834751478,0.09657255817135024,-0.17273174541137482,10.584443571815306,0.19828784307824815,0.3112630709999997,-0.01794616949999983,0.37343723200000234
121152.0,-1.8880743245,1.6764468174999998,10.3355226345,-0.07572809091478196,0.21754656461483318,-0.18312343577774906,10.639470227177847,0.2942710387726945,0.03706913700000003,-0.16043679400000022,0.0910057119999994
121162.0,-1.9849640265,1.748329562,10.4037769185,-0.1498033550279253,0.3038810213939847,-0.17326407083323309,10.734771195222354,0.3805327299757245,-0.09688970199999991,0.0718827445000001,0.068254284
121172.0,-2.1598165959999998,1.7530367539999998,10.424076684,-0.20789314852205257,0.3489122614246904,-0.14954853695713413,10.788851667491972,0.43280953349126106,-0.17485256949999983,0.004707191999999916,0.020299765499999012
121182.0,-2.3621277855,1.6525185914999998,10.521064452500001,-0.23507141563410827,0.3246644021267332,-0.1127761949468656,10.908861653900622,0.416394061681031,-0.20231118950000004,-0.10051816250000001,0.09698776850000179
121192.0,-2.5249181754999994,1.5172848879999998,10.6263878735,-0.21482036032321805,0.24392721625872751,-0.08346688081812483,11.02712494090782,0.3355815761251447,-0.16279038999999962,-0.13523370349999997,0.10532342099999958
121202.0,-2.684080105,1.3867583765,10.6791476505,-0.15886335917502786,0.12535129220748475,-0.08346688081812483,11.098269204971979,0.21890005376876268,-0.15916192950000063,-0.13052651149999983,0.052759776999998564
121212.0,-2.8157834145,1.251524673,10.619229018999999,-0.0938463538797351,-0.009211847792026072,-0.11091218330573566,11.057258937117856,0.14557990480114016,-0.13170330949999975,-0.13523370349999997,-0.05991863150000043
121222.0,-2.8528525515,1.1761115345,10.5318517675,-0.04455127448640726,-0.11872776769616626,-0.1647363921079888,10.974602848157051,0.20789222632228233,-0.03706913700000003,-0.07541313850000009,-0.08737725149999953
121232.0,-2.83019919,1.128157016,10.408582177,-0.011775736463205741,-0.17521883959546675,-0.23161915437366348,10.84533764542113,0.2906677525822287,0.022653361499999747,-0.047954518499999876,-0.12326959049999964
121242.0,-2.7834214695,1.1820935909999999,10.3355226345,0.007408922674715929,-0.16828988246504925,-0.29663615966895623,10.768835055985333,0.3411295764052811,0.046777720500000175,0.05393657499999982,-0.07305954249999935
121252.0,-2.7571396475,1.289770608,10.305612351999999,0.017800613041090166,-0.0987437477608312,-0.3419344350752171,10.745742096606081,0.35635143810107056,0.026281822000000066,0.1076770170000001,-0.029910282500001273
121262.0,-2.7559628495,1.4058813439999998,10.422899886,0.020198695433330374,-0.003351032163829113,-0.36485060815390263,10.872381322176398,0.365424661160196,0.0011767979999999234,0.11611073599999977,0.1172875340000008
121272.0,-2.844516899,1.5232669444999998,10.604911309999999,0.009274679645097867,0.08698022860238941,-0.36937973756282794,11.084934030740499,0.37959579867567916,-0.0885540494999999,0.11738560050000002,0.1820114239999988
121282.0,-3.0013252324999997,1.5076743709999998,10.798788780499999,-0.016573646576938154,0.1410714727801977,-0.3568570001797686,11.309061600595518,0.3840869234568325,-0.1568083334999999,-0.015592573499999984,0.19387747050000037
121292.0,-3.212070141,1.5352310574999999,10.961579170499999,-0.05920680421540364,0.14427066129910326,-0.34326786662374076,11.525213529551449,0.377030897452047,-0.21074490850000016,0.027556686500000094,0.16279038999999962
121302.0,-3.4286990394999997,1.484922943,11.081318367,-0.1108999660009717,0.11735768423335072,-0.34726467061080774,11.694297328224879,0.3829678576095706,-0.21662889849999978,-0.050308114499999945,0.1197391965000012
121312.0,-3.6022767444999997,1.389210039,11.125644425,-0.1498033550279253,0.06619684786964093,-0.3699138083139382,11.776513327295032,0.40454825846469794,-0.17357770500000003,-0.09571290399999999,0.04432605800000111
121322.0,-3.7160338845,1.2778064949999999,11.113680312,-0.18524401081892214,0.0057089719832734516,-0.4109482443575769,11.787942456033315,0.45080638354615327,-0.11375714000000015,-0.11140354400000008,-0.01196411300000122
121332.0,-3.778306112,1.2000397605,11.031010252499998,-0.22174931745363555,-0.051047389962330145,-0.47250077108766086,11.721726822167351,0.5244383419350206,-0.06227222750000028,-0.07776673449999993,-0.08267005950000161
121342.0,-3.7268211995,1.1354139369999998,10.859884209999999,-0.2593210202613175,-0.08808502201890182,-0.5452460943107845,11.537566732894062,0.6101636387188325,0.05148491250000031,-0.06462582350000012,-0.1711260424999992
121352.0,-3.6956360525,1.1389443309999998,10.725827304500001,-0.29156248753340874,-0.10300758712345334,-0.6073309464627268,11.401679323135367,0.6815204513974444,0.03118514699999997,0.0035303939999999923,-0.13405690549999782
121362.0,-3.689653996,1.2108270755,10.562938848,-0.30914842507650364,-0.10700439111052035,-0.6515645710252711,11.254124840410746,0.7290809822369263,0.005982056499999722,0.0718827445000001,-0.16288845650000106
121372.0,-3.675336287,1.2490730105,10.3953431995,-0.32140587241325974,-0.09767735158786264,-0.685137724516634,11.096460716980408,0.7630572071547314,0.014317709000000178,0.038245935000000175,-0.16759564850000075
121382.0,-3.663372174,1.2299500429999999,10.2564810355,-0.32540267640032683,-0.07129844527322035,-0.7160475055694536,10.960313682786836,0.789743249631873,0.011964112999999887,-0.0191229675000002,-0.13886216399999896
121392.0,-3.6728846244999995,1.275452899,10.157139671000001,-0.32566971177588194,-0.033194417043680154,-0.750688800563037,10.87586078702086,0.8189605031879297,-0.009512450499999492,0.04550285600000015,-0.09934136449999897
121402.0,-3.6310102289999997,1.2730012365,10.099672701999998,-0.32806779416812215,0.004644321139556911,-0.7837296286325418,10.80778220167103,0.8496364976186502,0.04187439549999983,-0.0024516624999999515,-0.05746696900000359
121412.0,-3.6190461159999994,1.262311988,10.057798306499999,-0.3421892531460083,0.03502003144126622,-0.8167704567020464,10.763374615752136,0.886247068549194,0.011964113000000332,-0.010689248500000081,-0.04187439549999894
121422.0,-3.6190461159999994,1.2108270755,9.995526079,-0.36777054399248915,0.057936204519951774,-0.8530104732904567,10.699258787059394,0.9307194230088452,0.0,-0.05148491250000009,-0.06227222749999939
121432.0,-3.608258801,1.1389443309999998,9.8961847145,-0.38642287770855255,0.07152533807597962,-0.897509387899304,10.594866571487083,0.9797763090475425,0.01078731499999952,-0.0718827445000001,-0.09934136449999897
121442.0,-3.6190461159999994,1.0851058224999999,9.832735689,-0.38882096010079276,0.08031830684752704,-0.9542657498449078,10.533643271228259,1.03356465243139,-0.01078731499999952,-0.05383850849999994,-0.06344902550000064
121452.0,-3.6477796005,0.976153941,9.794489753999999,-0.3781622343588634,0.09950471131470072,-1.0328718886962283,10.497199725239332,1.1044148683932247,-0.02873348450000046,-0.1089518814999999,-0.03824593500000084
121462.0,-3.653761657,0.838468575,9.801648608499999,-0.367503508616934,0.12241913906413426,-1.1370593183940298,10.494061141518849,1.2012281914780623,-0.005982056500000166,-0.13768536599999992,0.007158854500000089
121472.0,-3.6070820029999995,0.77864801,9.762127808999999,-0.3691022302117608,0.14933211612988684,-1.2551011716941625,10.436305508133353,1.3167442760244623,0.046679654000000514,-0.0598205650000001,-0.03952079949999998
121482.0,-3.4693966369999996,0.8181688095,9.692696727,-0.3797609559536902,0.1810412579801198,-1.3640847661764441,10.327365737072647,1.4274878528633892,0.13768536599999992,0.03952079950000009,-0.06943108199999948
121492.0,-3.2574749305,0.9151565779999999,9.6508223315,-0.38748927388152105,0.2004929524935966,-1.4445566619981467,10.226779852879975,1.5090027538397852,0.21192170649999964,0.0969877684999999,-0.04187439549999894
121502.0,-3.0097589515,0.9941001104999999,9.6388582185,-0.38962032089820614,0.20928592126514403,-1.489055576606994,10.146648300408144,1.5533483516330162,0.24771597900000009,0.07894353249999997,-0.01196411300000122
121512.0,-2.7714573564999996,1.12580342,9.622088847,-0.3914860778685881,0.20928592126514403,-1.498647906175955,10.076358618019878,1.5630123136720018,0.23830159500000025,0.1317033095000001,-0.016769371499998798
121522.0,-2.6518162265,1.2563299315,9.6423886125,-0.38748927388152105,0.21035231743811258,-1.4829277256032423,10.078995602260235,1.5470845724095428,0.11964112999999976,0.13052651150000005,0.020299765499999012
121532.0,-2.5404126825,1.286240214,9.6639632425,-0.36803757936804427,0.21834592541224662,-1.4602785879001117,10.07473553190895,1.5216899018035062,0.11140354399999985,0.02991028249999994,0.021574629999999928
121542.0,-2.438717722,1.1820935909999999,9.7669330675,-0.3381924491589412,0.22340912557228215,-1.4565470739593476,10.135959299962934,1.51189124897151,0.10169496050000015,-0.1041466230000001,0.10296982500000063
121552.0,-2.426753609,1.0839290245,9.9189361425,-0.30861609965464537,0.20715487424845896,-1.468804521296104,10.268852390016171,1.5151051978891823,0.011964112999999887,-0.09816456649999994,0.15200307499999965
121562.0,-2.3429067515,0.9977285709999999,10.018277506999999,-0.2835688795592747,0.17118189303560383,-1.4989149415515102,10.336854383944669,1.5350767251066384,0.08384685749999976,-0.08620045350000005,0.09934136449999897
121572.0,-2.2471938474999997,1.0025338295,10.017100709,-0.25159270233348663,0.13441129635458732,-1.548210020944838,10.314904792666875,1.574267942063613,0.09571290400000043,0.00480525850000002,-0.0011767979999994793
121582.0,-2.0377238035,0.9869412559999998,10.019454305,-0.2268125176136711,0.12188681364227599,-1.6028353358737566,10.272090143302306,1.6233857913052143,0.2094700439999997,-0.015592573500000095,0.002353596000000735
121592.0,-1.7814760389999997,1.0719649115,9.926094997,-0.22094995665622214,0.1413385081557528,-1.6361431993188162,10.141505190970754,1.6570335017468087,0.2562477645000003,0.08502365550000024,-0.09335930800000014
121602.0,-1.5672007365,1.1377675329999999,9.8950079165,-0.2422674081400809,0.1863714935157105,-1.6420057602762652,10.082748374090901,1.6702127850733943,0.2142753024999997,0.06580262149999982,-0.031087080500000752
121612.0,-1.3756768619999997,1.197588098,9.759774213,-0.292094812955267,0.24765698487023938,-1.6201559833705483,9.928740945852761,1.6647999196185044,0.1915238745000003,0.0598205650000001,-0.13523370349999908
121622.0,-1.2643713844999998,1.159342163,9.632876162,-0.34991757107383914,0.312406954789977,-1.5857817237525198,9.784427034899888,1.653706167169632,0.11130547749999997,-0.03824593499999995,-0.1268980509999995
121632.0,-1.273883835,1.0862826204999998,9.517942223999999,-0.3976139288723402,0.3806214032749234,-1.5452796131307394,9.664057850410288,1.6403836660433306,-0.009512450500000158,-0.07305954250000024,-0.11493393800000185
121642.0,-1.4295153705,1.0299924495,9.600514216999999,-0.3912190424930329,0.4269860748541528,-1.5188989614868451,9.760854054402303,1.6255532912009802,-0.1556315355000002,-0.05629017099999989,0.08257199300000018
121652.0,-1.5899521644999999,0.9271206909999999,9.798020147999999,-0.3363284375178113,0.4251220632130228,-1.5204976830816719,9.969388119723922,1.6142362871557565,-0.16043679399999977,-0.10287175849999997,0.19750593100000025
121662.0,-1.6582064484999999,0.8517075525,10.0015081355,-0.25985334568317575,0.3720954698789311,-1.556203628918972,10.173751489264184,1.621033168885739,-0.068254284,-0.07541313849999998,0.20348798750000086
121672.0,-1.4140208635,1.0862826204999998,10.0781961385,-0.18257889305112682,0.286560373897193,-1.6047010928441383,10.23472043292292,1.6402797009812216,0.24418558499999987,0.23457506799999983,0.07668800299999923
121682.0,-1.176994133,1.286240214,10.091337049499998,-0.10956827978170001,0.20715487424845896,-1.6534638468156082,10.240840420777902,1.6699883360627057,0.2370267305,0.1999575935000002,0.013140910999998923
121692.0,-0.7556023824999999,1.3724406674999998,10.179891098999999,-0.05893976883984851,0.17811085016602132,-1.6723814705779747,10.29974325571987,1.6828716987430465,0.4213917505000001,0.08620045349999983,0.08855404950000079
121702.0,-0.4574802224999999,1.6154494544999998,10.1523344125,-0.03735702730968663,0.21461615680073473,-1.647067215107049,10.290231247025245,1.6614108622883816,0.29812215999999997,0.24300878699999995,-0.02755668649999876
121712.0,-0.20495898499999998,1.7877522949999998,10.140370299499999,-0.04828104309791914,0.28895845628943323,-1.587912770769205,10.298794893811202,1.614712053635486,0.25252123749999994,0.1723028405,-0.01196411300000122
121722.0,-0.0385401345,1.879934805,10.177537503,-0.07892553410443558,0.36010505791773006,-1.5050427925552623,10.349778250667457,1.5495349947949366,0.1664188505,0.09218251000000022,0.03716720350000102
121732.0,0.069234949,1.864440298,10.1499808165,-0.10530444041907787,0.3963433291768883,-1.4123151947260555,10.320031089017482,1.4706499478152817,0.10777508350000001,-0.01549450699999988,-0.027556686500000538
121742.0,0.056094038,1.8260962964999998,10.1021243645,-0.11782892313138918,0.41925950225557385,-1.3187864907701834,10.265996829388497,1.3888340410559605,-0.013140911000000005,-0.03834400150000028,-0.04785645199999955
121752.0,-0.000196133,1.6285903654999998,10.134388243,-0.1335491037041021,0.4309828788412198,-1.2495056461122682,10.264410926932154,1.32847505231407,-0.056290171,-0.19750593100000002,0.03226387850000023
121762.0,-0.09120184499999999,1.389210039,10.133211445,-0.14394253939972831,0.4117982197032981,-1.2233920298439294,10.228401463477505,1.2988399774742452,-0.09100571199999999,-0.23938032649999985,-0.0011767979999994793
121772.0,-0.078060934,1.1796419285,10.160768131500001,-0.1356818960500392,0.36383482652924193,-1.2380475595729257,10.22931364320198,1.2975157485270743,0.013140910999999991,-0.20956811050000002,0.027556686500000538
121782.0,-0.0636451585,1.0384261685,10.188324818,-0.09677850702308557,0.2937546210739136,-1.2700237367987137,10.241305688763557,1.3071412122858281,0.014415775500000005,-0.1412157599999999,0.02755668649999876
121792.0,0.032067745499999994,1.089911081,10.1595913335,-0.05547703560389176,0.2066225488266007,-1.303863925665632,10.217936707991313,1.3212992529382543,0.09571290399999999,0.05148491249999987,-0.028733484500000017
121802.0,0.0967916355,1.1904292435,10.147627220499999,-0.019771089766591764,0.12455193141007134,-1.3158543376268328,10.217672367555895,1.3218837760786266,0.06472389,0.10051816250000001,-0.01196411300000122
121812.0,0.29429756649999994,1.252701471,10.041028935,0.008208283472129332,0.055538122127711566,-1.3051956118849035,10.123148428557226,1.3064024817071649,0.19750593099999994,0.062272227500000055,-0.10659828549999872
121822.0,0.531324297,1.3269378115000001,9.866274432,0.009007644269542734,0.02675938809157706,-1.2732211799883673,9.969274829781146,1.273534206716605,0.2370267305,0.07423634050000016,-0.17475450299999906
121832.0,0.7097072605,1.38077632,9.598160621,-0.020303415188450035,0.03155555287605748,-1.211401617882728,9.722906712912257,1.211982615962176,0.17838296350000005,0.05383850849999994,-0.268113811000001
121842.0,0.823366334,1.4358896929999998,9.3982030275,-0.05973912963726191,0.05660451830068009,-1.1279993142469271,9.542847136810815,1.1309974748174318,0.11365907350000004,0.055113372999999743,-0.19995759350000064
121852.0,0.8341536489999999,1.413138265,9.232960975,-0.05867447879354537,0.09444151115466518,-1.032072527898815,9.377651114859209,1.038044120610642,0.010787314999999853,-0.02275142799999985,-0.16524205250000001
121862.0,0.7575637125,1.3017347209999999,9.1575478365,-0.017638297420654692,0.14347130050168988,-0.9436070241029784,9.280576406675372,0.9546147597539149,-0.0765899364999999,-0.11140354400000008,-0.07541313850000009
121872.0,0.5432884099999999,1.1066804525,9.1096913845,0.010873401239924673,0.23353552589235324,-0.8823197874191974,9.192735231758796,0.9127679222999678,-0.21427530250000004,-0.19505426849999985,-0.04785645199999955
121882.0,0.31704899449999996,1.009692684,9.029472987499998,0.0010140362954087054,0.3326580101008672,-0.8652661752979608,9.09128053758263,0.9270102124942522,-0.22623941549999999,-0.09698776850000002,-0.08021839700000122
121892.0,0.16739951549999998,0.9138817134999999,8.834418719,-0.033892548744477884,0.4469718401187398,-0.881520426621784,8.88313888705321,0.9889442821873137,-0.14964947899999997,-0.09581097050000009,-0.19505426849999807
121902.0,0.030890947499999998,0.742755671,8.793623055,-0.06640105139212427,0.5599504932588367,-0.90736875284382,8.824989896360654,1.0683031911232614,-0.136508568,-0.17112604249999996,-0.0407956640000009
121912.0,-0.14749201599999998,0.650573161,8.7648895705,-0.06400296899988406,0.635893259671614,-0.9366798123018127,8.790238251359114,1.1339425419792442,-0.17838296349999996,-0.09218251,-0.028733484500000017
121922.0,-0.24565658249999997,0.5452497399999999,8.7278204335,-0.02057045056400517,0.6747966486985676,-0.9705200011687308,8.748285200821687,1.1822363271358978,-0.0981645665,-0.10532342100000003,-0.037069136999999586
121932.0,-0.3413694865,0.5009236819999999,8.940918938,0.06256656302549272,0.6801251389049063,-1.0008957114704402,8.961444588758486,1.211724805646546,-0.09571290400000002,-0.044326058,0.21309850449999956
121942.0,-0.42756994,0.7798248079999999,9.313179371999999,0.17394823990001484,0.6129770865929285,-1.0171499627942633,9.355546632870265,1.2002470352659234,-0.0862004535,0.27890112599999994,0.3722604339999993
121952.0,-0.343821149,1.0910878789999998,9.8159663175,0.28426352060156845,0.489072672335347,-0.9929021034963061,9.882402566607722,1.1427389969268684,0.08374879099999999,0.31126307099999995,0.5027869455000005
121962.0,-0.24085132399999998,1.4058813439999998,10.2217654945,0.36979861658330654,0.33212568467900894,-0.9214902118217061,10.320804306750063,1.0469969903173746,0.10296982500000001,0.31479346499999994,0.40579917700000045
121972.0,-0.10081236199999999,1.7123391564999997,10.455261831,0.40576985246690966,0.16665276362667858,-0.8242317392543221,10.59503508601933,0.9336917461291131,0.140038962,0.3064578124999999,0.2334963365
121982.0,0.14700168349999998,1.9063146935,10.4612438875,0.3863181579534329,0.0675285340889126,-0.7171139017424222,10.634531906922936,0.8173458081821741,0.24781404549999997,0.19397553700000025,0.00598205650000061
121992.0,0.29066910599999995,2.0116381144999997,10.360627658499999,0.32529795664520716,0.06459812627481412,-0.5953405345015258,10.558114505486627,0.681485165309067,0.14366742249999997,0.1053234209999998,-0.10061622900000167
122002.0,0.18897414549999997,2.0930333095,10.3008070935,0.24642478241833138,0.12321849986154768,-0.4605103591264598,10.512997975831817,0.5366355960620142,-0.10169496049999999,0.08139519500000025,-0.05982056499999899
122012.0,-0.0960071035,1.8739527485,10.327186981999999,0.1734141691489046,0.21461615680073473,-0.34619827443783924,10.496271110671799,0.4427028507308936,-0.284981249,-0.21908056099999995,0.026379888499999282
122022.0,-0.3964828595,1.5124796295,10.479190057,0.10306867364727314,0.2908242132598151,-0.2979678458882279,10.595197852718815,0.4289367222433505,-0.300475756,-0.361473119,0.15200307500000143
122032.0,-0.6645966704999999,1.2442677519999998,10.618052221,0.04977679026687828,0.31374038633850065,-0.3171542503554016,10.711345570981726,0.4488848152784868,-0.2681138109999999,-0.2682118775000002,0.13886216399999896
122042.0,-0.7807074064999999,1.0910878789999998,10.7640732395,0.04284783313646079,0.2841622915049528,-0.3848346280892377,10.84736140817594,0.4802934891234917,-0.11611073599999999,-0.15317987300000002,0.14602101850000082
122052.0,-0.8466080945,1.1198213634999998,10.875378717,0.08148593211711126,0.21568255297370326,-0.4714361202439443,10.965610215122572,0.5247960901730419,-0.06590068800000004,0.028733484500000017,0.1113054775000002
122062.0,-0.820228206,1.2826117535,10.947261461499998,0.14890101980464424,0.1202880920474492,-0.5407152195726073,11.052619631860015,0.5735971473645346,0.02637988849999995,0.16279039000000006,0.0718827444999981
