timestamp,ax,ay,az,gx,gy,gz,acc_mag,gyro_mag,dax,day,daz
149972.0,0.4943532265,-1.5477835695,9.792724557,-0.06185621401993103,0.17081886455118903,0.06342875567597792,9.926604320704838,0.1924278637464956,0.0,0.0,0.0
149982.0,0.1603387275,-1.7656873324999998,10.0583867055,-0.09329832049460889,0.15722973099516116,0.09833534071586451,10.213447184034704,0.20759480761722018,-0.334014499,-0.2179037629999998,0.2656621485000006
149992.0,0.245362383,-1.8781696079999999,9.9985661405,-0.05732708461100575,0.19826416703879984,0.12045215299713666,10.176396643279947,0.23896400507865648,0.08502365549999999,-0.11248227550000012,-0.05982056500000077
150002.0,-0.0097085835,-1.8015796715,9.9603202055,0.01595056403397618,0.2414313954283756,0.12524831778161707,10.121944584191676,0.27245307907714966,-0.2550709665,0.07658993649999979,-0.038245934999999065
150012.0,-0.1856398845,-1.760882074,10.028476423,0.0892282126789581,0.28006949440902607,0.13350896113130623,10.183590094456797,0.3228393382764398,-0.17593130099999998,0.04069759750000013,0.06815621750000034
150022.0,-0.3341125655,-1.7752978494999998,10.131446248,0.13399416266336067,0.3107122400862905,0.13777280049392837,10.291234947127462,0.365346241698523,-0.14847268100000002,-0.014415775499999839,0.10296982499999885
150032.0,-0.48974410099999993,-1.839923673,10.339739494,0.1475832962193885,0.33416073858683437,0.12658000400088876,10.513580798696202,0.38660926779985944,-0.15563153549999992,-0.06462582350000012,0.2082932460000002
150042.0,-0.699214145,-1.8291363579999997,10.571960966,0.13719160585301426,0.3466852212991457,0.10286621545404179,10.751790497556826,0.38677336731683554,-0.20947004400000008,0.010787315000000186,0.23222147200000087
150052.0,-0.885932761,-1.8662054949999998,10.672577195,0.11107798958467512,0.32536776981528687,0.07089003822825368,10.870671726706467,0.3510383211627328,-0.18671861599999995,-0.03706913700000003,0.10061622899999989
150062.0,-1.0056719575,-1.8914085855,10.7719185595,0.08283332629965089,0.28566501999091987,0.0375821747831939,10.982851723295983,0.29979707045551934,-0.11973919649999998,-0.025203090500000247,0.09934136449999897
150072.0,-1.0799082979999999,-1.9369114414999997,10.812616156999999,0.06231523561320554,0.24702692101026943,0.005340707511102648,11.037685265621604,0.25482152862358853,-0.07423634049999994,-0.0455028559999997,0.04069759749999946
150082.0,-1.1780728645,-1.9787858369999998,10.832915922499998,0.04606098428938235,0.2142531283163199,-0.021839304930205045,11.074995099174402,0.22023390408125323,-0.09816456650000016,-0.04187439550000005,0.020299765499999012
150092.0,-1.246229082,-2.036252806,10.814969752999998,0.028475046746287487,0.17721375093049627,-0.05194972518561122,11.075332192447785,0.18685372822857926,-0.0681562174999999,-0.057466969000000034,-0.017946169500000053
150102.0,-1.2869266795,-2.130788912,10.824580269999998,0.017816321004358114,0.1441729228609916,-0.08978671803959629,11.107113922508596,0.17077736301024715,-0.04069759750000013,-0.09453610600000006,0.009610517000000485
150112.0,-1.3659682784999998,-2.188255881,10.7934931895,0.016482889455834447,0.1108650594159318,-0.1449443583903731,11.097469457961225,0.1832255824750143,-0.07904159899999974,-0.057466969000000034,-0.031087080499998976
150122.0,-1.4282405059999999,-2.187079083,10.791041526999999,0.023144811210696805,0.05837253683295035,-0.21369113229717773,11.102691704974687,0.22272614432244559,-0.062272227500000055,0.0011767979999999234,-0.0024516625000003955
150132.0,-1.3983302235,-2.2073788485,10.788687930999998,0.03353650157707104,0.003480186528476693,-0.2771094159976437,11.100614220270145,0.27915307103963055,0.02991028249999994,-0.0202997654999999,-0.002353596000000735
150142.0,-1.3312527375,-2.1606991945,10.777900616,0.04206418030231533,-0.049811696851918164,-0.34639026065555856,11.072668899077014,0.3524724288292616,0.06707748599999985,0.04667965400000007,-0.010787314999998188
150152.0,-1.2342649689999998,-2.1128427425,10.727592501499998,0.0425965057241736,-0.09111316827111197,-0.40581174036895756,11.003124799186569,0.41808999073595593,0.09698776850000024,0.047856451999999994,-0.05030811450000172
150162.0,-1.1098185805,-2.0530221775,10.6809128475,0.03859970173710659,-0.12442103171617176,-0.454307458964872,10.932908880934681,0.4726159089351829,0.12444638849999978,0.05982056499999988,-0.046679653999998294
150172.0,-0.9518334489999999,-1.9776090389999998,10.546855941999999,0.029007372168145754,-0.14547144782447535,-0.49054573022403025,10.772794191251888,0.5124826662564086,0.15798513150000015,0.07541313850000009,-0.13405690550000138
150182.0,-0.7913966549999999,-1.9273009245,10.4127990365,0.017816321004358114,-0.148668891014129,-0.5195914996357198,10.61918929549987,0.5407357829321059,0.160436794,0.050308114499999945,-0.1340569054999996
150192.0,-0.6465524345,-1.8614983029999999,10.2547158385,0.003426081321664869,-0.1254874278891403,-0.5438393589336771,10.442337042588335,0.5581398399297864,0.1448442204999999,0.06580262150000005,-0.15808319799999992
150202.0,-0.4992565514999999,-1.7992260754999998,10.107518021999999,-0.01762433478663874,-0.07299315997690685,-0.5672878574342209,10.278540370112362,0.5722360804531595,0.14729588300000007,0.062272227500000055,-0.1471978165000003
150212.0,-0.36284605,-1.7286181955,10.003371398999999,-0.032812189937493394,-0.0021153390534171274,-0.5838073988043473,10.158110920252126,0.5847325827816535,0.13641050149999995,0.07060787999999985,-0.1041466230000001
150222.0,-0.25742456249999995,-1.6579122489999998,10.0105302535,-0.03307922531304853,0.06823190177746633,-0.5910033913103199,10.150155485853473,0.5958479974857517,0.10542148750000002,0.07070594650000017,0.0071588545000018655
150232.0,-0.18201142399999998,-1.6028969425,10.051227850999998,-0.022153464195564028,0.11992506356303437,-0.5934014737025601,10.179861889016982,0.6058036858907613,0.07541313849999998,0.05501530649999986,0.040697597499997684
150242.0,-0.13415497199999998,-1.5597476824999998,10.1350747085,-0.00456752665246916,0.14390588748543648,-0.5907363559347647,10.255269364402517,0.6080289540603944,0.047856451999999994,0.04314926000000008,0.08384685750000109
150252.0,-0.073157609,-1.5107144325,10.211664644999999,0.011953760046909163,0.15296589163253904,-0.5870048419940008,10.32306664486195,0.6067257542799701,0.060997362999999985,0.04903324999999992,0.07658993649999957
150262.0,-0.027654752999999997,-1.5226785454999998,10.295413436,0.020479693442901462,0.15083484461585397,-0.5843414695554575,10.407442171660568,0.6038422983164029,0.045502856,-0.011964112999999887,0.08374879100000143
150272.0,-0.0348136075,-1.5022807134999998,10.3780834955,0.02634225440035042,0.13831036190354265,-0.583275073382489,10.486308996448212,0.6000279008563931,-0.007158854500000006,0.020397832000000005,0.08267005949999984
150282.0,-0.027654752999999997,-1.519050085,10.417604295,0.026075219024795284,0.12338954212824312,-0.5886053089180797,10.527808755543788,0.6019643725673112,0.007158854500000006,-0.01676937150000013,0.03952079949999998
150292.0,0.020299765499999997,-1.542978311,10.4235863515,0.014618877814704504,0.13218251089979055,-0.5968642069385168,10.537188741589135,0.6115004573184546,0.047954518499999994,-0.023928225999999997,0.0059820564999988335
150302.0,0.036971070499999995,-1.5203249495,10.452319836,-0.0066985736691542366,0.15003548381844053,-0.6064582818367297,10.562374011848148,0.6247776923852139,0.016671304999999997,0.02265336149999997,0.028733484500000017
150312.0,0.0442279915,-1.5095376345,10.488212174999997,-0.02908242132598151,0.1620258957796416,-0.6168499722031039,10.5963793162109,0.6384372062625636,0.0072569210000000064,0.010787314999999964,0.03589233899999833
150322.0,0.0801203305,-1.608878999,10.526458109999998,-0.04160515870904083,0.15483164860292095,-0.624843580177238,10.64900141996269,0.645083969982987,0.035892339,-0.09934136450000008,0.03824593500000084
150332.0,0.11964113,-1.6663459679999997,10.532440166499999,-0.04427027647683617,0.12312250675268799,-0.6355023059191673,10.664113594010525,0.648831403275905,0.039520799499999995,-0.05746696899999959,0.00598205650000061
150342.0,0.19858466249999998,-1.6878225315,10.500176287999999,-0.043737951054977894,0.08341975692832097,-0.64882440409964,10.636817326865058,0.6556256336993855,0.07894353249999998,-0.021476563500000267,-0.03226387850000023
150352.0,0.3027312855,-1.6746816205,10.3912244065,-0.037875390097528945,0.05144357970253286,-0.6581514436222977,10.529660461168833,0.6612445159014669,0.10414662300000002,0.013140911000000033,-0.10895188149999946
150362.0,0.354216198,-1.6244715724999998,10.348173212999999,-0.03574259775159187,0.05091125428067459,-0.6594831298415694,10.480890508493871,0.6624103619751852,0.05148491249999998,0.05021004800000006,-0.043051193500000196
150372.0,0.37579082799999997,-1.575340256,10.2762904685,-0.04480260189869444,0.07835655676828542,-0.6517565572429905,10.403127484634945,0.6579769243937891,0.021574629999999984,0.0491313164999998,-0.07188274449999987
150382.0,0.385401345,-1.588481167,10.269131614,-0.05812644540841915,0.11646058499782562,-0.6472256825048133,10.39840712418473,0.660183940737485,0.00961051700000004,-0.013140911000000033,-0.007158854499998313
150392.0,0.38177288449999996,-1.6268251685,10.278742131,-0.06558772796069491,0.166822060564122,-0.6453616708636833,10.413685728876155,0.6697932786837076,-0.0036284605000000414,-0.038344001499999836,0.009610516999998708
150402.0,0.38422454699999997,-1.631630427,10.2894313795,-0.07864453609486449,0.21745057150597352,-0.6437629492688565,10.42507767195376,0.684032491156076,0.002451662500000007,-0.00480525850000002,0.010689248500000303
150412.0,0.3709855695,-1.6136842574999999,10.348173212999999,-0.10049431300058151,0.25875204292516735,-0.6432288785177462,10.479804197690495,0.7005677103768086,-0.013238977499999971,0.017946169500000053,0.058741833499999174
150422.0,0.3111650045,-1.5801455144999998,10.379260293499998,-0.11967897213850318,0.29019414939984517,-0.6365669567628839,10.503462655107867,0.7097557264019696,-0.05982056499999999,0.03353874300000004,0.031087080499998976
150432.0,0.28360831799999997,-1.577693852,10.4475145775,-0.13380217644564127,0.2968560711547076,-0.6293727095861632,10.569773527174194,0.708615944623622,-0.02755668650000004,0.0024516624999999515,0.06825428400000177
150442.0,0.24889277699999998,-1.587304369,10.458301892499998,-0.1346015372430547,0.2835322276449828,-0.622977823206856,10.581000011764402,0.6975739861470412,-0.03471554099999999,-0.00961051700000004,0.010787314999998188
150452.0,0.222610955,-1.5813223125,10.501353086,-0.12021129756036145,0.25262244659216326,-0.6203127054390607,10.6220785409513,0.6804827030222613,-0.026281821999999982,0.005982056499999944,0.04305119350000197
150462.0,0.19024901,-1.5813223125,10.5157688615,-0.09489704208943568,0.2113209751729694,-0.6240442193798245,10.635702595047933,0.6656524550294646,-0.032361945,0.0,0.014415775499999839
150472.0,0.19858466249999998,-1.5681814015,10.5744126285,-0.0725149397618604,0.16628973514226372,-0.6277739879913364,10.691904938502352,0.6534606893309628,0.008335652499999985,0.013140911000000033,0.058643766999999514
150482.0,0.2178056965,-1.542978311,10.583925079,-0.0631896455684547,0.12898506771013693,-0.626974627193923,10.698022783090781,0.6432163416333686,0.019221034000000026,0.025203090500000025,0.009512450500000824
150492.0,0.2201592925,-1.4999271175,10.537245425,-0.07304726518371867,0.10340377686365605,-0.6200474153927575,10.645740585725795,0.6328404548981742,0.0023535959999999856,0.04305119349999997,-0.04667965400000007
150502.0,0.23330020349999997,-1.5118912304999998,10.4630090845,-0.09623047363795936,0.09168040027801014,-0.6115197366675132,10.574251896949754,0.6257970822763773,0.013140910999999977,-0.011964112999999887,-0.07423634050000061
150512.0,0.26085688999999995,-1.5621993449999998,10.367296180499999,-0.12234408990629851,0.1084669770236916,-0.6029938032715209,10.48758042661837,0.6247677074109321,0.027556686499999983,-0.050308114499999945,-0.09571290400000088
150522.0,0.2405571245,-1.645948136,10.3074756155,-0.13859834123012169,0.1497684484428854,-0.5968642069385168,10.440836487594119,0.6307828230580436,-0.020299765499999955,-0.0837487910000001,-0.05982056499999899
150532.0,0.20456671899999998,-1.7045919029999999,10.246380186,-0.14499322760942893,0.19506672384914625,-0.593134438327005,10.389214985471662,0.641001189340028,-0.03599040550000002,-0.05864376699999996,-0.06109542949999991
150542.0,0.1603387275,-1.7716693889999997,10.2535390405,-0.1455255530312872,0.22730993645048947,-0.5960648461411034,10.406708595253045,0.6543246859162543,-0.04422799149999998,-0.06707748599999985,0.007158854500000089
150552.0,0.1411176935,-1.8052081319999997,10.360137326,-0.1369996196352949,0.23050737964014312,-0.6037931640689344,10.517182893571649,0.6606578031213706,-0.019221033999999998,-0.03353874300000004,0.1065982855000005
150562.0,0.1603387275,-1.7896155585,10.441532521,-0.12101065835777484,0.1956007946002565,-0.6104550858237967,10.595000412546579,0.6523485740710812,0.019221033999999998,0.015592573499999762,0.08139519499999892
150572.0,0.18063849299999998,-1.7812799059999997,10.424763149499999,-0.10102663842243978,0.14204187584430653,-0.6176493330005173,10.577394532296024,0.6417733047738053,0.020299765499999983,0.008335652500000235,-0.016769371500000574
150582.0,0.24408751849999996,-1.7788282434999998,10.400834923499998,-0.08237430470637637,0.08661720011797458,-0.6187139838442338,10.554675539421284,0.6301547899020835,0.06344902549999998,0.0024516624999999515,-0.023928226000000663
150592.0,0.306359746,-1.7321485895,10.3325806395,-0.06771877497737998,0.0525099758755014,-0.6144518898108637,10.481241229064725,0.6203984646523754,0.06227222750000003,0.04667965399999985,-0.06825428399999822
150602.0,0.31950065699999997,-1.734600252,10.309829211499999,-0.05945813162769082,0.04185125013357203,-0.6053918856637611,10.459612663686958,0.6097426766939665,0.013140910999999977,-0.0024516624999999515,-0.022751428000001184
150612.0,0.32793437599999997,-1.758528478,10.3074756155,-0.04613603344721811,0.040784853960603495,-0.6021944424741075,10.461549451540465,0.6053346879549624,0.008433719000000006,-0.023928225999999997,-0.0023535959999989586
150622.0,0.317147061,-1.8015796715,10.3912244065,-0.02908242132598151,0.029860838172370986,-0.6075229326804462,10.551010199848365,0.608951205450148,-0.010787314999999964,-0.043051193500000196,0.08374879099999966
150632.0,0.3231291175,-1.7716693889999997,10.446337779499999,-0.006965609044709369,-0.003979350694547071,-0.6259099763502065,10.600433852154586,0.6259613833424791,0.005982056499999999,0.029910282500000385,0.0551133729999993
150642.0,0.41531162749999995,-1.7405823085,10.475071263999999,0.01115439924949576,-0.04021936728295732,-0.6549540004326441,10.626816480323654,0.6562825312393912,0.09218250999999994,0.031087080499999642,0.028733484500000017
150652.0,0.524263509,-1.655558653,10.5408738855,0.01914800722362979,-0.08018915248287947,-0.6760044165409477,10.682965363156805,0.6810131551882282,0.10895188150000001,0.08502365550000013,0.06580262150000138
150662.0,0.596048187,-1.6280019664999998,10.559996853000001,0.021813124991425133,-0.1316152788928924,-0.6810676167009833,10.701364276554825,0.6940111617104604,0.07178467799999999,0.027556686500000094,0.01912296750000131
150672.0,0.7301050925,-1.7238129369999997,10.5659789095,0.019680332645488057,-0.18570826839995264,-0.6704088909590539,10.730540284806809,0.6959331559295724,0.13405690550000005,-0.09581097049999987,0.0059820564999988335
150682.0,0.8390569739999999,-1.7872619625,10.472619601499998,0.0028937558998065986,-0.20809037072752795,-0.6498908002726085,10.657114208168146,0.6823987313086823,0.1089518814999999,-0.0634490255000002,-0.09335930800000192
150692.0,0.9156469104999999,-1.7441127025,10.388870810499998,-0.03068114292080832,-0.19210315477925988,-0.6200474153927575,10.573976314565346,0.6498490224216007,0.07658993650000001,0.043149259999999856,-0.08374879099999966
150702.0,1.0031222285,-1.8351184145,10.3074756155,-0.07491302215410062,-0.14760424017041246,-0.5816763517876621,10.517507659358984,0.6047696675872142,0.08747531800000019,-0.09100571199999985,-0.08139519499999892
150712.0,1.0042990265,-1.9273009245,10.255990702999998,-0.11621449357329443,-0.09111316827111197,-0.5473020921696339,10.483723131036502,0.5668747639842117,0.0011767979999999234,-0.09218251,-0.0514849125000012
150722.0,0.9839011945,-1.9703521179999997,10.120658933,-0.14978939239390934,-0.042617449675197545,-0.5286497584535704,10.357513517614075,0.5511113101756967,-0.020397832000000005,-0.04305119349999975,-0.13533176999999874
150732.0,0.9587961704999999,-1.9979088044999997,9.990230488,-0.16844172610997274,0.0010821041362364843,-0.5185251034627514,10.233065762078771,0.5451991094685736,-0.025105024000000142,-0.027556686500000094,-0.13042844499999973
150742.0,0.919275371,-2.0769504035,9.913542484999999,-0.1633785259499372,0.03678804997353648,-0.5195914996357198,10.17040386554172,0.5459132072556278,-0.03952079949999987,-0.0790415990000004,-0.076688003000001
150752.0,0.9528141139999999,-2.130788912,9.907560428499998,-0.1314040940534011,0.07062998416970653,-0.523588303622787,10.178795103926536,0.5444266179095175,0.033538742999999926,-0.053838508499999715,-0.00598205650000061
150762.0,0.9923349134999999,-2.1020554275,10.004548197,-0.09169959889978206,0.09727592585990395,-0.5243876644202004,10.271044261754946,0.5411597220658195,0.03952079949999998,0.028733484500000017,0.09698776850000179
150772.0,1.0054758245,-2.0482169189999997,10.112323280499998,-0.05919109625213569,0.11299610643261689,-0.5134619033027158,10.366545051765032,0.5290697799796434,0.013140911000000033,0.05383850850000016,0.1077750834999982
150782.0,1.043819826,-2.035076008,10.233239275,-0.043737951054977894,0.11805930659265244,-0.4921444518188571,10.485717917571998,0.5079932772111349,0.03834400150000006,0.01314091099999981,0.12091599450000245
150792.0,1.0617659955,-2.015854974,10.294236638,-0.04959876668317486,0.11406250260558543,-0.4692300240694235,10.543354602048732,0.48543496747281495,0.017946169500000053,0.01922103400000008,0.06099736299999847
150802.0,1.058137535,-2.025465491,10.247556984000001,-0.0709162181670336,0.10473720841217972,-0.4420500116281158,10.499266147618838,0.4597903931200694,-0.003628460500000097,-0.00961051700000004,-0.046679653999998294
150812.0,1.0845174235,-2.0673398864999997,10.199700531999998,-0.09436471666757741,0.0983405767036205,-0.4202002347223988,10.463458471780253,0.44175084158257344,0.02637988849999995,-0.04187439549999983,-0.0478564520000031
150822.0,1.0353861069999999,-2.1379477665,10.124287393499998,-0.10075960304688464,0.09514313351396689,-0.4012808656307803,10.399232676935059,0.42453627239896785,-0.04913131650000002,-0.07060788000000029,-0.07541313850000009
150832.0,1.012634679,-2.1859022849999996,10.0811381335,-0.08557174789602998,0.09327912187283695,-0.39035684984254776,10.36498643797422,0.4103681138128871,-0.02275142799999985,-0.047954518499999654,-0.04314925999999808
150842.0,0.9803708005,-2.177468566,10.0236711645,-0.06105685322251763,0.10020633367400243,-0.3882240574966107,10.304197197085267,0.4055701757439189,-0.03226387850000001,0.008433718999999673,-0.057466969000000034
150852.0,1.000670566,-2.155893936,10.0452457945,-0.04000643711421402,0.10393784761476631,-0.38689237127733905,10.322605451961257,0.4026031521609913,0.0202997654999999,0.021574629999999928,0.021574629999999928
150862.0,1.0378377694999998,-2.155893936,10.0464225925,-0.032545154561938267,0.11379546723003028,-0.38049748489803176,10.32741946500561,0.3984807792871436,0.03716720349999991,0.0,0.0011767980000012557
150872.0,1.0904994799999999,-2.1128427425,10.005724995,-0.03973940173865889,0.12818570691272355,-0.36824003756127566,10.284348605817625,0.39193305649101723,0.052661710500000014,0.043051193500000196,-0.04069759750000124
150882.0,1.1287454149999998,-2.070968347,9.948258026,-0.0530632452483836,0.15163420541326736,-0.34958770384521226,10.224031194105036,0.3847339378419467,0.03824593499999995,0.04187439549999983,-0.057466969000000034
150892.0,1.1383559319999998,-2.1020554275,9.8681376955,-0.06478836716328151,0.180678229495705,-0.3285372877369086,10.1535527193958,0.3804982320154866,0.00961051700000004,-0.031087080499999864,-0.08012033049999978
150902.0,1.1227633584999999,-2.128435316,9.863332436999999,-0.06665237880441145,0.20998928895369776,-0.3069528008774947,10.152643065545176,0.37783337999984234,-0.015592573499999984,-0.02637988850000017,-0.0048052585000011305
150912.0,1.0186167355,-2.1151963384999997,9.876473348,-0.06212324939548617,0.238233952238722,-0.28537005934733284,10.151667912121573,0.37689625215254624,-0.10414662299999988,0.01323897750000036,0.013140911000000699
150922.0,0.9503624514999999,-2.1679561154999996,9.9256046645,-0.048799405885761454,0.23876802298983227,-0.27444604355910035,10.203962488362013,0.36703158126041413,-0.06825428400000011,-0.0527597769999999,0.049131316500000466
150932.0,0.9468320574999999,-2.177468566,10.060838367999999,-0.024284511212249102,0.2142531283163199,-0.2704474942427813,10.337230236772744,0.3458843558479431,-0.0035303939999999923,-0.00951245050000038,0.13523370349999908
150942.0,0.919275371,-2.140399429,10.167338587,-0.004300491276914028,0.17561502933566941,-0.2632532470660607,10.430779015303214,0.3164828665893546,-0.027556686499999872,0.03706913700000003,0.10650021900000084
150952.0,0.9001524034999999,-2.098426967,10.224805556,0.0036931166972200015,0.13511291871388903,-0.2491317880881746,10.476655895053923,0.2834356853861849,-0.019122967500000088,0.04197246199999993,0.057466969000000034
150962.0,0.8714189189999999,-2.0781272014999996,10.223628757999998,-0.0011030480872604165,0.10500249845848286,-0.2291460228235875,10.469029017984903,0.2520607886472519,-0.028733484500000017,0.020299765500000344,-0.0011767980000012557
150972.0,0.8282696589999999,-2.098426967,10.1278177875,-0.020821777976292352,0.09168040027801014,-0.2104936891075241,10.37603582784168,0.2305351066265726,-0.04314925999999997,-0.020299765500000344,-0.09581097049999876
150982.0,0.8103234894999999,-2.1703097115,10.0224943665,-0.040805797911627424,0.08235336075535243,-0.2048981635256303,10.28675175786754,0.22456724290751254,-0.017946169500000053,-0.07188274449999987,-0.10532342099999958
150992.0,0.7852184655,-2.208653713,9.933940317,-0.046401323493521246,0.07409271740566327,-0.21129304990493752,10.206757050318622,0.22866474702637551,-0.02510502399999992,-0.03834400150000006,-0.08855404950000079
151002.0,1.0629427935,-2.139222631,9.814201120499998,-0.020554742600737218,0.06236934082001737,-0.19210839076701586,10.100725938310552,0.20302232862618463,0.277724328,0.06943108199999992,-0.1197391965000012
151012.0,1.1012867949999998,-1.8925853835,9.8010602095,0.010088003076527224,0.07169463501342307,-0.16253029593346796,10.042683569092645,0.177926910814527,0.038344001499999836,0.24663724750000005,-0.013140910999998923
151022.0,1.1921944405,-1.932106183,9.8608807745,0.013020156219877699,0.09647656506249055,-0.14174691520071947,10.11886018952973,0.1719576693351214,0.09090764550000019,-0.03952079949999998,0.05982056500000077
151032.0,1.2018049575,-1.9643700614999997,9.9603202055,-0.014159856221429996,0.13777803648168438,-0.09564927899704524,10.223065268816425,0.1683213398164788,0.00961051700000004,-0.03226387849999979,0.09943943100000041
151042.0,1.0892246155,-1.924849262,9.967479059999999,-0.05039812748058826,0.17907950790087818,-0.05194972518561122,10.20990175055429,0.19315334672335047,-0.112580342,0.03952079949999976,0.007158854499998313
151052.0,1.0018473639999999,-2.035076008,9.9962125445,-0.07198261434000214,0.19906352783621326,-0.021839304930205045,10.250341347189865,0.21280211493698742,-0.0873772515000002,-0.11022674599999993,0.028733484500001794
151062.0,0.9576193725,-2.116471203,10.014158714,-0.07890982614116764,0.19586608464655966,-0.0002548180707911721,10.28007100972059,0.21116426948859454,-0.0442279914999999,-0.08139519500000025,0.017946169500000053
151072.0,0.805518231,-2.177468566,10.002194601,-0.08557174789602998,0.1705535745048859,0.02159495883492584,10.268112086097668,0.19203486157845798,-0.15210114149999998,-0.060997362999999805,-0.01196411300000122
151082.0,0.6594972125,-2.292402504,9.969832656,-0.08210726933082123,0.15270060158623588,0.04051432792654437,10.251224756207657,0.17804630905778962,-0.14602101849999993,-0.11493393800000007,-0.03236194499999989
151092.0,0.5744735569999999,-2.4384235225,10.105164426,-0.06638708875810831,0.1636246173744684,0.03998025717543411,10.411065133754061,0.1810488385174895,-0.08502365550000013,-0.14602101849999993,0.13533177000000052
151102.0,0.4943532265,-2.4372467245,10.2535390405,-0.055993653062482086,0.17508270391381117,0.012534954687823273,10.55081132253319,0.18424540016531935,-0.08012033049999989,0.0011767979999999234,0.14837461449999978
151112.0,0.32793437599999997,-2.2852436495,10.446337779499999,-0.06745173960182485,0.13617931488685756,-0.01704314014572463,10.698404203242255,0.15292158645656637,-0.16641885050000005,0.1520030750000001,0.19279873899999878
151122.0,0.2752726655,-2.1679561154999996,10.490565770999998,-0.09143430885347895,0.04451636790136737,-0.04155628948998498,10.715772438549733,0.1098583863108261,-0.05266171049999996,0.11728753400000036,0.044227991499999675
151132.0,0.388931739,-2.1463814855,10.5312633685,-0.11035193261584547,-0.05460786163639858,-0.061542054754572056,10.754800301056672,0.13764807331730763,0.11365907349999999,0.021574629999999484,0.04069759750000124
151142.0,0.585260872,-2.116471203,10.374455035,-0.11008664256954234,-0.14840360096782584,-0.07379950209132823,10.604305630952897,0.19897000819565697,0.196329133,0.02991028249999994,-0.156808333499999
151152.0,0.8893650885000001,-2.0649862905,10.282272525,-0.09436471666757741,-0.21555165327980366,-0.07726223532728498,10.525220516405604,0.24766240730312225,0.3041042165000001,0.05148491250000031,-0.09218251000000066
151162.0,1.150320045,-1.9882982875,10.1972488695,-0.07757813992189595,-0.2584518462938243,-0.05860990161122158,10.452772397432332,0.2761355558657829,0.2609549564999999,0.0766880029999999,-0.08502365550000057
151172.0,1.173071473,-1.8590466404999997,10.168613451499999,-0.07864453609486449,-0.28429842718660836,-0.02503674811985866,10.403501844011345,0.2960361422441067,0.022751428000000073,0.12925164700000025,-0.028635418000000357
151182.0,1.242502555,-1.9105315529999998,10.1038895615,-0.09383239124571914,-0.2885622665492305,0.01706408409674856,10.357727920986282,0.3039142679917805,0.06943108199999992,-0.05148491250000009,-0.06472388999999801
151192.0,1.3179156935,-1.8746392139999999,10.050051053,-0.09116727347792379,-0.29682290989891963,0.07355515599604903,10.30799205110998,0.3191013515606974,0.07541313850000009,0.035892338999999884,-0.05383850850000016
151202.0,1.3634185494999997,-1.9631932635,10.0656436265,-0.07224790438630527,-0.30135203930784493,0.11912046677786499,10.34554104658971,0.3319977362702735,0.0455028559999997,-0.08855404950000012,0.015592573499999318
151212.0,1.3634185494999997,-2.0757736055,10.109871618,-0.04400324110128104,-0.29362546670926604,0.15615809883443665,10.410439488074127,0.3354661708119575,0.0,-0.11258034199999978,0.044227991499999675
151222.0,1.311933637,-2.005067659,10.156551271999998,-0.020022417178878947,-0.30135203930784493,0.1891989269039413,10.435372534118011,0.356384880047239,-0.05148491249999965,0.07070594649999995,0.046679653999998294
151232.0,1.4544242614999998,-1.9847678934999997,10.188913217,-0.008831366015091307,-0.33039606339028255,0.22677062971162323,10.481822650048299,0.4008297272275277,0.14249062449999972,0.020299765500000122,0.03236194500000167
