timestamp,ax,ay,az,gx,gy,gz,acc_mag,gyro_mag,dax,day,daz
54962.0,2.9160073774999997,-5.236162701,7.128944217499999,-0.7793453615515319,0.017114698645056395,0.04233819699487845,9.313557027967601,0.7806821558139883,0.0,0.0,0.0
54972.0,2.7124213234999996,-6.414137499,7.085893024,-0.785473212555284,0.10078403765641256,0.09030159016893462,9.935203532883829,0.7970445201337789,-0.20358605400000007,-1.1779747980000002,-0.04305119349999931
54982.0,2.8788401739999996,-6.9612505024999995,7.0367617075,-0.7167264386484794,0.1703301723606306,0.12227602206547072,10.308382251067874,0.7467667514333308,0.16641885049999994,-0.5471130034999998,-0.04913131649999958
54992.0,2.7040856709999996,-7.151597579,6.99606411,-0.5717698629533423,0.22522252266510426,0.13400114398036864,10.363510036628336,0.6289692102840685,-0.17475450299999995,-0.19034707650000016,-0.04069759750000035
55002.0,2.5831696765,-7.254567403999999,6.920650971499999,-0.3927078083449841,0.22255740489730894,0.1515870815234635,10.353594721935579,0.47616159493867904,-0.12091599449999979,-0.10296982499999974,-0.07541313850000098
55012.0,2.5675771029999996,-7.344298251499999,6.844061034999999,-0.2107136005932754,0.1796572118832883,0.16730900742542842,10.362062557118687,0.323526257392412,-0.015592573500000206,-0.08973084749999938,-0.07658993649999957
55022.0,2.6059211045,-7.3658728815000005,6.7458964685,-0.03991218933460633,0.10904468100610172,0.16437685428207796,10.32250101831026,0.20125475283052432,0.0383440015000005,-0.021574630000001704,-0.0981645664999995
55032.0,2.6884930975,-7.2437800889999995,6.5268159075,0.1010475823734637,0.03283662454702132,0.1390643441404042,10.11432998292487,0.17500785589899887,0.08257199299999973,0.12209279250000105,-0.21908056100000017
55042.0,2.8512834875,-7.090502149499999,6.3053817505,0.20416861589829668,-0.008998917623282763,0.12067730047064393,9.90771806611859,0.23733692313902385,0.16279039000000006,0.15327793950000057,-0.22143415700000002
55052.0,2.9866152574999996,-6.931340219999999,6.1557322715,0.266253468050239,0.014184290830957916,0.12121137122175418,9.739424404969114,0.29288956940904315,0.13533176999999963,0.15916192949999974,-0.1496494789999998
55062.0,3.017702338,-6.7745318865,5.968915589,0.2944981313352632,0.08906066107076666,0.13586690095075057,9.519914022226416,0.3363343061364466,0.031087080500000308,0.156808333499999,-0.18681668249999994
55072.0,2.9650406275,-6.645182172999999,5.897130911,0.3123511042539132,0.18578506288704041,0.1515870815234635,9.36621935556467,0.3937739773085338,-0.05266171049999979,0.1293497135000008,-0.07178467800000021
55082.0,2.7806756075,-6.513478863499999,5.959403138499999,0.34059751286818946,0.2614607939242625,0.16810836822284184,9.25591970074127,0.46111694395028335,-0.18436502,0.13170330950000064,0.06227222749999939
55092.0,2.5735591595,-6.5003379525,6.033639479,0.38376299592851315,0.29610208891784595,0.17823302321366094,9.23484735156492,0.5164469911514843,-0.20711644800000029,0.013140910999998923,0.07423634050000061
55102.0,2.4682357385,-6.5662386405,6.1090526175,0.4354579030433332,0.27371824126101874,0.17130581141249543,9.302053613487052,0.5421170924676842,-0.10532342099999958,-0.06590068800000015,0.07541313850000009
55112.0,2.4562716255,-6.606936237999999,6.0898315835,0.4935459512082085,0.18951657682780426,0.1345334694022269,9.315091275270904,0.5455303779222054,-0.011964113000000332,-0.04069759749999946,-0.01922103400000008
55122.0,2.5113849984999996,-6.517107324,5.943810565,0.5492376623100956,0.07626914298290022,0.07324797804769802,9.171075537570875,0.5593248234785229,0.055113372999999743,0.08982891399999904,-0.14602101849999993
55132.0,2.5305079659999996,-6.3639274509999995,5.719924745499999,0.6043953026608724,-0.0026022859147235454,0.011693705988362009,8.923036605425533,0.604514016818677,0.019122967499999977,0.1531798730000009,-0.22388581950000042
55142.0,2.5808160805,-6.075415807999999,5.5607628159999996,0.6582195114631255,-0.004735078260660616,-0.031206487025658612,8.630954291228283,0.6589758653163049,0.05030811450000039,0.28851164300000054,-0.15916192949999974
55152.0,2.621513678,-5.833583819,5.4410236195,0.6992556928360162,0.07040832735470325,-0.05065818153913541,8.396890624820392,0.7046148649307054,0.040697597499999905,0.2418319889999987,-0.11973919649999942
55162.0,2.7004572104999998,-5.639608282,5.467403507999999,0.7235035521339733,0.184985702089627,-0.05305626393137562,8.306031052159335,0.7486601813041917,0.07894353249999986,0.19397553700000003,0.026379888499999282
55172.0,2.762729438,-5.5139850955,5.6469632695,0.7360262895170326,0.2875744101926017,-0.048792424568753476,8.362110962434668,0.7917161366001901,0.06227222750000028,0.12562318650000037,0.1795597615000002
55182.0,2.820196407,-5.4241561815,5.9390053064999995,0.7426882112718951,0.3419326897459651,-0.04026649117276118,8.523306992358982,0.8186117112468667,0.057466969000000034,0.08982891399999993,0.29204203699999987
55192.0,2.9291482885,-5.3942458989999995,6.1580858675,0.7432222820230053,0.3224809952324883,-0.03466922026161536,8.69481570054271,0.810910172346585,0.1089518814999999,0.029910282500000385,0.21908056100000017
55202.0,3.1314594779999996,-5.456518126499999,6.380794889,0.7400248388333517,0.2361465384533368,-0.02854136925786327,8.960701531837092,0.7773136815166289,0.2023111894999996,-0.06227222749999939,0.22270902150000005
55212.0,3.3325938695,-5.477994689999999,6.538780020499999,0.7378920464874147,0.13036213248996045,-0.021080086705587513,9.158070314164833,0.7496154533574064,0.20113439150000056,-0.021476563500000267,0.15798513149999938
55222.0,3.397219693,-5.3678660105,6.6333161265,0.7477514114319307,0.06481105644355743,-0.0008290313946973066,9.184550614116793,0.750555350143364,0.06462582349999968,0.11012867949999894,0.09453610600000051
55232.0,3.235606101,-5.094946941,6.6884294995,0.756544380203478,0.04722511890046257,0.04153883619746504,9.009035483458565,0.7591541911794121,-0.1616135919999997,0.27291906950000033,0.05511337300000019
55242.0,2.9781815385,-4.9022462685,6.787770864,0.7618746157390688,0.0661444879920811,0.1081545630875846,8.886811411043428,0.772350589380208,-0.25742456250000023,0.1927006725,0.09934136449999986
55252.0,2.8405942389999996,-4.8328151864999995,7.042743764,0.7672031059454074,0.09172403350931,0.17823302321366094,9.001406444709954,0.7929570698716157,-0.13758729950000026,0.06943108200000037,0.2549729000000003
55262.0,2.7160497839999995,-4.845956097499999,7.2785936965,0.7650720589287223,0.07573681756104195,0.22966089495292585,9.156317115892907,0.802381111167435,-0.12454445500000011,-0.01314091099999981,0.23584993249999986
55272.0,2.510110134,-4.799276443499999,7.411473803999999,0.7549456586086513,-0.010597639218109568,0.251777707234198,9.179523474196344,0.7958940075595222,-0.20593964999999947,0.04667965400000007,0.13288010749999923
55282.0,2.3748764304999996,-4.877043177999999,7.4664891104999995,0.7616075803635135,-0.17127439548595955,0.22673048713882737,9.22897870067083,0.8128885156123541,-0.1352337035000004,-0.07776673449999993,0.05501530650000053
55292.0,2.4921639645,-5.151237112,7.547884305499999,0.8194303384820857,-0.3543332540813848,0.17157284678805057,9.471889067087497,0.9090959115119398,0.11728753400000036,-0.27419393400000036,0.08139519499999981
55302.0,2.6969268164999995,-5.4037583494999994,7.6712519624999995,0.9348088193436749,-0.47530726052486777,0.09349903335858822,9.76330503597567,1.05286589358254,0.20476285199999955,-0.2525212374999999,0.12336765700000019
55312.0,2.969845886,-5.492410465499999,7.9011198385,1.0616436414153547,-0.4990227944009667,-0.010688396339213275,10.070464339367044,1.1731262559953672,0.27291906950000033,-0.08865211599999956,0.22986787600000014
55322.0,3.1530341079999995,-5.387087044499999,8.1823745605,1.129858089900301,-0.4209489809715044,-0.11327710444218798,10.291432570810958,1.2110363538246534,0.18318822199999962,0.10532342099999958,0.2812547219999999
55332.0,3.1517592435,-5.0518957475,8.522371116,1.101880461990832,-0.26320263251775283,-0.19268260409092197,10.396443931048124,1.149148712830791,-0.001274864499999584,0.3351912969999997,0.33999655550000085
55342.0,3.0440822265,-4.665219538,8.716346653,0.9814387809692074,-0.08680569567718997,-0.24810553448800193,10.344341879244634,1.0160283784599238,-0.10767701699999987,0.38667620950000003,0.19397553700000003
55352.0,3.006915023,-4.423387549,8.962885834,0.8170322560898455,0.06854257038432131,-0.28567723729568384,10.437490974248034,0.8682460914712182,-0.037167203500000134,0.24183198899999958,0.24653918099999927
55362.0,2.971022684,-4.260597159,9.205894620999999,0.6672795156102281,0.21189867915537955,-0.303797245589889,10.570154195331218,0.76318789862577,-0.035892339000000106,0.1627903900000005,0.24300878699999906
55372.0,2.863345667,-4.2701096094999995,9.458513925,0.5585629565035013,0.33260739555255936,-0.2915397982531328,10.765503711173519,0.7124715502528268,-0.10767701699999987,-0.009512450499999936,0.2526193040000013
55382.0,2.7531189209999996,-4.3970076605,9.792528424,0.49914147679010235,0.4253349933817661,-0.25130472300690754,11.081829862189359,0.7022863620011782,-0.11022674600000038,-0.1268980510000004,0.33401449900000024
55392.0,2.6442651059999998,-4.574213826,10.1564532055,0.48288722546627916,0.45624477443458566,-0.21319894944811535,11.448541906823332,0.6977056390507154,-0.1088538149999998,-0.17720616550000035,0.36392478149999974
55402.0,2.623867274,-4.810063758499999,10.537049292,0.4844859470611059,0.39842376164526555,-0.1990774904702292,11.876480986152465,0.6581033155631297,-0.02039783199999956,-0.23584993249999897,0.38059608650000065
55412.0,2.7339959534999996,-5.0052160935,10.740635346,0.46743233493986935,0.2262889188380728,-0.2315859931178756,12.16092799304931,0.5686226646420585,0.11012867949999938,-0.1951523350000004,0.20358605399999874
55422.0,2.8381425764999997,-4.969225687999999,10.669929399499999,0.4237327811284353,-0.04150742027092914,-0.2971353238350266,12.10766908257471,0.5191933516628773,0.1041466230000001,0.035990405500000655,-0.0707059465000004
55432.0,2.69094476,-4.7047403375,10.8878331625,0.3030258100605075,-0.31196538648922245,-0.42264020501668687,12.162264440436486,0.606441907215146,-0.14719781649999986,0.2644853504999993,0.2179037630000007
55442.0,2.622690476,-4.332381837,10.509590672,0.12236328852807046,-0.551250026937645,-0.4663397588281209,11.666170485958878,0.7323401786342384,-0.068254284,0.37235850049999986,-0.3782424904999999
55452.0,2.587974935,-3.7649690679999996,10.2976689655,-0.01140049067402696,-0.6746221157733682,-0.45194951914542764,11.2656376859105,0.8120981086875697,-0.03471554099999974,0.5674127690000002,-0.21192170650000008
55462.0,2.5113849984999996,-3.648858332,10.340720158999998,-0.0684238879951857,-0.6072070280858352,-0.41730996948109617,11.249520662874735,0.7399525755300291,-0.07658993650000046,0.11611073599999955,0.04305119349999842
55472.0,1.6841940709999998,-3.2382538965,10.212645310000001,-0.1438325836568527,-0.5861566119775315,-0.33257423429677146,10.845317984958026,0.6891103011887632,-0.8271909274999998,0.41060443550000025,-0.12807484899999722
55482.0,2.0828343934999998,-3.7254482684999997,10.995608246,-0.27946211982933206,-0.598679349360591,-0.232385353915289,11.79493809273789,0.7003706108087765,0.3986403224999999,-0.4871943719999998,0.7829629359999988
55492.0,2.7579241795,-4.4760492595,11.5450748455,-0.35060697612837693,-0.42547985570968166,-0.17216451340447664,12.6858155410497,0.5775802792689654,0.675089786,-0.7506009910000002,0.5494665995000005
55502.0,3.2271723819999996,-4.6053009065,11.667167638,-0.32982359539562844,-0.22829604747786628,-0.22572343216042665,12.95168864340661,0.46027574039916347,0.46924820249999977,-0.12925164700000025,0.12209279250000016
55512.0,3.6342464234999996,-4.34434595,11.728165000999999,-0.26480659010033564,-0.10412459784472972,-0.3690795409314849,13.024244434541501,0.466030223881552,0.40707404150000004,0.2609549565,0.06099736299999847
55522.0,3.871273154,-3.8631336344999996,11.817993915,-0.18220190193269603,-0.07481528371598893,-0.5526724702780205,13.022117242824352,0.5867211596223585,0.23702673050000023,0.48121231550000054,0.0898289140000017
55532.0,3.560010083,-3.545888507,11.5366411265,-0.12864298317674605,-0.1390311828846163,-0.6933652066105354,12.583365431266293,0.718772562548807,-0.31126307099999995,0.31724512749999967,-0.28135278850000134
55542.0,3.1517592435,-3.998367338,11.646769806,-0.12997641472526972,-0.16807695229630593,-0.6613890293847471,12.710931303902408,0.6946791910432814,-0.40825083949999996,-0.4524788310000001,0.11012867950000071
55552.0,3.3480883765,-4.125265389,11.703059977,-0.03538131459642905,-0.11451803354035593,-0.5470769446961266,12.852592078323928,0.5600530339589014,0.19632913299999988,-0.12689805099999996,0.056290171000000555
55562.0,3.501366316,-3.846364263,11.638434153499999,0.0714694875399158,-0.08200953089270956,-0.4484867859094709,12.747832508621148,0.4614908969219957,0.15327793950000013,0.27890112600000005,-0.0646258235000019
55572.0,3.6366000195,-3.6428762755,11.588126038999999,0.19271052935895389,-0.05296376148101993,-0.3954601925753792,12.679908215605424,0.4430928481343189,0.13523370349999997,0.20348798749999997,-0.050308114499999945
55582.0,4.067602287,-3.6895559295,11.625293242499998,0.38109962348996984,0.013650220079847652,-0.3840021060360364,12.857124651189796,0.5411846902606692,0.4310022674999998,-0.04667965400000007,0.037167203499999246
55592.0,4.2687366785,-3.811648722,11.7306166635,0.6203825186091404,0.09652019829379041,-0.375209137264489,13.052131860975022,0.7314181531526649,0.20113439150000012,-0.12209279250000016,0.10532342100000136
55602.0,4.125069256,-3.8488159255,11.713847291999999,0.8719228610650672,0.16287063513760683,-0.33390766584529513,13.00168445915661,0.9477714116538192,-0.14366742250000009,-0.03716720349999969,-0.016769371500000574
55612.0,3.908342291,-3.6297353645,11.589302837,1.0861585360888673,0.2060361181979306,-0.24917193066097046,12.757823424378365,1.1332598548215225,-0.21672696499999988,0.21908056099999973,-0.12454445499999878
55622.0,3.6988722469999997,-3.5171550225,11.517518159,1.2393740098044415,0.2198922871295136,-0.13885664995941685,12.59782758632688,1.2663655567630305,-0.20947004400000013,0.11258034200000022,-0.07178467800000021
55632.0,3.5384354529999995,-3.4944035944999996,11.458874391999998,1.3297052705706598,0.18845018065483574,-0.021879447503000915,12.49148447014746,1.3431709821892626,-0.16043679400000022,0.022751428000000296,-0.05864376700000129
55642.0,3.3983964909999997,-3.3734875999999994,11.354727768999998,1.3680763341757554,0.12396724611065324,0.07324797804769802,12.323122981026138,1.3756329454211644,-0.14003896199999977,0.12091599450000023,-0.1041466230000001
55652.0,3.4594919204999997,-3.177158467,11.16192903,1.3547524906660304,0.05735151922053367,0.12707218684995117,12.109957883625826,1.3619070630529622,0.06109542949999991,0.19632913299999943,-0.19279873899999878
55662.0,3.6533693909999996,-3.0395711674999997,10.988351325,1.2993295602689505,0.033103659922576446,0.1454592305197114,11.972049349673693,1.3078652630268763,0.19387747049999993,0.13758729950000026,-0.17357770499999958
55672.0,4.0807431979999995,-2.675646386,10.9680515595,1.2081989387053187,0.12343317535954297,0.22726281256068565,12.004570114868274,1.2355682135119013,0.42737380699999994,0.36392478149999974,-0.020299765500000788
55682.0,3.9455094945,-2.1034283584999995,11.185955322499998,0.857799656757929,0.2814465591888496,0.31999215571914436,12.046453939126554,0.9578243035834122,-0.13523370349999952,0.5722180275000004,0.21790376299999892
55692.0,3.7754621834999997,-2.1584436649999996,11.348745712499998,0.47729169988438536,0.4341297074825655,0.38527445106074026,12.153477815053776,0.7514734674874283,-0.17004731100000026,-0.05501530650000008,0.16279038999999962
55702.0,3.5085251704999996,-2.713892321,11.560569352499998,0.15034266176679156,0.5311211446743944,0.40765829871756754,12.382314975640744,0.686205417335556,-0.26693701300000017,-0.5554486560000003,0.21182364000000042
55712.0,3.1984388975,-3.0862508214999997,11.9975536765,-0.1251802499407893,0.5876104712444429,0.4654793115068877,12.794383523044365,0.7600178618508125,-0.3100862729999996,-0.37235850049999986,0.43698432400000264
55722.0,3.1984388975,-3.084975957,12.314798803999999,-0.33488505022641196,0.6379719468107393,0.5131774146346407,13.092034128404528,0.8845944046136202,0.0,0.001274864499999584,0.3172451274999979
55732.0,3.261887923,-3.2394306944999998,12.191529213499999,-0.43267759354490626,0.6846036537655238,0.4894618807585418,13.029474609910636,0.946290122225,0.0634490255000002,-0.1544547374999996,-0.12326959049999964
55742.0,3.4247763794999995,-3.450175603,12.178290236,-0.42814671880672894,0.7075198268442093,0.4220467930710088,13.112725041476713,0.9284489289907933,0.16288845649999928,-0.21074490850000016,-0.013238977499998583
55752.0,3.4163426605,-3.6548403885,12.204670124499998,-0.3327540032097269,0.7293696037499263,0.370885956707299,13.19027021282073,0.8833241977943953,-0.008433718999999673,-0.2046647854999999,0.026379888499997506
55762.0,3.0045614269999996,-3.7661458659999996,12.312347141499998,-0.1414345012646125,0.7085844776879259,0.3519665876156805,13.221389343991362,0.803726420472829,-0.4117812335000002,-0.11130547749999975,0.10767701700000032
55772.0,2.5916033955,-3.9672802575,12.6128228975,0.17965372122478432,0.6401047391566763,0.3349129754944439,13.473641758812525,0.7444301429921354,-0.41295803149999966,-0.20113439150000056,0.30047575600000087
55782.0,2.4299898035,-4.0463218565,13.10364573,0.4421198247981956,0.5705568591232063,0.36182595256019645,13.9277816765216,0.8074175431077895,-0.16161359200000014,-0.07904159899999952,0.490822832500001
55792.0,2.309073809,-3.901477636,13.643599878999998,0.49674339439786214,0.5468430705763594,0.4057925417471856,14.377105663445152,0.8428872585660152,-0.12091599449999979,0.14484422049999957,0.5399541489999979
55802.0,2.1318676434999997,-3.7757563829999996,13.878174947,0.33366855573777193,0.5479077214200759,0.4089899849368392,14.539770829442462,0.7607958885657218,-0.17720616550000035,0.12572125300000048,0.2345750680000016
55812.0,1.985846625,-4.023570428499999,13.566911875999999,0.1290252102829328,0.50047839899713,0.3405085010763377,14.28963973171729,0.6189282446750509,-0.1460210184999997,-0.24781404549999975,-0.31126307100000083
55822.0,1.9139638804999999,-4.5431267454999995,13.1647411595,0.09065414667783747,0.38616631430850934,0.2168711221943114,14.057512872416991,0.4520792853674289,-0.0718827445000001,-0.5195563170000002,-0.4021707164999988
55832.0,2.0134033115,-4.657962617,13.158759103,0.08852309966115239,0.2641259116920579,0.1422617873300578,14.10330988693484,0.3127894699875967,0.09943943099999997,-0.11483587150000041,-0.00598205650000061
55842.0,2.136672902,-4.514393261,13.079717504,0.14261434383896066,0.13862277583964963,0.10175967670827739,14.000861673109528,0.22340581204140633,0.12326959050000008,0.14356935599999954,-0.07904159899999996
55852.0,2.2396427269999997,-4.8914589535,12.614097762,0.363511940617623,0.028305749808844035,0.04393691858970525,13.71341797611641,0.3672500500462723,0.10296982499999974,-0.37706569249999955,-0.46561974199999945
55862.0,2.4790230535,-5.3439377845,12.093364647,0.768269502118376,-0.04683591047726783,-0.008822639368831335,13.451865849379432,0.7697463669033354,0.23938032650000052,-0.45247883099999964,-0.5207331150000005
55872.0,2.6981036145,-5.530656400499999,11.704236775,1.3726054635846805,-0.040173988722405476,-0.02481160064635139,13.223353652543366,1.3734173886910772,0.21908056099999973,-0.1867186159999994,-0.38912787199999954
55882.0,2.737624414,-5.2505784765,12.2729244085,1.8167987395342453,0.08426449628628624,-0.09329133917760091,13.626732378188432,1.8211428936997651,0.03952079949999998,0.28007792399999865,0.5686876334999997
55892.0,2.7531189209999996,-4.5550908585,12.541038219499999,2.0827293216728653,0.3411333289485517,-0.06504667589257666,13.62373502918044,2.111483943940874,0.015494506999999658,0.6954876180000005,0.2681138109999992
55902.0,2.7543937855,-3.867938893,12.846319234,2.1528077817989417,0.6187872876728175,-0.0016283921921107093,13.695822511533267,2.239973594581127,0.0012748645000004721,0.6871519655,0.3052810145000002
55912.0,2.822550003,-3.3292596085,13.0498072215,2.030769124511742,0.8474114570500588,0.08097455064627691,13.760386134790638,2.2019732724223195,0.0681562174999999,0.5386792844999997,0.20348798750000086
55922.0,2.8190196089999997,-2.9030625995,13.505914513,1.6785040855939706,0.8812533912462289,0.144659869722298,14.09909113542452,1.9012916616991467,-0.0035303940000002143,0.426197009,0.4561072915000004
55932.0,2.81058589,-2.5869942699999995,14.4048901185,1.0754998103469378,0.7338987331588517,0.13959666956226247,14.902777986809669,1.3095015932565115,-0.008433718999999673,0.31606832950000063,0.8989756054999987
55942.0,2.494615627,-2.4039041144999995,14.914933984999998,0.39655451401637964,0.5870781458225846,0.13000433999330163,15.311992616739682,0.7202897752337909,-0.3159702630000001,0.18309015549999996,0.5100438664999984
55952.0,2.0253674244999997,-2.2422905225,14.803530441,-0.17420829395856202,0.48022734368623976,0.166509646628015,15.108755524831711,0.5373009340472814,-0.4692482025000002,0.1616135919999997,-0.11140354399999808
55962.0,1.8038352009999998,-2.1763898344999997,14.4851085155,-0.5661743373714485,0.3816354395703321,0.22513176554400058,14.758348920183867,0.7189459652094852,-0.2215322234999999,0.06590068800000015,-0.31842192549999915
55972.0,1.8134457179999999,-2.2577850295,14.185809557499999,-0.7806770477708037,0.29903249673194443,0.2720287625450882,14.478375993640489,0.879134082304679,0.00961051700000004,-0.08139519500000025,-0.2992989580000014
55982.0,1.9104334864999999,-2.4182218234999997,13.983498368,-0.8342359665267537,0.2396110170185455,0.2864172568985294,14.31907048316513,0.9140010570960883,0.09698776850000002,-0.16043679399999977,-0.2023111894999996
55992.0,1.964271995,-2.7246796359999994,13.898572778999998,-0.7641575064006774,0.19164762384448936,0.269630680152848,14.298691159764733,0.8326861413482439,0.05383850850000016,-0.3064578124999997,-0.08492558900000091
56002.0,1.9259279935,-2.907867858,13.9188725445,-0.6343887858563949,0.12023573216988936,0.21980153000840988,14.349212766760841,0.6820692600497534,-0.03834400150000006,-0.1831882220000005,0.020299765500000788
