timestamp,ax,ay,az,gx,gy,gz,acc_mag,gyro_mag,dax,day,daz
112522.0,-0.111403544,-1.8763063445,9.7085835,0.3062162719331531,0.07928158127184243,-0.07333000852254176,9.888858873727491,0.3247018085498117,0.0,0.0,0.0
112532.0,0.422470482,-2.3203514564999996,9.7420241765,0.3096790051691099,0.06942221632732645,-0.046417031456789194,10.023449867453493,0.32074143974795066,0.533874026,-0.44404511199999974,0.03344067649999971
112542.0,0.7744311504999999,-2.207869181,10.0389695385,0.30914667974725163,0.02998475654926258,0.004743804906920587,10.308023055960113,0.3106336409809202,0.3519606684999999,0.11248227549999967,0.29694536200000066
112552.0,0.6440027055,-2.0749890735,10.222059693999999,0.2872969028415346,-0.013180726511061176,0.03538655058418503,10.450398247317423,0.28976792420132463,-0.13042844499999984,0.13288010750000012,0.18309015549999863
112562.0,0.5445632745,-1.7469566309999998,10.3059065515,0.2337379840855846,-0.07579964941411373,0.04418126468498446,10.467096850549327,0.24966180365618648,-0.09943943100000008,0.3280324425000001,0.08384685750000109
112572.0,0.3674551755,-1.573378926,10.408876376499999,0.16738929257102017,-0.10724350121804356,-0.0013840460968315032,10.533529891353723,0.19880206086590063,-0.17710809899999996,0.1735777049999998,0.10296982499999885
112582.0,0.33391643249999997,-1.5818126449999999,10.4914483695,0.10716845206020781,-0.11869984242813436,-0.054942964852781495,10.615277684434808,0.16909600555973806,-0.03353874300000004,-0.008433718999999895,0.08257199300000195
112592.0,0.549368533,-1.6620310419999997,10.540579686,0.06719866686028568,-0.07739837100894054,-0.10450507962166447,10.684941417084982,0.14638128408156453,0.21545210050000002,-0.08021839699999989,0.04913131649999869
112602.0,0.732556755,-1.7912826889999998,10.534499562999999,0.06453354909249033,-0.007052875507309086,-0.12289212329142472,10.710789612071295,0.13898487679769045,0.18318822199999996,-0.12925164700000003,-0.00608012300000027
112612.0,0.989883251,-2.0379199365,10.45192757,0.08265355738669546,0.07102093792215326,-0.09731083244494385,10.694661118834977,0.14609922067946166,0.257326496,-0.24663724750000005,-0.0825719929999984
112622.0,1.16110736,-2.1671715834999996,10.429176142,0.10130589110275887,0.14536323741085172,-0.030962140930379408,10.715060334624255,0.17986664096958155,0.17122410899999996,-0.1292516469999998,-0.022751428000001184
112632.0,1.1455147865,-2.230620609,10.334640036,0.09251292233121143,0.17813877543405324,0.06336592382290612,10.634503143122378,0.2104930032408088,-0.015592573499999984,-0.0634490255000002,-0.09453610599999962
112642.0,1.024598792,-2.0390967344999997,10.2484395825,0.04668057617384033,0.17307557527401768,0.16462120037735717,10.499439606634688,0.24338112203298728,-0.12091599450000001,0.19152387450000008,-0.08620045350000005
112652.0,0.6966644160000001,-1.871501086,10.17538004,-0.003946189438759179,0.18000453240443517,0.2325703588160004,10.369484875433795,0.2941193225495889,-0.32793437599999986,0.16759564849999964,-0.07305954249999935
112662.0,0.366180311,-1.6595793794999998,10.0377927405,-0.027928758690413263,0.2290325764222079,0.2509556571565087,10.180647073652056,0.34090274050443914,-0.3304841050000001,0.2119217065000003,-0.13758729949999982
112672.0,0.14356935599999998,-1.5278760699999998,9.801942808,-0.012739158210306611,0.2937825463419455,0.21897947993072053,9.921345687786703,0.36663671845273954,-0.222610955,0.13170330949999998,-0.23584993250000075
112682.0,0.05854570049999999,-1.489630135,9.573251729999999,0.022167426829579978,0.3150999978258042,0.160359106343987,9.688631184233154,0.35425195331784515,-0.08502365549999999,0.03824593499999973,-0.22869107800000066
112692.0,0.16269232349999999,-1.5075763045,9.445176881,0.04934569394163568,0.290852138527847,0.10653315221248189,9.566118409229137,0.3136547090625794,0.104146623,-0.01794616949999983,-0.128074848999999
112702.0,0.2093719775,-1.6128997255,9.3674101465,0.05307720788239956,0.23542746280151514,0.07828848892745764,9.507557783270705,0.253717101781285,0.046679654000000015,-0.10532342100000003,-0.07776673450000082
112712.0,0.302829352,-1.6954717185,9.3338714035,0.03282440724225736,0.16081812793726152,0.07962017514672931,9.491442742899583,0.18242610634020237,0.0934573745,-0.08257199299999995,-0.03353874299999937
112722.0,0.18789541399999998,-1.7193999445,9.20452169,0.0016493361431346415,0.04943645106273938,0.11399443476475764,9.365621196558683,0.12426348683635213,-0.11493393800000001,-0.02392822600000022,-0.1293497134999999
112732.0,0.035794272499999995,-1.6368279515,9.24767095,-0.02179916235740918,-0.0654079590477395,0.15076503144577416,9.39148044624645,0.1657814805493084,-0.15210114149999998,0.08257199300000018,0.043149259999999856
112742.0,-0.0791396655,-1.5566095545,9.3374017975,-0.0018151424220741027,-0.08459261818566116,0.1510320668213293,9.466592244296379,0.17311814174672724,-0.11493393799999999,0.08021839699999989,0.08973084750000027
112752.0,-0.13297817399999998,-1.5542559584999998,9.434389566,0.05467592947722636,-0.0390290527330972,0.11346036401364737,9.56248405291966,0.13185590022274649,-0.05383850849999998,0.002353596000000291,0.09698776850000002
112762.0,-0.052759777,-1.4823732139999999,9.465574712999999,0.11436269923692845,0.015063936773963059,0.06896144940479995,9.581091722086725,0.13439282224842553,0.08021839699999997,0.07188274449999987,0.031185146999998636
112772.0,0.020299765499999997,-1.4597198525,9.5290237385,0.1583292884239176,0.05370029042536153,0.025794221015224196,9.640201633636014,0.1691662691034312,0.07305954249999999,0.02265336149999997,0.06344902550000064
112782.0,0.11365907349999999,-1.43569356,9.623559844499999,0.17191842197994545,0.06329261999432237,-0.005914920835008782,9.730726512644736,0.18329453306169471,0.09335930799999999,0.02402629249999988,0.09453610599999962
112792.0,0.06452775699999999,-1.4069600754999998,9.678575151,0.14873695885495677,0.052633894252392996,-0.029363419335552598,9.78051723780645,0.1604843299162529,-0.049131316499999994,0.02873348450000024,0.055015306500001415
112802.0,0.028635417999999996,-1.3471395105,9.7277064675,0.09171356153379803,0.007070328799829029,-0.05014680006830108,9.82058440041913,0.10476673363067883,-0.035892338999999995,0.05982056499999988,0.04913131649999869
112812.0,0.037069136999999995,-1.330370139,9.829499494499998,0.027228881660363535,-0.03956137815495547,-0.0581404080424351,9.919189439668774,0.07541101832845332,0.008433719,0.016769371499999908,0.10179302699999937
112822.0,0.1471978165,-1.3567500275,9.9024609705,-0.016470672151070488,-0.024905848425959082,-0.06640105139212427,9.996057778273364,0.07280579614910083,0.11012867949999999,-0.02637988849999995,0.07296147600000147
112832.0,0.2788030595,-1.481196416,9.877355946499998,-0.02473131550075965,0.04543964707567237,-0.06453529442174233,9.99168826888713,0.08271156943778024,0.131605243,-0.1244463885,-0.02510502400000192
112842.0,0.420116886,-1.5710253299999999,9.7994911455,-0.005279620987282847,0.14269986497230838,-0.048015753051616004,9.933511237026757,0.15065403546536074,0.14131382650000002,-0.08982891399999993,-0.0778648009999987
112852.0,0.3949137955,-1.6487920644999998,9.642682812,0.010974630336540345,0.21064727808169964,-0.018437658218068097,9.79059773408522,0.211737255849836,-0.025203090500000025,-0.07776673449999993,-0.156808333499999
112862.0,0.22133609049999997,-1.7027286394999999,9.444000082999999,0.0077771871468867325,0.2159757682880383,0.015669566024405092,9.598823472303016,0.21668306908228732,-0.17357770500000003,-0.05393657500000004,-0.1986827290000015
112872.0,0.0693330155,-1.6416332099999997,9.3242608865,-0.010608111193621535,0.16748004969212388,0.03751934293012211,9.467925207917888,0.17195871644636287,-0.152003075,0.06109542950000013,-0.11973919649999942
112882.0,-0.1185623985,-1.505124642,9.2752276365,-0.04551469623350813,0.0976668796123507,0.034854225162326766,9.397303067326662,0.11324850532394719,-0.18789541399999998,0.13650856799999977,-0.04903324999999903
112892.0,-0.2419300555,-1.4597198525,9.20452169,-0.07775616350559937,0.044107960856400695,0.011405726661782942,9.32268908315714,0.09012005201231625,-0.12336765699999999,0.04540478950000004,-0.0707059465000004
112902.0,-0.247912112,-1.444127279,9.242865691499999,-0.09187936781273749,0.044640286278258966,-0.02163510140772171,9.358286713086748,0.10441576031229968,-0.005982056499999999,0.015592573499999984,0.038344001499998726
112912.0,-0.12817291549999998,-1.423729447,9.154311642,-0.08681616765270193,0.11978369189362284,-0.04908040389533254,9.265249887260431,0.1558655377435865,0.1197391965,0.020397832000000005,-0.08855404949999901
112922.0,-0.01569064,-1.4381452225,8.937584676999998,-0.07109598707998901,0.2245034470132826,-0.05680872182316343,9.052564704862835,0.24224712170613155,0.11248227549999998,-0.014415775500000061,-0.21672696500000121
112932.0,0.062174161,-1.374696197,8.681434979,-0.06416702994957152,0.29884574650198104,-0.03415958412003302,8.789821872765515,0.3075598561615757,0.077864801,0.06344902549999998,-0.256149697999998
112942.0,0.106500219,-1.192684773,8.346243681999999,-0.06923023010960708,0.3441440219082419,-0.0005846852994181004,8.431703437842083,0.3510388503187489,0.044326057999999995,0.18201142399999992,-0.3351912970000015
112952.0,0.032263878499999996,-1.169933345,7.9763368439999995,-0.09028064621791068,0.36812659115989593,0.027927013361161268,8.061745123641073,0.38006275833841335,-0.0742363405,0.022751428000000073,-0.36990683799999946
112962.0,-0.10061622899999999,-1.2202414595,7.6255529735,-0.13264851381007303,0.38251508551333724,0.05750336286545718,7.7232228374348715,0.40892548905898896,-0.13288010749999998,-0.050308114499999945,-0.35078387049999993
112972.0,-0.3005738225,-1.2956545979999998,7.094032543499999,-0.19366871511829878,0.3971706152423336,0.0910782616860721,7.217642495186906,0.45116218655745427,-0.19995759349999997,-0.07541313849999987,-0.5315204300000005
112982.0,-0.4992565514999999,-1.2574086629999999,6.439242522999999,-0.26268252440065853,0.39104276423858153,0.1283829291181989,6.579831146770752,0.4882609226405713,-0.19868272899999995,0.03824593499999995,-0.6547900205000001
112992.0,-0.6465524345,-1.1160948364999999,5.789257760999999,-0.32023824714367555,0.41688934513136555,0.16275718873622722,5.931205877215742,0.550308244080563,-0.14729588300000007,0.14131382650000002,-0.6499847619999999
113002.0,-0.839253107,-0.9652685595,4.941669001499999,-0.34501843186349107,0.49336443696600113,0.1846069656419442,5.104525608707861,0.6297030393382643,-0.1927006725,0.15082627699999984,-0.8475887594999998
113012.0,-1.0905975465,-0.7665858305,4.042693396,-0.32476737655260085,0.5701048188469398,0.1947316206327633,4.256809455216102,0.6844075959686766,-0.25134443949999996,0.19868272900000006,-0.8989756054999996
113022.0,-1.300165657,-0.6659696015,3.2070687495,-0.2570852534895128,0.616202455050614,0.20272522860689735,3.5240936721068867,0.6977791996655459,-0.20956811050000002,0.100616229,-0.8356246464999999
113032.0,-1.498848386,-0.7043136029999999,2.4445036454999998,-0.13211444305896278,0.6196669336158227,0.20192586780948396,2.952660191835226,0.6649927749774651,-0.19868272899999995,-0.03834400149999995,-0.7625651040000001
113042.0,-1.695177519,-0.7940444504999999,1.9752554429999998,0.029893999428158877,0.5669073756572862,0.18513929106380247,2.721353978333941,0.597121579640235,-0.1963291330000001,-0.08973084750000004,-0.4692482025
113052.0,-1.835216481,-0.796496113,1.8986655065,0.2070920423953872,0.4880342014304104,0.16195782793881383,2.758143632179266,0.5543418023385659,-0.140038962,-0.0024516625000000625,-0.07658993649999979
113062.0,-2.0135994445,-0.7509932569999999,2.1081355504999997,0.3656360063173001,0.42674871007588155,0.12465141517743503,3.0104499820179895,0.575623250028029,-0.17838296350000005,0.04550285600000015,0.2094700439999997
113072.0,-2.1524616085,-0.575061956,2.5007938165,0.4892751305285784,0.3750538029610615,0.07695505737893399,3.3492920060737594,0.6212709467901322,-0.13886216399999984,0.17593130099999987,0.3926582660000002
113082.0,-2.217087432,-0.470915333,2.9832809964999996,0.5630851045954186,0.32895616675738726,0.007408922674715929,3.7466256066045465,0.6521747364013324,-0.06462582350000012,0.104146623,0.4824871799999997
113092.0,-2.21826423,-0.3056732805,3.3794696565,0.5969270387915886,0.25567851811240533,-0.0759933809610851,4.054003886001264,0.6538106669476622,-0.0011767979999999234,0.16524205250000001,0.3961886600000004
113102.0,-1.799324142,-0.1116977435,3.6668045015,0.6443563612145345,0.19945622691791198,-0.14873870418420876,4.086012604741656,0.6907250602203187,0.41894008800000004,0.19397553699999998,0.28733484500000017
113112.0,-1.3288991414999998,0.081002929,4.0822141955,0.7083069703368587,0.16561429272174194,-0.18764209321116235,4.293833618193388,0.7512232779448258,0.47042500050000013,0.1927006725,0.4154096939999996
113122.0,-0.9985131029999998,0.21868829499999998,4.3886720079999995,0.8042337566849711,0.10592752296203986,-0.17591697129626446,4.506139698348847,0.8300357560385851,0.3303860384999999,0.13768536599999998,0.3064578124999997
113132.0,-0.9050557284999999,0.2929246355,4.912935516999999,0.9457258538148995,0.001473057888683214,-0.1466059118382717,5.004184859492455,0.9570229118779733,0.09345737449999991,0.0742363405,0.5242635089999998
113142.0,-0.975761675,0.4784664535,5.785629300499999,1.1026728414712375,-0.10271262647986629,-0.1351478252989289,5.886811309726836,1.1156622309819737,-0.07070594650000006,0.18554181800000003,0.8726937834999999
113152.0,-1.246229082,0.5981075835,6.88819096,1.2164508554087479,-0.16453218858550545,-0.16632464172730363,7.025524486306235,1.238744288039758,-0.27046740699999994,0.11964113000000004,1.102561659500001
113162.0,-1.4377529564999998,0.8555321459999999,8.0027167325,1.2580193622034967,-0.1842509184745374,-0.2470635729245613,8.175728953273788,1.2952225776691253,-0.19152387449999986,0.2574245624999999,1.1145257724999995
113172.0,-1.345668513,0.9321220825,8.8837461685,1.2470953464152643,-0.18318452230156884,-0.3632396692543119,9.033306222524631,1.3117722476030067,0.09208444349999989,0.07658993650000001,0.8810294360000004
113182.0,-0.7661935645,0.857885742,9.489502939,1.2159185299868895,-0.16932835336998586,-0.4511728476282902,9.558958445034571,1.3079322999519085,0.5794749484999999,-0.07423634049999994,0.6057567704999993
113192.0,-0.19162194099999996,0.6328231245,9.8808863405,1.1924700314863457,-0.16506451400736372,-0.4730226245340072,9.902984345592698,1.2934378504971058,0.5745716235,-0.2250626175,0.3913834015000006
113202.0,0.24653918099999997,0.49994301699999993,10.382496488000001,1.1815442703688612,-0.17012771416739927,-0.425059231359951,10.39744958686252,1.2671486306403132,0.4381611219999999,-0.13288010750000007,0.501610147500001
113212.0,0.47395539449999996,0.3898143375,10.959519774,1.1626266466064947,-0.14348177247720184,-0.3355290767203979,10.976687232967569,1.2185513939746266,0.2274162135,-0.11012867949999994,0.5770232859999993
113222.0,0.3709855695,0.22467035149999998,11.553312431499998,1.1503691992697385,-0.09152157531607866,-0.24439845515676598,11.561450393418326,1.1795999738300478,-0.10296982499999996,-0.16514398600000002,0.5937926574999981
113232.0,0.23339827,0.22947561,12.068063489999998,1.1418415205444943,-0.033433527151203374,-0.1871080224600521,12.07250140636541,1.1575531395344425,-0.1375872995,0.00480525850000002,0.5147510584999999
113242.0,0.0693330155,0.2701732075,12.554081063999998,1.1021387707201273,-0.0006579891280018622,-0.16898975949509895,12.55717930072564,1.1150192113539468,-0.16406525449999998,0.040697597500000016,0.4860175739999999
113252.0,0.12199472599999998,0.359904055,12.866520932999999,1.0072783805449834,-0.0211760798144472,-0.15966271997244127,12.872131702297969,1.020073696562474,0.052661710499999986,0.08973084749999999,0.3124398690000003
113262.0,0.350685804,0.46885593649999996,13.044903896499997,0.883373966287402,-0.047554986129089497,-0.11836124855324745,13.058036762516762,0.8925359523174164,0.228691078,0.10895188149999996,0.17838296349999894
113272.0,0.4284525385,0.380301887,13.235250973,0.7789195012140453,-0.021975440611860606,-0.05467767480647836,13.247643919629645,0.7811454137891777,0.07776673449999999,-0.08855404949999995,0.19034707650000193
113282.0,0.3794192885,0.1791674955,13.311840909499999,0.6861919033848386,0.10512816216462643,0.027927013361161268,13.318452176877287,0.6947597979347209,-0.04903324999999997,-0.2011343915,0.07658993649999957
113292.0,0.25134443949999996,0.2856677145,13.060398403499999,0.621440188135849,0.27939405198850426,0.10973059540213549,13.065939940491099,0.6901374843349559,-0.12807484900000005,0.10650021900000001,-0.25144250600000007
113302.0,0.0442279915,0.48915570199999997,12.440323923999998,0.579873426670352,0.3790506069481285,0.17448056532187312,12.45001561244314,0.7144060618872163,-0.20711644799999995,0.20348798749999997,-0.6200744795000013
113312.0,-0.20476285199999997,0.520340849,11.802303275,0.5681483047554542,0.34521041808121045,0.21418331514624014,11.815542519062463,0.6984534497268478,-0.24899084349999998,0.031185147000000024,-0.6380206489999978
113322.0,-0.42864867149999997,0.5934003915,11.700510247999999,0.6003897720275454,0.20052087776162852,0.23150396264303186,11.723387043502576,0.6739959832914497,-0.2238858195,0.07305954250000002,-0.10179302700000115
113332.0,-0.4429663805,0.842391235,12.1889794845,0.6526170045642238,0.11072368774652028,0.21658139753848035,12.226081264273521,0.6964741139728671,-0.014317709000000012,0.2489908435,0.48846923650000207
113342.0,-0.48493884249999997,1.0159689399999998,12.572027233499998,0.6670054989176649,0.13150706847926874,0.16488823575291228,12.622330503036101,0.6995559841328799,-0.04197246199999999,0.1735777049999998,0.3830477489999975
113352.0,-0.329307307,1.181112926,12.6522456305,0.629433796109983,0.13603794321744603,0.1339784547000927,12.71152196005318,0.6577563773952187,0.15563153549999997,0.16514398600000013,0.08021839700000122
113362.0,-0.19642719949999998,1.1512026434999998,12.550452603499998,0.574010865712903,0.09207135403045687,0.1417050272986716,12.604670234631476,0.5983693867095771,0.1328801075,-0.029910282500000163,-0.10179302700000115
113372.0,-0.317343194,1.1608131605,12.470234206499999,0.5377708491244928,0.007070328799829029,0.1659546319258808,12.528165670253996,0.5628396002193434,-0.12091599450000001,0.009610517000000263,-0.08021839699999944
113382.0,-0.5723160939999999,1.3139930334999999,12.382856955,0.5199178762058428,-0.11417071301920907,0.1843399302663891,12.465523244995767,0.5633211868910364,-0.25497289999999995,0.1531798729999998,-0.08737725149999953
113392.0,-0.7626631705,1.5689659335,12.423554552499999,0.5167204330161892,-0.24313832743682606,0.1571599178250814,12.545438092432807,0.5922967937917626,-0.19034707650000005,0.25497290000000006,0.04069759749999946
113402.0,-0.8583760744999999,1.6132919915,12.6677401375,0.5273791587581186,-0.33799871761196987,0.07828848892745764,12.79887341629491,0.6312693543158115,-0.09571290399999988,0.044326058,0.24418558500000032
113412.0,-0.7470705969999999,1.4684477710000001,13.108352922,0.5255151471169887,-0.37876786360930537,-0.018172368171764958,13.211486277507264,0.6480443652386138,0.11130547749999997,-0.1448442204999998,0.44061278450000074
113422.0,-0.33528936349999994,1.422944915,13.5201341555,0.4930066444693422,-0.3438612785694188,-0.11143403675208195,13.59894182541856,0.6113212534643141,0.41178123349999995,-0.04550285600000015,0.4117812334999993
113432.0,-0.041972461999999995,1.3247803484999998,13.5883884395,0.407204513112049,-0.2868378812482601,-0.17751569289109126,13.652879001956888,0.5287752895516356,0.29331690149999995,-0.09816456650000016,0.068254284
113442.0,0.2321234055,1.146397385,13.2771253685,0.2966221970349403,-0.31455021911142605,-0.2057603561761155,13.328547043492101,0.47881509196202554,0.2740958675,-0.17838296349999982,-0.31126307099999906
113452.0,0.477583855,0.9548735104999999,13.042452233999999,0.21108884638245418,-0.4030157229072626,-0.19776674820198148,13.086077717780176,0.49607646655724835,0.2454604495,-0.19152387450000008,-0.23467313450000127
113462.0,0.673912988,0.8303290554999999,12.9801800065,0.1721854573555006,-0.4880184934671425,-0.16472592013247683,13.0241574797353,0.5430879398901742,0.196329133,-0.124544455,-0.06227222749999939
113472.0,0.7038232704999999,0.8208166049999999,12.989790523499998,0.1721854573555006,-0.5053373956346822,-0.1218257271184562,13.034713841874373,0.5475903787864673,0.02991028249999994,-0.009512450500000047,0.009610516999998708
113482.0,0.652338358,0.808852492,13.002931434499999,0.20389459920573355,-0.43579126093046416,-0.08798553825153814,13.044386285963819,0.4891098911594852,-0.05148491249999998,-0.011964112999999887,0.013140911000000699
113492.0,0.525440307,0.7346161515,12.8150360205,0.24732711764161244,-0.3270747018237373,-0.07253064772512836,12.846824378537187,0.41642437315006114,-0.12689805099999996,-0.07423634049999994,-0.18789541399999976
113502.0,0.5709431629999999,0.6173286175,12.718048251999999,0.30328411878980266,-0.24926792376983015,-0.06213721202950212,12.745815864728359,0.3974629387118103,0.045502855999999925,-0.11728753400000003,-0.09698776850000002
113512.0,0.6787182464999999,0.42217628249999994,12.703730542999999,0.3685681594606505,-0.16772963177515907,-0.054942964852781495,12.7288515185302,0.4086495404750334,0.10777508349999998,-0.19515233500000007,-0.014317709000000178
113522.0,0.7169641814999999,0.30008348999999995,12.7336408255,0.42052835662177374,-0.11097326982955545,-0.044018949064548986,12.757338923590801,0.4371462377928242,0.03824593499999995,-0.12209279249999999,0.029910282500001273
113532.0,0.7852184655,0.373044966,12.804248705500001,0.44477621591973093,-0.08326093196638949,-0.022169172158831973,12.833725706026234,0.4530449616031446,0.06825428400000011,0.07296147600000003,0.07060788000000073
113542.0,0.6487098975,0.4245298785,12.787479333999999,0.43518388635077015,-0.0779324417600508,0.005810201079889122,12.81095928751359,0.44214504277966576,-0.136508568,0.051484912500000035,-0.01676937150000235
113552.0,0.5398560825,0.6017360439999999,12.653422428499999,0.3960134619482614,-0.09711710089797247,0.027392942610051,12.679220402316849,0.4086670608648459,-0.10885381500000002,0.1772061654999999,-0.1340569054999996
113562.0,0.3601982545,0.6914668915,12.420024158499999,0.34991582574458713,-0.12749455652893377,0.023930209374094253,12.444471436839297,0.3731870870913324,-0.17965782799999996,0.08973084750000004,-0.23339827000000035
113572.0,0.28243152,0.7322625555,12.2368359365,0.3192730800673227,-0.15440578826543436,-0.009911724822075797,12.261979030747636,0.35478823175874047,-0.07776673449999999,0.04079566400000001,-0.1831882219999983
113582.0,0.30155448749999997,0.7801190075,12.182997428,0.2968892324104954,-0.16293346699067865,-0.05334424325795469,12.21167257608264,0.3428354405187124,0.019122967499999977,0.047856451999999994,-0.05383850850000016
113592.0,0.40815277299999997,0.6987238124999999,12.2703746795,0.25638712178871503,-0.1711941103403678,-0.08452105968632939,12.297028032316462,0.3196648075169231,0.1065982855,-0.08139519500000003,0.08737725149999953
113602.0,0.642727841,0.6555745525000001,12.348141414,0.1879056379282135,-0.14801090188612712,-0.08691914207856961,12.38222409147985,0.2545008705329477,0.23457506800000005,-0.043149259999999856,0.07776673450000082
113612.0,0.7038232704999999,0.624487472,12.220066565,0.09464396934789651,-0.11763519158441782,-0.06320360820247066,12.256238356519228,0.16367716799492738,0.06109542949999991,-0.031087080500000086,-0.12807484900000077
113622.0,0.720592642,0.6520441584999999,11.882521672,-0.0010157816246606998,-0.13442176833009928,-0.019237019015481503,11.922195126145526,0.13579509016861352,0.01676937150000002,0.027556686499999872,-0.33754489300000046
113632.0,0.6559668185,0.7261824325,11.610779400499998,-0.07535808111335918,-0.18185283608229716,0.019666370011472107,11.651945403207128,0.19782836118638447,-0.0646258234999999,0.07413827400000017,-0.27174227150000085
113642.0,0.5553505894999999,0.775313749,11.451519404499999,-0.1315821176371045,-0.20556662462914413,0.04311486851201592,11.49116279400333,0.24785153364482673,-0.10061622900000011,0.04913131650000002,-0.1592599959999994
113652.0,0.4129580315,0.7861010639999999,11.295887869,-0.1667557380525462,-0.173592192732608,0.05883679441398085,11.330735720491571,0.24779728394007344,-0.14239255799999995,0.010787314999999853,-0.15563153549999953
113662.0,0.33146476999999996,0.7872778619999999,11.119956568,-0.1712848674614715,-0.08912349292383843,0.07135953179704015,11.152717579135265,0.20584869586794113,-0.08149326150000002,0.0011767980000000344,-0.17593130100000032
113672.0,0.29920089149999995,0.8914244849999999,10.866160465999998,-0.14756933358537255,0.02572266251589243,0.09001186551310356,10.906768635062964,0.17475840327402428,-0.03226387850000001,0.104146623,-0.2537961020000008
113682.0,0.19740786449999997,1.055391673,10.627956937499999,-0.10866594455841895,0.1344392216226192,0.10919826998027722,10.682054582979744,0.20446626612709154,-0.10179302699999998,0.16396718799999999,-0.2382035284999997
113692.0,0.040599530999999994,1.2984004599999999,10.3980890615,-0.0793548851004262,0.21304536047393982,0.1129280385917891,10.478919228972595,0.2538469328334723,-0.15680833349999998,0.24300878699999995,-0.22986787599999836
113702.0,-0.1258193195,1.5570018204999998,10.152628611999999,-0.07908959505412305,0.24395514152675943,0.09534210104869424,10.272095837919386,0.2736044432306351,-0.1664188505,0.25860136049999993,-0.24546044950000123
113712.0,-0.36284605,1.7449953009999997,9.9359997135,-0.11319681929659622,0.2135776858957981,0.05910208446028398,10.094590440586718,0.2488413233348131,-0.23702673049999998,0.18799348049999987,-0.21662889849999978
113722.0,-0.536423755,1.906608893,9.812730123,-0.16782038889626275,0.15255748458757235,0.009807005066956137,10.010623376325102,0.2270102340894867,-0.17357770499999997,0.16161359200000036,-0.12326959049999964
113732.0,-0.675285919,1.9735883125,9.7037782415,-0.2240444254200081,0.09819920503420897,-0.04508359990826553,9.925440748895996,0.24873986293278516,-0.13886216400000007,0.06697941949999997,-0.10895188149999946
113742.0,-0.7973787114999998,2.013109112,9.6929909265,-0.2690774107799658,0.07235262414142493,-0.10290635802683766,9.93189278071316,0.2970307622697495,-0.12209279249999982,0.03952079949999998,-0.010787314999999964
113752.0,-0.805714364,2.0634172265,9.6690627005,-0.3063820782120926,0.08034623211555897,-0.16419359471061856,9.91955844749015,0.3567702782025473,-0.008335652500000124,0.050308114499999945,-0.023928226000000663
113762.0,-0.803360768,2.080186598,9.6139493275,-0.33249569448043176,0.1125894447169022,-0.22361332909476547,9.869173545834427,0.4162123146406517,0.002353595999999958,0.01676937150000013,-0.0551133729999993
113772.0,-0.756681114,2.011932314,9.6463112725,-0.3522126790402117,0.1632162103295017,-0.2710443968469634,9.882902362684874,0.4734536594569119,0.04667965399999996,-0.068254284,0.03236194499999989
113782.0,-0.6704806605,1.9388727714999998,9.7192727485,-0.3713990835073853,0.2322300196118615,-0.292094812955267,9.933430157800645,0.5264859361791384,0.08620045350000005,-0.07305954250000024,0.07296147599999969
113792.0,-0.6704806605,1.8814058024999998,9.7624220085,-0.39085077802086216,0.29831342108012276,-0.28623225199781804,9.96464327418851,0.5689324476243047,0.0,-0.057466969000000034,0.043149259999999856
113802.0,-0.5998727805,1.896998376,9.670239498499999,-0.40816968018840183,0.3337523315418676,-0.2689133498302783,9.872789988128025,0.5918678031044404,0.07060787999999996,0.015592573500000206,-0.09218251000000066
113812.0,-0.559175183,1.8131515184999998,9.445176881,-0.42522329230963846,0.3361504139341079,-0.24972694536310464,9.633875732419368,0.5968044037631653,0.040697597500000016,-0.0838468575000002,-0.225062617499999
113822.0,-0.6465524345,1.6683072979999998,9.259635063,-0.4316181786889457,0.2849895775703981,-0.2172184427154583,9.430913041220183,0.5609787548154078,-0.08737725149999997,-0.1448442205,-0.1855418180000008
113832.0,-0.6932320885,1.5928941595,9.2297247805,-0.4055063077498585,0.2245034470132826,-0.1793814498614732,9.391789076404509,0.4970059032850344,-0.04667965399999996,-0.07541313849999987,-0.029910282499999497
113842.0,-0.8344478485,1.420591319,9.267970715499999,-0.34501843186349107,0.21251303505208155,-0.1522014374201655,9.413270637289145,0.43285654199209495,-0.14121576000000002,-0.1723028405,0.038245934999999065
