timestamp,ax,ay,az,gx,gy,gz,acc_mag,gyro_mag,dax,day,daz
62932.0,-0.4617951485,-1.8357068134999999,6.247620582,-0.7067832978998677,0.3183864528073096,-0.25557205302803365,6.528080667465628,0.8162289126283131,0.0,0.0,0.0
62942.0,-0.780217074,-2.191197876,5.570079133499999,-0.675606481471493,0.31145924100614414,-0.25290868058949034,6.036213081709437,0.7857568181899098,-0.3184219255,-0.35549106250000007,-0.6775414485000004
62952.0,-0.5551544565,-2.1265720525,5.687366667499999,-0.6055280213454167,0.27095713038436364,-0.2441157118179429,6.0972653522407825,0.7068765322862299,0.2250626175,0.06462582350000012,0.11728753399999992
62962.0,-0.40913343799999996,-2.158835931,5.706489635,-0.47069784597035075,0.23684990614189047,-0.25557205302803365,6.114898748256488,0.5856376136567002,0.1460210185,-0.03226387850000023,0.01912296750000042
62972.0,-0.43306166399999996,-1.9888866865,5.762779806,-0.2974966069901895,0.2035420426968307,-0.24677908425648623,6.111697288724696,0.43684495045993565,-0.023928225999999997,0.16994924450000015,0.056290171000000555
62982.0,-0.3911872685,-1.8883685239999999,5.948321623999999,-0.13175665056230393,0.16836842228138899,-0.2100084875754697,6.253118686225012,0.29968534405715835,0.04187439549999994,0.10051816250000001,0.18554181799999903
62992.0,-0.40913343799999996,-1.8967041765,6.320582057999999,0.0009407324668249437,0.13213015102223072,-0.15911294125806305,6.611704353277886,0.20682405532849282,-0.017946169499999942,-0.008335652500000013,0.3722604340000002
63002.0,-0.431884866,-1.9805510339999999,6.652242961,0.10113135817755944,0.07750483609331218,-0.11434699127366049,6.954239235741919,0.17120100945388025,-0.022751428000000018,-0.08384685749999998,0.3316609030000004
63012.0,-0.4510078335,-2.0487072515,6.913197917499999,0.1762730184636713,0.019949113350295186,-0.08583703794233312,7.224466410383079,0.1970739486702143,-0.019122967500000032,-0.06815621750000034,0.2609549564999991
63022.0,-0.43306166399999996,-2.1001921639999996,7.103544994,0.22583513323255427,-0.025616197431520774,-0.0762429630441203,7.420155053119571,0.23973044526459983,0.017946169500000053,-0.051484912499999425,0.19034707650000104
63032.0,-0.4510078335,-2.0894048489999997,7.232796640999999,0.24528682774603108,-0.03467620157862334,-0.0786410454363605,7.542040038276378,0.25990860095225043,-0.017946169500000053,0.010787314999999964,0.12925164699999936
63042.0,-0.4702288675,-2.0236022275,7.4351078305,0.24049066296155067,-0.033876840781209935,-0.08663639873974652,7.719903471814638,0.2578551238575529,-0.01922103399999997,0.0658026214999996,0.2023111895000005
63052.0,-0.4845465765,-2.006832856,7.766670667,0.22929961179776304,-0.0413363780042337,-0.09835977532539245,8.036375846509246,0.2529064125702933,-0.014317709000000012,0.01676937150000013,0.33156283649999985
63062.0,-0.4941570934999999,-1.9302429195,7.9870260925,0.2002555877153254,-0.05759062932805689,-0.10955082648918008,8.231805073227381,0.235415302353255,-0.00961051699999993,0.07658993650000001,0.2203554255000002
63072.0,-0.49533389149999996,-1.853652983,8.007325858,0.14802835517864707,-0.07437895140299035,-0.1135476304762471,8.233993711538087,0.2008424425649978,-0.0011767980000000344,0.07658993650000001,0.0202997654999999
63082.0,-0.44502577699999996,-1.8643422315,7.977415575499999,0.09233838940601201,-0.08050680240674245,-0.11807850521442437,8.204448742150738,0.17014774986912823,0.0503081145,-0.010689248500000081,-0.029910282500000385
63092.0,-0.363630582,-1.8656170959999998,7.825412500499999,0.05769709441242855,-0.07091447283778161,-0.13673083893048776,8.052939534855255,0.16447838604549883,0.08139519499999998,-0.001274864499999806,-0.15200307500000054
63102.0,-0.30263321899999995,-1.8309015549999998,7.844535467999999,0.06755645935694451,-0.03920533098754863,-0.15378445105172436,8.061049812403697,0.1724835950575299,0.06099736300000003,0.03471554099999996,0.01912296750000042
63112.0,-0.2774301285,-1.7231264714999999,8.033705746499999,0.11845026034509916,-0.0021676989309769574,-0.15298509025431095,8.221104568993796,0.19349315474868045,0.02520309049999997,0.10777508349999998,0.1891702784999998
63122.0,-0.37324109899999997,-1.6513417935,8.4036125845,0.18613238340818727,-0.003766420525803763,-0.12580507781300326,8.572452572473603,0.2246917169820139,-0.09581097049999998,0.07178467799999977,0.36990683800000035
63132.0,-0.45463629399999994,-1.579459049,8.79264239,0.2647385222595079,-0.0996932068739161,-0.0770423238415337,8.94493964460996,0.2931906211457951,-0.08139519499999998,0.0718827445000001,0.3890298054999999
63142.0,-0.40315138149999996,-1.5507255644999998,9.067915055499999,0.3534710614308996,-0.2670301395673764,-0.012027063875492926,9.20838554072117,0.44316084774258263,0.05148491249999998,0.02873348450000024,0.2752726654999993
63152.0,-0.2068222485,-1.474135628,9.203246825499999,0.44060487900746453,-0.43330416674637223,0.06684611035138283,9.322853823979509,0.621573457279234,0.19632913299999996,0.07658993649999979,0.13533177000000052
63162.0,0.006276256,-1.371165803,9.221192995,0.48910059760337893,-0.5497472984516779,0.16383929287246368,9.32258200831417,0.7538466691707602,0.2130985045,0.10296982499999996,0.017946169500000053
63172.0,0.178677163,-1.2143574695,9.137444204,0.48830123680596554,-0.601440460237246,0.2693584087895369,9.219516048769663,0.8201967309507256,0.172400907,0.15680833350000012,-0.08374879099999966
63182.0,0.19662333249999997,-1.1665010175,9.096648539999999,0.45845785192611455,-0.5814564403019109,0.3762092109258817,9.173243702147897,0.8305471475760732,0.01794616949999997,0.047856451999999994,-0.0407956640000009
63192.0,-0.005687856999999999,-1.2982043269999999,9.078702370499999,0.43634103964484233,-0.5257664745292758,0.46414238929986,9.171052478231768,0.8259854999709549,-0.20231118949999996,-0.13170330949999998,-0.017946169500000053
63202.0,-0.29419949999999995,-1.4909049994999999,9.28101356,0.4525952909686655,-0.4815328499667315,0.5193000296506368,9.404603328383299,0.8404694544117866,-0.28851164299999993,-0.1927006725,0.20231118950000138
63212.0,-0.5875164015,-1.6525185914999998,9.692892859999999,0.5338665475877815,-0.502317976028732,0.53555428097446,9.850287570052135,0.9078299551925842,-0.2933169015,-0.16161359199999992,0.41187929999999895
63222.0,-0.7742350175,-1.8153089814999999,10.139389634499999,0.6604360796131583,-0.5923822014193955,0.5113064216765028,10.329666438024212,1.0239759492590228,-0.18671861600000006,-0.16279039000000006,0.4464967744999999
63232.0,-0.73353742,-2.0020275974999997,10.444670648999999,0.7734164780825071,-0.7232138274781423,0.4452230202082415,10.660081454368626,1.1486665428001641,0.040697597500000016,-0.18671861599999984,0.3052810145000002
63242.0,-0.5061212065,-2.0834227925,10.530773035999998,0.8155173102991145,-0.8447219046727356,0.3333090179118611,10.74681301334131,1.2205402414721138,0.22741621349999996,-0.08139519500000025,0.08610238699999861
63252.0,-0.2044686525,-2.0116381144999997,10.377593162999998,0.7718177564876804,-0.9057421059809614,0.19394971312786988,10.572744922219044,1.2056898038048123,0.301652554,0.07178467800000021,-0.15317987299999913
63262.0,0.19417167,-1.7231264714999999,10.010039920999999,0.6492450284493706,-0.8689697639706928,0.05405633759276837,10.159122338776529,1.0860707367825766,0.3986403225,0.2885116429999999,-0.3675532419999996
63272.0,0.5437787424999999,-1.3316450034999998,9.532456066,0.4632540167105949,-0.7101570193439728,-0.05892406087658056,9.640367855344609,0.8499407750380039,0.3496070724999999,0.39148146800000005,-0.4775838549999989
63282.0,0.7256921,-0.998905369,9.136169339499999,0.2626074752428228,-0.44289649631533307,-0.12820316020524347,9.219220745824414,0.5306185473467913,0.18191335750000004,0.33273963449999977,-0.3962867265000014
63292.0,0.783159069,-0.7761963474999999,9.020058603499999,0.09793391498790582,-0.13113531334859393,-0.16497550221551202,9.087203976350681,0.23238855058533478,0.057466969000000034,0.22270902150000016,-0.11611073599999955
63302.0,0.5844763399999999,-0.689995894,9.1218516305,-0.004921828490624009,0.13292951181964413,-0.17909870652265011,9.16656337427567,0.22309376097593223,-0.19868272900000006,0.08620045349999983,0.10179302700000115
63312.0,0.2444797845,-0.6349805875,9.336126933,-0.029969048585994633,0.283479867767423,-0.1697716669999924,9.360888676862842,0.33178516877422604,-0.33999655549999996,0.05501530650000008,0.21427530249999904
63322.0,-0.012846711499999998,-0.654103555,9.569525203,0.029185395751849176,0.3029315622808998,-0.15138636865948416,9.591862650680117,0.3399075629741768,-0.257326496,-0.019122967499999977,0.23339827000000035
63332.0,-0.18044236,-0.766683897,9.775464852999999,0.17947046165332492,0.2067394858864843,-0.13353339574083417,9.807144168178613,0.3046014271285406,-0.1675956485,-0.112580342,0.20593964999999947
63342.0,-0.132585908,-0.8552379465,10.0028810665,0.3942402074282351,0.04046720403674053,-0.11727914441701097,10.040251022692505,0.413300536499525,0.047856451999999994,-0.08855404950000001,0.22741621350000152
63352.0,0.0373633365,-0.7965941794999999,10.1309559155,0.6055437293086846,-0.11647978361959757,-0.10608809325322333,10.16229433088474,0.6257039488665885,0.16994924449999999,0.05864376700000007,0.128074848999999
63362.0,0.1642613875,-0.5846724729999999,10.134584376,0.7547641443664438,-0.20068144805281202,-0.0911655281486718,10.152764361412643,0.7862907291431138,0.126898051,0.21192170649999997,0.003628460499999875
63372.0,0.19897692849999998,-0.35127420299999995,10.0915331825,0.8144509141261459,-0.19028975768643774,-0.06372022566106098,10.099605307004188,0.8388091264164778,0.03471554099999999,0.23339826999999996,-0.043051193500000196
63382.0,0.12003339599999999,-0.1944658695,10.139389634499999,0.7960656157856376,-0.09915913612280584,-0.03041236221600119,10.141964659313388,0.8027938158010092,-0.0789435325,0.15680833349999995,0.04785645199999955
63392.0,-0.084729456,-0.1632807225,10.241084595,0.7225209317651006,0.01781806633361011,-0.010693632326969257,10.242736614645546,0.7228197106463841,-0.204762852,0.031185146999999996,0.10169496050000149
63402.0,-0.26066075699999997,-0.20162472399999998,10.3488596785,0.6092752432494486,0.12546822926736836,-0.02401747583669397,10.354105137811333,0.6225234435246032,-0.17593130099999998,-0.038344001499999975,0.10777508349999998
63412.0,-0.501315948,-0.257914895,10.461341953999998,0.48590315441372534,0.20540779966721265,-0.06744999427257285,10.47652200166174,0.531830557001668,-0.24065519100000005,-0.056290171,0.1124822754999979
63422.0,-0.7287321615,-0.271055806,10.534401496500001,0.3833144463107506,0.24670927108640647,-0.1284701955807986,10.56305527310315,0.47360323092549944,-0.22741621349999996,-0.013140911000000033,0.0730595425000029
63432.0,-0.871222786,-0.34882254049999994,10.564311779,0.3214948842051115,0.24031438470709923,-0.20068144805281202,10.605912957945895,0.44875718117906843,-0.14249062450000005,-0.07776673449999993,0.029910282499999497
63442.0,-0.8760280445,-0.41354643049999995,10.524790979499999,0.3004444680968079,0.2088705329031694,-0.2744914221196522,10.569279585056606,0.4574268452359316,-0.00480525850000002,-0.06472389,-0.03952079950000176
63452.0,-0.8436660994999999,-0.432669398,10.473404133499999,0.30657406442981194,0.1747633086606962,-0.33284650566008256,10.516233614703797,0.48509449323320053,0.032361945000000114,-0.019122967500000032,-0.051386845999999764
63462.0,-0.7826687365,-0.3607866535,10.401521389,0.3385484963263481,0.1467856807512271,-0.3850737381967609,10.437163626496554,0.5333318894340184,0.060997362999999916,0.07188274449999998,-0.07188274449999987
63472.0,-0.676070451,-0.1130706745,10.3129673395,0.38224805013778207,0.13959143357450648,-0.41731520546885215,10.33572211206072,0.5828819098900158,0.10659828550000006,0.247715979,-0.08855404949999901
63482.0,-0.595852054,0.08924051499999999,10.253048708,0.4195544628991609,0.16357225749690857,-0.42237840562888773,10.270735677077566,0.617402096127669,0.080218397,0.2023111895,-0.05991863150000043
63492.0,-0.5659417714999999,0.1264077185,10.298551563999998,0.437672725864114,0.1931503523304565,-0.4066564797269228,10.314864677560813,0.6278805348747455,0.02991028250000005,0.037167203499999996,0.045502855999998815
63502.0,-0.5408367475,0.10120462799999999,10.4877218425,0.46351930675689806,0.1800935441962869,-0.3840073420237924,10.502145314640556,0.6282877295680326,0.02510502399999992,-0.025203090499999997,0.18917027850000068
63512.0,-0.6234087405,0.133566573,10.6960150885,0.5325331160392579,0.10201973076682454,-0.35896012192842175,10.714999638850877,0.6502706469456272,-0.08257199299999995,0.032361945,0.2082932460000002
63522.0,-0.6820525075,0.181423025,10.8433109715,0.6367205457370594,-0.03254340923268627,-0.3341799372086062,10.866255231754842,0.7198252268995112,-0.05864376700000007,0.047856451999999994,0.14729588299999996
63532.0,-0.5850647389999999,0.2891981085,10.903131536499998,0.7656881601546763,-0.17963103194450838,-0.3131295211003026,10.922646821947597,0.8465197949386696,0.09698776850000013,0.10777508350000001,0.05982056499999899
63542.0,-0.4127618985,0.39452152949999997,10.891167423499999,0.9026493825464275,-0.2744914221196522,-0.2971405598227826,10.906124310166282,0.98914809857802,0.1723028404999999,0.10532342099999997,-0.011964112999999443
63552.0,-0.2295736765,0.575258089,10.900679874,1.0161638517668865,-0.27955462227968775,-0.2782229360604161,10.918262117083026,1.090021909241155,0.183188222,0.1807365595,0.009512450500000824
63562.0,-0.20917584449999996,0.7656051654999999,11.037188442,1.0715867821639664,-0.20734336980767434,-0.25477269223062027,11.065687258710186,1.1208026719356823,0.020397832000000032,0.19034707649999993,0.136508568
