timestamp,ax,ay,az,gx,gy,gz,acc_mag,gyro_mag,dax,day,daz
179932.0,-0.7243191689999999,-0.8061066299999999,10.042499932499998,-0.035123005867133884,0.08860687546524813,-0.02669830156775726,10.100804475474876,0.09898284309646609,0.0,0.0,0.0
179942.0,-0.37353529849999995,-1.274079968,10.17538004,-0.026330037095586456,0.05929581600725536,0.012737412881054616,10.261635705018707,0.06611736788714215,0.3507838705,-0.46797333799999996,0.1328801075000019
179952.0,-0.5447594075,-1.3890139059999997,10.2185293,0.0019163715186897737,0.05929581600725536,0.04098382149533084,10.326880627666789,0.07210644839489093,-0.171224109,-0.11493393799999985,0.043149259999999856
179962.0,-0.6034031745,-1.3770497929999999,10.141939363499999,0.018170622842512963,0.026787313359608968,0.054572955051358694,10.252770141591432,0.06345028853006388,-0.05864376700000007,0.011964112999999887,-0.07658993650000134
179972.0,-0.6045799725,-1.4046064795,10.031810684,0.004846779332788253,0.006003932626860493,0.05883679441398085,10.14769244237418,0.059340600382888534,-0.0011767979999999234,-0.027556686500000094,-0.11012867949999894
179982.0,-0.5914390615,-1.477666022,9.949140624499998,-0.018069393745897295,-0.007052875507309086,0.04897742946946488,10.07564867401189,0.05267859755823308,0.013140910999999922,-0.07305954250000002,-0.08267005950000161
179992.0,-0.5316184964999999,-1.477666022,9.8761791485,-0.03805341368123236,0.00040840704496667313,0.02366317399853912,10.000251480420902,0.04481266442418391,0.0598205650000001,0.0,-0.07296147599999792
180002.0,-0.5339720925,-1.3447859144999998,9.816260517,-0.052708943410228755,0.024656266342923894,0.0055431657043339905,9.922325629055898,0.05845417753609748,-0.002353596000000069,0.13288010750000012,-0.05991863150000043
180012.0,-0.5459362055,-1.239364427,9.797137549499999,-0.06043726133805965,0.04037819224488881,0.004743804906920587,9.890296996916302,0.07283930705330084,-0.011964112999999998,0.10542148749999991,-0.01912296750000131
180022.0,-0.5555467224999999,-1.222693122,9.7851734365,-0.05830446899212257,0.038245399898951746,0.024195499420397393,9.876903857679885,0.07380747868669252,-0.00961051699999993,0.016671305000000025,-0.011964112999999443
180032.0,-0.5531931265,-1.2418160894999999,9.7994911455,-0.049778535596130276,0.02652202331330583,0.04950975489132314,9.893338998845678,0.07505022422435287,0.002353595999999958,-0.019122967499999977,0.014317709000000178
180042.0,-0.5758464879999999,-1.319582824,9.827047832,-0.03165852730192514,0.009733701238372375,0.0716265671725953,9.93195686154313,0.07891370233143885,-0.02265336149999997,-0.07776673450000016,0.027556686500000538
180052.0,-0.6465524345,-1.2992830585,9.852152856,-0.006344271830999388,-0.006785840131753953,0.08814610854272162,9.958467874861672,0.08863427024906673,-0.07070594650000006,0.020299765500000122,0.025105024000000142
180062.0,-0.7399117425,-1.2956545979999998,9.886868397,0.017903587466957832,-0.03423288794861678,0.10679844225878503,9.99881777629762,0.11357084278278735,-0.09335930800000003,0.003628460500000097,0.03471554100000063
180072.0,-0.806891162,-1.3650856799999997,9.904912632999999,0.031492721022985684,-0.07180284542704672,0.11585844640588759,10.031043142585807,0.1398950309783657,-0.06697941949999997,-0.06943108199999992,0.018044235999997937
180082.0,-0.7829629359999999,-1.4944353934999999,9.89294852,0.026963591614060395,-0.11257199142438228,0.11106228162140717,10.03577593033371,0.1604191974949812,0.023928226000000108,-0.12934971350000013,-0.011964112999999443
180092.0,-0.723142371,-1.6105461294999999,9.778014581999999,0.00404741853537485,-0.13202368593785907,0.09054593626421382,9.93611407391177,0.16014119338690472,0.05982056499999988,-0.11611073599999999,-0.11493393800000007
180102.0,-0.6585165475,-1.652420525,9.5792337865,-0.031126201880066876,-0.12083263477407141,0.05590464127063037,9.742990176080223,0.13672854488189612,0.06462582350000001,-0.04187439550000005,-0.19878079549999939
180112.0,-0.593890724,-1.606917669,9.433212767999999,-0.06603278691995346,-0.07659901021152714,0.02126509160629891,9.58751238400013,0.10334380211133079,0.06462582350000001,0.045502855999999925,-0.14602101850000082
180122.0,-0.5890854655,-1.4584449879999999,9.3242608865,-0.08202000286822152,-0.021708405236305472,-0.002183406894244906,9.455999394469071,0.08487227458995403,0.00480525850000002,0.1484726810000001,-0.10895188149999946
180132.0,-0.6022263765,-1.34351105,9.3458355165,-0.07109598707998901,0.023856905545510492,-0.007778932476138726,9.461096133720302,0.07539431750174345,-0.013140911000000033,0.11493393799999985,0.021574629999999928
180142.0,-0.563882375,-1.3675373425,9.3589764275,-0.0460470216553664,0.05636540819315687,-0.0011187560505283654,9.475154958440957,0.0727917513129858,0.03834400149999995,-0.02402629249999988,0.013140911000000699
180152.0,-0.5471130034999999,-1.4597198525,9.409284542,-0.015404275978101954,0.06942221632732645,0.008740608893987603,9.537544247797834,0.07164589368585819,0.01676937150000013,-0.09218251,0.050308114499999945
180162.0,-0.5100438665,-1.5374865869999998,9.4536106,0.009375908741713538,0.06622477313767285,0.015135495273294825,9.591390051884634,0.06857631850017253,0.03706913699999992,-0.07776673449999993,0.044326057999999335
180172.0,-0.5231847775,-1.569848532,9.501467051999999,0.02536487001923359,0.056632443568712006,0.011405726661782942,9.64448147206846,0.06309279591474189,-0.013140911000000033,-0.032361945000000114,0.04785645199999955
180182.0,-0.563882375,-1.5338581264999998,9.545695043499999,0.03735528198043463,0.04197691383971562,0.0034121186876489144,9.684574226498869,0.05629494596571966,-0.040697597500000016,0.03599040550000021,0.044227991499999675
180192.0,-0.6512596264999999,-1.4190222549999998,9.6115957315,0.05920505888615164,0.022790509372541956,-0.001918116847941768,9.737583671891256,0.06346909080343727,-0.08737725149999986,0.11483587149999996,0.06590068800000104
180202.0,-0.733929686,-1.2106309425,9.6929909265,0.0922458869556563,0.00813497964354557,0.00021467549799530255,9.795833459391897,0.09260414482951645,-0.08267005950000006,0.20839131249999987,0.0813951950000007
180212.0,-0.760211508,-1.0790256995,9.807924864499999,0.12102462099179079,0.011866493584309445,0.015135495273294825,9.896343170320764,0.12254328122488395,-0.026281822000000066,0.13160524299999987,0.11493393799999829
180222.0,-0.803360768,-0.9652685595,9.949140624499998,0.1343467191722635,0.02892010570554604,0.03778463297642524,10.028087109793022,0.14252400483965555,-0.04314925999999997,0.11375714000000003,0.1412157599999997
180232.0,-0.8320942524999999,-0.9999841005,10.0281822235,0.1186265385995506,0.04170987846416049,0.061500166852524185,10.112209835343496,0.1399794275759621,-0.028733484499999906,-0.03471554099999996,0.07904159900000174
180242.0,-0.7614863725,-1.2466213480000001,10.105948958,0.06719866686028568,0.03744603910153834,0.07935313977117418,10.210980884444641,0.110520529603043,0.07060787999999996,-0.24663724750000016,0.07776673450000082
180252.0,-0.701567741,-1.47884282,10.115559475,0.002181661564992912,0.021458823153270284,0.07029313562407162,10.247132129222287,0.07352799231701912,0.059918631499999986,-0.23222147199999976,0.009610516999998708
180262.0,-0.7447170009999999,-1.5542559584999998,10.022200167000001,-0.05963790054064624,-0.00838456172658076,0.04311486851201592,10.169307310900091,0.0740666722828242,-0.04314925999999997,-0.07541313849999987,-0.09335930799999836
180272.0,-0.7434421365,-1.573378926,9.813906921,-0.10173873275725347,-0.03423288794861678,0.012472122834751478,9.966995360145217,0.10806578648378737,0.001274864499999917,-0.0191229675000002,-0.20829324600000199
180282.0,-0.6980373469999999,-1.5338581264999998,9.5757033925,-0.12039106647331686,-0.04275882134460908,-0.015240215028414486,9.722863382315566,0.12866464099928585,0.04540478950000015,0.0395207995000002,-0.2382035284999997
180292.0,-0.6500828285,-1.5183636194999999,9.415266598499999,-0.11932467030034832,-0.03023433863229777,-0.04055447049934024,9.559041839314306,0.12960384736689393,0.047954518499999876,0.01549450699999988,-0.16043679400000066
180302.0,-0.6261546025,-1.4381452225,9.296704199999999,-0.09907361498945812,-0.010782644118820968,-0.0565416864476083,9.42809844292735,0.11458101460369503,0.023928225999999997,0.08021839699999989,-0.11856239849999994
180312.0,-0.6226242085,-1.3411574539999997,9.278758030499999,-0.06150191218177618,-0.0030560715202420713,-0.060273200388372174,9.39583497141144,0.08616660292833073,0.0035303939999999923,0.09698776850000024,-0.017946169500000053
180322.0,-0.6141904895,-1.248974944,9.289545345499999,-0.014604915180688549,-0.0035883969421003415,-0.05041383544385621,9.393232728631435,0.05260926671423386,0.008433719000000006,0.09218250999999977,0.010787314999999964
180332.0,-0.6369419175,-1.130510612,9.2991558625,0.024031438470709925,-0.007319910882864218,-0.03282789790076134,9.389251780902528,0.041337174684385504,-0.022751427999999962,0.11846433200000006,0.009610517000000485
180342.0,-0.5866338029999999,-1.0550974735,9.270422378,0.04375016835974186,-0.00838456172658076,-0.013641493433587679,9.348695147662667,0.04658828661746659,0.050308114500000056,0.07541313849999987,-0.028733484500000017
180352.0,-0.517202721,-1.0047893589999999,9.224919521999999,0.03815464277784804,0.0025394540616517493,0.0012793263417118436,9.29388188530208,0.03826045305958921,0.06943108199999992,0.05030811450000017,-0.04550285600000059
180362.0,-0.4298254695,-0.9700738179999999,9.118419303,0.008044222522441864,0.022790509372541956,0.012737412881054616,9.179943558210093,0.02731956296050396,0.08737725149999997,0.03471554099999996,-0.10650021899999906
180372.0,-0.32214845249999996,-0.9664453574999999,8.918461709499999,-0.0460470216553664,0.04837180021902285,0.022596777825570583,8.976455621140177,0.07050371357493901,0.10767701700000004,0.003628460499999986,-0.19995759350000064
180382.0,-0.20593965,-0.979684335,8.653878292499998,-0.11665955253255297,0.0830113498833543,0.02872637415857467,8.7115900980871,0.14603266750576935,0.11620880249999996,-0.013238977500000026,-0.26458341700000076
180392.0,-0.20593965,-0.9102532529999999,8.378605627,-0.19633208755684214,0.11631921332841409,0.034854225162326766,8.430421364133306,0.23084900910646078,0.0,0.06943108200000003,-0.2752726654999975
180402.0,-0.215550167,-0.7940444504999999,8.045767925999998,-0.27680398337854467,0.1275102644922017,0.043647193933874194,8.087728357388983,0.30787073635440265,-0.009610516999999985,0.11620880249999999,-0.33283770100000254
180412.0,-0.282627653,-0.610954295,7.692630459499999,-0.3530120398376251,0.10779327993242178,0.05590464127063037,7.722027384518032,0.373312496957319,-0.06707748599999999,0.18309015549999996,-0.3531374664999989
180422.0,-0.3711817025,-0.41217349949999993,7.2604513939999995,-0.4310858532670874,0.061161572977637295,0.06736272780997314,7.281608153052279,0.44058312268414485,-0.08855404950000001,0.19878079550000005,-0.43217906549999974
180432.0,-0.4190381544999999,-0.19554460099999998,6.8008137085,-0.5102260628695183,-0.0006579891280018622,0.07695505737893399,6.816516541726319,0.5159972374317688,-0.04785645199999994,0.21662889849999994,-0.4596376854999997
180442.0,-0.4550285599999999,0.011571847,6.324308585,-0.5944277273027327,-0.06594028446959777,0.08921250471569016,6.340667470886907,0.6046910906403951,-0.03599040549999999,0.20711644799999998,-0.47650512349999996
180452.0,-0.3580407915,-0.09022118,5.8371142129999996,-0.6850242781152545,-0.14108369008496163,0.11346036401364737,5.848780676799664,0.7085450750780957,0.0969877684999999,-0.101793027,-0.48719437200000026
180462.0,-0.1305265115,-0.45885315349999994,5.414545664499999,-0.7740238526622013,-0.1967736558575967,0.15289782379171127,5.435520963039052,0.8131485354164036,0.22751428,-0.36863197349999993,-0.42256854850000014
180472.0,0.011866046499999998,-0.764134168,4.980013003,-0.8496978383701714,-0.20903110319435286,0.1888690596753144,5.038310365570354,0.8951826295992498,0.142392558,-0.30528101450000006,-0.4345326614999996
180482.0,0.029812216,-0.936535075,4.492818631,-0.9155142044628776,-0.1951749342627699,0.21258459355141332,4.589488638834265,0.9599227692648986,0.0179461695,-0.172400907,-0.48719437200000026
180492.0,-0.1293497135,-0.892209017,4.0522058465,-0.9592155036035637,-0.14587985486944205,0.22937117029709478,4.151281790098984,0.9969886900931356,-0.1591619295,0.044326058,-0.44061278449999985
180502.0,-0.5279900359999999,-0.636059319,3.7003432445,-0.9640116683880441,-0.07713308096263741,0.2488246101398236,3.79155443881778,0.9985898535326324,-0.3986403224999999,0.256149698,-0.35186260199999975
180512.0,-1.0116540139999999,-0.34038882149999994,3.4859698755,-0.926172930204807,-0.013447761886616309,0.27093967709184374,3.645722749570784,0.9650831298735617,-0.48366397799999994,0.2956704975000001,-0.21437336900000004
180522.0,-1.5060072405,-0.2829218525,3.4573344574999996,-0.8451687089612461,0.05396732580091666,0.29199009320014735,3.7817012222116744,0.8958129455351449,-0.49435322650000013,0.05746696899999992,-0.028635418000000357
180532.0,-1.705964834,-0.879068106,3.4381134235,-0.7569702405409647,0.11924962114251256,0.30051777192539164,3.937473893587355,0.823125354031985,-0.19995759349999997,-0.5961462535,-0.019221033999999637
180542.0,-1.5455280399999998,-1.6416332099999997,3.420167254,-0.6876893958830497,0.21837385068027854,0.2637454299151231,4.096481485852834,0.7682222957400022,0.16043679400000022,-0.7625651039999998,-0.017946169500000053
180552.0,-1.3683218744999999,-2.090581647,3.5063677074999995,-0.63652855951934,0.3782512461507151,0.18087545170118036,4.305514008246544,0.7622063640028472,0.1772061654999999,-0.4489484370000003,0.08620045349999961
180562.0,-1.2882015439999999,-2.161189527,3.6009038135,-0.6002902882601817,0.5447905633760141,0.09320930870275716,4.39280225638001,0.8159860068358358,0.0801203305,-0.07060787999999985,0.09453610600000051
180572.0,-1.3551809635,-1.931321651,3.6751401539999997,-0.5507281734912988,0.632191416328134,0.025528930968921056,4.367284501265894,0.8388201441742146,-0.06697941950000019,0.22986787599999992,0.07423634049999972
180582.0,-1.576713187,-1.5278760699999998,3.8702924889999997,-0.44920586156129255,0.6383192673318862,-0.029628709381855738,4.44967343855121,0.7810987476163136,-0.2215322234999999,0.40344558100000016,0.19515233499999995
180592.0,-2.0243867595,-1.119723297,4.2330404725,-0.20752313872062977,0.6127397218146572,-0.06640105139212427,4.8239562244807415,0.6503267789503556,-0.44767357250000006,0.40815277299999986,0.36274798350000026
180602.0,-2.4852993094999998,-0.8647503969999999,4.8112405565,0.18684098708449695,0.5474556811438094,-0.06693512214323454,5.483843688456415,0.5823208633113459,-0.46091254999999975,0.25497290000000006,0.5782000839999997
180612.0,-2.308093144,-1.4069600754999998,5.455243262,0.6078510545798211,0.4571244203775908,-0.0682668083625062,6.088227136287473,0.763613775008906,0.1772061654999999,-0.5422096784999999,0.6440027055000002
180622.0,-1.8604195714999998,-1.8570853105,6.0298148854999996,0.8985618214382567,0.4563250595801774,-0.10290635802683766,6.577886772048641,1.013032884693107,0.44767357250000006,-0.45012523500000023,0.5745716234999998
180632.0,-1.6305516955,-1.7876542284999999,6.496709491999999,0.9987524471489911,0.5669073756572862,-0.15779870833131132,6.9326503370511015,1.159219934098685,0.22986787599999992,0.06943108200000014,0.4668946064999995
180642.0,-1.5719079284999997,-1.445304077,6.840334508,0.9673085953450613,0.6609684050350165,-0.2081601838976077,7.165889658096166,1.1899142041522384,0.05864376700000018,0.3423501514999998,0.3436250160000007
180652.0,-1.5958361545,-1.08853815,7.2868312825,0.8769790799080948,0.6303256593577522,-0.2657159066406247,7.538535565720664,1.1122084725819539,-0.02392822600000022,0.3567659270000001,0.4464967744999999
180662.0,-1.5659258719999998,-0.9880199875,7.644774007499999,0.8545952322512675,0.4893658876496821,-0.3387265199100515,7.8658042791596365,1.0414161695845392,0.029910282500000163,0.10051816250000001,0.35794272499999913
180672.0,-1.5060072405,-0.9066247924999999,8.185806888,1.0317932752184957,0.3071063898516702,-0.39947968584272214,8.372422632096539,1.1482576874878028,0.059918631499999764,0.08139519500000003,0.5410328805000013
180682.0,-1.3898965044999998,-0.6803853769999999,8.796368916999999,1.36353847812057,0.1365702686393043,-0.40587457222202933,8.931452439464731,1.4292035502222862,0.11611073600000021,0.22623941550000004,0.6105620289999987
180692.0,-1.246229082,-0.402661049,9.3219072905,1.6942190301789277,0.04543964707567237,-0.3472524533060438,9.413457302069277,1.730036748185961,0.14366742249999986,0.2777243279999999,0.5255383735000017
180702.0,-1.1361004024999999,-0.08178746099999999,9.7061318375,1.8788766103691799,0.07661646350404708,-0.24972694536310464,9.77273802781332,1.8969477975718343,0.11012867950000005,0.320873588,0.38422454699999875
180712.0,-1.0523516115,0.14925721299999997,10.139487701,1.8676855592053918,0.24901834168679496,-0.14154445700748813,10.195044505473698,1.8895222454023513,0.08374879099999988,0.23104467399999995,0.433355863500001
180722.0,-1.164833887,0.1803442935,10.685423906499999,1.707275838313097,0.4520612202175553,-0.057341047245021703,10.750239351293683,1.7670421983109033,-0.1124822754999999,0.03108708050000003,0.5459362054999986
180732.0,-1.3216422205,0.0283412185,11.1486900525,1.4938395240867106,0.5485220773167779,-0.04002214507748197,11.226790782337874,1.5918651843432365,-0.15680833350000012,-0.152003075,0.4632661460000005
180742.0,-1.454522328,-0.23987065899999999,11.5340913975,1.360075744884613,0.53679695540188,-0.10770252281131808,11.627916300936429,1.4661367045988876,-0.1328801074999999,-0.2682118775,0.385401345
180752.0,-1.7837315685,-0.3392120235,12.040506803499998,1.4104354751216575,0.4741780324988274,-0.2121569878846747,12.176640225878408,1.5030580905255833,-0.3292092405,-0.09934136450000003,0.5064154059999986
180762.0,-2.1860003514999997,-0.2470295135,12.6402815175,1.61587818137391,0.34627681425417894,-0.2896967305630268,12.830289862623927,1.6777646214022945,-0.4022687829999998,0.09218251000000002,0.5997747140000023
180772.0,-2.3835062825,-0.092574776,13.243586625499999,1.829848566351407,0.22716681945182596,-0.32913419034109065,13.456680831281943,1.8730402704933078,-0.19750593100000025,0.1544547375,0.6033051079999989
180782.0,-2.437344791,0.1336646395,13.747550369,1.8730157947409827,0.17654005383922644,-0.3539143750609061,13.962580600098951,1.914317095685431,-0.05383850850000016,0.22623941549999999,0.5039637435000017
180792.0,-2.274554401,0.405406911,14.064795496499999,1.6803628612473445,0.18932982659784087,-0.37576415196662316,14.253295227594274,1.7322424272029957,0.16279039000000006,0.27174227149999997,0.3172451274999979
180802.0,-2.0471381875,0.5981075835,14.306627485499998,1.3691340037024637,0.24049066296155067,-0.39574817190195827,14.464719058765883,1.4453305139758748,0.22741621350000019,0.19270067250000006,0.24183198899999958
180812.0,-1.811288255,0.498766219,14.450294907999998,1.1346472733677735,0.22237065466734554,-0.41573393716654533,14.571909820338828,1.2287016926537149,0.23584993249999986,-0.09934136450000003,0.14366742250000009
180822.0,-1.6975311149999999,0.2150598345,14.5627771835,1.0928134765267215,0.10432880136721304,-0.4490418006116051,14.662958157038998,1.1860709641373282,0.11375714000000015,-0.2837063845,0.11248227550000145
180832.0,-1.8531626504999998,0.070215614,14.874040254499999,1.2390999931118782,-0.05341754708653845,-0.49167495825007057,14.989203298846272,1.3341538486384574,-0.15563153549999997,-0.1448442205,0.31126307099999906
180842.0,-2.1034283584999995,0.03912853349999999,15.251105947,1.4658601508479896,-0.21596006032477036,-0.512460084312071,15.395524496037625,1.567801029312299,-0.2502657079999997,-0.031087080500000003,0.37706569250000044
180852.0,-2.2207158925,0.310870805,15.622189583,1.6342652250436704,-0.3390651137849384,-0.5089956057468623,15.78230107113019,1.7449540119563747,-0.11728753400000036,0.27174227149999997,0.3710836360000016
180862.0,-2.0878357849999998,0.5035714775,15.937081114499998,1.6145464951546384,-0.39768723270092393,-0.48421367569779483,16.081144143008938,1.7318713589069528,0.13288010750000012,0.1927006725,0.31489153149999716
180872.0,-1.7802011745,0.635274787,16.083102133,1.4085714634805278,-0.38356402839378584,-0.4405141218863608,16.193790924215314,1.524876264878779,0.30763461049999985,0.13170330949999998,0.1460210185000026
180882.0,-1.4581507884999998,0.6555745525000001,16.062802367499998,1.1032051668930958,-0.3148172544869812,-0.3954828818556551,16.142168429713905,1.2134983534489028,0.32205038600000013,0.020299765500000122,-0.020299765500002565
180892.0,-1.1780728645,0.5849666725,15.829306030999998,0.8047678274360813,-0.23754280185493226,-0.35258268884163446,15.88385882287613,0.9101606403597547,0.28007792399999976,-0.07060788000000007,-0.2334963365
180902.0,-0.987725788,0.5059250734999999,15.395950167499999,0.5881323246907891,-0.1951749342627699,-0.3171420330506376,15.435894660576672,0.6961120279367109,0.19034707650000005,-0.07904159900000007,-0.4333558634999992
180912.0,-0.9721332144999999,0.4497329689999999,15.0105488225,0.484478965744098,-0.1719934711377812,-0.2803714363696211,15.048716845060108,0.5855849764931288,0.015592573500000095,-0.056192104500000006,-0.38540134499999823
180922.0,-1.1433573234999999,0.5131819945,14.8153964875,0.47355494995586545,-0.1538734628435761,-0.23373972941483662,14.868308404472494,0.5500596279514582,-0.17122410899999996,0.06344902550000009,-0.1951523350000013
180932.0,-1.4162763929999997,0.6795027785,14.678887919500001,0.4879434443093067,-0.13282304673527245,-0.16632464172730363,14.762700071484261,0.5323482441355337,-0.2729190694999999,0.16632078399999994,-0.13650856799999822
180942.0,-1.5479797024999997,0.8327807179999999,14.445489649499999,0.4642279104332077,-0.0957854146787008,-0.0962444362719753,14.552042334237356,0.48367901546755504,-0.13170330949999998,0.1532779394999999,-0.23339827000000213
180952.0,-1.466486441,0.7932599185,14.215621773499999,0.36430432009802843,-0.04515690373684929,-0.04055447049934024,14.313062082836877,0.36932566750046997,0.08149326149999969,-0.03952079949999987,-0.22986787600000014
180962.0,-1.3216422205,0.557409986,14.014487381999999,0.24039990584044696,-0.0019896753472735357,-0.0003193952531149623,14.087700331556526,0.2404083516631879,0.1448442205,-0.23584993249999997,-0.20113439150000012
180972.0,-1.2174955975,0.41619422599999994,13.735586256,0.15726289225094908,0.002007128639793479,0.006876597252857658,13.795718283572759,0.15742596175436982,0.1041466230000001,-0.14121576000000008,-0.27890112599999917
180982.0,-1.1600286285,0.46885593649999996,13.4148107345,0.12662014657368462,-0.04116009974978227,-0.010177014868378935,13.473033784214575,0.1335304720331079,0.05746696899999981,0.052661710500000014,-0.3207755214999999
180992.0,-1.1672855494999999,0.6220358094999999,13.120317035,0.12448909955699954,-0.12562879955855186,-0.034426619495588145,13.186819298120492,0.1801813622906913,-0.00725692099999975,0.15317987299999997,-0.29449369950000026
181002.0,-1.187585315,0.7454034664999999,12.823371672999999,0.13568015072078718,-0.22288727212593587,-0.060006165012817046,12.899800241560824,0.2677472300788599,-0.020299765500000122,0.12336765699999996,-0.29694536200000066
181012.0,-1.206806349,0.9070170585,12.5253475795,0.14474015486788974,-0.3006940501798431,-0.0829223380915026,12.615997522815356,0.34386441862934897,-0.01922103400000008,0.16161359200000014,-0.2980240934999987
181022.0,-1.303696051,1.215828467,12.2380127345,0.13914288395674393,-0.3350683097978714,-0.08931722447080981,12.367166932824377,0.3736429859823027,-0.09688970199999991,0.3088114084999999,-0.28733484500000017
181032.0,-1.3085013094999998,1.3965650265,11.8908573245,0.09784141253755012,-0.3425295923501471,-0.07705977713405363,12.04388049848642,0.36446902871828635,-0.004805258499999798,0.18073655950000012,-0.34715540999999916
181042.0,-1.0978544675,1.2792774925000001,11.5556660275,0.01204102650950888,-0.33080447043524924,-0.052012557038683016,11.677981532514274,0.3350848997926505,0.21064684199999983,-0.11728753399999992,-0.3351912970000015
181052.0,-0.8871095589999999,1.0794179655,11.131920681,-0.08361872446304834,-0.306556611137292,-0.03309318794706448,11.219258645828113,0.31947489103419036,0.21074490850000005,-0.1998595270000001,-0.42374534649999873
181062.0,-0.7734504855,1.020676132,10.7452444715,-0.14730404353906942,-0.27804491247671265,-0.022701497580690243,10.821288470984218,0.31547236422474306,0.11365907349999993,-0.05874183350000006,-0.3866762095000009
181072.0,-0.7674684289999999,1.051861279,10.382496488000001,-0.17021847128850298,-0.2652551397180982,-0.008313003227248992,10.46382593811191,0.31528355989064666,0.005982056500000055,0.03118514699999997,-0.3627479834999985
181082.0,-0.7542294515,1.085400022,10.093984845,-0.1558299769350617,-0.258860253338791,0.012205087459196347,10.180151537396545,0.30239142949179554,0.013238977499999915,0.03353874300000004,-0.2885116430000014
181092.0,-0.7925734529999999,1.136786868,9.953945883,-0.11106402695065916,-0.24180664121755438,0.040716786119775715,10.049950034868344,0.2691905022309208,-0.03834400149999995,0.051386845999999986,-0.1400389620000002
181102.0,-0.7973787114999998,1.2565260644999998,9.885691599,-0.06976255553146535,-0.21329494255697504,0.07962017514672931,9.997078020644853,0.23811954763324222,-0.004805258499999909,0.11973919649999987,-0.068254284
181112.0,-0.8488636239999999,1.437262624,9.766050469,-0.06443406532512666,-0.16213410619326524,0.12864996449375402,9.907675563196086,0.21677183979856762,-0.05148491250000009,0.18073655950000012,-0.11964112999999976
181122.0,-0.9027021325,1.5055169079999997,9.7265296695,-0.09934065036501324,-0.08779180670456677,0.18247417329600715,9.883664892738812,0.22554997242176084,-0.05383850850000005,0.06825428399999978,-0.03952079949999998
181132.0,-0.944576528,1.3846009135,9.664257442,-0.16142550251695556,-0.012648401089202906,0.22297628391778757,9.808527739276979,0.27556595962264785,-0.04187439550000005,-0.12091599449999979,-0.06227222749999939
181142.0,-1.0355822399999999,1.190723443,9.7037782415,-0.22537611163927976,0.04330860005898729,0.23443437045713034,9.831254500506128,0.3280693533208206,-0.09100571199999985,-0.19387747049999993,0.03952079949999998
181152.0,-1.1181542329999998,0.948891454,9.691814128499999,-0.27493822640816273,0.061161572977637295,0.20672203259396438,9.802138796285341,0.3493791137279747,-0.08257199299999995,-0.24183198900000002,-0.01196411300000122
181162.0,-1.163657089,0.7896314579999999,9.696619387,-0.2949239916727498,0.03584731750671154,0.14596886666129377,9.798063237017171,0.33101676856467216,-0.04550285600000015,-0.15925999600000007,0.0048052585000011305
181172.0,-1.128941548,0.7334393534999999,9.6486648685,-0.27493822640816273,0.00467224640758882,0.07908784972487104,9.742134060291372,0.28612540292861655,0.03471554099999996,-0.056192104500000006,-0.04795451850000099
