timestamp,ax,ay,az,gx,gy,gz,acc_mag,gyro_mag,dax,day,daz
167172.0,0.4129580315,-1.5758305885,9.0596774695,0.2478611883927227,0.433675921877047,-0.04082150587489538,9.204973233573172,0.5011749886708767,0.0,0.0,0.0
167182.0,0.06452775699999999,-1.6380047495,8.911302854999999,0.29875498938087736,0.37691955993144344,-0.03469190954189129,9.060824574195173,0.48220994071726053,-0.34843027449999997,-0.06217416100000017,-0.14837461450000156
167192.0,0.2752726655,-1.468055505,9.3134735715,0.3485823941960635,0.3356180885122496,-0.03682470188782836,9.432483870813734,0.4852888269362931,0.21074490850000002,0.16994924450000015,0.4021707165000006
167202.0,0.203389921,-1.3076187109999997,9.6008084165,0.3738966496669892,0.29564830331232744,-0.026431266192202128,9.691581728678704,0.47739421416286587,-0.07188274450000001,0.16043679400000022,0.28733484500000017
167212.0,0.21064684199999997,-1.2370108309999999,9.860586575,0.36083984153281967,0.23809258056931046,0.0031450833120937817,9.94010741849031,0.43232321208630936,0.007256920999999972,0.07060787999999985,0.25977815849999963
167222.0,0.362649917,-1.4022528834999999,9.9599279395,0.30168539719497584,0.17280853989846254,0.03885102914939378,10.064690391244874,0.3498374948579639,0.15200307500000002,-0.16524205250000001,0.09934136450000075
167232.0,0.48238911349999997,-1.5446454415,9.9383533095,0.2129546033528361,0.12138241348844964,0.061500166852524185,10.069235090175402,0.2527164892054593,0.11973919649999998,-0.14239255800000006,-0.021574629999999928
167242.0,0.478760653,-1.5494507,9.7875270325,0.11729310705102691,0.09500176184455535,0.06842912398294168,9.920972464759174,0.1657273445280714,-0.003628460499999986,-0.00480525850000002,-0.15082627700000018
167252.0,0.354216198,-1.4250043115,9.7061318375,0.04774697234680887,0.0915390286085986,0.07135953179704015,9.816572805702114,0.12550438201587044,-0.124544455,0.1244463885,-0.0813951950000007
167262.0,0.16396718799999999,-1.3483163084999998,9.6104189335,0.023499113048851654,0.0939371110008388,0.07935313977117418,9.705925725240379,0.12519309057935316,-0.19024901,0.07668800300000012,-0.0957129039999991
167272.0,-0.0610954295,-1.3328218015,9.5888443035,0.045881215376426934,0.09260367945231512,0.08121889674155613,9.68122315014089,0.13144214149366543,-0.22506261749999998,0.01549450699999988,-0.021574629999999928
167282.0,-0.2346731345,-1.3949959624999997,9.6223830465,0.09091420073638462,0.0768834988796022,0.0732252887674221,9.725807972041087,0.13977985266331405,-0.173577705,-0.06217416099999973,0.03353874299999937
167292.0,-0.2670350795,-1.5913250954999998,9.7157423545,0.1319486367800233,0.0558330827712986,0.05350655887839016,9.848820883348262,0.15294027501891003,-0.032361945,-0.1963291330000001,0.09335930800000014
167302.0,-0.1401370285,-1.8582621084999997,9.770757661,0.14553951566530315,0.04837180021902285,0.027127652563747863,9.946883015328664,0.1557481659928601,0.12689805099999998,-0.26693701299999995,0.05501530649999964
167312.0,-0.025203090499999997,-2.0115400479999996,9.782721773999999,0.11596142083175524,0.06036221218022388,-0.005914920835008782,9.987420781561788,0.13086494591407674,0.11493393800000001,-0.1532779394999999,0.011964112999999443
167322.0,0.04903325,-1.9959474744999999,9.713290692,0.053876568679812956,0.08247902446149603,-0.04188615671861192,9.916361562985808,0.10705103574224203,0.0742363405,0.015592573499999762,-0.06943108199999948
167332.0,0.07649186999999999,-1.8666958274999998,9.572074932,-0.009541715020653,0.11685153875027236,-0.07226361234957321,9.752693106132522,0.13772202475875508,0.02745861999999999,0.12925164700000003,-0.1412157599999997
167342.0,0.0442279915,-1.7074358314999998,9.5529519645,-0.04098556682458284,0.15868708092057643,-0.08851786367339641,9.704441481608647,0.1862708203888304,-0.03226387849999999,0.15925999600000007,-0.019122967499999532
167352.0,-0.063547092,-1.5231688780000001,9.6104189335,-0.035123005867133884,0.19759046994753005,-0.08905018909525468,9.730582394758533,0.21955763601644357,-0.10777508350000001,0.18426695349999966,0.057466969000000034
167362.0,-0.24310685349999997,-1.4261811094999999,9.7851734365,0.00404741853537485,0.2111796035035579,-0.07572809091478196,9.891547537251112,0.22438348933537403,-0.17955976149999997,0.09698776850000024,0.17475450299999906
167372.0,-0.3568639935,-1.512381563,9.997095143,0.05813866271318312,0.17840581080960838,-0.059473839590958776,10.117141948206186,0.19683971913311132,-0.11375714,-0.08620045350000005,0.21192170650000008
167382.0,-0.332837701,-1.7708848569999998,10.128700385999998,0.10343693811944393,0.09660048343938214,-0.0488151138490294,10.287729857520336,0.14971228709876058,0.02402629249999999,-0.25850329399999983,0.1316052429999992
167392.0,-0.2311427405,-1.9636835959999999,10.2125472435,0.1319486367800233,0.006803293424273897,-0.05334424325795469,10.402192145524172,0.14248626543736465,0.10169496049999999,-0.1927987390000001,0.08384685750000109
167402.0,-0.0383440015,-2.0390967344999997,10.1790085005,0.13514607996967692,-0.08219453579342095,-0.07146425155215981,10.38131012003547,0.1735728777642885,0.192798739,-0.07541313849999987,-0.03353874299999937
167412.0,0.1352337035,-1.9121986834999998,9.985032963499998,0.11436269923692845,-0.12802688195079204,-0.09677850702308557,10.16738291016538,0.19706798040375714,0.173577705,0.12689805099999996,-0.1939755370000018
167422.0,0.24291072049999998,-1.6572257835,9.8091016625,0.08425227898152227,-0.10804286201545699,-0.11143403675208195,9.951074230498499,0.17660478785394151,0.10767701699999999,0.25497289999999984,-0.17593130099999854
167432.0,0.26085688999999995,-1.4046064795,9.7192727485,0.058938023510596516,-0.037695621184573536,-0.10637083659204641,9.82370746913041,0.12731616295317078,0.01794616949999997,0.252619304,-0.08982891399999993
167442.0,0.1711260425,-1.1472799834999998,9.803119606,0.0472146469249506,0.05183453345497959,-0.07999018494815212,9.871508977481763,0.10636950423304006,-0.08973084749999996,0.2573264960000001,0.08384685749999932
167452.0,0.07178467799999999,-0.9784094704999999,9.9635564,0.035489525010052696,0.11525281715544555,-0.03575830571485982,10.011737824570748,0.1257830460567047,-0.0993413645,0.1688705129999999,0.16043679400000066
167462.0,0.0226533615,-0.9425171314999999,10.103595362,0.014971434323607358,0.12431282130254812,0.015402530648849957,10.147486928150544,0.12615490214927882,-0.049131316499999994,0.035892338999999995,0.1400389620000002
167472.0,0.10404855649999999,-1.1005022629999999,10.219706098,-0.007942993425826194,0.074485416487362,0.059636155211394246,10.279315349889615,0.09574779069125304,0.08139519499999999,-0.15798513149999993,0.11611073599999955
167482.0,0.19985952699999998,-1.2322055725,10.159885532999999,-0.024996605547062786,-0.01398008730847458,0.08388401450935146,10.236285871696598,0.08863859780159604,0.0958109705,-0.1317033095000002,-0.05982056500000077
167492.0,0.28360831799999997,-1.2848672829999999,9.9611047375,-0.037254052883818965,-0.112039666002524,0.09400866950017057,10.04763281596255,0.1509250845798001,0.08374879099999999,-0.05266171049999979,-0.19878079549999939
167502.0,0.27762626149999997,-1.2214182574999999,9.676221555,-0.04205021766829938,-0.17705667129781677,0.0918776224834855,9.756956619882832,0.2038597144367478,-0.005982056499999999,0.06344902549999998,-0.2848831824999998
167512.0,0.19024901,-1.1496335795,9.378099395,-0.0399191706516143,-0.1991717382498369,0.0817512221634144,9.450216945415557,0.21896617051084896,-0.08737725149999997,0.07178467799999999,-0.29812216000000014
167522.0,0.11846433199999999,-1.0790256995,9.1363654725,-0.0460470216553664,-0.18158580070674205,0.06842912398294168,9.200625212735698,0.19943990631443653,-0.071784678,0.07060787999999985,-0.24173392249999992
167532.0,-0.0072569209999999995,-0.9029963319999998,8.934054283,-0.06789679856108341,-0.13229072131341418,0.04684463712352781,8.979575767824363,0.15590134774177788,-0.12572125299999998,0.1760293675000002,-0.2023111894999996
167542.0,-0.14494228699999998,-0.6875442315,8.7244861725,-0.1145285055158679,-0.0787318025574642,0.024462534795952524,8.752735818643988,0.14111658626217155,-0.13768536599999998,0.21545210049999985,-0.20956811049999935
167552.0,-0.30655587900000003,-0.4541459614999999,8.5246266455,-0.19073656197494832,-0.046488589956120964,-0.0005846852994181004,8.542217774469625,0.1963210812088987,-0.16161359200000006,0.23339827000000007,-0.19985952700000098
167562.0,-0.37598696099999995,-0.34754767599999997,8.183453292,-0.2949239916727498,-0.042491785969053945,-0.028297023162584065,8.199455065080889,0.299309930104051,-0.06943108199999992,0.10659828549999995,-0.34117335350000033
167572.0,-0.22633748199999998,-0.5810440124999999,7.656738120499999,-0.41190119412916576,-0.045423939112404416,-0.05068087081941134,7.682088221710166,0.4174859023207059,0.14964947899999997,-0.23349633649999996,-0.5267151715000002
167582.0,0.023830159499999996,-1.007142955,7.0390172369999995,-0.5080932705235812,-0.0027890361446869386,-0.0666680867676794,7.110743172910341,0.5124560313502303,0.2501676415,-0.4260989425,-0.6177208834999997
167592.0,0.12199472599999998,-1.2848672829999999,6.4069786445,-0.5659160286421533,0.0955358325956656,-0.08638681665671134,6.535682213753563,0.5803884293091427,0.0981645665,-0.2777243279999999,-0.6320385924999998
167602.0,0.028635417999999996,-1.330370139,5.835937414999999,-0.5859000485774885,0.23036600797073156,-0.11196636217394022,5.985722195834333,0.6394402480372505,-0.09335930799999999,-0.04550285600000015,-0.5710412295000005
167612.0,-0.17848102999999998,-1.1615976925,5.4025815515,-0.5832366761389451,0.3702576381765811,-0.12795357812220828,5.528928657334921,0.7025865478188299,-0.20711644799999998,0.1687724465,-0.4333558634999992
167622.0,-0.48974410099999993,-0.8527862839999999,5.0805311655,-0.5749760327892559,0.4776425110640362,-0.1375476530204211,5.1748324276501565,0.7600389223645428,-0.31126307099999995,0.3088114085000001,-0.3220503859999999
167632.0,-0.8128732185,-0.5463284715,4.7657377005,-0.5747089974137009,0.5277369512547775,-0.14634062179196855,4.865335908043051,0.7938591178631185,-0.3231291175000001,0.3064578124999999,-0.31479346500000016
167642.0,-0.8763222439999999,-0.610954295,4.4077949755,-0.58296964076339,0.49842589179678465,-0.13914637461524793,4.535401015560938,0.7795150320768567,-0.06344902549999987,-0.06462582350000001,-0.357942725
167652.0,-0.5279900359999999,-1.2717263719999998,4.1169297364999995,-0.5736426012407323,0.4342082472989053,-0.1039727541998062,4.341102613234743,0.7269201947920517,0.348332208,-0.6607720769999998,-0.2908652390000004
167662.0,-0.13415497199999998,-1.812857319,3.9121668845,-0.517685600092542,0.4126255057687434,-0.0666680867676794,4.313872847887687,0.665359167929134,0.39383506399999996,-0.5411309470000001,-0.20476285199999955
167672.0,-0.045600922499999995,-1.9025881664999997,3.7589870114999995,-0.4260226531070519,0.433675921877047,-0.025099579972930452,4.213300906422941,0.6084407079503273,0.08855404949999998,-0.08973084749999982,-0.15317987300000047
167682.0,-0.1976039975,-1.7853006324999998,3.4105567369999994,-0.3133092900132581,0.4624546559131815,0.05323952350283503,3.8546391458253213,0.561125179302444,-0.152003075,0.11728753399999992,-0.3484302745000001
167692.0,-0.4250202109999999,-1.6356511534999998,3.0813474965,-0.19260231894533023,0.5053548489272022,0.15902567479546334,3.5143561671935273,0.5637094480683347,-0.22741621349999994,0.14964947900000003,-0.32920924049999956
167702.0,-0.7063729994999999,-1.5673968695,2.867072194,-0.05244365336392561,0.5666403402817309,0.2586822297550876,3.3430223939646293,0.6250984786446175,-0.28135278849999995,0.06825428399999978,-0.21427530249999993
167712.0,-1.0199896665,-1.559061217,2.8108800895,0.11702781700472378,0.6196669336158227,0.3242333058014906,3.372254094173188,0.7090908652356837,-0.313616667,0.008335652500000013,-0.056192104500000006
167722.0,-1.107366918,-1.8283518259999998,3.0107396165,0.3104783659665233,0.6420490359433981,0.3306281921807978,3.6923820128855733,0.7860908228403585,-0.0873772515000002,-0.2692906089999998,0.1998595270000001
167732.0,-1.211513541,-2.2317974069999997,3.4633165139999997,0.528178519555532,0.6476445615252919,0.30344817973949006,4.2945600475559065,0.8890988833534609,-0.10414662299999988,-0.40344558099999994,0.45257689749999974
167742.0,-1.1960190339999999,-2.4377370569999997,4.1910680105,0.7568044342620251,0.6401850243022681,0.23763181364678393,4.993803616222583,1.0193422859455106,0.015494507000000102,-0.20593964999999992,0.7277514965000007
167752.0,-1.2402470255,-2.1324560425,5.230180644499999,0.9268064847232809,0.588224827141145,0.11772420337626952,5.782764998818367,1.1040098257945588,-0.04422799150000012,0.3052810144999998,1.0391126339999985
167762.0,-1.2415218899999998,-1.6213334445,6.311167674,0.996619654803054,0.5365299200263248,-0.010711085619489202,6.633320145368078,1.1319142276596585,-0.001274864499999806,0.5111225979999998,1.080987029500001
167772.0,-1.2199472599999999,-0.9137836469999999,7.0282299219999995,0.9755692386947504,0.4938967623878594,-0.09704379706938872,7.1916123162474666,1.0977644783533074,0.021574629999999928,0.7075497975000001,0.7170622479999995
167782.0,-1.1086417825,-0.217119231,7.515424294,0.8761797191106814,0.4869678052574419,-0.13195038210927532,7.5998572145284555,1.01105857737171,0.11130547749999997,0.696664416,0.48719437200000026
167792.0,-0.945753326,0.2234935535,7.8218821065,0.7029784801305201,0.5296027082251594,-0.14634062179196855,7.882019944790866,0.8922294265896521,0.16288845649999995,0.44061278449999997,0.3064578125000006
167802.0,-0.8882863569999999,0.498766219,8.193063809,0.522315958598083,0.6305926947333073,-0.11516380536359384,8.25615618624027,0.8268759334525779,0.057466969000000034,0.2752726655,0.3711817024999995
167812.0,-0.9948846425,0.44129925,8.930425822499998,0.39095026178822584,0.7417073362322741,-0.09118298144119176,8.996501867454244,0.8433778606992022,-0.10659828550000006,-0.057466969000000034,0.7373620134999985
167822.0,-1.310952972,0.36235571749999995,9.7528114915,0.38881921477154074,0.7558287952101603,-0.09198234223860516,9.847194085095257,0.8549376004879538,-0.31606832949999997,-0.07894353250000002,0.8223856690000009
167832.0,-1.624569639,0.35392199849999995,10.635115792,0.5153887467969175,0.6700284091821191,-0.12582253110552322,10.764300962079732,0.8546314637139326,-0.313616667,-0.008433719000000006,0.8823043005000013
167842.0,-1.8184471095,0.380301887,11.339037129,0.716567613686548,0.497094205577513,-0.1777827282666464,11.49021942471706,0.8900440959149748,-0.19387747050000015,0.02637988850000006,0.7039213369999988
167852.0,-1.56710267,0.38863753949999996,11.9243960675,0.8871037348989139,0.26367387141579135,-0.22947589005221444,12.033207032625974,0.9534863035483256,0.2513444395000002,0.008335652499999957,0.5853589385000006
167862.0,-1.0558820055,0.21986509299999998,12.234384274,0.9702407484884117,0.06569070238656258,-0.27077736147140824,12.281831542264252,1.009456664692849,0.5112206644999999,-0.16877244649999998,0.3099882064999999
167872.0,-0.665675402,0.118072066,12.494162432499998,0.972638830880652,-0.031033699429711174,-0.2990237700856845,12.512440195393209,1.0180395871052517,0.3902066035,-0.10179302699999998,0.25977815849999786
167882.0,-0.5424058115,0.185149552,12.806602301499998,0.9454588184393443,-0.03583160954344358,-0.3112812174224407,12.81942069399939,0.9960282515708034,0.12326959049999997,0.06707748599999999,0.3124398690000003
167892.0,-0.757857912,0.507199938,13.243586625499999,0.9369328850433519,-0.010250318696962699,-0.2990237700856845,13.274945841660172,0.9835463970679291,-0.21545210049999997,0.32205038599999997,0.43698432400000087
167902.0,-0.9960614404999999,0.7513855229999999,13.551221235999998,0.9478569008315845,-0.031033699429711174,-0.2683792790791681,13.608538333871211,0.9856080521147358,-0.23820352849999993,0.24418558499999998,0.3076346104999992
167912.0,-0.9601691014999999,0.6999006105,13.7415683125,0.9518537048186515,-0.08645837515604311,-0.21082355633615105,13.79284181215596,0.9787477192401717,0.035892338999999995,-0.05148491249999998,0.19034707650000193
167922.0,-0.5686876335,0.27850886,13.709304434,0.9225426453606587,-0.1285592073726503,-0.14021102545896447,13.723920754423146,0.9419509190873909,0.39148146799999994,-0.42139175049999994,-0.03226387850000023
167932.0,-0.065900688,-0.183580488,13.521310953499999,0.8399397025222711,-0.07846476718190908,-0.08318762813780574,13.52271772231796,0.8476883891131849,0.5027869454999999,-0.462089348,-0.1879934805000012
167942.0,0.28723677849999996,-0.39550219449999996,13.239958165,0.7109720881046542,0.0915390286085986,-0.04321958826713559,13.248978042238862,0.7181424904797646,0.35313746649999994,-0.21192170649999997,-0.28135278849999956
167952.0,0.22976980949999998,-0.290080707,13.13110435,0.5625527791735604,0.3500065828656908,-0.0008517206749732328,13.13631768923545,0.6625488380740868,-0.05746696899999998,0.10542148749999997,-0.1088538149999998
167962.0,-0.15572960199999997,0.021182364,13.235250973,0.4397130157596954,0.6116733256416887,0.055639351224327234,13.23618406942806,0.7553724451783461,-0.38549941149999994,0.311263071,0.1041466230000001
167972.0,-0.749424193,0.3323473685,13.593095631499999,0.37975921062443824,0.7798113644618145,0.1222533327851948,13.617794984559978,0.8759387533241014,-0.593694591,0.3111650045,0.35784465849999947
167982.0,-1.2917319379999999,0.32881697449999997,14.0396904725,0.38668816775485565,0.8045915491816299,0.17794504388708185,14.102822432618794,0.910252568653381,-0.5423077449999999,-0.0035303940000000478,0.44659484100000135
167992.0,-1.5850488395,-0.24340105299999998,14.3795889615,0.41413347024246655,0.6564392756260912,0.2272401232804097,14.468731893220443,0.8087379843855926,-0.2933169015000001,-0.5722180275,0.3398984889999994
168002.0,-1.593384492,-0.9018195339999999,14.642995580500001,0.4373149333674552,0.4003680584319872,0.2504233317346504,14.75701433833391,0.6436231647756813,-0.008335652500000013,-0.658418481,0.2634066190000013
168012.0,-1.4809022164999999,-1.328016543,14.680064717499999,0.438913654962282,0.10965729157355172,0.23363500965971695,14.814216125846976,0.5091711262888854,0.11248227550000012,-0.426197009,0.03706913699999781
168022.0,-1.2988907925,-1.5411150475,14.551989868499998,0.4117353878502263,-0.169595388745541,0.19366522445979478,14.690900653581414,0.4855871133555648,0.18201142399999992,-0.2130985045,-0.12807484900000077
168032.0,-1.1960190339999999,-1.5542559584999998,14.3521303415,0.38668816775485565,-0.39502211493312855,0.1363765370923329,14.485503734893998,0.5693582090715349,0.10287175850000008,-0.01314091099999981,-0.19985952699999743
168042.0,-1.2402470255,-1.4429504809999998,14.170118917499998,0.38668816775485565,-0.5394446198771554,0.0756233711596623,14.29729306235873,0.6680173135941674,-0.04422799150000012,0.11130547749999997,-0.18201142400000236
168052.0,-1.3468453109999998,-1.1376694665,13.930738590999999,0.3928160187586077,-0.5810131266719043,0.03725230755456697,14.041857490999748,0.7023307001524034,-0.10659828549999983,0.3052810144999998,-0.23938032649999919
168062.0,-1.5371923875,-0.7581521115,13.6278111725,0.3720326380258593,-0.4962773914875796,0.032723178145641685,13.73517354872794,0.6211041293101728,-0.19034707650000016,0.37951735500000006,-0.3029274184999995
168072.0,-1.6891954624999999,-0.509161268,13.329787078999999,0.2950234754401135,-0.3033591679476384,0.05643871202174063,13.44603473440543,0.42690861323393287,-0.15200307499999988,0.2489908435,-0.2980240935000005
168082.0,-1.7239110034999998,-0.590556463,13.155032575999998,0.1521996920909135,-0.05474923330581012,0.09667378726796591,13.280644116894353,0.1884357873782866,-0.03471554099999996,-0.08139519500000003,-0.17475450300000084
168092.0,-1.6999827775,-0.9461455919999999,13.115511776499998,-0.02153387231110604,0.17813877543405324,0.12731653294523035,13.259026438037138,0.2200150688726774,0.023928225999999775,-0.35558912899999995,-0.03952079949999998
168102.0,-1.685567002,-1.2537802024999998,13.224463658,-0.16195957326806582,0.32416000197290684,0.11532612098402932,13.390277814749584,0.3802771679097654,0.014415775500000061,-0.30763461049999985,0.10895188150000124
168112.0,-1.7322466559999998,-1.3974476249999999,13.301053594499999,-0.235769547334906,0.3316212845251826,0.06762976318552827,13.485976607780493,0.41247271506024397,-0.04667965399999985,-0.14366742250000009,0.07658993649999957
168122.0,-1.7969705459999998,-1.3243880825,13.265161255499999,-0.2394993159464179,0.19119558356822283,0.004478514860617449,13.451676849771475,0.3064893645954981,-0.06472389,0.0730595424999998,-0.035892339000000106
168132.0,-1.7837315685,-1.1508103774999998,13.0927603485,-0.1806119069841292,-0.044889868361294154,-0.05414360405536809,13.263726338276097,0.19382283427409303,0.013238977499999915,0.17357770500000025,-0.17240090699999833
168142.0,-1.72989306,-0.9556580424999999,12.8018951095,-0.08361872446304834,-0.298563003163158,-0.09864251866421551,12.953545101163277,0.32536487890835913,0.05383850849999994,0.19515233499999995,-0.2908652390000004
168152.0,-1.6676208325,-0.681562175,12.387662213499999,0.012308061885064012,-0.5194605999418203,-0.12981933509259022,12.517973532291654,0.5355780643782609,0.062272227500000055,0.2740958674999998,-0.41423289600000146
168162.0,-1.532387129,-0.4983739529999999,11.901644639499999,0.07226186702032122,-0.675606481471493,-0.14687294721382682,12.010234470446145,0.6951529025004708,0.13523370349999997,0.18318822200000012,-0.4860175739999999
168172.0,-1.310952972,-0.47562252499999996,11.408468210999999,0.08425227898152227,-0.7483518046946167,-0.14447486482158658,11.49338772523056,0.7668127911481953,0.22143415700000002,0.022751427999999962,-0.4931764285
168182.0,-1.0942260069999998,-0.552310528,10.996588911,0.053876568679812956,-0.7408905221423409,-0.12981933509259022,11.064689112273465,0.7541051055502431,0.2167269650000001,-0.07668800300000006,-0.41187929999999895
168192.0,-0.885932761,-0.5762387539999999,10.61471796,-0.004480260189869444,-0.6705450266407095,-0.12662189190293663,10.667200444773274,0.6824102937332039,0.20829324599999988,-0.023928225999999886,-0.3818709509999998
