timestamp,ax,ay,az,gx,gy,gz,acc_mag,gyro_mag,dax,day,daz
80062.0,-1.2518188725000001,-2.615629688,8.107549821,-0.037254052883818965,0.1867065967320934,0.029522244297484086,8.61051294954553,0.19266234875530625,0.0,0.0,0.0
80072.0,-1.4529532639999998,-2.7748896839999997,8.223660556999999,-0.05137725719095708,0.09317789277622128,0.04017922471016146,8.79998175580469,0.11373703159917789,-0.20113439149999968,-0.15925999599999985,0.11611073599999955
80082.0,-1.4469712074999999,-2.75566865,8.1147086755,-0.03805341368123236,0.01910088333382594,0.038580503115334654,8.691141022452793,0.05745747347003503,0.005982056499999944,0.019221033999999637,-0.10895188149999946
80092.0,-1.4996329179999999,-2.639557914,7.924459665499999,-0.011407471991034937,-0.04085292180143127,0.04604178566761041,8.486060679740959,0.06260141902866324,-0.052661710500000014,0.11611073599999999,-0.1902490100000005
80102.0,-1.4589353205,-2.5988603165,7.7520587585,0.01257335193136715,-0.06962991050831378,0.05190434662505937,8.30523823916674,0.08775234934040292,0.040697597499999905,0.040697597499999905,-0.17240090699999921
80112.0,-1.454130062,-2.5749320905,7.609568133999999,0.03309144261781249,-0.061103977112321475,0.06309539778884701,8.16396329572145,0.09386036871653511,0.00480525850000002,0.02392822600000022,-0.1424906245000006
80122.0,-1.4457944095,-2.606019171,7.5341549955,0.0472146469249506,-0.046181412007769956,0.07375412353077637,8.102169394080734,0.09900311326959454,0.008335652500000013,-0.031087080499999864,-0.0754131384999992
80132.0,-1.450599668,-2.6420095764999996,7.518562422,0.060536745105423326,-0.03845483940919106,0.08361348847529235,8.100199682268945,0.110157558237978,-0.00480525850000002,-0.03599040549999977,-0.015592573500000206
80142.0,-1.4589353205,-2.6575040835,7.5557296255,0.08238652201114033,-0.045649086585911686,0.08627860624308768,8.141245015160763,0.1277316562582273,-0.008335652500000013,-0.015494507000000546,0.037167203500000134
80152.0,-1.430201836,-2.6467167685,7.628691101499999,0.10770077748206608,-0.057639498547112734,0.08254709230232381,8.200458210762502,0.14743063355548766,0.028733484500000017,0.010787314999999964,0.07296147599999969
80162.0,-1.426671442,-2.6240634069999995,7.726855667999999,0.12342270338403101,-0.07016398125942405,0.07615220592301658,8.28404482613889,0.16110650652204223,0.0035303939999999923,0.022653361500000635,0.0981645664999995
80172.0,-1.382345384,-2.5893478659999998,7.8142329195,0.11569438545620012,-0.07975631082838489,0.07508580975004805,8.347325155522718,0.15932400562646598,0.044326058,0.03471554099999974,0.08737725150000131
80182.0,-1.3607707539999998,-2.6611325439999995,7.852576921,0.08931547914155782,-0.0861511972076921,0.07695156672042999,8.402159708188096,0.14601653062353417,0.02157463000000015,-0.07178467799999977,0.038344001499999614
80192.0,-1.379991788,-2.7222279735,7.8669926965,0.07066314542549443,-0.10693457794044058,0.07775092751784339,8.438274501427273,0.14991160999272093,-0.019221034000000303,-0.06109542950000035,0.014415775499999839
80202.0,-1.4206893855,-2.717422715,7.7663764675,0.06906442383066762,-0.1493024455326029,0.07188836656039443,8.349811253975034,0.17952451678753958,-0.040697597499999905,0.004805258499999798,-0.10061622899999989
80212.0,-1.4290250379999998,-2.6970248829999997,7.6406552145,0.09837548328866039,-0.20925625066786013,0.05803219762881146,8.227737713710743,0.23839809168170212,-0.00833565249999979,0.02039783200000045,-0.12572125300000003
80222.0,-1.3632224165,-2.673096657,7.526996141,0.15033568044978357,-0.2606841224071251,0.036182420723094445,8.103054485880097,0.30309436824338293,0.06580262149999982,0.023928225999999775,-0.11365907350000004
80232.0,-1.278198761,-2.5857194055,7.5557296255,0.2033605284546233,-0.2580190046393297,0.018863518555554713,8.087569912542307,0.32906708073082885,0.0850236554999999,0.08737725149999997,0.028733484500000017
80242.0,-1.175228936,-2.4360699264999996,7.677822417999999,0.22121350137327328,-0.19833223487962764,0.010869910581420684,8.140304467349655,0.29730328544807416,0.10296982500000018,0.14964947900000025,0.12209279249999927
80252.0,-1.10226746,-2.3774261595,7.8705230905,0.19243651266639078,-0.10240544853151529,0.014332643817377436,8.29531689661965,0.21845849027890543,0.07296147599999991,0.058643766999999514,0.1927006725000009
80262.0,-1.1094263144999998,-2.428911072,8.024977828,0.12768654274665317,-0.01393994473567871,0.023125612588924867,8.457582685547973,0.13051041803411598,-0.007158854499999867,-0.05148491249999987,0.15445473750000094
80272.0,-1.2039624205,-2.5342344929999996,8.197378735,0.06906442383066762,0.04921130358923211,0.027389451951547013,8.664230381315894,0.0891169406915417,-0.09453610600000006,-0.10532342099999958,0.17240090699999833
80282.0,-1.415884127,-2.5868962035000003,8.34938181,0.03842167815340317,0.06253514709895683,0.019662879352968118,8.854882067985557,0.07598354295017605,-0.21192170650000008,-0.05266171050000068,0.15200307500000143
80292.0,-1.5977974844999998,-2.7066354,8.4332286675,0.05121145091201762,-0.006211626807847819,-0.009115854683166382,8.999898763227923,0.0523860269415287,-0.18191335749999982,-0.11973919649999987,0.08384685749999932
80302.0,-1.614566856,-2.8622669355,8.6079831705,0.10956653445244803,-0.13411459038174828,-0.05468116546498235,9.213944454258531,0.18160831115836187,-0.01676937150000013,-0.15563153549999997,0.17475450300000084
80312.0,-1.474527894,-2.8179408775,8.701342478499999,0.1708520258069769,-0.26841069500570397,-0.10184519784162512,9.264360972426433,0.33407657840559957,0.140038962,0.044326058000000224,0.09335930799999836
80322.0,-1.288986076,-2.5641447754999995,8.686926703,0.19057075569600887,-0.35661090875523743,-0.1266253825614406,9.14871679948288,0.42370100386784,0.18554181799999991,0.25379610200000036,-0.014415775499999839
80332.0,-1.071082313,-2.303189819,8.5265879755,0.16658993177360676,-0.3784606856609544,-0.12342793937178699,8.896887274069952,0.4315311717325415,0.21790376300000003,0.26095495649999956,-0.16033872749999922
80342.0,-0.9358486094999999,-2.1367709685,8.385274149,0.1319486367800233,-0.33289537487913845,-0.0986477546519715,8.703701818514649,0.3714312222496975,0.13523370350000008,0.16641885049999994,-0.14131382649999935
80352.0,-0.909468721,-2.1104891465,8.3182947295,0.09544333014530991,-0.24736027889740037,-0.06720390284804166,8.629908747999549,0.2735194717080218,0.02637988849999995,0.026281822000000066,-0.06697941950000086
80362.0,-0.929866553,-2.234935535,8.321825123499998,0.06986378462808103,-0.16422501063715444,-0.0410902865797025,8.666738835231484,0.18313714580208587,-0.020397832000000005,-0.1244463885,0.003530393999998438
80372.0,-1.0195974005,-2.416946959,8.360169125,0.06613227068731714,-0.1141305704464132,-0.026169466804402977,8.762056793945643,0.13447715541872166,-0.08973084749999993,-0.18201142400000014,0.03834400150000228
80382.0,-1.1310009445,-2.5953299225,8.357717462499998,0.10716845206020781,-0.12638627245391737,-0.034430110154092135,8.824190712244448,0.16924538240968293,-0.11140354400000008,-0.17838296349999982,-0.002451662500002172
80392.0,-1.1657164855,-2.790384191,8.3792920925,0.21082181100689906,-0.19087095232735188,-0.06693861280173852,8.908292475518651,0.29216148671993025,-0.03471554099999996,-0.19505426849999985,0.021574630000001704
80402.0,-1.0567646039999998,-2.7795968760000003,8.440387522,0.33872477458079947,-0.24922603586778228,-0.11063816661317255,8.948913439232136,0.43484352792781295,0.10895188150000013,0.01078731499999952,0.06109542949999991
80412.0,-0.897504608,-2.5940550579999995,8.500208086999999,0.42559155678180927,-0.24629562805368382,-0.15167260265681123,8.932422610222648,0.5145816631002444,0.15925999599999985,0.1855418180000008,0.05982056499999899
80422.0,-0.7981632435,-2.3570283275,8.587585338499998,0.4314523724100063,-0.18367670515063123,-0.17991726594183546,8.940876301903074,0.5022534263269887,0.09934136449999997,0.23702673049999934,0.08737725149999953
80432.0,-0.7227501049999999,-2.22414822,8.659468083,0.38562177158188715,-0.08774991880251891,-0.19244174865414676,8.969704036327084,0.4398158996590137,0.07541313850000009,0.13288010750000012,0.07188274450000165
80442.0,-0.686857766,-2.2169893655,8.765968302,0.33925710000265774,-0.0032812189937493396,-0.19510686642194214,9.068021598404105,0.3913730134095705,0.035892338999999884,0.007158854500000089,0.10650021899999906
80452.0,-0.7155912504999999,-2.184725487,8.825788867,0.32326988405438967,0.05081002518405892,-0.19164238785673338,9.120287573108683,0.3792253702208937,-0.028733484499999906,0.03226387849999979,0.05982056500000077
80462.0,-0.780217074,-2.0805788639999996,8.8760969815,0.33579262143744903,0.06866299810270891,-0.18817790929152464,9.150007908022706,0.39100155685830185,-0.06462582350000001,0.10414662300000055,0.050308114499999945
80472.0,-0.8496481559999999,-1.9488755544999998,8.8664864645,0.36057455148651657,0.058538343111889816,-0.18231709366332766,9.117817729099633,0.40826494759632564,-0.06943108199999992,0.13170330949999975,-0.009610517000000485
80482.0,-0.952617981,-1.815995447,8.8845307005,0.38881921477154074,0.035889205408759395,-0.18045133669294572,9.118125149907533,0.4301524168881311,-0.10296982500000007,0.1328801074999999,0.018044235999999714
80492.0,-1.0315615135,-1.7321485895,8.890512757,0.4213277174191871,0.003913028182971287,-0.1841811053044576,9.116231401989584,0.4598424043152119,-0.07894353250000008,0.08384685749999998,0.00598205650000061
80502.0,-1.0531361435,-1.642417742,8.8305941255,0.452769823893865,-0.025930356696879753,-0.19777023886048548,9.04356259365177,0.49475849078741685,-0.021574629999999928,0.08973084750000004,-0.05991863150000043
80512.0,-0.9729177465,-1.571809862,8.763614706,0.4708898321880701,-0.04484972578849829,-0.21056175694835189,8.956455654942673,0.5177692395754977,0.080218397,0.07060787999999985,-0.06697941949999908
80522.0,-0.7777654115,-1.5813223125,8.6809446465,0.470622796812515,-0.030993556856915305,-0.21056175694835189,8.858007634165435,0.5165100879319333,0.19515233499999995,-0.009512450499999936,-0.08267005949999984
80532.0,-0.5264209719999999,-1.6842921375,8.686926703,0.4522374984720067,0.023631758072003222,-0.18951134084004828,8.86434738644082,0.49090911920719593,0.25134443950000007,-0.10296982499999996,0.0059820564999988335
80542.0,-0.331268637,-1.7848102999999997,8.7719503585,0.42372579981142733,0.08571661022394551,-0.14794283404529934,8.957812222235638,0.4569222831505075,0.19515233499999995,-0.10051816249999979,0.08502365550000057
80552.0,-0.375594695,-1.9488755544999998,8.916794579,0.41359939949135627,0.10383661851815064,-0.0893207151293138,9.135010282748652,0.43568876133784595,-0.044326058,-0.1640652545000001,0.14484422049999957
80562.0,-0.5790826825,-2.188255881,9.098806003,0.4506387768771799,0.04468217418030683,-0.03363074935667874,9.376143729387435,0.45409561902437656,-0.20348798749999997,-0.23938032650000007,0.1820114240000006
80572.0,-0.893974214,-2.4229290155,9.291506675499999,0.5388372452974614,-0.0861511972076921,-0.009915215480579788,9.643747778240042,0.5457709383964132,-0.31489153150000004,-0.23467313449999994,0.19270067249999911
80582.0,-1.12972608,-2.5114830649999997,9.457925525999999,0.6443563612145345,-0.24602859267812865,-0.026436502179958108,9.850694567236175,0.6902347986738478,-0.23575186599999998,-0.0885540494999999,0.1664188504999995
80592.0,-1.1991571619999999,-2.394195531,9.500976719499999,0.718700406032485,-0.3792600464583678,-0.06853733439656533,9.871104738797843,0.8155156789890975,-0.06943108199999992,0.11728753399999992,0.043051193500000196
80602.0,-1.2039624205,-2.10450709,9.5572668905,0.7386844259678201,-0.4328189652143178,-0.11303624900541275,9.860011461356624,0.8635763610740016,-0.00480525850000002,0.289688441,0.056290171000000555
80612.0,-1.1321777425,-1.726166533,9.5333386645,0.7229625000658552,-0.427223439632424,-0.15114027723495296,9.754282312518553,0.8532514443442153,0.07178467799999999,0.3783405569999998,-0.023928225999998887
80622.0,-0.9861567239999999,-1.422160383,9.5931592295,0.6896546366207953,-0.3563438733796823,-0.17991726594183546,9.748012579075088,0.7968529955341709,0.14602101850000004,0.30400615,0.05982056499999899
80632.0,-0.909468721,-1.1803283939999998,9.623069512,0.6411589180248809,-0.24469690645885697,-0.19617151726565865,9.737750012448663,0.7137538780137598,0.0766880029999999,0.24183198900000025,0.029910282500001273
80642.0,-0.8639658649999999,-1.1300202794999998,9.726039337,0.5891987208637578,-0.13704499819584676,-0.20230111359866274,9.829507822512674,0.6378575113308983,0.045502856000000036,0.050308114499999945,0.10296982499999885
80652.0,-0.860435471,-1.1527717075,9.839796476999998,0.5558908574186979,-0.06296973408270341,-0.2057655921638715,9.944386683860852,0.5960866645804872,0.0035303939999999923,-0.022751428000000073,0.11375713999999881
80662.0,-0.9238844964999999,-1.201903024,10.036125610000001,0.5502953318368041,-0.05390972993560085,-0.2089630353535251,10.149972940932962,0.591097928745539,-0.06344902549999998,-0.04913131650000002,0.19632913300000254
80672.0,-1.0088100855,-1.169541079,10.178518167999998,0.5550914966212845,-0.11039905650564932,-0.21482385098172205,10.295035513313252,0.6053625428197653,-0.08492558900000002,0.03236194499999989,0.1423925579999974
80682.0,-1.0411720304999998,-1.144436055,10.1809698305,0.5569572535916665,-0.19939863105259617,-0.23161217305665552,10.297859960721484,0.6352994530944028,-0.03236194499999989,0.025105024000000142,0.002451662500002172
80692.0,-1.014792142,-1.2114154744999999,10.069664353,0.548164284820119,-0.27747069915280653,-0.2550606715571993,10.192912769439456,0.6652292974726153,0.02637988849999995,-0.06697941949999997,-0.1113054775000002
80702.0,-0.940653868,-1.2318133064999999,9.924722066,0.5287125903066422,-0.3155747273823467,-0.28676981340743235,10.04501377842764,0.6792358482831536,0.07413827399999995,-0.020397832000000005,-0.144942287000001
80712.0,-0.8687711235,-1.332331469,9.803904138,0.5119242682317088,-0.30651646856449616,-0.3254061670588308,9.932089747651734,0.6796381209627222,0.07188274449999998,-0.10051816250000023,-0.12081792799999924
80722.0,-0.7418730724999999,-1.3849931795,9.761931676,0.5161881075943309,-0.2796034914987436,-0.36644234843172147,9.887562480705459,0.6920319859690445,0.12689805100000007,-0.05266171049999979,-0.04197246200000038
80732.0,-0.6461601685,-1.2725109039999998,9.8481321295,0.5577566143890799,-0.2383020200795498,-0.3938876509193323,9.951005647885296,0.7232065923479353,0.09571290399999988,0.11248227550000012,0.08620045350000005
80742.0,-0.558782917,-1.1587537639999999,10.0923177145,0.6243723412791994,-0.19140327774921015,-0.40161422351791115,10.173977859437562,0.7666616071119676,0.08737725149999997,0.11375713999999992,0.24418558500000032
80752.0,-0.38039995349999994,-1.079712165,10.455065697999999,0.6837938209925984,-0.14717139851591785,-0.39495404709230086,10.517551104385849,0.8032571876325642,0.1783829635000001,0.07904159899999996,0.3627479834999985
80762.0,-0.283412185,-0.8762241774999999,10.807026366499999,0.7024461547086618,-0.0776252638116998,-0.37017211704323333,10.846193348915932,0.7977992717990474,0.09698776849999996,0.20348798749999997,0.3519606685000003
80772.0,-0.30253515249999996,-0.7481493284999999,11.2236128585,0.671002302904732,0.002846632010002751,-0.32673959860735446,11.252588170448599,0.7463316683052844,-0.019122967499999977,0.128074849,0.4165864920000004
80782.0,-0.39236406649999994,-0.755308183,11.5719450665,0.5910644778341396,0.06493322949119704,-0.28170661324739676,11.603204412319938,0.6579758028961392,-0.08982891399999998,-0.007158854500000089,0.3483322080000004
80792.0,-0.547995602,-0.8654368624999998,11.8126002575,0.500200891646063,0.08625068097505577,-0.2502645067727189,11.856930673082061,0.5659261747987714,-0.15563153550000003,-0.11012867949999983,0.2406551910000001
80802.0,-0.6940166204999999,-1.0402894319999998,11.9383215105,0.40534050147091905,0.04228409178806662,-0.23187746310295865,12.00364035032407,0.4688880724075861,-0.14602101849999993,-0.17485256949999994,0.12572125300000003
80812.0,-0.7777654115,-1.215043935,11.922728937,0.33312924899890567,-0.04138524722328954,-0.230545776883687,12.009692589924324,0.4072335821923463,-0.0837487910000001,-0.17475450300000017,-0.015592573499999318
80822.0,-0.7514835894999999,-1.3047747825,11.67972015,0.2870298674659794,-0.14024244138550035,-0.2380070594359627,11.77637582623159,0.3983735025383303,0.026281822000000066,-0.08973084750000004,-0.24300878700000084
80832.0,-0.6832293054999999,-1.238972161,11.405624282499998,0.27237433773698305,-0.2025960742422498,-0.2430702595959983,11.493046574915661,0.41751179654723203,0.068254284,0.06580262150000005,-0.2740958675000016
80842.0,-0.6149750214999999,-1.2030798219999999,11.0967148075,0.2848988204492944,-0.20472712125893486,-0.23853938485782097,11.178670531604473,0.4242423484291939,0.068254284,0.035892339000000106,-0.3089094749999983
80852.0,-0.6114446275,-1.2125922724999998,10.8872447635,0.30435051496277116,-0.14130883755846887,-0.23427729082445084,10.971615336502802,0.4092472022216817,0.0035303939999999923,-0.009512450499999936,-0.2094700439999997
80862.0,-0.620957078,-1.2557415324999999,10.870475391999998,0.31767435847249587,-0.029127799886533367,-0.23933874565523441,10.96036996352045,0.39880880372549793,-0.009512450500000047,-0.04314926000000008,-0.01676937150000235
80872.0,-0.6844061035,-1.1288434815,11.0608224685,0.315808601502114,0.08038812001760683,-0.24999747139716377,11.139321927294656,0.41072625716852085,-0.06344902549999998,0.12689805099999996,0.19034707650000193
80882.0,-0.6149750214999999,-1.052253545,11.284708288,0.2763711417240501,0.1704523454082702,-0.2555929969790576,11.350333605021918,0.41323454615722993,0.06943108200000003,0.07658993650000001,0.22388581949999953
80892.0,-0.5682953675,-0.8941703469999999,11.447498677999999,0.1993637244675563,0.2466604018673506,-0.2542613107597859,11.496422322487453,0.4064923893902849,0.04667965399999996,0.15808319800000004,0.16279038999999962
80902.0,-0.595852054,-0.755308183,11.6857022065,0.12502142497885782,0.287162512489131,-0.24147153800117147,11.725236295297496,0.3954758765683006,-0.027556686499999983,0.13886216399999984,0.23820352850000148
80912.0,-0.631744393,-0.6644005375,11.715612489,0.0751922748344197,0.24452935485066554,-0.2137592001380055,11.75142991489674,0.3333788823877384,-0.035892338999999995,0.09090764549999997,0.029910282499999497
80922.0,-0.666459934,-0.5877125344999999,11.67972015,0.050944415536462485,0.16458978445082129,-0.180983662114804,11.713472484671303,0.24988040453866148,-0.03471554100000007,0.07668800300000012,-0.035892339000000106
80932.0,-0.725103701,-0.6081103664999999,11.611465866,0.053876568679812956,0.06520026486675216,-0.15034091643753955,11.649966229664864,0.17249971114956827,-0.05864376699999996,-0.020397832000000005,-0.068254284
80942.0,-0.713139588,-0.660772077,11.415136733,0.06240250207580526,-0.03445803542212405,-0.1287564295781257,11.45646256236198,0.14717216662188565,0.011964112999999998,-0.052661710500000014,-0.196329132999999
80952.0,-0.6353728535,-0.638020649,11.1398640675,0.05174377633387589,-0.08774991880251891,-0.11703305299247976,11.176195258400453,0.15515863537644115,0.07776673450000005,0.022751427999999962,-0.27527266550000107
80962.0,-0.49533389149999996,-0.533874026,10.962657901999998,0.027228881660363535,-0.06270269870714829,-0.10290984868534166,10.986821442800869,0.12354544661003664,0.140038962,0.104146623,-0.17720616550000123
80972.0,-0.362453784,-0.430904201,10.828600996499999,-0.009009389598794729,0.011107275359691913,-0.07866198938738443,10.843230640237076,0.07995154308229373,0.13288010749999996,0.10296982500000001,-0.1340569054999996
80982.0,-0.351666469,-0.33999655549999996,10.8166368835,-0.032724923474893676,0.08385259858281557,-0.04135732195525763,10.827691371324885,0.09905860379007614,0.01078731500000002,0.09090764550000002,-0.011964112999999443
80992.0,-0.468954003,-0.33754489299999996,10.8274241985,-0.05564109655357923,0.12382063845348572,-0.007250097712784445,10.842830312514508,0.13594133311674736,-0.11728753400000003,0.002451662500000007,0.010787314999999964
81002.0,-0.64135491,-0.397365458,10.859688077,-0.07056191632887876,0.12435470920459599,0.005272639670274869,10.885865172669034,0.14307647768398504,-0.172400907,-0.05982056500000005,0.03226387850000023
81012.0,-0.737067814,-0.5830053425,10.8513524245,-0.07882255967856792,0.08305323778540218,-0.009915215480579788,10.891970144676321,0.1149310563727067,-0.09571290399999999,-0.18563988450000002,-0.008335652499999568
81022.0,-0.7503067914999999,-0.6644005375,10.777116084,-0.07429343026964264,0.011906636157105317,-0.03922627493857256,10.823613973327614,0.08485271010029335,-0.013238977499999915,-0.08139519500000003,-0.07423634050000061
81032.0,-0.6820525075,-0.6320385924999999,10.747205801499998,-0.041250856870885984,-0.06723182811607357,-0.06480582045580145,10.78735838586962,0.10208597489058503,0.06825428399999989,0.032361945000000114,-0.029910282500001273
81042.0,-0.5420135454999999,-0.5398560825,10.6442359765,-0.0012828170002158322,-0.1258539470320591,-0.0682702990210102,10.671690718753736,0.14318413086450094,0.1400389620000001,0.09218251,-0.10296982499999885
81052.0,-0.4055049775,-0.38304774899999994,10.564017579499998,0.029094638630745476,-0.16715541845125292,-0.04801924371011999,10.578734673143865,0.17633286614003366,0.13650856799999994,0.1568083335,-0.08021839700000122
81062.0,-0.342055952,-0.2705654735,10.516161127499998,0.06107081585653358,-0.17674774802021376,-0.012313297872819996,10.525200844130763,0.18740605188761755,0.06344902549999998,0.11248227549999995,-0.04785645199999955
81072.0,-0.362453784,-0.258503294,10.476640327999998,0.09917484408607379,-0.16875414004607975,0.024459044137448534,10.486095043476416,0.19726087884399834,-0.020397832000000005,0.012062179499999992,-0.03952079949999998
81082.0,-0.45218463149999993,-0.302829352,10.537637691,0.13834352315933052,-0.1266533078294725,0.047640507262437216,10.551681603620407,0.19351901383715678,-0.08973084749999993,-0.044326058,0.060997363000002025
81092.0,-0.595852054,-0.4333558635,10.663358944,0.16019504539429952,-0.08135503242321168,0.04577649562130727,10.688782014021553,0.18540922690316972,-0.14366742250000003,-0.1305265115,0.12572125300000003
81102.0,-0.686857766,-0.5171046545,10.7734876235,0.163125453208398,-0.046715482758880225,0.01539903999034597,10.807738264231224,0.17038010519560304,-0.09100571200000007,-0.08374879099999999,0.11012867949999894
81112.0,-0.6341960555,-0.555448656,10.893226819999999,0.1545977744831537,-0.01687035254977719,-0.02696882760181638,10.925800583857974,0.157836619111391,0.052661710500000014,-0.03834400150000006,0.11973919649999942
81122.0,-0.48091811599999995,-0.48954796799999994,10.9015624725,0.1420750371000944,0.005511749777798093,-0.054414130089427214,10.923140747472324,0.15223860583306512,0.15327793950000007,0.0659006880000001,0.008335652500001345
81132.0,-0.342055952,-0.3447037475,10.7950622535,0.13088398593630676,0.019367918709381073,-0.04935092992939166,10.805979456059486,0.1412134849601987,0.13886216399999995,0.14484422049999995,-0.10650021900000084
81142.0,-0.24036099149999998,-0.21064684199999997,10.7005261475,0.12448909955699954,0.032957052265408925,-0.013912019467646801,10.705298002933437,0.1295270145112811,0.10169496050000001,0.13405690550000002,-0.09453610599999962
81152.0,-0.285765781,-0.18907221199999996,10.6538464935,0.12981758976333824,0.048946013542928976,0.03165329131416916,10.659355303675891,0.1423033720778486,-0.045404789500000015,0.02157463000000001,-0.04667965400000007
81162.0,-0.4162922925,-0.25497289999999995,10.7005261475,0.14394079407047633,0.05800427236077955,0.06416179396181554,10.711655814385585,0.16792910293972643,-0.1305265115,-0.06590068799999999,0.04667965400000007
81172.0,-0.571923828,-0.4596376855,10.8440955035,0.15433248443685058,0.0638668333182285,0.05883155842622486,10.868890051702376,0.17708371019776895,-0.15563153549999997,-0.20466478550000006,0.14356935600000043
81182.0,-0.6892113619999999,-0.69431082,10.9937449825,0.14687120188457484,0.04468217418030683,0.015132004614790837,11.037187529281312,0.15426154477432433,-0.11728753399999992,-0.2346731345,0.1496494790000007
81192.0,-0.6700883945,-0.7948289824999999,11.101520065999999,0.145272480289748,-0.002748893571891069,-0.05414709471387208,11.150090553159925,0.15505985235178654,0.019122967499999866,-0.1005181624999999,0.1077750834999982
81202.0,-0.5204389155,-0.7265746985,11.162615495499999,0.16419184938136655,-0.07362671449538079,-0.11170281745688909,11.198337026435839,0.2117955993840872,0.14964947900000003,0.06825428399999989,0.06109542949999991
81212.0,-0.24634304799999998,-0.48837116999999997,11.083573896499999,0.18337650851928822,-0.13358226495989,-0.1306221865485076,11.097062747239077,0.26178869533891636,0.27409586750000003,0.23820352850000004,-0.07904159899999996
81222.0,-0.1038524235,-0.25134443949999996,10.9674631605,0.18524226548967015,-0.16742245382680804,-0.10770601346982207,10.970834404458898,0.2719293296183709,0.1424906245,0.2370267305,-0.11611073599999955
81232.0,0.027850886,-0.0789435325,10.866846931499998,0.17378417895032738,-0.15889477510156375,-0.06160837726614784,10.867169363998405,0.24340107345158513,0.1317033095,0.17240090699999996,-0.10061622900000167
81242.0,-0.01765197,0.039520799499999995,10.8166368835,0.14314143327306295,-0.12745266862688592,-0.008049458510197848,10.81672348519322,0.1918292116490315,-0.045502855999999994,0.11846433199999999,-0.05021004799999851
81252.0,-0.157690932,0.065900688,10.8154600855,0.10263757732203053,-0.09121439736772766,0.045242424870197015,10.816810352028806,0.14457321872957293,-0.14003896200000002,0.026379888500000004,-0.0011767979999994793
