timestamp,ax,ay,az,gx,gy,gz,acc_mag,gyro_mag,dax,day,daz
27722.0,-1.7666679975,-1.997222339,7.4817874845,-0.3502561649487261,-0.05945638629843883,0.23072030980888641,7.94274240096027,0.4236110295006103,0.0,0.0,0.0
27732.0,-1.5619051455,-2.7801852749999996,7.172976075999999,-0.3816982714234039,-0.11834554058997951,0.21872989784768535,7.8498766636001704,0.45556778375737667,0.204762852,-0.7829629359999997,-0.30881140850000044
27742.0,-1.415884127,-2.9501345194999997,6.672542726499999,-0.39502211493312855,-0.1561825334439646,0.17529737941180645,7.431745957795119,0.45952652400907584,0.14602101849999993,-0.16994924450000015,-0.5004333495000006
27752.0,-1.3201712229999998,-3.245805017,6.011770649499999,-0.3968878719035105,-0.1825614397586069,0.11294549188430905,6.958411356668225,0.45122649111928403,0.09571290400000021,-0.2956704975000002,-0.6607720769999998
27762.0,-1.1070727185,-3.275813366,5.397678226499999,-0.36411233388030906,-0.1508522979083739,0.022879521164393665,6.410264694202838,0.3947881456638666,0.21309850449999979,-0.030008349000000045,-0.6140924229999998
27772.0,-0.9011330685,-3.176373935,4.985896993,-0.2855061950289884,-0.05119574294874967,-0.07198086901075014,5.980013462100069,0.298857887631476,0.20593965000000003,0.09943943099999997,-0.4117812334999993
27782.0,-0.8220914695,-2.9250294954999996,4.736808083,-0.1671973063533008,0.10148740534496628,-0.13486508196010583,5.627520124259333,0.23757782520167803,0.07904159899999996,0.2513444395000004,-0.24908891000000022
27792.0,-0.8305251885,-2.7047721365,4.744065004,-0.026237534645230758,0.28401393851853324,-0.1596470120091733,5.523741228668959,0.3268631119299423,-0.008433719000000006,0.22025735899999965,0.007256921000000638
27802.0,-1.0172438045,-2.605430772,5.168987148499999,0.13017538225999706,0.4436242986134147,-0.15298509025431095,5.877200235387281,0.4869831478674597,-0.18671861600000006,0.09934136449999986,0.4249221444999991
27812.0,-1.195626768,-2.6161200205,5.845351799,0.290852138527847,0.5062432215164673,-0.13513211733566097,6.51473291732605,0.5992811151314645,-0.17838296349999982,-0.01068924849999986,0.6763646505000009
27822.0,-1.3093839079999998,-2.697613282,6.489452570999999,0.42701400012218466,0.4505532557438322,-0.1191449013873929,7.1487480238857675,0.6320875731165166,-0.11375713999999992,-0.08149326149999991,0.6441007719999989
27832.0,-1.3632224165,-2.8232364684999998,7.000575169,0.5085522921168557,0.2738875381984622,-0.11461402664921563,7.670534023830142,0.5888770606013355,-0.05383850850000016,-0.12562318649999993,0.5111225980000009
27842.0,-1.135806203,-2.957293374,7.250742810499999,0.5450575987515692,0.021015509523263722,-0.12154298377963312,7.912579297213711,0.5588399900717603,0.22741621349999996,-0.13405690550000005,0.25016764149999915
27852.0,-0.7406962745,-3.000442634,7.2866351494999995,0.5623782462483609,-0.19641760869018984,-0.12926955637821202,7.9149440157787545,0.6095570416812311,0.39510992850000004,-0.0431492600000003,0.035892339000000106
27862.0,-0.4199207529999999,-2.9262062934999995,7.0412727665,0.5458569595489826,-0.317658650509228,-0.13326636036527903,7.636657572732566,0.64546631309187,0.32077552150000005,0.07423634050000061,-0.2453623829999998
27872.0,-0.3013583545,-2.7310539585,6.7180455825,0.48590315441372534,-0.34323819602645683,-0.125272752391145,7.2582097676089,0.607953614326256,0.11856239849999994,0.1951523349999995,-0.3232271839999994
27882.0,-0.279881791,-2.6018023114999997,6.551626732,0.4126255057687434,-0.28062101845265625,-0.10688745405063674,7.054893473364223,0.5103262601921875,0.02147656349999999,0.12925164700000025,-0.16641885050000038
27892.0,-0.34686121049999996,-2.6185716829999994,6.612722161499999,0.3572008300424115,-0.1636438159962403,-0.08983384192940014,7.120767145719076,0.40304075557267843,-0.06697941949999997,-0.016769371499999686,0.06109542949999902
27902.0,-0.6365496514999999,-2.665251337,6.8341563185,0.3310872137740723,-0.05652597848434035,-0.08636936336419139,7.363046430241937,0.34680483891697084,-0.2896884409999999,-0.046679654000000514,0.2214341570000009
27912.0,-0.9609536334999998,-2.7538053865,7.080793566,0.3489401866927223,-0.00882787535658732,-0.09036616735125841,7.657970587352779,0.36055960599354303,-0.324403982,-0.0885540494999999,0.24663724749999982
27922.0,-1.089126549,-2.885508696,7.636242222,0.43980551821005115,-0.032011083810828,-0.10475466170469966,8.235566303994144,0.45324071141460975,-0.1281729155000001,-0.1317033095000002,0.5554486560000003
27932.0,-1.0866748865,-2.9513113174999996,8.2694576125,0.588224827141145,-0.13486508196010583,-0.13566444275751924,8.847317672983579,0.6185482023464656,0.0024516624999999515,-0.0658026214999996,0.6332153905000002
27942.0,-0.965758892,-2.9238526975,8.790190727499999,0.7326473320851717,-0.3221877799181532,-0.16737358460775223,9.313917428235127,0.8176741377618327,0.12091599450000001,0.027458619999999545,0.5207331149999987
27952.0,-0.7790402759999999,-2.84000584,9.057225806999998,0.8293734792306974,-0.5556098594091269,-0.17909870652265011,9.52396326336106,1.0142184333771243,0.18671861600000006,0.0838468575000002,0.2670350794999994
27962.0,-0.422274349,-2.67721545,9.154115508999999,0.8810666410162655,-0.7717112914033087,-0.16470846683995685,9.54691724818312,1.182770316773217,0.3567659269999999,0.16279039000000006,0.09688970200000036
27972.0,-0.10983448,-2.4365602589999997,9.061932999,0.9098453750523999,-0.895083380239032,-0.13406572116269244,9.384429614371891,1.283341919238691,0.312439869,0.2406551910000001,-0.09218250999999889
27982.0,0.0265760215,-2.1995335285,8.838145246,0.9127757828664985,-0.885224015294516,-0.09436297133832543,9.107769508354217,1.2750237477794255,0.1364105015,0.23702673049999978,-0.22378775299999987
27992.0,-0.0548191735,-2.0128149124999997,8.726741702,0.8986525785593603,-0.7607855302858242,-0.05705830390619862,8.956028681686513,1.1788242999227332,-0.081395195,0.18671861600000028,-0.11140354399999985
28002.0,-0.2535019025,-1.9206324025,8.978184208,0.887993852817431,-0.5873190012593599,-0.0397376564094069,9.184818109951042,1.0653899629801051,-0.198682729,0.09218250999999977,0.25144250600000007
28012.0,-0.5946752559999999,-2.006832856,9.603063945999999,0.9053145003142227,-0.4596830730610145,-0.05172981369985994,9.82852246896678,1.0166507983390516,-0.34117335349999994,-0.08620045350000005,0.6248797379999989
28022.0,-0.9167256419999998,-2.2295418775,10.274623338,0.9532778934882788,-0.44822498652167175,-0.10022553229577437,10.55363101610061,1.0581538347895236,-0.3220503859999999,-0.22270902150000005,0.6715593920000007
28032.0,-0.9549715769999999,-2.3983143239999998,10.815754284999999,1.019094259580985,-0.5510789846709496,-0.17536719258188627,11.119551387671955,1.1717486119005789,-0.038245935000000064,-0.16877244649999978,0.5411309469999992
28042.0,-0.7048039355,-2.2522933055,11.107796321999999,1.0702550959446948,-0.6813800306370902,-0.2579718807495259,11.355734800202631,1.2947100863915588,0.2501676414999999,0.14602101849999993,0.29204203699999987
28052.0,-0.30861527549999995,-1.8656170959999998,11.158104436499999,1.068656374349868,-0.7261459806214928,-0.3227218506692635,11.317202178674743,1.3317146182687751,0.39618866,0.38667620950000003,0.050308114499999945
28062.0,0.090025047,-1.3819531179999998,11.1210352995,0.9844547099166535,-0.6320849512437624,-0.3379097058201182,11.206932009348604,1.2177296213664799,0.3986403224999999,0.48366397800000005,-0.03706913699999781
28072.0,0.275566865,-0.9917465145,11.1245656935,0.8099217847172205,-0.428773292008195,-0.29927335216871964,11.172083964735762,0.9640458353301335,0.185541818,0.3902066034999998,0.003530393999998438
28082.0,0.13797956549999998,-0.8444506315,11.1245656935,0.5850273839514912,-0.18602591832381563,-0.22492930735076921,11.1574234076929,0.6538010978628296,-0.1375872995,0.14729588299999996,0.0
28092.0,-0.21162750699999996,-0.8923070835,11.192819977500001,0.3977029406641919,0.02208016036698026,-0.14712252929686204,11.230325782527702,0.4246177117378446,-0.34960707249999995,-0.047856451999999994,0.06825428400000177
28102.0,-0.6257623365,-0.976153941,11.325700085,0.30577470363239856,0.14225480601304985,-0.10102489309318777,11.384899535511096,0.3520520249051007,-0.4141348295,-0.08384685749999998,0.13288010749999835
28112.0,-0.9669356899999999,-1.0743185075,11.355610367499999,0.3153670332013594,0.16090713972911322,-0.09143256352422693,11.447227249540662,0.3656602069116128,-0.3411733534999999,-0.09816456649999994,0.029910282499999497
28122.0,-1.195626768,-1.2263215824999998,11.395131166999999,0.3843808424837192,0.12307014687512816,-0.10688745405063674,11.52312467628456,0.4175162523229321,-0.228691078,-0.15200307499999988,0.03952079949999998
28132.0,-1.2172013979999998,-1.4837461449999998,11.444164416999998,0.4741780324988274,0.07244163593327664,-0.14738956467241715,11.603964023962863,0.501812993948416,-0.021574629999999928,-0.2574245625,0.04903324999999903
28142.0,-1.146593518,-1.6633059065,11.5268344765,0.5485220773167779,0.028742082121842618,-0.20654400901026093,11.702528627725995,0.586824508900781,0.07060787999999985,-0.1795597615000002,0.08267005950000161
28152.0,-1.0843212905,-1.6297671635,11.6680502365,0.5967507605371372,0.00715934059168074,-0.2808863084989594,11.831115331605137,0.6595906644742116,0.062272227500000055,0.03353874300000004,0.1412157599999997
28162.0,-1.044800491,-1.5208152819999998,11.777002117999999,0.6092752432494486,-0.0008342673824532896,-0.3493677923594609,11.92066550471638,0.7023352991106624,0.03952079949999998,0.10895188150000013,0.10895188149999946
28172.0,-0.9238844964999999,-1.344883981,11.8284870305,0.5850273839514912,0.0058259090431570714,-0.3949331031412769,11.940493327996553,0.705877565266175,0.12091599450000001,0.17593130099999987,0.0514849125000012
28182.0,-0.7981632435,-1.0994235315,11.842804739499998,0.5288033474277459,0.0425982510534256,-0.4191809624392341,11.920479049216688,0.6761362810226076,0.12572125299999992,0.2454604494999999,0.014317708999998402
28192.0,-0.7873759284999999,-0.9042711965,11.717181553,0.44007080825635425,0.11774165666878947,-0.4186486370173758,11.778370464353898,0.6187019438073704,0.010787315000000075,0.19515233500000007,-0.1256231864999986
28202.0,-0.8520998184999999,-0.9366331414999999,11.7494454315,0.33002256293035576,0.21260204684393327,-0.39306734617089495,11.817479582814608,0.5555325921952562,-0.06472389,-0.03236194499999989,0.03226387850000023
28212.0,-0.965758892,-1.0539206755,11.8894843935,0.23782554519375532,0.309328193989459,-0.3499001177813192,11.975110779070208,0.524094470460115,-0.11365907350000004,-0.11728753400000003,0.1400389620000002
28222.0,-1.1572827665,-1.255055067,12.075124277999999,0.17494133224439964,0.3743451992847518,-0.3179256858847831,12.195207786339077,0.5213593191842798,-0.19152387450000008,-0.20113439150000012,0.1856398844999987
28232.0,-1.3883274405,-1.4561894585,12.2427199265,0.1490947513516156,0.3631524027917121,-0.3195244074796099,12.406938865804568,0.5061667309387192,-0.23104467399999984,-0.2011343914999999,0.16759564850000075
28242.0,-1.5631800099999997,-1.599856881,12.468959341999998,0.18826343042487234,0.2331201375303786,-0.35069947857873257,12.667991981991293,0.4612789199962624,-0.17485256949999983,-0.14366742250000009,0.2262394154999985
28252.0,-1.5344465255,-1.498063854,12.532408367499999,0.32202895495622175,0.009557422983920948,-0.3933343815464501,12.714557835019837,0.5084347823180652,0.028733484499999795,0.10179302700000004,0.06344902550000064
28262.0,-1.2459348824999998,-1.2251447844999999,12.501223220499998,0.5016233349864383,-0.19322016550053625,-0.4306390489785769,12.62275387873764,0.6887742685845227,0.2885116430000001,0.2729190695000001,-0.031185147000000413
28272.0,-0.8401357054999999,-0.8803429705,12.4425794535,0.6513760754660557,-0.2790222968578295,-0.43863265695271086,12.501944457004482,0.833392369522768,0.4057991769999999,0.3448018139999999,-0.05864376699999774
28282.0,-0.568393434,-0.563097843,12.517992592,0.7398415792618923,-0.25024356282169496,-0.40878927207285987,12.54353573797964,0.8815305281726125,0.27174227149999997,0.3172451275,0.07541313850000009
28292.0,-0.42590280950000003,-0.37402563099999997,12.738249950999998,0.7638224031842945,-0.1617780590258584,-0.3528322709246697,12.750854880749621,0.8567890145153966,0.14249062449999994,0.18907221200000002,0.22025735899999788
28302.0,-0.3827535495,-0.3248943145,12.914279318499998,0.7102634844283443,-0.056258943108785216,-0.2883475910512352,12.924034467281727,0.7686244982155206,0.04314926000000002,0.049131316499999966,0.17602936749999998
28312.0,-0.5312262305,-0.29733762799999996,13.0339204485,0.5954190743178656,0.04819377663531942,-0.23398931149787178,13.04812987484499,0.6415586583182921,-0.14847268099999994,0.02755668650000004,0.11964113000000154
28322.0,-0.8209146715,-0.30341775099999996,13.075892910499999,0.4560597695338743,0.11747462129323434,-0.19561824789277646,13.105149317591538,0.5099581345011756,-0.289688441,-0.006080122999999993,0.0419724619999986
28332.0,-1.047154087,-0.3093998075,13.1465007905,0.3468091396760372,0.1475850415486405,-0.17963103194450838,13.191767999681428,0.41752273170355175,-0.22623941550000004,-0.005982056500000055,0.07060788000000073
28342.0,-1.2686863105000001,-0.32969957299999997,13.1920036465,0.28792173071374855,0.14225480601304985,-0.1884240007160558,13.256968996424325,0.3723425263072363,-0.22153222350000012,-0.020299765499999955,0.04550285600000059
28352.0,-1.382345384,-0.33332803349999995,13.266239987,0.27619660879885066,0.09429315816824564,-0.21800209554960373,13.342230313229527,0.3642810454214516,-0.11365907349999982,-0.003628460499999986,0.07423634050000061
28362.0,-1.310560706,-0.30812494299999993,13.270947178999998,0.28925341693302026,0.023680627291059065,-0.26116932393917947,13.339061037884862,0.3904327433543116,0.07178467799999999,0.025203090500000025,0.004707191999997917
28372.0,-1.140513395,-0.2662505475,13.159641701499998,0.29804638570456765,-0.03254340923268627,-0.30273608540467645,13.21165507686589,0.4260749451941402,0.17004731100000003,0.04187439549999994,-0.1113054775000002
28382.0,-0.9155488439999999,-0.1621039245,12.954976916,0.28925341693302026,-0.049864056729477996,-0.32964906247042897,12.988299898838989,0.44138698185218495,0.224964551,0.104146623,-0.20466478549999856
28392.0,-0.6689115965,0.065312289,12.704711207999999,0.26447323221320473,-0.02401747583669397,-0.3264516192807754,12.72247598927612,0.4208248916519865,0.24663724749999993,0.2274162135,-0.2502657080000006
28402.0,-0.5061212065,0.2436952525,12.479746657,0.23036600797073156,0.02767743127812608,-0.2915450342408888,12.49238258598666,0.3726030660381736,0.16279038999999995,0.1783829635,-0.22496455099999935
28412.0,-0.35284326699999996,0.41727295749999993,12.3827588885,0.19279430516304963,0.11534357427654926,-0.21773506017404862,12.394810719928472,0.31286153592154714,0.15327793950000007,0.17357770499999994,-0.09698776850000002
28422.0,-0.31214566949999994,0.5692760324999999,12.333627572,0.1450979473645486,0.21446605848506323,-0.12340699542076307,12.350703591494904,0.2868421013210999,0.040697597500000016,0.152003075,-0.049131316500000466
28432.0,-0.4174690904999999,0.572904493,12.228304150999998,0.06569070238656258,0.3029315622808998,-0.01895427567665842,12.248833512175201,0.3105512266477358,-0.10532342099999997,0.003628460500000097,-0.10532342100000136
28442.0,-0.6353728535,0.558586784,12.133768045,-0.02783625624005756,0.37887432869367704,0.06311634173987093,12.163225099786953,0.38510295597303684,-0.21790376300000003,-0.014317709000000067,-0.09453610599999784
