timestamp,ax,ay,az,gx,gy,gz,acc_mag,gyro_mag,dax,day,daz
44782.0,-1.045977289,-2.3624219849999997,6.1649505225,0.1661483634728522,-0.04853237051020632,-0.0032323497746934984,6.684438725067958,0.17312168482634668,0.0,0.0,0.0
44792.0,-0.8999562705,-2.8687393245,6.041680931999999,0.19012918739525428,-0.19934976183354033,0.012487830798019428,6.7484439009920925,0.2757632705069856,0.14602101850000004,-0.5063173395000002,-0.12326959050000053
44802.0,-0.48935183499999996,-2.9740627454999995,5.663438441499999,0.23489513737965687,-0.276090143714479,-0.02774724444820585,6.41553188856924,0.36355385102534404,0.4106044355000001,-0.10532342099999958,-0.3782424904999999
44812.0,-0.3109688715,-2.945329261,5.2276309155,0.29005277773043364,-0.2411835586745924,-0.10528873245580993,6.008310168711013,0.391645043408227,0.17838296349999994,0.028733484499999573,-0.4358075259999996
44822.0,-0.16014259449999999,-2.8089187595,4.851742021,0.3310872137740723,-0.1151463520710739,-0.1953529578464733,5.608482048324785,0.40129814808857506,0.15082627700000004,0.1364105014999999,-0.37588889450000007
44832.0,0.0242224255,-2.7190898455,4.7308260265,0.350273618241246,0.11667526049582093,-0.2886146264267903,5.456624524997857,0.46861831658083697,0.18436502,0.08982891399999993,-0.12091599449999979
44842.0,0.0242224255,-2.4953020925,4.9236247655,0.37159106972510475,0.4188441138935992,-0.37681309484707176,5.5198913114459875,0.6749062329620243,0.0,0.2237877530000003,0.19279873899999966
44852.0,-0.2068222485,-2.2043387869999997,5.4096423394999995,0.4230171961351177,0.6906355116604163,-0.4317054451515454,5.845178797236082,0.9177638855206471,-0.231044674,0.29096330550000005,0.4860175739999999
44862.0,-0.49288222899999995,-1.9314197174999999,6.223692355999999,0.5165459000909898,0.8302618518199626,-0.44236242556422284,6.535109911772304,1.0732375902098226,-0.2860599804999999,0.2729190694999999,0.8140500164999995
44872.0,-0.732360622,-1.729108528,7.1597370985,0.6545735186557093,0.811342482728344,-0.4234448018018563,7.401891900176316,1.1251882579275891,-0.239478393,0.20231118949999982,0.9360447425000009
44882.0,-0.8580818749999999,-1.5950516224999998,8.062439230999999,0.8101870747635237,0.6658535816113487,-0.3821433303826624,8.263378276238553,1.116153042021787,-0.12572125299999992,0.13405690550000027,0.9027021324999991
44892.0,-0.8305251885,-1.440596885,8.700459879999999,0.9370236421644557,0.4606779107346513,-0.3312477840652558,8.85793957968185,1.0954280158285745,0.027556686499999872,0.15445473749999983,0.6380206489999996
44902.0,-0.6689115965,-1.3088935755,9.071543515999998,0.9887168039500237,0.2552352044823988,-0.2723603751029671,9.189861091365797,1.0568283218889198,0.16161359200000003,0.13170330949999998,0.37108363599999983
44912.0,-0.44620257499999993,-1.164049355,9.198441567,0.9562083013023774,0.11694229587137607,-0.2100084875754697,9.282533862061909,0.9859581030129947,0.22270902150000005,0.1448442205,0.1268980510000013
44922.0,-0.33489709749999996,-1.0060642235,9.149408316999999,0.8629466327220603,0.07350803210624518,-0.14019531749569653,9.210645679804935,0.8773454557688176,0.11130547749999997,0.15798513150000004,-0.049033250000000805
44932.0,-0.376771493,-0.9067228589999999,9.124205226499999,0.7678192071713614,0.08816356183524156,-0.06691766885071458,9.176885316721599,0.7757558397725075,-0.04187439550000005,0.09934136449999997,-0.025203090499999803
44942.0,-0.525244174,-0.8468042275,9.1804953975,0.7121292413987264,0.12227078607771476,0.003427826650916863,9.234416851407104,0.7225579226461616,-0.148472681,0.059918631499999986,0.056290171000000555
44952.0,-0.7861991305,-0.77864801,9.3097470445,0.7009381902349388,0.13399590799261266,0.06578145950766628,9.37527556015568,0.7166564381232855,-0.2609549565,0.0681562175,0.12925164700000025
44962.0,-0.9549715769999999,-0.8049298319999999,9.488130008,0.7163930807613486,0.10894694256799005,0.11880630751250601,9.569978777198594,0.7343047195561289,-0.1687724464999999,-0.026281821999999955,0.1783829635000007
44972.0,-0.9789978695,-0.9246690284999999,9.667689769499999,0.7390422184644789,0.037269760847086914,0.14625335532936884,9.761028384348014,0.7542960159589842,-0.0240262925000001,-0.11973919649999998,0.17955976149999842
44982.0,-0.9071151249999999,-1.1329622744999999,9.690441197499998,0.7419726262785773,-0.06691766885071458,0.14785207692419564,9.798526009949107,0.7595140480609569,0.0718827445000001,-0.208293246,0.022751427999999407
44992.0,-0.6904862264999999,-1.2957526645,9.477342692999999,0.7070660412386908,-0.16524253759106716,0.11694229587137607,9.590399924774019,0.7354746654142191,0.2166288985,-0.16279039000000006,-0.21309850449999956
45002.0,-0.431884866,-1.344883981,9.0428100315,0.64391479291378,-0.19455359704905992,0.05911953775280393,9.15246692021486,0.6752573453151245,0.25860136049999993,-0.04913131650000002,-0.4345326614999987
45012.0,-0.2283968785,-1.2718244385,8.561597716,0.568506097252113,-0.12314170537445993,-0.0029670597283903604,8.658559810216177,0.581697400422927,0.20348798749999997,0.07305954250000002,-0.48121231550000054
45022.0,-0.28458898299999996,-1.160518961,8.2347420715,0.5253388688625372,0.04739441583790602,-0.045867252742410984,8.320983844006523,0.5294629001776447,-0.05619210449999995,0.11130547749999997,-0.32685564450000015
45032.0,-0.6365496514999999,-0.9941001104999999,8.3018195575,0.564776328640601,0.25417055363868224,-0.04933173130761972,8.385322799619008,0.6212958968507337,-0.3519606684999999,0.16641885050000005,0.06707748600000052
45042.0,-1.057941402,-0.734321952,8.847657696499999,0.7305145397392346,0.41724539229877244,-0.010161306905110988,8.940890081736296,0.8413373059142226,-0.4213917505000001,0.25977815849999997,0.5458381389999989
45052.0,-1.5464106384999998,-0.40756437399999995,9.7216263445,1.0100342554338824,0.4748011150417894,0.0604512239720756,9.852284677367805,1.1177028435476604,-0.48846923649999985,0.326757578,0.8739686480000017
45062.0,-2.0575332365,-0.12738838349999998,10.804966969999999,1.3220624737761766,0.36928199912471626,0.1443875983589869,10.99986281925115,1.3802413404925267,-0.511122598,0.28017599049999997,1.0833406254999982
45072.0,-2.480101785,0.030596747999999997,11.9302800575,1.602646840314541,0.09295972661972197,0.22086269019362245,12.185377436720232,1.6204625060342988,-0.42256854850000014,0.1579851315,1.1253130875000004
45082.0,-2.6129818925,0.11444360549999999,12.771788694,1.7952997738081793,-0.3248528976859486,0.26216416161281625,13.036846173578905,1.843193080120693,-0.13288010750000012,0.0838468575,0.8415086365000004
45092.0,-2.3711499035,0.11444360549999999,13.117767306,1.8496580533615425,-0.7690461736355134,0.2600313692668792,13.330838994529579,2.0199710999297595,0.24183198900000002,0.0,0.3459786119999997
45102.0,-1.7857909650000001,0.21143137399999998,12.952525253499998,1.733213176326985,-1.0917313723904851,0.1971471563175235,13.0767604183583,2.057856240192491,0.5853589385,0.09698776849999999,-0.1652420525000018
45112.0,-1.231519107,0.4627758135,12.377953629999999,1.4774089945084359,-1.2095079356443144,0.09402612279269051,12.447671944219,1.9116714401822361,0.5542718580000001,0.25134443950000007,-0.5745716234999989
45122.0,-0.8220914695,0.780020941,11.7255172055,1.1597869959135,-1.127439063557037,-0.006164502918043972,11.780153682745388,1.6174865436907526,0.4094276375,0.31724512749999995,-0.6524364244999994
45132.0,-0.568393434,1.058922067,11.255092204999999,0.8613479111272335,-0.8766963365692717,-0.07597767299781716,11.319076268973788,1.2313769923753626,0.25369803550000003,0.27890112599999994,-0.4704250005000006
45142.0,-0.5144568589999999,1.2816310885,11.0551346115,0.6071424509035115,-0.5233683921370356,-0.12020955223110945,11.141061232448509,0.8105472016019996,0.05393657500000004,0.22270902150000005,-0.19995759349999886
45152.0,-0.7012735415,1.357044227,11.142511863,0.39903637221271554,-0.1516534040350393,-0.14445741152906666,11.246729490440218,0.4506625401004368,-0.18681668250000005,0.07541313850000009,0.08737725149999953
45162.0,-0.9981208369999999,1.291143539,11.404741684,0.24821898088938155,0.1297320686299905,-0.15831358046064967,11.520912712208272,0.3217238907247181,-0.2968472954999999,-0.06590068800000015,0.26222982100000003
45172.0,-1.3177195604999998,1.1331584074999999,11.737481318499999,0.17414197144698623,0.28801074250560027,-0.18122975353933518,11.86544986583942,0.38225624597382096,-0.31959872349999996,-0.15798513150000004,0.3327396344999993
45182.0,-1.5882850339999999,0.930847218,11.988923824499999,0.16801237511398215,0.3119915664280024,-0.2241299465533558,12.129444355045717,0.41928645179119517,-0.27056547350000004,-0.20231118949999982,0.25144250600000007
45192.0,-1.7319524564999997,0.744128602,12.1313163825,0.2127783250983847,0.20833820748131113,-0.29021334802161713,12.276897973845173,0.41581631966304067,-0.14366742249999986,-0.18671861600000006,0.14239255800000095
45202.0,-1.6433003405,0.6806795765,12.0618853005,0.27726300497181916,0.04766145121346115,-0.3688194868729377,12.192327000920276,0.4638687333233327,0.08865211599999978,-0.06344902549999998,-0.06943108199999948
45212.0,-1.3655760125,0.7740388844999999,11.808089198500001,0.35853426159093515,-0.13513211733566097,-0.4556862690739475,11.911964764906157,0.5953633190688775,0.2777243279999999,0.09335930799999992,-0.253796101999999
45222.0,-0.9669356899999999,0.9966498395,11.592637097999999,0.44273592602414963,-0.26889589653775836,-0.5148407134117914,11.675509000343283,0.7303294212570575,0.39864032250000014,0.22261095500000005,-0.21545210050000208
45232.0,-0.557606119,1.3893081054999998,11.3891491105,0.49602780940454444,-0.32458586231039344,-0.5247000783563073,11.487115349693202,0.7916500122791432,0.4093295709999999,0.39265826599999987,-0.20348798749999908
45242.0,-0.26909447599999997,1.696942716,11.273038374499999,0.4835050720214851,-0.3046018423750584,-0.47993412837190474,11.403219747569048,0.7462547853279611,0.28851164300000004,0.30763461050000007,-0.11611073600000132
45252.0,-0.0691368825,1.937597907,11.15212238,0.4206191137428774,-0.25850420617138414,-0.391201589200513,11.319403656387092,0.6299075700824274,0.19995759349999997,0.2406551910000001,-0.1209159944999989
45262.0,-0.04158019599999999,2.04174453,11.150945582,0.35506978302572645,-0.21160720917029652,-0.285949508658995,11.336403177869498,0.502612458354445,0.027556686500000004,0.10414662299999988,-0.0011767979999994793
45272.0,-0.12905551399999998,1.9555440764999998,11.245481687999998,0.3246923273947651,-0.1852265575264022,-0.17083806317296096,11.414975530239708,0.4109983320048873,-0.087475318,-0.08620045350000005,0.09453610599999784
45282.0,-0.234378935,1.789125226,11.487313677,0.35160530446051763,-0.18176207896119345,-0.06292086486364758,11.628167442605585,0.40077771733001555,-0.10532342100000003,-0.16641885049999994,0.24183198900000136
45292.0,-0.40315138149999996,1.6299632965,11.7351277225,0.41635527438025527,-0.20601168358840266,0.013554226970987963,11.854641877666761,0.46473244490563265,-0.16877244649999995,-0.15916192949999997,0.2478140455000002
45302.0,-0.6629295399999999,1.556903754,12.055903244,0.4808399542536898,-0.2830191008448965,0.05645441998500858,12.174080166604524,0.5607976235555817,-0.25977815849999997,-0.07305954250000002,0.3207755214999999
45312.0,-0.8879921575,1.5389575844999999,12.319309862999999,0.5306691043981279,-0.41331840148178517,0.08176867545593433,12.446779343238981,0.6775897841998412,-0.22506261750000012,-0.017946169500000053,0.2634066189999995
45322.0,-0.9956691744999999,1.5030652454999998,12.467684477499999,0.5698377834713846,-0.5785260324878124,0.08496611864558795,12.597369505883913,0.8164721128460948,-0.10767701699999987,-0.035892339000000106,0.14837461449999978
45332.0,-1.0160670065,1.437262624,12.3982533955,0.5996829136804877,-0.7400021495530757,0.06844483194620964,12.522571751484296,0.954938465726267,-0.020397832000000005,-0.06580262149999982,-0.06943108199999948
45342.0,-0.8999562705,1.440793018,12.198393868499998,0.6239307729784449,-0.8601767951991454,0.03220656068705136,12.316112161741145,1.0631232247579963,0.11611073599999988,0.0035303939999999923,-0.19985952700000098
