timestamp,ax,ay,az,gx,gy,gz,acc_mag,gyro_mag,dax,day,daz
104272.0,0.425216344,0.08316039199999999,9.879807609,-0.012138764947620562,-0.11968595345551115,0.2671924551878119,9.889303462876272,0.2930254002271803,0.0,0.0,0.0
104282.0,-0.498962352,0.03530394,9.622481113,-0.026794294676616946,-0.11329106707620393,0.30183375018139535,9.635473655557083,0.32350643402418955,-0.924178696,-0.04785645199999999,-0.257326496000001
104292.0,0.2552670995,0.16700724949999998,9.5937476285,-0.04837703620677882,-0.08344768219635289,0.33141009968569124,9.598596057383707,0.3451615671968351,0.7542294515,0.13170330949999998,-0.028733484500000017
104302.0,0.4060933765,0.104735022,9.5123524335,-0.06569768370357056,-0.019497073074028655,0.366583720101133,9.521592832839676,0.3729342372934593,0.150826277,-0.062272227499999985,-0.08139519499999892
104312.0,0.48866536949999995,0.07953193149999999,9.508723973,-0.10113659416531541,0.057777379558020286,0.3865677400364681,9.521604421849377,0.40373438533874423,0.08257199299999995,-0.02520309050000001,-0.003628460499999875
104322.0,0.5114167975,-0.023339827,9.5374574575,-0.1560271991405371,0.14331247553975837,0.3881664616312949,9.551187708442962,0.4422173158666836,0.022751428000000073,-0.1028717585,0.028733484500000017
104332.0,0.4982758865,-0.17416610400000002,9.575801459,-0.21891315741914477,0.21232628482211816,0.37084755946375514,9.590338173027915,0.48013886957609037,-0.013140911000000033,-0.150826277,0.038344001499998726
104342.0,0.40491657849999996,-0.25320770299999995,9.6284631695,-0.2772682409595752,0.26561816820251305,0.33487457825090006,9.640299506904372,0.5094817679591623,-0.09335930800000003,-0.07904159899999993,0.05266171050000068
104352.0,0.3054771475,-0.26281822,9.688283734499999,-0.3241652379606628,0.29040009825158053,0.2858447889038753,9.696660838896344,0.5206943075453407,-0.09943943099999997,-0.00961051700000004,0.05982056499999899
104362.0,0.2013305245,-0.24124358999999998,9.82234064,-0.35800717215683286,0.2864032942645135,0.23654970951054746,9.82736526735458,0.5158989701005634,-0.104146623,0.02157463000000001,0.13405690550000138
104372.0,0.134351105,-0.182599823,9.9528671515,-0.3753260743243726,0.24270199512382745,0.19471591266949537,9.95544863128639,0.48753277546391216,-0.0669794195,0.058643766999999986,0.1305265114999994
104382.0,0.045698988999999995,-0.053348176000000004,10.0785884045,-0.36600078013096693,0.1443771263834749,0.17419782198305006,10.078833198976954,0.43028619181059563,-0.088652116,0.129251647,0.12572125300000003
104392.0,-0.0392266,0.0867888525,10.0234750315,-0.3348239637025922,-0.006440264939859076,0.1824584653327392,10.023927510620265,0.3813655139804709,-0.084925589,0.1401370285,-0.0551133729999993
104402.0,-0.000980665,0.188483813,9.839110011499999,-0.2932554569078432,-0.17004742902180753,0.20910440702293664,9.84091524848509,0.3982957998266722,0.038245935,0.1016949605,-0.18436502000000132
104412.0,0.12356378999999999,0.20289958849999998,9.5853139095,-0.25381974245903133,-0.292087831638259,0.2421452350924413,9.588257349324058,0.4564800958761319,0.124544455,0.014415775499999978,-0.253796101999999
104422.0,0.22290515449999998,0.163378789,9.3423051225,-0.23516740874296796,-0.3613686762961739,0.2794499025245681,9.346392049260908,0.5137930306688887,0.09934136449999999,-0.03952079949999998,-0.24300878700000084
104432.0,0.25399223499999996,0.0975761675,9.1579401025,-0.23756549113520817,-0.3930760728171549,0.30876096198256087,9.161981231419436,0.5534252372670281,0.031087080499999975,-0.06580262149999999,-0.18436501999999955
104442.0,0.2935130345,-0.026968287499999997,8.9472932605,-0.2612810250113071,-0.39654055138236366,0.32981137809086447,8.952146886604398,0.5781762084691685,0.03952079950000004,-0.124544455,-0.21064684199999917
104452.0,0.30430034949999996,-0.1454326195,8.771361959499998,-0.3055129042445994,-0.3717603666625482,0.3322094604831046,8.777843697291729,0.5847281680537697,0.010787314999999964,-0.118464332,-0.1759313010000021
104462.0,0.18456115299999998,-0.18495341899999998,8.571404366,-0.36626607017727,-0.34591378576976417,0.31195840517221446,8.575385903379528,0.5925582063445436,-0.11973919649999998,-0.03952079949999998,-0.19995759349999886
104472.0,0.135527903,-0.14906107999999998,8.387039346,-0.4347475540377715,-0.33925186401490176,0.28211502029236346,8.389458624334138,0.6194240451047821,-0.04903324999999997,0.035892338999999995,-0.18436501999999955
104482.0,0.16190779149999998,-0.12748644999999997,8.1811977625,-0.497099441565269,-0.3424493072045554,0.2528039608343707,8.183792748904203,0.6544380990001486,0.026379888499999976,0.02157463000000001,-0.20584158349999981
104492.0,0.17259704,-0.09159411099999999,7.9237732,-0.5360028305922225,-0.33791843246637815,0.22562394839306296,7.926181990367423,0.6726024587316675,0.010689248500000026,0.03589233899999998,-0.2574245624999998
104502.0,0.19897692849999998,-0.12993811249999998,7.6029976784999995,-0.5533234780890143,-0.32006545954772814,0.19924504207842067,7.606710815486004,0.6695575827312046,0.026379888499999976,-0.03834400149999999,-0.32077552150000077
104512.0,0.25399223499999996,-0.12876131449999997,7.249762145499999,-0.5602506898901798,-0.28276079211560134,0.17552950820232172,7.255352692865924,0.6516479949558762,0.05501530649999997,0.0011767980000000067,-0.3532355330000003
104522.0,0.38216515049999994,-0.169458912,6.950561253999999,-0.5655809254257704,-0.21401401820879667,0.1606086884270222,6.9631220203813,0.6256827742503339,0.12817291549999998,-0.040697597500000016,-0.29920089149999995
104532.0,0.506611539,-0.194563936,6.7685498299999995,-0.5623834822361169,-0.12581554978851525,0.15474612746957325,6.790270773528312,0.5967001739797271,0.12444638850000006,-0.025105024000000004,-0.1820114239999997
104542.0,0.47905485249999996,-0.21251010549999996,6.6715620614999995,-0.5376015521870493,-0.06213023071249414,0.1683352610256011,6.692114347281398,0.5667559921049531,-0.02755668650000004,-0.01794616949999997,-0.09698776850000002
104552.0,0.40491657849999996,-0.25203090499999997,6.571043898999999,-0.49470135917302877,-0.04028045380677713,0.1901850379313181,6.588330208421887,0.5315282667737049,-0.074138274,-0.03952079950000001,-0.10051816250000023
104562.0,0.3713778355,-0.334602898,6.4788613889999995,-0.43767796185187,-0.04134684997974567,0.19764632048359385,6.498117072962418,0.4820120623954945,-0.03353874299999998,-0.08257199300000001,-0.09218250999999977
104572.0,0.3294053735,-0.36215958449999996,6.511223333999999,-0.36413502316058494,-0.06452831310473435,0.19045207330687325,6.529601578194642,0.41596900186334673,-0.04197246199999999,-0.027556686499999983,0.03236194499999989
104582.0,0.28870777599999997,-0.4208033514999999,6.4944539625,-0.2876599313259494,-0.11915362803365288,0.17899398676753045,6.514473110819359,0.35914435880710543,-0.040697597500000016,-0.05864376699999996,-0.016769371499999686
104592.0,0.2803721235,-0.413644497,6.380696822499999,-0.2167803650732077,-0.17617702535481164,0.16194037464629385,6.400234545561269,0.3228881476374213,-0.008335652499999957,0.007158854499999923,-0.11375714000000059
104602.0,0.30076995549999996,-0.36814164099999996,6.319699459499999,-0.1701504034476752,-0.19429528831976475,0.14222164475726193,6.337554109621016,0.2948369296647351,0.02039783199999995,0.045502856000000036,-0.06099736300000025
104612.0,0.389324005,-0.331072504,6.306460481999999,-0.16828464647729324,-0.17191318599218947,0.11664209924003303,6.327134105959959,0.26735602681273973,0.08855404950000001,0.037069136999999974,-0.013238977499999471
104622.0,0.552114395,-0.26762347849999996,6.176032037,-0.22397635757918033,-0.11275874165434566,0.10145249875992639,6.2064341093304956,0.27050425519488813,0.16279039000000006,0.06344902550000003,-0.13042844499999973
104632.0,0.631155994,-0.10120462799999999,5.898307709,-0.32363291253880455,0.00901462558655071,0.10571633812254853,5.932843676984889,0.34058107654251174,0.07904159899999996,0.16641885049999997,-0.2777243279999997
104642.0,0.6838177045,-0.015004174499999998,5.668439833,-0.4347475540377715,0.18994243716529088,0.1310305935934743,5.709557068510756,0.49219161069198825,0.052661710500000014,0.0862004535,-0.22986787600000014
104652.0,0.5999708469999999,-0.013827376499999999,5.591849896499999,-0.5277421872425334,0.38978961783564964,0.17393078660749492,5.623961368873174,0.6787486139196874,-0.0838468575000001,0.0011767979999999997,-0.07658993650000046
104662.0,0.436003659,-0.0867888525,5.662457776499999,-0.5597183644683215,0.5483353270868145,0.2258909837686181,5.6798820028434545,0.8154649072783272,-0.16396718799999993,-0.072961476,0.07060787999999985
104672.0,0.21329463749999997,-0.24840244449999996,6.008436388499999,-0.5173504968761592,0.6429286818864032,0.27065693375302063,6.01735043116742,0.8684837375557377,-0.22270902150000002,-0.16161359199999997,0.3459786119999997
104682.0,0.046973853499999996,-0.49023443349999996,6.542310414499999,-0.4331488324429447,0.6418640310426866,0.3023660756032536,6.560820215672493,0.8312836995086369,-0.16632078399999997,-0.241831989,0.5338740260000003
104692.0,-0.2295736765,-0.63154826,7.228285581999999,-0.3028477864768041,0.5070338556676206,0.32847969187159276,7.25945381778821,0.67579510248235,-0.27654753,-0.14131382650000002,0.6859751674999996
104702.0,-0.430708068,-0.750012592,7.733426123499999,-0.16082336392501748,0.2600226426206192,0.3354069036727583,7.781639154807365,0.45384327701412064,-0.2011343915,-0.11846433200000006,0.5051405415000003
104712.0,-0.46905206949999995,-0.8541592149999999,7.796875148999999,-0.06436425215504689,-0.011236429724339494,0.2935731068317062,7.85753523043743,0.3007560196625312,-0.03834400149999995,-0.10414662299999988,0.06344902549999976
104722.0,-0.12189665949999999,-0.8254257304999999,7.6161385895,-0.04091575365450307,-0.13007764382188539,0.1987127166565624,7.661706953847802,0.24100007485559108,0.34715540999999994,0.028733484500000017,-0.18073655949999878
104732.0,0.25399223499999996,-0.715297051,7.415004198,-0.07795338571107474,-0.03974812838491886,0.0969233693510011,7.453754032899611,0.13057864902147734,0.37588889449999996,0.11012867949999994,-0.20113439150000012
104742.0,0.3294053735,-0.497393288,7.295265001499999,-0.1243180572903041,0.15450352670354603,0.039634681983539234,7.319617437076127,0.20223062861051733,0.07541313850000003,0.21790376299999997,-0.1197391965000012
104752.0,0.29233623649999996,-0.32146198699999995,7.6388900175,-0.11819020628655201,0.3620772799724836,0.04975933697435834,7.651237741942027,0.3841157028168176,-0.03706913700000003,0.17593130100000004,0.3436250160000007
104762.0,0.098458766,-0.2495792425,8.244646787999999,-0.04438023221971182,0.4753247138173877,0.12063890322710005,8.249011127751485,0.49239916079263857,-0.19387747049999995,0.07188274449999996,0.6057567704999993
104772.0,-0.1146397385,-0.33705456049999993,8.987990858,0.04648335396836498,0.43322388160078046,0.2258909837686181,8.995039061054086,0.490785462634489,-0.2130985045,-0.08747531799999994,0.7433440700000009
104782.0,-0.49533389149999996,-0.554860257,9.575801459,0.15919671706215877,0.21525669263621663,0.34393458239800256,9.604644665527879,0.43585552126517807,-0.380694153,-0.21780569650000003,0.5878106009999993
104792.0,-0.7969864454999999,-0.9427132644999999,9.907364295499999,0.31374562232625663,-0.14233509115864157,0.4302672938479021,9.98397530932059,0.5512037172037447,-0.3016525539999999,-0.38785300749999996,0.33156283649999985
104802.0,-0.9311414175,-1.4898262679999998,9.770953794,0.46616173524441745,-0.5257752011755358,0.44971898836137886,9.9276454757757,0.8342622453821361,-0.13415497200000015,-0.5471130034999999,-0.13641050149999856
104812.0,-0.8436660994999999,-1.986631157,9.4201699235,0.5847376592956602,-0.7927704341578724,0.3847037283953381,9.66426806483671,1.0575443490060847,0.08747531800000008,-0.4968048890000001,-0.3507838705000008
104822.0,-0.4929802955,-2.1972779989999998,9.044281028999999,0.6345668094400982,-0.8282093446196171,0.23388459174275214,9.320411981676024,1.0692557020717335,0.35068580399999993,-0.21064684199999983,-0.37588889450000096
104832.0,-0.11826819899999999,-1.9914364155,8.834810984999999,0.5852717300467705,-0.6422200782100935,0.04469613681432279,9.057245249221799,0.8700502120534441,0.37471209650000004,0.20584158349999981,-0.2094700439999997
104842.0,0.08404299049999998,-1.6310420279999998,8.968867890499999,0.49547279470241024,-0.3373861070445199,-0.09945933275414887,9.11635632029576,0.6076305081122685,0.2023111895,0.3603943875000002,0.1340569054999996
104852.0,0.12238699199999999,-1.3629282169999999,9.3555441,0.4243279384033654,-0.0919736155923452,-0.17646675001064266,9.455091607570516,0.4686724433269972,0.0383440015,0.26811381099999987,0.3866762095000009
104862.0,0.24330298649999998,-1.085203889,9.798412414,0.4024781614976484,0.035395277230445006,-0.19378739750743437,9.86132595844848,0.44810160852807884,0.1209159945,0.2777243279999999,0.44286831400000004
104872.0,0.318716125,-0.9319259495,10.260501762,0.4219298560111252,0.07003482689477646,-0.1634099418764731,10.307665223109044,0.45785640704900316,0.07541313850000003,0.15327793950000002,0.462089348000001
104882.0,0.299495091,-0.993021379,10.4963516945,0.4648300490251458,0.02660230845889757,-0.1098510231205231,10.547473046342294,0.47837423067373464,-0.019221034000000026,-0.06109542950000002,0.23584993249999897
104892.0,0.3509800035,-1.2743741675,10.5753932935,0.489077908323103,-0.029888763440402893,-0.07547850883174678,10.657680788701308,0.4957696480071788,0.051484912500000035,-0.2813527885,0.07904159899999996
104902.0,0.39285439899999997,-1.5197365504999998,10.529890437499999,0.4621649312573505,-0.02349387706109567,-0.08773595616850295,10.646244708228963,0.47100529078586245,0.04187439549999994,-0.2453623829999998,-0.04550285600000059
104912.0,0.37971348799999993,-1.5436647764999998,10.447220377999999,0.4181983420703613,0.060709532701370764,-0.13090143922882672,10.567473534467657,0.4423920065545895,-0.013140911000000033,-0.023928225999999997,-0.08267005949999984
104922.0,0.367749375,-1.5735750589999997,10.4951748965,0.3870232709712386,0.17821906057964498,-0.17540209916692612,10.618854654681149,0.46077645579969917,-0.011964112999999943,-0.02991028249999994,0.04795451850000099
104932.0,0.4767012565,-1.572398261,10.7273963685,0.3649064586899664,0.32424028711849856,-0.2201663038220767,10.852498017786111,0.5355013433437993,0.10895188150000001,0.0011767979999997014,0.2322214719999991
104942.0,0.48866536949999995,-1.4503054684999999,11.013456348999998,0.32280562647335925,0.47052854903290725,-0.26439992838462095,11.119280576846595,0.62889419624263,0.011964112999999943,0.12209279250000016,0.28605998049999926
104952.0,0.46110868299999996,-1.306638046,11.3846380515,0.3161437047184969,0.5624567860647006,-0.2878484268851648,11.468648907541567,0.7065134075752793,-0.027556686499999983,0.14366742249999986,0.37118170250000126
104962.0,0.458755087,-1.3114433044999998,11.8239759715,0.4059408947336051,0.5661883000054645,-0.2995735488000627,11.905324336000916,0.7583544766274287,-0.002353595999999958,-0.004805258499999798,0.4393379199999998
104972.0,0.4527730305,-1.2946739329999999,12.246544519999999,0.5471659564879783,0.479853843226313,-0.3142290785290591,12.323109862785442,0.7927106714253876,-0.005982056499999999,0.016769371499999908,0.42256854849999925
104982.0,0.3294053735,-1.1378655994999998,12.420122224999998,0.6857276458038081,0.309317722013947,-0.33048158452363025,12.47648516636617,0.8216556061275184,-0.12336765700000002,0.15680833350000012,0.17357770499999958
104992.0,0.3498032055,-0.9834108619999998,12.226146688,0.7861835615608458,0.13718287920675432,-0.35099967521007563,12.270620279454947,0.8718397254160479,0.020397832000000005,0.15445473749999994,-0.19397553699999825
105002.0,0.5125935954999999,-0.808656359,11.693449459999998,0.8133635740021534,0.061774183545087305,-0.38164242088734,11.732580175505856,0.9005705362085572,0.16279038999999995,0.17475450299999984,-0.5326972280000017
105012.0,0.7687432934999999,-0.5860454039999999,11.058959204999999,0.7976416481001886,0.14464416175903005,-0.3928352173803797,11.101125806183125,0.9008183170480315,0.256149698,0.22261095500000005,-0.6344902549999993
105022.0,0.955559976,-0.17298930599999998,10.735732021,0.7776558828356014,0.4017800297968506,-0.3701860796772493,10.779562245028703,0.9503755037032402,0.18681668250000005,0.413056098,-0.3232271839999985
105032.0,0.8969162089999999,0.1585735305,10.722591109999998,0.7446150547660968,0.7146076089365583,-0.3043697135845431,10.761206454798327,1.0759909558550569,-0.05864376700000007,0.33156283649999996,-0.013140911000002475
105042.0,0.86690786,0.38128255199999994,11.202626627499999,0.7286278388178288,1.0023879679808954,-0.19538611910226122,11.242586400706974,1.2545341371963743,-0.030008348999999934,0.22270902149999994,0.48003551750000106
105052.0,0.7412846735,0.41236963249999997,12.077674006999999,0.7440827293442386,1.2099617212498328,-0.09945933275414887,12.107425865985618,1.4239236755774973,-0.12562318649999993,0.03108708050000003,0.8750473794999998
105062.0,0.36657257699999996,0.3321512355,12.942032138,0.7829861183711921,1.2454006317115778,-0.03257657048847416,12.951482376873987,1.471445285416476,-0.3747120965000001,-0.080218397,0.8643581310000013
105072.0,-0.0440318585,0.230456275,13.683022612,0.8504012060587252,1.0820587576759324,-0.004865977954560191,13.68503404086936,1.3762474501595892,-0.4106044355,-0.10169496049999999,0.7409904740000002
105082.0,-0.232025339,0.21966896,14.155899275,0.9122207681643643,0.8084016029387335,-0.024317672468036993,14.159504740416278,1.2191190387728998,-0.1879934805,-0.010787314999999992,0.4728766629999992
105092.0,-0.2774301285,0.3082230095,14.286327720000001,0.9298067057074592,0.5400746837371253,-0.06748315552836075,14.292345105790904,1.0773927558102376,-0.04540478949999999,0.08855404949999998,0.1304284450000015
105102.0,-0.301456421,0.44590837549999995,14.1846327595,0.9028937286417066,0.3223745301481166,-0.11278317626387357,14.194841202880141,0.9653302376683902,-0.02402629249999999,0.13768536599999998,-0.10169496050000149
105112.0,-0.2882174435,0.660183678,13.9906572225,0.8786458693437493,0.16436289164806198,-0.1285033568365865,14.009189887389159,0.9030763182500229,0.013238977499999971,0.21427530250000004,-0.19397553700000003
105122.0,-0.24036099149999998,0.787081729,13.7800103805,0.8714516221670288,0.07163354848960327,-0.09945933275414887,13.804562910177498,0.8800292346954496,0.04785645200000002,0.12689805099999996,-0.21064684199999917
105132.0,-0.2535019025,0.9354563435,13.611237934,0.8301501507478349,0.044188246001992434,-0.04829849639043908,13.645700417388845,0.8327272174157411,-0.013140911000000005,0.1483746145,-0.16877244650000023
105142.0,-0.281058589,0.9438900625,13.5932917645,0.7286278388178288,0.07216587391146154,0.009257226352577924,13.628921577856424,0.732251416589608,-0.02755668650000004,0.008433719000000006,-0.017946169500000053
105152.0,-0.37324109899999997,0.8038511005,13.717738152999999,0.6025906322143102,0.0812258780585641,0.06414783132779958,13.746338623212713,0.6114147999213682,-0.09218250999999994,-0.140038962,0.12444638849999912
105162.0,-0.5265190385,0.625468137,13.692633128999999,0.5114600106506784,0.030864402492267722,0.09319360073948922,13.717019891131365,0.5207965063772876,-0.15327793950000007,-0.17838296349999994,-0.025105024000000142
105172.0,-0.629390797,0.46150094899999994,13.550142504499998,0.4754887747670752,-0.08238128602338436,0.09026144759613874,13.572600259107821,0.49094132046356775,-0.10287175849999997,-0.1639671880000001,-0.1424906245000006
105182.0,-0.6318424595,0.38245935,13.326256684999999,0.46029917428696854,-0.2049540140616941,0.061484458889256244,13.346708106590802,0.507603995664111,-0.0024516624999999515,-0.07904159899999996,-0.22388581949999953
105192.0,-0.5934984579999999,0.396777059,13.058142874,0.42619195004449534,-0.28622527068081005,0.029775317039023263,13.077643815764139,0.5142480465337782,0.03834400150000006,0.014317709000000012,-0.2681138109999992
105202.0,-0.5024927459999999,0.5176930534999999,12.724128375,0.3713013450692737,-0.32352993811293684,0.004194026192542374,12.744565428483817,0.49249761376205303,0.09100571199999996,0.12091599449999996,-0.33401449900000024
105212.0,-0.42354921349999997,0.626644935,12.5565327265,0.31028114376104793,-0.3086091183376373,-0.002467895562319982,12.579292186863423,0.43763005678689904,0.07894353249999997,0.10895188150000001,-0.16759564849999897
105222.0,-0.32891504099999996,0.7487377275,12.4284578775,0.24686286006058195,-0.2670406115428884,0.011655308744818132,12.455334539929856,0.363851351670469,0.0946341725,0.12209279250000005,-0.12807484900000077
105232.0,-0.3109688715,0.8636716654999999,12.423652619,0.18291225093825775,-0.22973594411076162,0.050026372349913466,12.457518805220207,0.2978894652220104,0.017946169499999942,0.11493393799999985,-0.004805258499999354
105242.0,-0.360100188,0.949872119,12.4415987885,0.11150035926365774,-0.2156127398036235,0.10171953413548152,12.483000825196473,0.2631882355013027,-0.049131316499999966,0.08620045350000016,0.017946169500000053
105252.0,-0.40913343799999996,0.9893929184999999,12.365008851999999,0.023034855467821164,-0.22334105773145438,0.15980932762960878,12.411274407864246,0.27559182468363586,-0.04903324999999997,0.03952079949999987,-0.07658993650000134
105262.0,-0.501315948,1.0013570315,12.266844285499998,-0.07555530331883452,-0.23266635192486007,0.2072386500525547,12.317852991043429,0.3206089413182813,-0.09218251000000005,0.01196411300000011,-0.09816456650000127
105272.0,-0.512103263,0.905546061,12.1626976625,-0.1730808112617737,-0.24252571686937605,0.23788139572981915,12.207107677494731,0.3812653262550966,-0.010787314999999964,-0.09581097049999998,-0.10414662299999833
