timestamp,ax,ay,az,gx,gy,gz,acc_mag,gyro_mag,dax,day,daz
161822.0,1.9421089659999997,-3.4251686455,6.0492320525,0.022903955773921587,0.18119484695429533,0.2251893614093164,7.217809633879745,0.2899420842941224,0.0,0.0,0.0
161832.0,1.9049417625,-4.032102214,6.182112159999999,-0.009604546873724796,0.18918845492842934,0.1889493448209061,7.622674211946892,0.267556300069921,-0.03716720349999969,-0.6069335685000001,0.13288010749999923
161842.0,2.0271326215,-4.346895678999999,6.2407559269999995,0.0047856928089684515,0.23661952268062725,0.1468485126042989,7.870946782290168,0.2785250204620127,0.12219085899999982,-0.3147934649999993,0.0586437670000004
161852.0,1.9085702229999997,-4.129089982499999,6.1965279355,0.07752927070284012,0.2568705779915174,0.1103432059695855,7.686935854756173,0.2901187769811821,-0.11856239850000017,0.21780569650000015,-0.044227991499999675
161862.0,1.9205343359999998,-3.9267787929999995,6.135432505999999,0.16652709992053497,0.25527185639669064,0.09995151560321126,7.533364179474594,0.3207573867388489,0.01196411300000011,0.2023111894999996,-0.0610954295000008
161872.0,1.9289680550000001,-3.87166542,6.1342557079999995,0.2507305096830014,0.23421969495913506,0.12526577107413703,7.505984543866637,0.365261779269945,0.00843371900000034,0.055113372999999743,-0.0011767979999994793
161882.0,1.9743728445,-3.786739831,6.1066990215,0.3285372877369086,0.19718206290256338,0.1694976503074293,7.451799756835256,0.4189832560183931,0.04540478949999982,0.08492558900000002,-0.02755668649999965
161892.0,1.9959474744999999,-3.7735008535,6.016968174,0.3866253359017839,0.14229145792734169,0.22492232603376125,7.3774671140749275,0.4693783783992327,0.021574629999999928,0.013238977499999915,-0.08973084750000027
161902.0,2.0678302189999997,-3.8621529695,5.887618460499999,0.4207325601442571,0.08313701358949789,0.27341804462967567,7.338678253667184,0.5086109292211843,0.07188274449999987,-0.088652116,-0.1293497135000008
161912.0,2.023504161,-3.8836295329999997,5.670989562,0.44045129003328903,0.051960197161123184,0.3203150416307633,7.165003143857445,0.5470821938940518,-0.04432605799999978,-0.021476563499999823,-0.2166288984999989
161922.0,1.8618905689999998,-3.8633297675,5.3776726605,0.4503106549778049,0.046097636203674235,0.3666797132099927,6.878322224705084,0.5825450112479451,-0.16161359200000014,0.0202997654999999,-0.2933169014999999
161932.0,1.6225102425,-3.9040273649999997,5.0664095895,0.4513770511507735,0.04982915014443811,0.3938597256513004,6.598672236311167,0.6011236727993687,-0.23938032649999985,-0.040697597499999905,-0.31126307099999995
161942.0,1.436870358,-4.065640956999999,4.7396520115,0.4548397843867303,0.06554933071715104,0.38213460373640246,6.4076777390136375,0.5976644540134631,-0.18563988450000002,-0.1616135919999997,-0.3267575780000005
161952.0,1.2130826049999999,-4.172141175999999,4.356506196,0.4702946749131401,0.10098998650814789,0.32990911652897614,6.152843052997096,0.5832804503800051,-0.2237877530000001,-0.10650021899999995,-0.3831458154999998
161962.0,1.065786722,-4.190087345499999,3.9088326235,0.4993386989955777,0.15588059148336955,0.2507689069265453,5.828525180373559,0.5801059729023099,-0.14729588299999996,-0.017946169500000053,-0.44767357249999984
161972.0,0.982037931,-4.145859354,3.728096064,0.5656891358393941,0.23342033416172164,0.14898130495023595,5.661382211393641,0.6298290879528871,-0.08374879099999988,0.044227991499999675,-0.18073655950000012
161982.0,0.938888671,-3.9817940994999996,3.6550365214999996,0.7031826836530034,0.287778613715085,0.038398988873127246,5.485935486390993,0.760760737320016,-0.04314926000000008,0.1640652545000001,-0.07305954250000024
161992.0,1.0694151824999998,-3.755554684,3.670629095,0.8979666641633266,0.3122935083885974,-0.05885948369425677,5.359231080121137,0.9525417597937772,0.13052651149999983,0.22623941549999982,0.015592573500000206
162002.0,1.2956545979999998,-3.419186589,3.731626458,1.1084725705756147,0.3434703248169721,-0.12414352436510466,5.224422818815646,1.167088222196667,0.22623941550000004,0.33636809499999965,0.06099736300000025
162012.0,1.5111066985,-3.004953693,3.8513656545,1.2912661391247366,0.39916029058960717,-0.14066481106448298,5.11333624515229,1.358853843761532,0.21545210050000008,0.41423289600000013,0.11973919649999987
162022.0,1.7086126295,-2.5715978295,3.9794405035,1.4079763062055974,0.4953541123132746,-0.10549119064904126,5.036707181807609,1.4962958820790035,0.19750593100000002,0.4333558635000001,0.12807484899999988
162032.0,1.8092288584999998,-2.240034993,4.0955512395,1.462601621134516,0.6256534129501632,-0.017025686853204686,5.0064564102430476,1.5908914385634003,0.10061622899999989,0.33156283649999985,0.11611073599999999
162042.0,1.7469566309999998,-2.020954432,4.1805748949999995,1.4681971467164099,0.775938478851639,0.11140960214255403,4.961181385468542,1.6643603828613456,-0.062272227500000055,0.21908056100000017,0.08502365549999968
162052.0,1.4836480785,-2.0126187795,4.2787394615,1.4599365033667209,0.9395473882628395,0.24544041672020658,4.955749928298452,1.7533980970715004,-0.26330855249999985,0.008335652500000013,0.09816456650000038
162062.0,1.123253691,-2.0963675704999996,4.447511907999999,1.438619051882862,1.0956932697925121,0.34216656386573235,5.043492640699596,1.8404473573934774,-0.36039438749999997,-0.08374879099999966,0.16877244649999934
162072.0,0.566628237,-2.0736161424999997,4.712095325,1.4271609653435193,1.2235962333664125,0.3754744273107921,5.179265760442223,1.9170177904425105,-0.556625454,0.02275142799999985,0.26458341700000076
162082.0,-0.07864933299999999,-2.1418704264999997,5.208900213999999,1.4748590684712723,1.2433132179261925,0.34616336785279933,5.63262248698649,1.9598127734467714,-0.64527757,-0.068254284,0.496804888999999
162092.0,-0.4700327345,-2.273573736,5.625486706,1.596897725758472,1.1340643333976075,0.2518353030995138,6.085734876242415,1.9747418258355607,-0.3913834015,-0.1317033095000002,0.4165864920000013
162102.0,-0.6148769550000001,-2.2544507685,6.022950230499999,1.7549111095877785,0.9640605376070999,0.10314895879286488,6.4603832252011415,2.0049352683879724,-0.14484422050000006,0.019122967499999977,0.3974635244999991
162112.0,-0.580161414,-1.914454213,6.2958693,1.9478293331277197,0.7855308084205999,-0.051399946471233,6.606034547491438,2.1008902199943584,0.03471554100000007,0.33999655549999996,0.27291906950000033
162122.0,-0.32999377249999995,-1.475116293,6.4167852944999995,2.125027376094948,0.6339140562998524,-0.1630469133920583,6.592419698674705,2.223549566772504,0.25016764150000004,0.43933792000000005,0.12091599449999979
162132.0,-0.012748645,-0.9532063799999999,6.5124981984999994,2.258791155297045,0.5641008862200793,-0.20781286337646085,6.581899248415139,2.3374202615848017,0.31724512749999995,0.521909913,0.09571290399999999
162142.0,0.24575464899999996,-0.446790974,6.699314880999999,2.3520528238773624,0.5742272865401503,-0.19102628663077936,6.7186931316098235,2.4286581696691454,0.25850329399999994,0.5064154059999999,0.18681668249999994
162152.0,0.4696404685,0.029616082999999998,6.9518361185,2.4266621587416157,0.6070010792340998,-0.13000608532255362,6.967744592083316,2.504803610082191,0.22388581950000006,0.476407057,0.2525212375000008
162162.0,0.4313945335,0.4282564055,7.394802498999999,2.4930125955854323,0.6754825630946014,-0.03461162439629955,7.4197445233378545,2.583135006021911,-0.03824593500000001,0.3986403225,0.4429663804999988
162172.0,-0.030694814499999997,0.5767290865,8.05322098,2.558294890927028,0.7447634077525163,0.020546015954477248,8.073904059596229,2.6645764055928436,-0.462089348,0.148472681,0.6584184810000018
162182.0,-0.25693423,0.503669544,8.5583615215,2.583342111022399,0.7602182982789261,-0.030349530362929394,8.577018721023679,2.6930483504038727,-0.22623941549999999,-0.07305954250000002,0.5051405414999994
162192.0,-0.43061000149999995,0.698821879,8.9259147635,2.5308495884394175,0.8172399502708328,-0.16357923881391656,8.963578044354172,2.6645522969147337,-0.17367577149999996,0.19515233500000007,0.3675532419999996
162202.0,-0.47483799299999996,1.000474433,9.172453944499999,2.4322576843235097,0.9019756854551576,-0.32905390519549893,9.239065514144627,2.6149023026926783,-0.04422799150000001,0.3016525539999999,0.24653918099999927
162212.0,-0.2856677145,1.2914377385,9.282582624,2.324075195967893,1.0256148096664357,-0.48120298273810463,9.376340312025603,2.5854917452810344,0.18917027849999996,0.29096330550000005,0.11012867950000071
162222.0,-0.1552392695,1.6852728025,9.4023218205,2.22042009169195,1.192419416938038,-0.5803272122758706,9.5534234317281,2.5862925439300213,0.130428445,0.3938350639999999,0.11973919649999942
162232.0,-0.18279595599999998,2.0443923254999996,9.707602835,2.1596669257592795,1.3147251096007924,-0.616832518910584,9.92222289329328,2.602526791489173,-0.027556686499999983,0.3591195229999997,0.3052810145000002
162242.0,-0.15161080899999999,2.272985337,10.089473786,2.1836494950109335,1.3048674899855286,-0.6104376325312767,10.343448624999487,2.616034859609678,0.031185146999999996,0.22859301150000055,0.3818709509999998
162252.0,-0.19476006899999998,2.5232510449999994,10.6724791285,2.318212635010444,1.1433896275910131,-0.5899195418448314,10.968433710828478,2.6513118880009565,-0.043149259999999995,0.25026570799999925,0.5830053424999999
162262.0,-0.22947561,2.765083034,11.2973588665,2.528184470671622,0.8308308291561126,-0.5571457491508819,11.633084741330894,2.7188983008230156,-0.034715541000000016,0.24183198900000047,0.6248797380000006
162272.0,-0.37912508899999997,3.2845412845,11.7976941495,2.728031651341981,0.47137154306162055,-0.527834689692889,12.25224610134161,2.818325261919769,-0.14964947899999997,0.5194582505,0.5003352830000001
162282.0,-0.30008348999999995,3.7574179474999996,12.0036337995,2.8546011833673575,0.17000379579050767,-0.5398251016540901,12.581552532404913,2.9101650034046775,0.07904159900000002,0.47287666299999964,0.20593964999999947
162292.0,-0.0187307015,4.260204892999999,12.068259623,2.8452741438447,0.03570594583729999,-0.5627412747327757,12.79814779167876,2.9006098687150597,0.28135278849999995,0.5027869454999996,0.06462582350000012
162302.0,0.19907499499999998,4.802512638,11.9449900325,2.7048501882169917,0.07860613885132062,-0.5667380787198427,12.875812415855876,2.764703513151757,0.21780569649999998,0.5423077450000005,-0.12326959049999964
162312.0,0.47807418749999997,5.137703935,11.795340553499999,2.4863506738305703,0.27552291170758086,-0.5640729609520474,12.87457243660969,2.564377283749559,0.2789991925,0.3351912970000006,-0.1496494790000007
162322.0,0.4804277835,5.4214103195000005,11.864771635499999,2.234276260623533,0.6046029968418597,-0.5523495843664015,13.05355532681059,2.379627125397122,0.0023535960000000133,0.2837063845000003,0.06943108199999948
162332.0,0.275762998,5.6320571615,12.096993107499998,1.9936616792850905,0.8993105676873622,-0.5547476667586417,13.346660831248085,2.2563668501327903,-0.2046647855,0.21064684199999917,0.2322214719999991
162342.0,0.1536702055,5.7577784145,12.402274122,1.7967449064288303,1.0999571091551343,-0.5448883018141257,13.674502923315764,2.1760287595095678,-0.12209279249999999,0.12572125300000003,0.305281014500002
162352.0,-0.0379517355,5.833191553,12.67999845,1.6424630365402877,1.190553659967656,-0.5062502028334752,13.95743259773159,2.0907874381515827,-0.191621941,0.07541313850000009,0.2777243279999997
162362.0,-0.26173948849999995,5.895463780499999,12.940953406499998,1.515893504514911,1.1705696400323211,-0.43803575434852887,14.222984068620462,1.964698888197268,-0.22378775299999995,0.06227222749999939,0.2609549564999991
162372.0,-0.46287387999999996,5.890658522,13.1480698545,1.4498118483759017,1.0285452174805343,-0.3383791993889046,14.414778907441109,1.80951931259998,-0.2011343915,-0.004805258499999354,0.20711644800000073
162382.0,-0.716669982,5.911056353999999,13.318019098999999,1.450611209173315,0.8009856989470096,-0.21553943597503974,14.58848298503283,1.6710201131516444,-0.253796102,0.02039783199999956,0.1699492444999997
162392.0,-0.9920407139999999,5.992451549,13.4605097235,1.5374779913743248,0.49561940235957774,-0.09083566092004489,14.767496143956976,1.6179395177973974,-0.27537073199999995,0.0813951950000007,0.1424906245000006
162402.0,-1.0721610444999998,6.039131203,13.511994635999999,1.6920251513091706,0.1638741994575036,0.024008749190433998,14.838956635683127,1.7001118451291222,-0.08012033049999989,0.04667965400000007,0.051484912499999425
162412.0,-1.0661789879999999,6.1109158809999995,13.4593329255,1.8311191660468589,-0.09299463320476187,0.13645682223792466,14.820042960078055,1.838549935792962,0.005982056499999944,0.07178467799999932,-0.052661710499998904
162422.0,-1.0219509965,6.1527902765,13.338416930999998,1.9097253048981795,-0.21103823183414636,0.24117657735758444,14.724624893389565,1.9364281595065813,0.0442279914999999,0.041874395500000716,-0.12091599450000245
162432.0,-0.8819120344999999,6.124056792,13.1708212825,1.887343202570604,-0.150817391323334,0.3083246296695623,14.551713771367007,1.9182998532752673,0.1400389620000001,-0.028733484500000017,-0.1675956484999972
162442.0,-0.775313749,5.988823088499999,12.979297407999999,1.79194874164435,0.0644846798734345,0.3403008068953504,14.315351012114743,1.8251145733330758,0.10659828549999983,-0.13523370350000086,-0.1915238745000014
162452.0,-0.8016936375,5.8966405785,12.835629985499999,1.6179498871960274,0.389035635598788,0.3411001676927638,14.148020353571997,1.6986641479831799,-0.02637988849999995,-0.09218250999999977,-0.14366742250000009
162462.0,-0.957325173,5.6895241305,12.688334102499999,1.3738690819631243,0.732238925040205,0.31338782982959784,13.938471172085757,1.5880497566523344,-0.15563153549999997,-0.20711644799999984,-0.14729588299999996
162472.0,-1.1847413864999998,5.4680899735,12.471705204,1.0807602327124488,1.0333413822650148,0.2550327462891674,13.669200810824963,1.5168647911379025,-0.22741621349999985,-0.22143415700000002,-0.21662889849999978
162482.0,-1.4313786339999999,5.243027356,12.093364647,0.7855203364450879,1.2587681084526023,0.1740285250456066,13.258493471542891,1.4939294753621055,-0.24663724750000005,-0.2250626174999999,-0.3783405569999996
162492.0,-1.652812791,5.057485537999999,11.7043348415,0.5536987238781931,1.377344032503845,0.0799674956678762,12.85695936725022,1.486624922790441,-0.22143415700000002,-0.1855418180000008,-0.3890298054999999
162502.0,-1.8455134635,4.906659261,11.4732901675,0.4420500116281158,1.3115276664111388,-0.01862440844803149,12.614182982467355,1.3841459103477147,-0.1927006725,-0.1508262769999993,-0.23104467399999962
162512.0,-1.9149445454999998,4.954515713,11.224299324,0.4734921181027937,1.0352071392353968,-0.09776461805046237,12.417694386537743,1.1425438843090259,-0.06943108199999992,0.04785645200000044,-0.24899084349999967
162522.0,-1.7893213590000001,5.2011529605,10.907054196499999,0.617115262249407,0.6059364283903833,-0.13586864628000256,12.215461280266078,0.8754715821736357,0.1256231864999997,0.24663724749999982,-0.31724512750000144
162532.0,-1.481588682,5.5938112265,10.4557521635,0.7972454583599858,0.15028506590147572,-0.12227776739472274,11.950254489544683,0.8204497390502801,0.3077326770000002,0.39265826599999976,-0.45130203299999927
162542.0,-1.142866991,6.028343888,9.694461923999999,0.9744417559979621,-0.22036527135680403,-0.046869071733055725,11.472997297436713,1.0001471384439733,0.33872169099999994,0.43453266150000047,-0.761290239500001
162552.0,-0.7872778619999999,6.398250726,8.870801390499999,1.1329874652491272,-0.40075901218443394,0.06850940912853341,10.965789351179946,1.203728342026483,0.35558912900000006,0.36990683799999946,-0.8236605335
162562.0,-0.6783259804999999,6.539466485999999,8.202870459,1.2630214758397125,-0.36825050953678756,0.1958783019513236,10.512460788249026,1.3301127754373923,0.10895188150000001,0.1412157599999997,-0.667930931499999
162572.0,-0.8471964934999999,6.4868047755,7.856891847,1.3765341997309197,-0.20517567087669739,0.29500253148908956,10.22385091780506,1.4226629792517684,-0.168870513,-0.05266171049999979,-0.3459786119999997
162582.0,-1.1129567084999998,6.280963192,7.810212193,1.4628686565100713,0.03970274982436701,0.32644463796376744,10.084075850267086,1.4993755754308167,-0.2657602149999999,-0.20584158349999981,-0.04667965400000007
162592.0,-1.4732530295,6.041484799,8.022035832999999,1.4857830842595048,0.29497460622105764,0.2694212406426087,10.150028175892665,1.5385542553632476,-0.3602963210000001,-0.23947839299999973,0.21182363999999865
162602.0,-1.7772591795,5.854766183,8.3596787925,1.4476790560299646,0.5134723752782278,0.1508453165913659,10.359592982472414,1.543432162091753,-0.30400615,-0.18671861600000028,0.3376429595000019
162612.0,-1.8898395215,5.806909730999999,8.758319114999999,1.371470999570884,0.6669548843693571,0.0037576938795437914,10.677071122793002,1.5250493895973976,-0.112580342,-0.04785645200000044,0.3986403224999986
162622.0,-1.9376959734999997,6.065413025,8.939055674499999,1.2667512444512243,0.750091897958855,-0.13480225010703403,10.97499964470926,1.4783329183022889,-0.04785645199999977,0.2585032940000005,0.18073655949999967
162632.0,-1.792851753,6.3826581525,8.971319552999999,1.1732225404953522,0.8172399502708328,-0.22673223246807936,11.155143074920645,1.4476670097384277,0.14484422049999957,0.31724512750000056,0.03226387850000023
162642.0,-1.6599716455,6.7645291035,8.991717385,1.1396493870039894,0.8838556771609524,-0.2565756173479304,11.373888578128138,1.464866079464497,0.13288010750000012,0.3818709509999998,0.02039783200000045
162652.0,-1.6109383954999998,7.1811155955,9.0779178385,1.1513727635896354,0.9384809920898709,-0.23658985208334335,11.686408173283438,1.50412119570161,0.04903325000000014,0.41658649199999953,0.08620045350000005
162662.0,-1.7282259295,7.4600167215,9.256300802,1.194007666557353,0.9571333258059344,-0.17770244312105465,12.013230992766333,1.540563750533309,-0.11728753400000014,0.27890112600000005,0.1783829635000007
162672.0,-1.898175174,7.614471459,9.525591410999999,1.2550278678655784,0.9166312151841539,-0.10469182985162787,12.34180441914522,1.5576482635713624,-0.16994924449999993,0.15445473750000005,0.2692906089999987
162682.0,-2.1197073975,7.710282429499999,9.8092977955,1.3248410379453517,0.8324295507509395,-0.03674441674223662,12.655589193493672,1.565085583905639,-0.22153222350000012,0.09581097049999965,0.2837063845000003
162692.0,-2.4069441759999997,7.7952080184999994,10.172045779,1.3959858942443966,0.712520195151173,0.0037576938795437914,13.039523137298339,1.5673148266034127,-0.2872367784999996,0.08492558900000002,0.36274798350000026
162702.0,-2.6224943429999996,7.864639100499999,10.489290906499999,1.428494396892043,0.5774247297298041,0.0013596114873035826,13.36993823775428,1.5407846731451138,-0.21555016699999996,0.06943108199999948,0.31724512749999967
162712.0,-2.7122251905,7.9604500709999995,10.786138201999998,1.3954535688225382,0.4884251551828571,-0.03434633434999641,13.677196647321791,1.4788608675728216,-0.08973084750000027,0.09581097050000054,0.2968472954999992
162722.0,-2.7660636989999996,8.1496203495,11.0567036755,1.303790621837048,0.46497665668231336,-0.07991164513181237,14.01135669361555,1.3865277306557455,-0.053838508499999715,0.1891702784999998,0.2705654735000014
162732.0,-2.8319643869999997,8.328003313,11.354825835499998,1.1732225404953522,0.4556513624889076,-0.12174544197286447,14.363416418983105,1.2644727147335109,-0.06590068800000015,0.1783829635000007,0.29812215999999836
162742.0,-2.8678567259999994,8.514721929,11.6588319855,1.0234715453449867,0.44285984440104115,-0.15398690924495573,14.719152658871868,1.1257578843306335,-0.03589233899999966,0.18671861600000028,0.30400615000000286
162752.0,-2.854715815,8.606904439,11.9808823715,0.864925836093822,0.4188790204786391,-0.18143221173256655,15.025636386063937,0.9779948789200851,0.013140910999999367,0.09218250999999889,0.322050385999999
162762.0,-2.8989438064999997,8.723015174999999,12.251447845,0.706380126842657,0.3882362748013746,-0.1920909374744959,15.316423970211849,0.8286128269160015,-0.044227991499999675,0.11611073599999955,0.2705654734999996
162772.0,-2.992401181,8.8331438545,12.4992618905,0.5504995353592874,0.3272160734931489,-0.18809413348742887,15.59520576939102,0.6674574894594052,-0.09345737450000025,0.11012867950000071,0.2478140455000002
162782.0,-3.1025298605,8.932485219,12.633318796,0.4004815048333669,0.2150350358212134,-0.17663604694808613,15.78023217586847,0.48767386174130256,-0.11012867949999983,0.09934136450000075,0.1340569054999996
162792.0,-3.076149972,9.025844526999999,12.612920963999999,0.25499260371637156,0.08100422124356083,-0.17263924296101912,15.811841869937926,0.318413598986419,0.026379888499999726,0.09335930799999836,-0.02039783200000045
162802.0,-2.9971083729999997,9.082134698,12.466899945499998,0.09618160441890351,-0.0373046674321268,-0.17210691753916085,15.712778987920313,0.20065724583390337,0.0790415990000004,0.05629017100000233,-0.14602101850000082
162812.0,-2.866679928,9.070170585,12.35441767,-0.05143834371477688,-0.1281682536202036,-0.16651139195726702,15.592225120726212,0.21633087641785897,0.13042844499999973,-0.01196411300000122,-0.1124822754999979
162822.0,-2.7577280465,9.0989040695,12.225067956499998,-0.1604219381970588,-0.21423567502379998,-0.1609158663753732,15.487007644650383,0.31229159252074196,0.1089518814999999,0.028733484500000017,-0.12934971350000168
162832.0,-2.657209884,9.1336196105,12.1879988195,-0.23849575162652115,-0.3146915907808376,-0.1531875484475423,15.4606302194015,0.42352974612350613,0.10051816250000023,0.03471554100000063,-0.03706913699999781
162842.0,-2.5590453175,9.1695119495,12.2215375625,-0.2981825213862232,-0.4298047815961236,-0.1369332971237191,15.49176047841692,0.5407362519790121,0.09816456649999994,0.035892339000000106,0.03353874299999937
162852.0,-2.4393061209999995,9.207855950999999,12.226244754499998,-0.3522737655640315,-0.5409194230950906,-0.1150835202180021,15.498899521038675,0.6556941701829864,0.11973919650000031,0.038344001499998726,0.004707191999997917
162862.0,-2.3064260135,9.277287032999999,12.120921333499998,-0.43780886154576953,-0.601138518276651,-0.09296670793672995,15.437110792545177,0.7494577547723711,0.13288010749999968,0.06943108199999948,-0.10532342099999958
162872.0,-2.2537643029999996,9.575311126499999,12.0048105975,-0.5907590452150406,-0.5672983294097329,-0.07964460975625724,15.520358055940594,0.8229015177514785,0.052661710500000236,0.2980240935000005,-0.11611073599999777
162882.0,-2.280046125,9.7369247185,11.9569541455,-0.8164528067781834,-0.42474158143608803,-0.07591309581549337,15.587657480951183,0.9234518909034163,-0.02628182200000051,0.16161359200000014,-0.047856452000001326
162892.0,-2.3866444104999998,9.7596761465,12.044331397,-1.0770531533812127,-0.19318525891549634,-0.08790525310594641,15.684810130425296,1.0977665384744981,-0.10659828549999961,0.022751428000001184,0.08737725150000131
