timestamp,ax,ay,az,gx,gy,gz,acc_mag,gyro_mag,dax,day,daz
211482.0,0.7748234165,-4.004251328,7.8095257275,-0.08735023840381222,0.18244275736947127,0.07828325293970166,8.810395684248858,0.21689557754043742,0.0,0.0,0.0
211492.0,0.5677069684999999,-4.1598828635,7.7831458389999995,-0.051642547237260215,0.17924531417981765,0.061496676194020196,8.843318143732445,0.196412007075653,-0.20711644800000006,-0.15563153550000042,-0.02637988850000017
211502.0,0.6467485674999999,-4.1945984045,7.8585589774999995,-0.018868754543310697,0.1875059575295068,0.044710099448338744,8.931399033043093,0.1936840390939668,0.07904159899999996,-0.03471554099999974,0.07541313850000009
211512.0,0.651553826,-4.174298639,7.961528802499999,0.013107422682477415,0.21841573858232638,0.041512656258685124,9.013058991750224,0.22271178688945048,0.004805258500000131,0.0202997654999999,0.10296982499999974
211522.0,0.6957818174999999,-4.0748592079999995,8.0980373705,0.042418482140470185,0.24532871564807895,0.04284434247795681,9.09212841729595,0.2526284703492578,0.0442279914999999,0.09943943100000041,0.13650856800000088
211532.0,0.69823348,-3.970712585,8.247588783,0.07652570638294337,0.2682431433975125,0.054569464392854705,9.180240147116942,0.28423299273889713,0.0024516625000000625,0.10414662299999966,0.14955141249999926
211542.0,0.6706767935,-3.8690176244999996,8.418812892,0.10610205588723928,0.27943593989055215,0.07748389214228826,9.289537946019514,0.3087812240203942,-0.027556686499999983,0.10169496050000015,0.17122410900000062
211552.0,0.5665301705,-3.7205449434999998,8.497854491,0.12741950737109803,0.26318168856672897,0.10866070857066296,9.293919628493622,0.3119414715016369,-0.104146623,0.14847268099999988,0.07904159899999996
211562.0,0.46238354749999994,-3.5984521509999996,8.531393234,0.155131845234264,0.22401126416422018,0.138504093450514,9.270778119509504,0.30566373645034894,-0.10414662300000005,0.12209279250000016,0.03353874299999937
211572.0,0.4157038934999999,-3.6092394659999996,8.598372653499998,0.19590099123159951,0.17364978859792385,0.1627519527484712,9.334421864178822,0.3082525678223419,-0.046679654000000015,-0.010787314999999964,0.06697941949999908
211582.0,0.385793611,-3.6463086029999996,8.5493394035,0.2204141405758599,0.12355534840718257,0.17714219243116447,9.302451686240458,0.3085898148434827,-0.02991028249999994,-0.03706913700000003,-0.04903324999999903
211592.0,0.36657257699999996,-3.7133860889999997,8.3804688905,0.21535268574507635,0.08651597102135891,0.18566812582715678,9.173650883090408,0.29721111259095806,-0.019221034000000026,-0.06707748600000007,-0.1688705129999999
211602.0,0.33911395699999997,-3.7984097445,8.222483759,0.19883139904569802,0.06813067268085064,0.18566812582715678,9.063782545381564,0.28044316136176994,-0.02745861999999999,-0.08502365550000013,-0.15798513150000026
211612.0,0.2672312125,-3.8474429944999997,7.999872804,0.18817267330376863,0.05640555076595274,0.17927323944784954,8.881001914032007,0.26595006207486266,-0.07188274449999998,-0.04903324999999992,-0.2226109549999995
211622.0,0.191818074,-3.9049099634999997,7.748430298,0.1895043595230403,0.04201705641251149,0.16834922365961705,8.678899013096016,0.25694123144136605,-0.07541313849999998,-0.057466969000000034,-0.25144250600000007
211632.0,0.157102533,-3.9755178434999996,7.530526535,0.2049592500494501,0.03269176221910579,0.14889578381688826,8.516939193407513,0.2554349230944529,-0.034715541000000016,-0.07060787999999985,-0.2179037629999998
211642.0,0.177500365,-3.977969506,7.343807919,0.2361360664778248,0.04228409178806662,0.12171751670483255,8.3538770951821,0.2690043497469001,0.020397832000000005,-0.0024516625000003955,-0.18671861600000028
211652.0,0.26242595399999996,-3.922856133,7.1630713595,0.2673128829061995,0.05960299395560636,0.09240645724683978,8.171123479842763,0.28904609943226633,0.08492558899999997,0.05511337300000019,-0.18073655949999967
211662.0,0.3258749795,-3.804391801,7.051765882,0.29608987161308203,0.10090621070405217,0.06762627252702429,8.0191641417494,0.3200384167039972,0.06344902550000003,0.11846433199999984,-0.1113054775000002
211672.0,0.41089863499999996,-3.6763169519999996,7.017050340999999,0.32060476628659434,0.17524851019275065,0.05883155842622486,7.932410699650872,0.3700818946629499,0.08502365549999996,0.12807484900000032,-0.03471554100000063
211682.0,0.4419857155,-3.5469672384999997,7.125904155999999,0.3285983742607284,0.25385464904407123,0.06655987635405575,7.972128825112927,0.4205345307443249,0.03108708050000003,0.1293497134999999,0.1088538149999998
211692.0,0.386970409,-3.448802672,7.344984716999999,0.31767435847249587,0.2978212382310604,0.07828325293970166,8.123594429856745,0.44242824916952933,-0.05501530649999997,0.09816456649999994,0.21908056100000017
211702.0,0.3127340685,-3.3710359375,7.607214537999999,0.29049434603118823,0.28529675551874906,0.09160709644942638,8.326547839091276,0.41734046521456214,-0.0742363405,0.07776673449999993,0.26222982100000003
211712.0,0.2301620755,-3.2094223454999997,7.7065559025,0.24652775684419906,0.1952325301280857,0.09773669278243045,8.351309493196307,0.32930857388002155,-0.08257199300000001,0.16161359200000014,0.09934136450000075
211722.0,0.225356817,-3.052614012,7.589268368499999,0.2204141405758599,0.08358556320726045,0.10253285756691087,8.183289825635027,0.25706405159669116,-0.00480525850000002,0.1568083334999999,-0.1172875340000008
211732.0,0.2170211645,-2.858638475,7.362930886499999,0.2276101330818325,0.014571753924900658,0.11052646554104491,7.9013709795178535,0.2534458685379841,-0.008335652499999985,0.19397553700000003,-0.22633748199999992
211742.0,0.1978001305,-2.7592971105,7.146301988,0.2651800905602624,0.007110471372624898,0.12251687750224595,7.663059280687591,0.2922010001789697,-0.019221033999999998,0.09934136449999986,-0.2166288984999989
211752.0,0.24575464899999996,-2.8215693379999998,7.12355056,0.30861435432539336,0.07292683746533106,0.1446336897835181,7.665939046034946,0.3485398794094719,0.04795451849999996,-0.06227222749999983,-0.022751428000000296
211762.0,0.189464478,-2.9184590399999997,7.1295326165,0.30168539719497584,0.17285042780051044,0.16728282748664852,7.7060713263191944,0.3858430945908422,-0.05629017099999997,-0.09688970199999991,0.005982056499999722
211772.0,0.08286619249999999,-2.9926953805,7.231325643499999,0.266246486733231,0.27144058658716613,0.1798055648697078,7.826567766822579,0.4205915178682139,-0.1065982855,-0.07423634050000016,0.10179302699999937
211782.0,0.0002941995,-3.1064525205,7.388133977,0.22867478392554905,0.3359252664606006,0.19019900056533406,8.01464727924916,0.44867984272315375,-0.082571993,-0.11375714000000015,0.15680833350000078
211792.0,0.018240369,-3.319551025,7.5233676805,0.17964673990777633,0.354577600176664,0.2021894125265351,8.223187519121266,0.44595827634921165,0.017946169499999998,-0.2130985045,0.13523370349999997
211802.0,0.050602313999999995,-3.355443364,7.603586077499999,0.11835950322399547,0.3289980546594351,0.21497918528514953,8.311202199510346,0.4104445663898967,0.032361944999999996,-0.035892339000000106,0.08021839699999944
211812.0,0.0577611685,-3.1399912634999994,7.602409279499999,0.07838971802407331,0.26398104936414235,0.23443087979862637,8.225540002970655,0.3616473139931299,0.007158854500000006,0.21545210050000074,-0.0011767980000003675
211822.0,-0.0008825985,-2.9245391629999995,7.5808346495,0.08585100057634908,0.16538914524823467,0.26134385686437894,8.125391318451108,0.3209744151589826,-0.058643767,0.21545210049999985,-0.02157462999999904
211832.0,-0.0679600845,-2.7844021345,7.650265731499999,0.15326608826388205,0.04574857035327536,0.29038788094681656,8.141503520987792,0.3315245796345471,-0.067077486,0.14013702849999943,0.06943108199999948
211842.0,-0.15288567349999999,-2.6072940355,7.784322637,0.28996202060932996,-0.07815758923355808,0.3079755638191634,8.210787729178367,0.43015756422545764,-0.08492558899999998,0.17710809900000024,0.1340569055000005
211852.0,-0.22712201399999998,-2.3558515294999998,7.947113026999999,0.45463558086424694,-0.19859927025518276,0.31516981099588404,8.29205802573788,0.5877645713181797,-0.0742363405,0.25144250600000007,0.16279038999999962
211862.0,-0.3241097825,-2.1810970265,8.1100014835,0.5902651170367262,-0.2721422089464678,0.31170533243067533,8.404424754407142,0.7208567850456573,-0.09698776850000002,0.17475450299999995,0.16288845650000017
211872.0,-0.388735606,-2.2696510759999997,8.18659142,0.6744667814699408,-0.2894628564432596,0.29411939488758043,8.504276010112664,0.7906961508795578,-0.06462582350000001,-0.0885540494999999,0.07658993649999957
211882.0,-0.410310236,-2.4181237569999996,8.2392531305,0.716834649062103,-0.24949307124333742,0.24855408410576446,8.596567288306897,0.7986725483075506,-0.021574629999999984,-0.14847268099999988,0.05266171050000068
211892.0,-0.44139731649999997,-2.5606143814999998,8.2835791885,0.7104397626827957,-0.1367797081495436,0.17687515705560936,8.681547199313515,0.7447940427700184,-0.031087080499999975,-0.14249062450000016,0.044326057999999335
211902.0,-0.5862415369999999,-2.66348614,8.248863647499999,0.6483531652016016,0.027094491307959972,0.09160709644942638,8.688014101779716,0.6553531860043612,-0.14484422049999995,-0.10287175850000008,-0.03471554100000063
211912.0,-0.7682529610000001,-2.7078121979999996,8.238076332499999,0.5476302140690088,0.1960318909254991,0.0034086280291449255,8.705651105564677,0.581669126193007,-0.18201142400000014,-0.04432605799999978,-0.010787314999999964
211922.0,-0.9586000375,-2.7365456825,8.290738043,0.4458426120926995,0.3388556742746991,-0.09065240134858547,8.783161936452718,0.5672888687574148,-0.19034707649999993,-0.02873348450000046,0.05266171050000068
211932.0,-1.081869628,-2.778420078,8.3194715275,0.36457135547358355,0.42971926046277586,-0.17991726594183546,8.83762787849237,0.5915582292796764,-0.12326959049999997,-0.04187439549999983,0.028733484500000017
211942.0,-1.1537523725,-2.5629679775,8.3673279795,0.3333945390452088,0.46915672024083976,-0.25799107937129784,8.826784630161958,0.630729215945699,-0.0718827445000001,0.21545210049999985,0.047856452000001326
211952.0,-1.2171033315,-2.176291768,8.536100425999999,0.4008096267327418,0.44624054716215417,-0.3083525549375942,8.892839639944619,0.6744333035591886,-0.06335095899999987,0.38667620950000003,0.16877244649999845
211962.0,-1.197980364,-1.7213612744999998,8.900025207499999,0.5913297678804428,0.35404527475480574,-0.323807445464004,9.143778774883677,0.7614920962791853,0.019122967499999977,0.45493049350000025,0.36392478149999974
211972.0,-1.014792142,-1.379011123,9.439979356499999,0.7951737525378685,0.23946615469062998,-0.2918330135674679,9.593992131535693,0.8802339710414169,0.18318822200000007,0.3423501514999998,0.5399541489999997
211982.0,-0.9082919229999998,-1.1755231355,9.935509381,0.9124179903698396,0.17391682397347896,-0.23560897704372252,10.04595418660775,0.9582615722625781,0.10650021900000006,0.20348798749999997,0.4955300245000007
211992.0,-0.9154507774999999,-1.0964815365,10.350919075,0.9297386378666314,0.13980959973100576,-0.18071662673924888,10.449011799357374,0.9574022968946001,-0.007158854500000089,0.07904159899999996,0.41540969400000094
212002.0,-1.0064564894999999,-1.2449542175,10.5196915215,0.8652539579931969,0.1478032077051398,-0.14341195930712208,10.640807082944729,0.8894252020845426,-0.09100571199999996,-0.14847268099999988,0.16877244650000023
212012.0,-1.1094263144999998,-1.4616811824999998,10.520966386,0.7370857043729934,0.21361957379784596,-0.14501068090194888,10.67979739142656,0.7809972826305173,-0.10296982499999996,-0.21672696499999988,0.0012748644999991399
212022.0,-1.338019326,-1.584950773,10.4143681005,0.5745431911347614,0.32180206215346246,-0.17885261509811892,10.618918381939602,0.6823816407355724,-0.2285930115000001,-0.1232695905000003,-0.10659828549999872
212032.0,-1.5260128064999998,-1.575340256,10.336601366,0.44157877273007734,0.4044067503211021,-0.23587601241927764,10.56672796126451,0.6435636141562812,-0.18799348049999987,0.00961051700000004,-0.07776673450000082
212042.0,-1.6481055989999998,-1.526307006,10.310221477499999,0.41013666625539946,0.42252501328605524,-0.2992925507904916,10.552086621001653,0.6605418251845625,-0.12209279249999994,0.04903325000000014,-0.02637988850000106
212052.0,-1.6181953164999998,-1.3934268984999998,10.379652559499998,0.4836796049466846,0.37695970250423927,-0.3523191441245833,10.597045902502298,0.7072293523816332,0.02991028249999994,0.13288010750000012,0.06943108199999948
212062.0,-1.3740097315,-1.2006281595,10.525673578,0.619576176494719,0.3196710151367774,-0.3739018856547452,10.682659546678831,0.7911174479775851,0.24418558499999987,0.19279873899999989,0.14602101850000082
212072.0,-1.163264823,-0.9288858879999999,10.838113447,0.7754567679780886,0.26158296697190214,-0.35098745790531166,10.939868241043719,0.8904779858141803,0.21074490849999994,0.27174227149999997,0.3124398690000003
212082.0,-0.9896871179999999,-0.6715593919999999,11.228418117,0.9012269392060519,0.2005627656636764,-0.2841046956396369,11.291937212838743,0.9659973586950754,0.17357770500000014,0.257326496,0.3903046700000008
212092.0,-0.836507245,-0.6332153905,11.4319061045,0.9201445629684185,0.1347463995709702,-0.19350814482711529,11.47994700701218,0.9498778927168025,0.1531798729999999,0.03834400149999995,0.20348798749999908
212102.0,-0.6712651924999999,-0.649984762,11.512124501499999,0.8287486513584835,0.08651597102135891,-0.1087724096427906,11.54998215096157,0.8403218296996532,0.16524205250000001,-0.01676937150000002,0.08021839699999944
212112.0,-0.8209146715,-0.6655773355,11.51692976,0.6997810369408664,0.05400746837371253,-0.04721988291270658,11.565317340401382,0.703448664540961,-0.14964947900000003,-0.015592573499999984,0.0048052585000011305
212122.0,-1.0602949979999998,-0.7828648694999999,11.310990109999999,0.5766759834806984,0.00764279679448317,-0.017376498032855545,11.387519490881184,0.5769883403935978,-0.23938032649999985,-0.11728753399999992,-0.20593965000000125
212132.0,-1.183662655,-0.870242121,11.069158121000001,0.48661001276078303,-0.037121407860667394,-0.04082499653339937,11.166227659227824,0.4897284796523064,-0.12336765700000019,-0.08737725150000009,-0.2418319889999978
212142.0,-1.263881052,-1.005573891,10.911172989499999,0.4796828009596175,-0.08268671864248335,-0.09118647209969574,11.030062110915779,0.49522485364762725,-0.08021839699999989,-0.13533177000000007,-0.15798513150000204
212152.0,-1.2338727029999998,-0.974388744,10.888421561499998,0.5646838261902454,-0.14557267692109105,-0.14660940249677568,11.001345343755938,0.6012932269095413,0.030008349000000045,0.03118514700000008,-0.022751428000001184
212162.0,-1.0315615135,-0.8846578964999999,11.004532297499999,0.6789959108788659,-0.20446008588337974,-0.19910367040900911,11.088122917640066,0.7365335330315919,0.20231118949999982,0.08973084750000004,0.11611073600000132
212172.0,-0.7981632435,-0.5830053425,11.181738463,0.7661297284554309,-0.23350410996581736,-0.22122048269028127,11.225338963594444,0.8309136129320797,0.23339827000000002,0.3016525539999999,0.17720616550000123
212182.0,-0.573100626,-0.2034879875,11.4211187895,0.7978388703056639,-0.2297743413543055,-0.20523152141276121,11.437298898448372,0.8552561536152895,0.2250626175,0.37951735500000006,0.23938032649999919
212192.0,-0.4917054309999999,0.161613592,11.622253181,0.7645310068606042,-0.2183162548149627,-0.14234730846340554,11.633772483045156,0.8077328789856811,0.08139519500000009,0.3651015795,0.20113439150000012
212202.0,-0.5000410835,0.381870951,11.825741168499999,0.70058039773828,-0.19326903471959206,-0.05015029072680507,11.842466833086814,0.7284784589379102,-0.008335652500000068,0.220257359,0.20348798749999908
212212.0,-0.5216157135,0.20593965,11.921552139,0.6179774548998922,-0.16529140681012297,0.04604178566761041,11.934734998939344,0.6413557748685826,-0.02157463000000004,-0.175931301,0.09581097050000054
212222.0,-0.5694721654999999,-0.138862164,12.023247099499999,0.5407030022678433,-0.15090116712742974,0.11079175558734805,12.037526825037823,0.5721937713816941,-0.04785645199999988,-0.344801814,0.10169496049999971
212232.0,-0.6353728535,-0.45483242699999993,12.1466147565,0.49966682089495257,-0.16262628904232765,0.13664008180938406,12.171722197061474,0.5429408381654695,-0.06590068800000004,-0.3159702629999999,0.12336765700000107
212242.0,-0.7036271374999999,-0.5182814525,12.200453264999998,0.484478965744098,-0.20792456444858845,0.13077752085193511,12.23171151900179,0.5431898864207474,-0.068254284,-0.06344902550000009,0.05383850849999838
212252.0,-0.7059807334999999,-0.6428259074999999,12.1801534995,0.4623621534628258,-0.26201580862639673,0.10013477517467068,12.217519110474454,0.5407938776689397,-0.002353595999999958,-0.12454445499999989,-0.020299765499999012
212262.0,-0.6461601685,-0.7350084175,12.080714068499999,0.42212707821660056,-0.3006539076070472,0.06576051555664235,12.120289301085416,0.5224064392112202,0.05982056499999988,-0.0921825100000001,-0.09943943100000041
212272.0,-0.5132800609999999,-0.8367033779999998,11.836528483499999,0.3744307204180995,-0.31744048435272865,0.024192008761893403,11.877160245803015,0.4914794795175557,0.13288010750000012,-0.10169496049999982,-0.24418558500000032
212282.0,-0.362453784,-0.889463155,11.494178331999999,0.3288654096362836,-0.29585774282256677,-0.011780972450961725,11.534238292035445,0.44251898598274286,0.1508262769999999,-0.05275977700000012,-0.3423501514999998
212292.0,-0.283412185,-0.797280645,11.059645670499998,0.28782922826339286,-0.23616922773361268,-0.03682819254633235,11.091967420187792,0.3741361844799579,0.07904159900000002,0.09218251,-0.43453266150000047
212302.0,-0.1744603035,-0.660772077,10.6214845485,0.2462624667978959,-0.14450628074812252,-0.03522947095150554,10.643448226456709,0.28769494843073445,0.10895188149999999,0.136508568,-0.43816112199999857
212312.0,-0.0045110589999999996,-0.500335283,10.269523879999998,0.2057586108468635,-0.01713738792533232,-0.0016545721308906243,10.281705912296763,0.20647768308335568,0.16994924449999999,0.160436794,-0.35196066850000207
212322.0,0.09012311349999999,-0.3986403225,10.1115387485,0.17191842197994545,0.13101488563020633,0.05536882519026811,10.11979506436404,0.22312900052597623,0.09463417249999999,0.10169496049999999,-0.1579851314999985
