timestamp,ax,ay,az,gx,gy,gz,acc_mag,gyro_mag,dax,day,daz
15292.0,0.8375859765,-2.6384791825,7.924361598999999,-0.018877481189570666,0.011718140597889929,-0.09791995235388987,8.39396386793636,0.10040911902871458,0.0,0.0,0.0
15302.0,0.5575080524999999,-1.9453451604999998,7.396371563,-0.013814281029535119,0.017580701555338883,-0.08699593656565735,7.6682133068947795,0.08982320639164885,-0.2800779240000001,0.693134022,-0.5279900359999994
15312.0,0.784924266,-2.217087432,7.3054639175,-0.03459940709153559,0.03676536069326055,-0.04915719838242029,7.674723827889994,0.0704644653055707,0.22741621350000008,-0.2717422715000002,-0.09090764549999975
15322.0,0.7621728379999999,-2.26141349,7.0671623225,-0.041793654268256215,0.07300537728167081,0.007599163563183311,7.459201143574461,0.08446444184385309,-0.022751428000000073,-0.04432605799999978,-0.23830159500000025
15332.0,0.6460621019999999,-2.2446441185,6.679309315,-0.0548504624024258,0.10471451913190379,0.03397806987782561,7.075944911020936,0.1229968006714328,-0.11611073599999999,0.016769371499999686,-0.3878530074999995
15342.0,0.540738681,-2.354772798,6.3872672779999995,-0.06897192138031191,0.15880576330971205,0.04357214477603844,6.828948420653058,0.1785355096322753,-0.10532342099999992,-0.11012867949999983,-0.29204203700000075
15352.0,0.36470931349999997,-2.3990988559999997,6.1418068285,-0.056716219372807734,0.18305362260766928,0.03531150142634928,6.603823083852518,0.19486472339219976,-0.17602936750000003,-0.04432605799999978,-0.24546044949999946
15362.0,0.25575743199999995,-2.421850284,5.9407705035000005,-0.016212363421775327,0.1779921677768857,0.00946492053356525,6.420554869899467,0.17897943244501993,-0.10895188150000001,-0.022751428000000296,-0.20103632499999957
15372.0,0.15288567349999999,-2.3727189675,5.8066155315,0.04507312793275356,0.15347727310337336,-0.022778292067777994,6.274548052135137,0.16157261776184362,-0.10287175849999997,0.04913131650000002,-0.13415497200000015
15382.0,0.134939504,-2.317703661,5.7611126755,0.11275525099584166,0.11190876630862442,-0.0507559199772471,6.2113105050189965,0.16677374498580488,-0.017946169499999998,0.05501530650000008,-0.04550285600000059
15392.0,0.206724182,-2.229051545,5.7803337095,0.17697289549372103,0.045026004042949715,-0.07686953624558626,6.19868239796753,0.19813044284541112,0.07178467800000002,0.088652116,0.01922103400000008
15402.0,0.312047603,-2.145302754,5.799456677,0.21161244515805247,-0.05702863330891472,-0.08619657576824395,6.191396882873679,0.23550359155864914,0.105323421,0.0837487910000001,0.01912296750000042
15412.0,0.37912508899999997,-2.0411561309999997,5.666576569499999,0.19908796244574117,-0.1718730434193936,-0.07527081465075945,6.034910455196044,0.2735727606747985,0.06707748599999996,0.1041466230000001,-0.132880107500001
15422.0,0.33597582899999995,-1.9202401365,5.4355318955000005,0.1668464951736499,-0.2827223948720574,-0.06008295949990479,5.774531056847439,0.33373592485105574,-0.04314926000000002,0.12091599449999979,-0.23104467399999873
15432.0,0.369514572,-1.8053061984999998,5.0213970660000005,0.14472968289237778,-0.36266021994264974,-0.0507559199772471,5.348840994430128,0.39375789471668504,0.03353874300000004,0.11493393800000007,-0.4141348295
15442.0,0.3180296595,-1.638887348,4.4742840625,0.13886712193492884,-0.3853111029750321,-0.053421037745042435,4.775595510059207,0.4130405923200327,-0.05148491249999998,0.16641885049999994,-0.5471130035000007
15452.0,0.310870805,-1.4976715879999998,3.8876502595,0.1495258476768582,-0.3320174742653853,-0.06887592827145222,4.17773687336747,0.37059071202109617,-0.007158854500000034,0.14121576000000013,-0.5866338029999998
15462.0,0.41619422599999994,-1.4198067869999997,3.5705031985,0.20281947638650505,-0.16228071385043277,-0.10191675634095688,3.864914234063381,0.27903009750305446,0.10532342099999997,0.07786480100000004,-0.317147061
15472.0,0.567020503,-1.4677613054999998,3.5549106249999998,0.28702114081971947,0.08366410302360018,-0.15094654568798158,3.8875731571873122,0.3349114466054135,0.150826277,-0.0479545185000001,-0.015592573500000206
15482.0,0.620957078,-1.4724684975,3.7392756449999993,0.3810821701974499,0.34319805345366095,-0.199442264283896,4.066439907110195,0.5502597033396753,0.05393657500000004,-0.004707192000000138,0.18436501999999955
15492.0,0.568197301,-1.267803712,4.191754476,0.4655508700062194,0.5206613864671924,-0.23914501410826303,4.41599139628812,0.7382521450658496,-0.05275977700000001,0.2046647854999999,0.4524788310000005
15502.0,0.632921191,-1.1241362895,4.7616189075,0.5316342714744807,0.5662266972490083,-0.25593333618319647,4.9332835162444475,0.8177710827937016,0.06472389,0.14366742250000009,0.5698644315000001
15512.0,0.7238288365,-1.0176360705,5.418762524,0.5846591194793205,0.5084039391304362,-0.2327501277289558,5.560800180553018,0.8089953481148849,0.09090764549999997,0.10650021899999995,0.6571436165
15522.0,0.737067814,-0.8404299049999999,5.8150492504999995,0.6304914656366916,0.3844995248728548,-0.17706016195632074,5.92151916094119,0.7594140331993826,0.013238977500000026,0.17720616550000012,0.39628672649999963
15532.0,0.6807776429999999,-0.6585165475,5.9407705035000005,0.6603348505165426,0.23714661211472954,-0.10325018788948055,6.0158005633328315,0.7091834965249909,-0.05629017100000011,0.18191335749999993,0.12572125300000092
15542.0,0.5957539875,-0.5123974625,6.005396327,0.7005716710920199,0.13056110002468782,-0.03583510020194757,6.056588067348123,0.7135341768848956,-0.0850236554999999,0.14611908500000004,0.06462582349999924
15552.0,0.6616546755,-0.513672327,6.0939503765,0.7666533272310292,0.09272410717070276,0.007599163563183311,6.151250064855199,0.7722776906604719,0.06590068800000004,-0.001274864500000028,0.0885540494999999
15562.0,0.6640082715,-0.5831034089999999,6.468662472999999,0.8540524348538973,0.1446843043318259,0.03717551306747922,6.528744960542287,0.8670185281593958,0.002353595999999958,-0.06943108199999992,0.3747120964999997
15572.0,0.57663102,-0.5459362055,7.1606196970000004,0.9339920052537416,0.20943427425156358,0.05822592917578283,7.204514148696382,0.9589546600009657,-0.08737725149999997,0.03716720349999991,0.6919572240000011
15582.0,0.5108283985,-0.4753283255,7.881212339,0.9633030647117342,0.2315510865328357,0.05716127833206629,7.912040862011682,0.992389092996347,-0.06580262150000005,0.07060788000000001,0.7205926419999997
15592.0,0.495235825,-0.47297472949999997,8.5108973355,0.9222668833388435,0.22009299999349294,0.024652775684419908,8.538403660669248,0.9484855782238474,-0.015592573499999929,0.0023535960000000133,0.6296849964999991
15602.0,0.543092277,-0.4514000995,9.008879022499999,0.8668439529417636,0.1667993712838461,-0.033969343231565634,9.03651550727415,0.8833993351208573,0.04785645199999994,0.021574629999999984,0.49798168699999934
15612.0,0.6867596994999999,-0.33528936349999994,9.3872195795,0.8628471489546967,0.08686154621325379,-0.09392314836682285,9.418277404912308,0.872279593060013,0.14366742249999997,0.11611073600000005,0.37834055700000135
15622.0,0.6736187885,-0.1424906245,9.682890077,0.905213271217607,0.023176227137232705,-0.11897036846219347,9.707338775048271,0.9132919316761906,-0.013140910999999922,0.19279873899999994,0.29567049749999974
15632.0,0.5694721654999999,-0.056290171,9.9820909685,0.9574405037542854,-0.0018709929581379214,-0.10991036431509091,9.998480246219408,0.9637303082438494,-0.1041466230000001,0.0862004535,0.29920089149999995
15642.0,0.6137001569999999,-0.20721451449999997,10.34601575,1.012331108729507,0.009587093581204853,-0.1043148387331971,10.366272600938553,1.0177365924662338,0.04422799150000001,-0.15092434349999997,0.36392478149999974
15652.0,0.57663102,-0.39873838899999997,10.857236414499999,1.0653577020635987,0.03863111766364249,-0.11364187825585478,10.879847342515122,1.0720978840999977,-0.03706913699999992,-0.1915238745,0.5112206644999997
15662.0,0.40069971899999995,-0.41070250199999997,11.5072211765,1.1447632017123328,0.020245819323134222,-0.13682334138084348,11.521517956191614,1.1530885950096614,-0.17593130100000004,-0.011964112999999998,0.6499847620000008
15672.0,0.35392199849999995,-0.40226878299999996,12.134552577,1.2657372081558158,-0.07141712766235597,-0.17812481280003728,12.14637588743144,1.280202927339517,-0.04677772050000001,0.008433719000000006,0.6273314004999992
15682.0,0.4665023405,-0.3627479835,12.717557919499999,1.3864459245529954,-0.17373880038977552,-0.23674693171602285,12.73127998156754,1.4172037899142946,0.11258034200000006,0.03952079949999998,0.5830053424999999
15692.0,0.6747955864999999,-0.3711817025,13.244273091,1.4511958944727332,-0.21504027180896934,-0.2932380036153233,13.266645945709767,1.496061619519227,0.20829324599999993,-0.008433719000000006,0.5267151715000011
15702.0,0.764526434,-0.24546044949999998,13.6309493005,1.4141582624161615,-0.15295541965702705,-0.3361381966293439,13.6545790976271,1.4615840170156424,0.08973084750000004,0.125721253,0.38667620949999915
15712.0,0.8160113465000001,0.096889702,13.848754996999999,1.2929172205971233,-0.03544589177875284,-0.37157710709108877,13.873113460896326,1.3457194719088983,0.05148491250000009,0.3423501515,0.21780569649999926
15722.0,0.8399395725,0.14356935599999998,14.100197503,1.1463619233071596,0.14921343374075122,-0.34946029480981666,14.12592228029877,1.2076973154171369,0.023928225999999886,0.04667965399999999,0.25144250600000184
15732.0,0.714316386,0.107677017,14.296526636,1.0224575090495782,0.31548571559049504,-0.29217160744235476,14.314765666721742,1.1091955836321044,-0.12562318649999993,-0.03589233899999998,0.196329132999999
15742.0,0.632921191,-0.1077750835,14.643682045999999,0.9505132919531198,0.41514227055011926,-0.2545999046346728,14.657749778427211,1.0680073662747134,-0.08139519500000003,-0.2154521005,0.34715540999999916
15752.0,0.5251461075,-0.1856398845,14.906990598499998,0.9118751929724694,0.4281990786842888,-0.23967908485937328,14.917392845423992,1.035527345010106,-0.10777508349999998,-0.077864801,0.26330855249999985
15762.0,0.5095535339999999,-0.1544547375,15.073409449,0.8580509841702163,0.35652189696338565,-0.23248309235340067,15.082810530108457,0.9578140438937234,-0.015592573500000095,0.031185146999999996,0.16641885050000127
15772.0,0.4557150254999999,0.075315072,15.036340311999998,0.7589267546324503,0.26539127539975377,-0.213298433215479,15.043433069708957,0.8318044058355483,-0.05383850849999999,0.22976980949999998,-0.03706913700000136
15782.0,0.41864588849999995,0.1711260425,14.7897030645,0.619300414472904,0.1723948968657399,-0.17332864801555686,14.796616682149347,0.6658046440620256,-0.037069136999999974,0.0958109705,-0.24663724749999894
15792.0,0.43659205799999995,0.1375872995,14.529924906,0.48953343925787357,0.08766090701066719,-0.12989612957967797,14.537133853139396,0.5140043066447553,0.017946169499999998,-0.03353874299999998,-0.25977815849999963
15802.0,0.440122452,0.033440676499999995,14.071464018499999,0.3976034568968282,0.014650293741240402,-0.09125803059902751,14.078385052112312,0.40820481157358446,0.0035303940000000478,-0.10414662300000002,-0.45846088750000114
15812.0,0.37196623449999994,-9.80665e-05,13.592605299,0.33631622021304736,-0.017058848108992577,-0.06274807726770014,13.597693837692775,0.34254477879248124,-0.06815621750000006,-0.033538742999999996,-0.47885871949999803
15822.0,0.2713500055,-0.0946341725,13.214264742,0.3070051607550546,0.017580701555338883,-0.02944021382264035,13.217389270342078,0.3089141887115863,-0.10061622899999995,-0.09453610600000001,-0.37834055700000135
15832.0,0.20074212549999998,-0.235947999,12.807288767,0.3072721961306097,0.10391515833449039,-0.0075886915876713455,12.811034869225308,0.3244567010968072,-0.07060788000000001,-0.1413138265,-0.40697597499999993
15842.0,0.1181701325,-0.3233252505,12.596641924999998,0.2864888153978612,0.24727126710554864,0.004134684997974566,12.601344816506435,0.3784653438613446,-0.08257199299999998,-0.0873772515,-0.21064684200000094
15852.0,0.113364874,-0.5818285445,12.717557919499999,0.2667700855088293,0.4098137803437805,0.0065327673902147755,12.731365028373398,0.48903608264812437,-0.0048052584999999925,-0.258503294,0.12091599450000068
15862.0,0.20074212549999998,-1.048723151,13.457273529,0.37042344445552056,0.5648950110297367,0.0022689280275926286,13.499567714661003,0.6755183563182964,0.08737725149999997,-0.4668946064999999,0.739715609500001
15872.0,0.405406911,-1.19837263,14.253377376,0.5742674291129463,0.6299120163250294,-0.055019759339869245,14.30941013272344,0.8541659103291783,0.2046647855,-0.14964947900000003,0.7961038469999995
15882.0,0.494059027,-1.0678461184999999,15.1141070465,0.7442712249034539,0.5968711882555248,-0.11310780750474451,15.159835799507086,0.9607227735967229,0.088652116,0.13052651150000005,0.8607296704999996
15892.0,0.7095111274999999,-0.6238010064999999,15.443316287,0.7970307828619905,0.5214607472646058,-0.17945824434856095,15.472186389650178,0.9692185724757993,0.2154521004999999,0.44404511199999996,0.3292092405000009
15902.0,1.2996753245000001,-0.4753283255,15.760561414499998,0.6995052749190513,0.4601752559100769,-0.2753850306966733,15.821200620255183,0.8814226063150922,0.5901641970000002,0.14847268099999994,0.3172451274999979
15912.0,1.050684481,0.27164420499999997,15.723394210999999,0.5628093425736035,0.42233826305609184,-0.24181013187605838,15.760801184179458,0.7440403916504031,-0.24899084350000011,0.7469725304999999,-0.037167203499999246
15922.0,0.9345737449999999,1.0031222285,15.181184532499998,0.3741549583962844,0.2861746561325022,-0.1485484632957414,15.242967102896054,0.49391751604150197,-0.1161107360000001,0.7314780235000001,-0.5422096785000008
15932.0,0.948891454,1.1574788994999998,14.414990967999998,0.11595269418549528,0.20596979568635482,-0.0414306257838414,14.492484845663407,0.23996891627207564,0.014317709000000067,0.15435667099999972,-0.7661935645
15942.0,0.7777654115,1.217397531,13.454919933,-0.1574391705054005,0.15241087693040484,0.05689424295651115,13.5322520737404,0.2263915252338702,-0.17112604249999996,0.05991863150000021,-0.9600710349999986
15952.0,0.5143587924999999,1.2461310154999998,12.275768336999999,-0.3876620614774685,0.08206538142877337,0.1389648603730405,12.349570670225942,0.4199140783023466,-0.26340661900000006,0.028733484499999795,-1.1791515960000005
15962.0,0.265367949,1.1443379885,11.070334918999999,-0.5526026571079407,0.025574309529472913,0.20344954024647502,11.132486011628822,0.5894195936488433,-0.24899084349999995,-0.10179302699999981,-1.2054334180000001
15972.0,0.03912853349999999,0.9767423399999999,9.913934751,-0.6495940942997696,0.011718140597889929,0.24501630171197195,9.962010785377014,0.6943650266774831,-0.22623941549999999,-0.16759564850000008,-1.1564001679999993
15982.0,-0.19073934249999996,0.858278008,9.0077022245,-0.6946270796597271,0.05515240436302082,0.261005262989492,9.05050948847942,0.7440916037772749,-0.22986787599999997,-0.11846433199999995,-0.9062325265000002
15992.0,-0.463658412,0.7660954979999999,8.191298611999999,-0.7183426135358262,0.164668324267161,0.25354398043721627,8.240100386890159,0.779369179179151,-0.27291906950000006,-0.0921825100000001,-0.8164036125000003
16002.0,-0.786885596,0.557802252,7.688511666499999,-0.7191419743332396,0.275782965766128,0.22343356018181007,7.7487769318412525,0.8019625797193967,-0.32322718399999995,-0.20829324599999988,-0.5027869454999996
16012.0,-0.9963556399999999,0.292042037,7.505323444499999,-0.6634502632313525,0.3258774059568692,0.18266441418447452,7.576799662080043,0.7613991224740716,-0.2094700439999999,-0.265760215,-0.18318822200000007
16022.0,-1.193861571,0.18063849299999998,7.5149339615,-0.5403452097711844,0.31548571559049504,0.14482742133048945,7.6113184246600785,0.642245408261944,-0.19750593100000013,-0.111403544,0.009610517000000485
16032.0,-1.339980656,0.09453610599999998,7.777065715999999,-0.3508897194672,0.24274213769662334,0.1085874047420792,7.892226326251321,0.4402710132519706,-0.14611908500000004,-0.086102387,0.2621317544999995
16042.0,-1.330370139,-0.07305954249999999,8.1039213605,-0.13212491503447474,0.10684556614858887,0.0790110552377833,8.212719636068272,0.1873918755663321,0.00961051700000004,-0.16759564849999997,0.32685564450000015
16052.0,-1.2297539100000001,-0.12454445499999998,8.381645688499999,0.06265906547584843,-0.06289119426636368,0.04943296040423539,8.472295465101661,0.10161239283120373,0.10061622899999989,-0.051484912499999994,0.2777243279999997
16062.0,-1.090891746,-0.0934573745,8.643777443,0.2118794805336076,-0.19718729889031936,0.013194689145077132,8.712844975463236,0.28974099629925826,0.13886216400000007,0.03108708049999999,0.26213175450000037
16072.0,-0.9556580424999999,0.011866046499999998,8.9023788035,0.31446644330733037,-0.2776591947120219,-0.018247417329600717,8.953534020612228,0.4199008699844423,0.1352337035000002,0.105323421,0.25860136050000015
