timestamp,ax,ay,az,gx,gy,gz,acc_mag,gyro_mag,dax,day,daz
97992.0,-1.7055725679999998,-2.172761374,7.7185200155,-0.07855552430301277,0.031625366046137256,-0.014711380265060204,8.197891253409905,0.08595090974141346,0.0,0.0,0.0
98002.0,-1.4828635465,-2.9424853324999996,7.957900341999999,-0.08175296749266639,-0.006211626807847819,-0.010182250856134918,8.613087836700604,0.08261846182273186,0.22270902149999983,-0.7697239584999997,0.23938032649999919
98012.0,-1.5152254915,-3.031039382,7.967510858999999,-0.0015481070465189703,-0.02672971749429316,-0.023237313661052503,8.658194806864145,0.0354520405468337,-0.032361945000000114,-0.08855404950000034,0.009610516999999597
98022.0,-1.4864920069999998,-2.926892759,7.9052386315,0.07892378877518359,-0.07416078524649106,-0.022172662817335962,8.559740506027126,0.11054597902871563,0.02873348450000024,0.1041466230000001,-0.06227222749999939
98032.0,-1.473351096,-2.8503028225,7.932795317999999,0.14367375869492122,-0.09974033076371995,-0.01124690169985146,8.55711582189458,0.1752620190350118,0.01314091099999981,0.07658993649999957,0.02755668649999965
98042.0,-1.3763633275,-2.7461561994999997,8.075285942499999,0.18843970867932375,-0.11173248805417299,0.011135200627723822,8.639791255260583,0.2193573919131607,0.09698776850000002,0.10414662300000055,0.14249062449999972
98052.0,-1.3392941905,-2.501872548,8.197378735,0.1932358734638042,-0.0861511972076921,0.044710099448338744,8.674681164179653,0.21624320698305957,0.03706913700000003,0.24428365149999953,0.12209279250000016
98062.0,-1.4134324645,-2.409690038,8.397238262,0.17564993592070932,-0.07016398125942405,0.08467988464826087,8.849746201995613,0.20723553536776665,-0.07413827400000006,0.09218251000000022,0.19985952700000098
98072.0,-1.5044381765,-2.4157701609999997,8.637893453,0.15326608826388205,-0.10959969570823593,0.11558966570108045,9.094640344899235,0.2210510301444839,-0.09100571199999985,-0.006080122999999826,0.2406551910000001
98082.0,-1.6157436539999999,-2.370267305,8.8186300125,0.12928526434147997,-0.20152967806928124,0.13317560324417532,9.273458359746863,0.27397925472196705,-0.11130547749999997,0.0455028559999997,0.18073655949999967
98092.0,-1.693608455,-2.2972077625,8.791073326,0.10477036966796761,-0.33795857503917404,0.14170153664016763,9.242750852751925,0.38114584385646444,-0.07786480100000004,0.07305954250000024,-0.027556686500000538
98102.0,-1.611036462,-2.2852436495,8.593567394999999,0.09331228312862483,-0.4695913072245863,0.1369053718556872,9.036989409747067,0.49796210583388417,0.08257199299999995,0.011964112999999887,-0.19750593100000025
98112.0,-1.4481480054999998,-2.189432679,8.324276786,0.09437867930159337,-0.550328493092592,0.11905239893703722,8.728363656015098,0.5709135303256874,0.16288845650000017,0.09581097050000009,-0.2692906089999987
98122.0,-1.218378196,-2.073321943,8.09440891,0.09091420073638462,-0.5567233794718992,0.10066710059652895,8.444084610548433,0.5730097540955648,0.2297698094999998,0.11611073599999999,-0.22986787600000014
98132.0,-1.0160670065,-2.062534628,7.88846926,0.07012907467438415,-0.488775966362508,0.08467988464826087,8.216713973320594,0.5009897356955846,0.20231118950000004,0.010787314999999964,-0.20593965000000036
98142.0,-0.873576382,-2.072145145,7.7855975015,0.038954003575261444,-0.3651368421512297,0.07188836656039443,8.10385399994955,0.37417945579285233,0.14249062449999994,-0.00961051700000004,-0.10287175850000008
98152.0,-0.8687711235,-2.1032322254999998,7.674193957499999,0.0003159045946109737,-0.21778392939310443,0.06096435077216193,8.004473871325875,0.22615612254078993,0.00480525850000002,-0.031087080499999864,-0.11140354400000074
98162.0,-0.952617981,-2.199043196,7.620355448999999,-0.02020044076258237,-0.09467887593293639,0.04657585641872068,7.988309531102459,0.10743117683458675,-0.08384685749999998,-0.09581097050000009,-0.05383850850000016
98172.0,-1.0388184345,-2.311623538,7.644283675,0.005646140130201656,-0.015538666330505515,0.023125612588924867,8.053435293411388,0.02842750441585929,-0.08620045350000005,-0.11258034200000022,0.023928226000000663
98182.0,-1.0782411675,-2.372620901,7.7328377244999995,0.07093018080104956,0.01910088333382594,-0.007250097712784445,8.160190759326902,0.07381394319128962,-0.0394227330000001,-0.060997362999999805,0.0885540494999999
98192.0,-1.0878516845,-2.323587651,7.890920922499999,0.14767056268198825,0.019367918709381073,-0.03283138855926533,8.297536614230602,0.15251102069253117,-0.009610516999999819,0.04903324999999992,0.15808319799999992
98202.0,-1.083046426,-2.1966896,7.989085489,0.20789140319280058,0.006044075199656363,-0.042423718128226165,8.356070949325998,0.21226195661567304,0.00480525850000002,0.12689805099999996,0.09816456650000038
98212.0,-1.0878516845,-2.1367709685,8.085975191,0.23826711349450988,0.001514945790731078,-0.03469540020039528,8.4339911221652,0.2407847238277796,-0.00480525850000002,0.059918631499999986,0.09688970199999947
98222.0,-1.163264823,-2.166681251,8.1674684525,0.244396709827514,-0.0014154620233674013,-0.009915215480579788,8.529667849010703,0.24460185364236306,-0.07541313850000009,-0.02991028249999994,0.08149326150000036
98232.0,-1.277021963,-2.292402504,8.245235186999999,0.25292264322350627,-0.02246587813167101,0.018596483179999578,8.652733534743385,0.25459852380180087,-0.11375713999999992,-0.12572125300000003,0.07776673449999905
98242.0,-1.3979379575,-2.4564677584999997,8.288286380499999,0.2763711417240501,-0.0893486403973457,0.03724881689606298,8.756948983907069,0.2928338468805572,-0.12091599450000001,-0.16406525449999965,0.043051193500000196
98252.0,-1.4912972655,-2.487554839,8.2535708395,0.32033773091103923,-0.17461670100352866,0.03538305992568104,8.748332881970418,0.3665504263321671,-0.09335930800000014,-0.031087080500000308,-0.03471554099999885
98262.0,-1.5032613785,-2.394195531,8.2068911855,0.37602944201292626,-0.23643626310916782,0.024991369559306805,8.68015149311276,0.4448874198334115,-0.011964112999999887,0.09335930800000014,-0.04667965400000007
98272.0,-1.4517764659999999,-2.2852436495,8.234447871999999,0.4088032347068758,-0.24496219650516013,0.0148667145684877,8.668109667136015,0.47680979606704654,0.05148491250000009,0.1089518814999999,0.02755668649999876
98282.0,-1.4649173770000001,-2.233758737,8.2404299285,0.40960259550428924,-0.2199149764097895,0.005272639670274869,8.662583126474395,0.4649351393713549,-0.013140911000000255,0.05148491249999987,0.00598205650000061
98292.0,-1.4589353205,-2.3415338205,8.289561245,0.4005425913571867,-0.18900519535696994,-0.0075171330883395775,8.7365953629863,0.44296031272894465,0.005982056500000166,-0.10777508349999998,0.049131316500000466
98302.0,-1.3979379575,-2.4360699264999996,8.404495183,0.39548113652640315,-0.15703076346043382,-0.02936690999405659,8.861388519915328,0.4265283172589849,0.06099736300000003,-0.09453610599999962,0.11493393800000007
98312.0,-1.2830040194999999,-2.4480340395,8.525313110999999,0.39121729716378095,-0.12105778224757868,-0.0605437264224313,8.962138897227176,0.4139704132567332,0.11493393800000007,-0.011964113000000332,0.12081792799999924
98322.0,-1.1416901929999999,-2.323587651,8.6893783655,0.389351540193399,-0.08561887178583383,-0.09331751911638082,9.066852400226416,0.40943054652881866,0.14131382650000002,0.1244463885,0.16406525450000053
98332.0,-0.9765462069999999,-2.150009946,8.889237892499999,0.3968128227456748,-0.050178215994836975,-0.12449433554475553,9.197539647740738,0.41889987973087917,0.1651439859999999,0.17357770500000003,0.1998595269999992
98342.0,-0.860435471,-1.9236724639999998,9.1179289705,0.38908625014709586,-0.022200588085367873,-0.14741050862344107,9.358284760552545,0.4166663343941843,0.11611073599999999,0.22633748200000015,0.22869107800000066
98352.0,-0.7958096474999999,-1.6399660794999997,9.265126787,0.35497902590462266,-0.0016824973989225337,-0.14900923021826787,9.442741980809897,0.3849892080564505,0.06462582350000001,0.2837063845000001,0.1471978165000003
98362.0,-0.8699479214999999,-1.436478092,9.3632913535,0.3070156327305665,0.002846632010002751,-0.13168858272147616,9.512702227308809,0.33407871059668187,-0.07413827399999995,0.20348798749999975,0.0981645664999995
98372.0,-0.9262380925,-1.368223808,9.422033186999998,0.28996202060932996,-0.022999948882781278,-0.10131112709051486,9.565806958626407,0.308011226283729,-0.05629017100000011,0.068254284,0.058741833499999174
98382.0,-1.0076332874999998,-1.344295582,9.450766671499998,0.31154476213949184,-0.06190333790973488,-0.06374116961208491,9.598929426399485,0.323967743401154,-0.08139519499999981,0.023928225999999997,0.028733484500000017
98392.0,-1.0962854035,-1.3060496469999998,9.5919824315,0.357642398343166,-0.11119841730306272,-0.025902431428847843,9.742368004369402,0.3754252376403111,-0.08865211600000023,0.038245935000000175,0.14121576000000147
98402.0,-1.0962854035,-1.3431187839999998,9.759578079999999,0.4151981210861831,-0.18074455200728076,0.0007435102613495844,9.9123747938361,0.45283399346926034,0.0,-0.03706913700000003,0.16759564849999897
98412.0,-1.034013176,-1.398232157,9.899617042,0.45570197703721543,-0.24442987108330186,0.01593136541220424,10.051201619272558,0.5173626022020954,0.062272227500000055,-0.05511337300000019,0.1400389620000002
98422.0,-0.9597768354999999,-1.3874448419999998,9.947473493999999,0.45436854548869177,-0.298255825214807,0.01539903999034597,10.089519496853521,0.543731958630996,0.07423634050000005,0.010787315000000186,0.04785645199999955
98432.0,-0.7958096474999999,-1.355082897,9.8708835575,0.42292643901401394,-0.3310296179087565,0.0015428710587629874,9.995194088086524,0.5370751913847779,0.16396718799999999,0.03236194499999989,-0.07658993649999957
98442.0,-0.6808757095,-1.249759476,9.741631910499999,0.3837560146115052,-0.32756688467279976,-0.01870818425212722,9.845043563098681,0.5048947799717884,0.11493393799999996,0.10532342100000003,-0.12925164700000025
98452.0,-0.605462571,-1.159930562,9.5141176305,0.347517743352347,-0.29425902122773995,-0.0418896473771159,9.603668992657676,0.4572873233274615,0.07541313849999998,0.08982891399999993,-0.2275142799999994
98462.0,-0.5802594805,-1.1539485054999998,9.3752554665,0.3299300604800001,-0.24096539251809312,-0.06587221662876999,9.463810716629636,0.4138324710837984,0.025203090500000025,0.005982056500000166,-0.13886216399999896
98472.0,-0.605462571,-1.2401489589999999,9.329850677,0.34991582574458713,-0.18367670515063123,-0.0893207151293138,9.431366179960783,0.40516219872135184,-0.025203090500000025,-0.08620045350000005,-0.04540478950000093
98482.0,-0.6461601685,-1.3047747825,9.425563580999999,0.38881921477154074,-0.13198354336506318,-0.11756537841433803,9.537358597425044,0.4271084823513361,-0.040697597500000016,-0.06462582350000012,0.0957129039999991
98492.0,-0.745501533,-1.3610649535,9.443509750499999,0.4157321918372933,-0.093877769806271,-0.14474539085564575,9.570169630217631,0.4501083415885479,-0.09934136449999997,-0.05629017099999989,0.017946169500000053
98502.0,-0.7670761629999999,-1.4089214055,9.504605179999999,0.44077941193266396,-0.07096334205683745,-0.16393004999356742,9.639034443055056,0.4755999865332991,-0.021574629999999928,-0.047856451999999994,0.06109542949999991
98512.0,-0.747855129,-1.4208855184999998,9.5908056335,0.4722215184073418,-0.047247808180738496,-0.1663281323858076,9.724286896746205,0.5028822580363818,0.01922103399999997,-0.011964112999999887,0.08620045350000183
98522.0,-0.71196279,-1.3922501005,9.736826652,0.4994015308486495,-0.009676105373056564,-0.15487004584646485,9.861594425232887,0.5229533890602979,0.035892338999999995,0.02863541799999969,0.14602101849999904
98532.0,-0.7658012985,-1.3587113575,9.977481843,0.5068628134009252,0.03935193864471615,-0.13248794351888957,10.098648033730973,0.5253680061268131,-0.05383850850000005,0.03353874300000004,0.2406551910000001
98542.0,-0.882010101,-1.4053910115,10.2970805665,0.4999338562705078,0.06066939012857489,-0.11276921362985762,10.429905747726725,0.5160731838477663,-0.11620880249999999,-0.04667965399999985,0.3195987235000004
98552.0,-0.9800766009999999,-1.4628579805,10.640607516,0.4796828009596175,0.03642153083061767,-0.10317688406089678,10.785315569073346,0.49200364515827055,-0.09806649999999995,-0.057466969000000034,0.3435269494999993
98562.0,-1.0041028934999998,-1.4556010595,10.9435349345,0.44850598453124285,-0.020601866490541063,-0.10530793107758185,11.085483928443292,0.4611635451887695,-0.02402629249999988,0.007256920999999972,0.30292741850000127
98572.0,-1.0124385459999998,-1.3849931795,11.030912186,0.4058728268927773,-0.09147968741403079,-0.11170281745688909,11.16352370767991,0.4307885841652611,-0.008335652500000013,0.07060788000000007,0.08737725149999953
98582.0,-1.03754357,-1.2987927259999998,10.975798813,0.35231390813682734,-0.1562314026630204,-0.11303624900541275,11.100969272464953,0.4016348274663358,-0.025105024000000142,0.08620045350000005,-0.0551133729999993
98592.0,-1.08069283,-1.2952623319999998,10.876457448499998,0.3190060446917676,-0.2167175332201359,-0.10664136262610553,11.006494815814095,0.4001296364650577,-0.04314926000000008,0.0035303939999999923,-0.09934136450000253
98602.0,-1.127372484,-1.3527293009999999,10.8513524245,0.3339286097963191,-0.2822668639372869,-0.10104583704421172,10.993302266387762,0.4487684927682185,-0.04667965399999985,-0.057466969000000034,-0.025105023999998366
98612.0,-1.10226746,-1.331154671,10.900385674499999,0.3946817757289897,-0.33289537487913845,-0.09944711544938489,11.036547203013484,0.5258162830111996,0.02510502399999992,0.021574629999999928,0.04903324999999903
98622.0,-1.0591182,-1.2653520495,10.973445217,0.44104644730821907,-0.3510153831733436,-0.0970490330571447,11.096816980614092,0.5719722744371948,0.04314926000000008,0.06580262150000005,0.07305954250000113
98632.0,-0.9489895204999999,-1.238972161,11.138589203,0.42878899997146286,-0.33156368865986674,-0.09411687991379422,11.247390922295713,0.5501385945550192,0.11012867950000005,0.02637988849999995,0.16514398600000035
98642.0,-0.850824954,-1.2114154744999999,11.241559028,0.367501763287682,-0.29026221724067297,-0.0901200759267272,11.338610141204056,0.4768976083627031,0.09816456649999983,0.027556686500000094,0.10296982499999885
98652.0,-0.852001752,-1.1994513615,11.272744175,0.29529051081566865,-0.25855307539044,-0.08798902891004214,11.368348683472535,0.4022290986243602,-0.0011767979999999234,0.011964112999999887,0.031185147000000413
98662.0,-0.8209146715,-1.2580951284999997,11.300202795,0.24306327827899032,-0.24975836128964055,-0.08585623656410506,11.399617864576216,0.35892936580721296,0.031087080499999975,-0.058643766999999736,0.027458620000000877
98672.0,-0.720396509,-1.229361644,11.314618570499999,0.2164173365887929,-0.248693710445924,-0.07972838556035297,11.403985907472054,0.3391778893967121,0.10051816250000001,0.028733484499999795,0.014415775499998063
98682.0,-0.702352273,-1.2329901045,11.3169721665,0.19137011649342225,-0.2500253966651957,-0.06693861280173852,11.405587329485442,0.3218943900538118,0.018044235999999936,-0.003628460500000097,0.002353596000000735
98692.0,-0.6808757095,-1.2928106695,11.300202795,0.17644929671812273,-0.2646809263941921,-0.06107605184428957,11.394276386286492,0.323914543079026,0.021476563500000045,-0.05982056499999988,-0.016769371499998798
98702.0,-0.6509654269999999,-1.3658702119999997,11.230771712999998,0.16818865336843355,-0.28306622473470033,-0.0613430872198447,11.332236791238484,0.3349281789534951,0.02991028250000005,-0.0730595424999998,-0.06943108200000303
98712.0,-0.6162498859999999,-1.377834325,11.0272837255,0.15326608826388205,-0.30411838617225595,-0.07013605599139214,11.130102322612329,0.3477032541834447,0.03471554100000007,-0.011964113000000332,-0.2034879874999973
98722.0,-0.47856452,-1.368223808,10.803397905999999,0.1559312060316774,-0.3235700806857328,-0.08132710715517977,10.900204892750686,0.3682746753276624,0.13768536599999986,0.00961051700000004,-0.2238858195000013
98732.0,-0.26066075699999997,-1.250936274,10.625113009,0.18684098708449695,-0.3158417627579018,-0.08612327193966018,10.701673329244818,0.3769387105701941,0.21790376300000003,0.11728753399999992,-0.17828489699999928
98742.0,-0.04638545449999999,-1.051076747,10.543717813999999,0.22654373690886398,-0.29665710361998016,-0.06960198524028187,10.596079429663321,0.37969980011874727,0.2142753025,0.1998595270000001,-0.0813951950000007
98752.0,0.06374322499999999,-0.925355494,10.602361580999998,0.26944392992288463,-0.2732086051194364,-0.03069859621332826,10.642857561917955,0.3849485382399386,0.11012867949999998,0.12572125300000003,0.058643766999999514
98762.0,0.109246081,-0.9456552595,10.7591699145,0.29955435017829074,-0.25428923602781783,0.012468632176247491,10.801200665903574,0.3931301197551465,0.04550285600000001,-0.02029976550000001,0.15680833350000078
98772.0,0.062566427,-0.982822463,10.896855280499999,0.30195243257053095,-0.26441389101863694,0.039114573866444916,10.941266359783297,0.4032616113487995,-0.046679654,-0.03716720350000002,0.13768536599999948
98782.0,-0.023634026499999995,-1.053430343,10.925588765,0.29635690698863715,-0.29345966043032656,0.048706903435405756,10.976281880338895,0.4199027876330666,-0.0862004535,-0.07060788000000007,0.028733484500001794
98792.0,-0.0607031635,-1.079712165,10.8321313905,0.29635690698863715,-0.31983856674496886,0.039646899288303186,10.885978766025744,0.43783101959605886,-0.037069137,-0.026281821999999844,-0.0934573744999998
98802.0,-0.05354430899999999,-1.0977564009999998,10.707685002,0.2848988204492944,-0.3123772841926931,0.019662879352968118,10.763942317339799,0.42324169737568534,0.007158854500000006,-0.018044235999999936,-0.12444638850000089
98812.0,-0.112188076,-1.0617659955,10.5389125555,0.2550554355694433,-0.2606841224071251,-0.012845623294678265,10.592856604621447,0.36493081114989484,-0.058643767000000006,0.03599040549999977,-0.16877244650000023
98822.0,-0.1493552795,-0.97085835,10.4538889,0.2292088546766593,-0.19220263854662353,-0.052548373119045276,10.499936479275599,0.30371019878154953,-0.037167203499999996,0.09090764550000008,-0.0850236554999988
98832.0,-0.20201698999999998,-0.8247392649999999,10.4814455865,0.24013287046489182,-0.147438433891473,-0.08905367975375868,10.515783722682857,0.29552063404060935,-0.052661710499999986,0.14611908500000004,0.02755668649999876
98842.0,-0.1613193925,-0.624879738,10.6214845485,0.29209306762601506,-0.16742245382680804,-0.1087724096427906,10.641072908658401,0.3538079638731504,0.04069759749999999,0.19985952699999998,0.1400389620000002
98852.0,0.015886773,-0.462089348,10.7938854555,0.3603075161109614,-0.2212484079583132,-0.10237752326348339,10.803783697462007,0.4350327820517713,0.17720616549999998,0.16279038999999995,0.1724009070000001
98862.0,0.1642613875,-0.1603387275,10.983055734,0.39414770497787943,-0.25588795762264466,-0.07173477758621893,10.985454181193877,0.4753703172380057,0.1483746145,0.3017506205,0.18917027850000068
98872.0,0.25291350349999997,0.035892338999999995,11.056017209999998,0.3778934536540563,-0.2580190046393297,-0.027768188399229784,11.058967856362893,0.4584193946122218,0.08865211599999998,0.1962310665,0.07296147599999792
98882.0,0.201428591,0.009610516999999999,11.1086789205,0.32673261729034647,-0.2356369023117544,0.013267992973660893,11.110509133161733,0.40305705870264624,-0.05148491249999998,-0.026281821999999996,0.05266171050000068
98892.0,0.055407572499999995,-0.1089518815,11.174579608499998,0.2673128829061995,-0.21378712540603742,0.03298497753344083,11.175248092918416,0.34387369934306095,-0.1460210185,-0.1185623985,0.06590068799999926
98902.0,-0.15170887549999998,-0.33754489299999996,11.114660977,0.2164173365887929,-0.19859927025518276,0.024724334183751674,11.120820148322805,0.29477012471230496,-0.20711644799999998,-0.22859301149999994,-0.059918631499998654
98912.0,-0.282235387,-0.4788587195,11.0704329855,0.1831094731437331,-0.1826103089776627,-0.010182250856134918,11.08437860113785,0.2588035593503115,-0.13052651150000003,-0.14131382650000002,-0.044227991499999675
98922.0,-0.2882174435,-0.500335283,11.059645670499998,0.16339248858395317,-0.16662309302939465,-0.05015029072680507,11.074708440729342,0.238695228516036,-0.005982056499999999,-0.02147656349999999,-0.01078731500000174
98932.0,-0.24987344199999997,-0.3913834015,11.133882010999999,0.15353312363943716,-0.15356628489522509,-0.07279942842993548,11.14356075672655,0.22903008686792536,0.03834400150000003,0.10895188149999996,0.07423634050000061
98942.0,-0.19240647299999997,-0.31126307099999995,11.186543721499998,0.1490022489012599,-0.14663907309405957,-0.0751975108221757,11.192527211637758,0.22216965042365527,0.05746696900000001,0.08012033050000006,0.052661710499998904
98952.0,-0.14572681899999998,-0.3076346105,11.2236128585,0.14953631965237016,-0.143439884575154,-0.061875412641702966,11.228773795781972,0.21625142328246152,0.04667965399999999,0.0036284604999999304,0.03706913700000136
98962.0,-0.1613193925,-0.4094276375,11.307459716,0.16179376698912634,-0.15329924951966994,-0.044022439723052975,11.316019625544497,0.22719123693266774,-0.015592573500000012,-0.10179302699999998,0.08384685750000109
98972.0,-0.16367298849999998,-0.524263509,11.447498677999999,0.17111906118253203,-0.16289157908863078,-0.030433306167025123,11.460666082599442,0.2382049238832705,-0.0023535959999999856,-0.11483587149999996,0.14003896199999843
98982.0,-0.1493552795,-0.524263509,11.549193638499998,0.15939568459688613,-0.16022820665008744,-0.025902431428847843,11.562051415123198,0.22748845779146531,0.014317708999999984,0.0,0.10169496049999971
