timestamp,ax,ay,az,gx,gy,gz,acc_mag,gyro_mag,dax,day,daz
163062.0,-0.322442652,-2.008794186,7.7782425139999996,0.03707951995861953,-0.06502224128304875,0.00813148898504158,8.039917907051864,0.07529212292761125,0.0,0.0,0.0
163072.0,-0.6432181734999999,-1.4365761585,7.601134415,0.03388207676896592,-0.0623571235152534,0.01239532834766373,7.7623917108574645,0.07204200263819062,-0.3207755214999999,0.5722180274999997,-0.1771080989999998
163082.0,-0.5522124614999999,-1.5299354665,7.3796021915,-0.006887069228369624,-0.08021009643390341,0.021455332494766294,7.556730089071732,0.08331520020352477,0.09100571199999996,-0.09335930799999992,-0.22153222349999968
163092.0,-0.4241376124999999,-1.7227342055,7.289871344,-0.011683234012850041,-0.04423886055030027,0.029981265890758592,7.50266153236365,0.05470330012165897,0.128074849,-0.19279873899999989,-0.08973084750000027
163102.0,-0.6611643429999999,-1.6640904385,7.146203921499999,0.021092304010351472,-0.036510542622469375,0.009730210579868387,7.36712737528161,0.04327334062654309,-0.2370267305,0.05864376699999996,-0.14366742250000097
163112.0,-0.7940444504999999,-1.638887348,7.093542210999999,0.0749165128126046,-0.07301584925718278,-0.0073234015413682066,7.323578321288241,0.10486863375139825,-0.1328801075,0.025203090500000025,-0.05266171049999979
163122.0,-0.7629573699999999,-1.556315355,7.0731443789999995,0.13886712193492884,-0.1353677367846802,-0.02677509605484501,7.282416689453123,0.195768760238816,0.031087080500000086,0.08257199299999995,-0.02039783199999956
163132.0,-0.634882521,-1.5048304424999999,7.0636319284999995,0.18949563287678034,-0.19159177330842553,-0.04089655503273113,7.249999068791022,0.2725592241924383,0.12807484899999988,0.05148491250000009,-0.009512450499999936
163142.0,-0.47562252499999996,-1.4905127334999997,7.0671623225,0.22227117089998186,-0.22463260137793017,-0.04116359040828626,7.238275228780445,0.31868278929111654,0.15925999600000001,0.014317709000000178,0.0035303940000002143
163152.0,-0.255365166,-1.4641328449999997,7.1306113479999995,0.2297324534522576,-0.252079649194793,-0.0313042254637703,7.283853001814381,0.3424924878581283,0.22025735899999999,0.02637988849999995,0.06344902549999976
163162.0,-0.1201314625,-1.3455704465,7.149832381999999,0.21480988834770612,-0.26007325716892704,-0.011852530950293493,7.2763379859289365,0.33752313952725743,0.13523370349999997,0.11856239849999972,0.019221033999999193
163172.0,-0.08178746099999999,-1.212690339,7.174937405999999,0.18576586426526845,-0.252079649194793,0.014793410739903938,7.277158362101154,0.3134835735181535,0.0383440015,0.13288010750000012,0.025105024000000142
163182.0,-0.16082906,-0.9948846425,7.156991236499999,0.1378024710912123,-0.2427526096721353,0.055562556737239484,7.227598840400636,0.2846147365345924,-0.079041599,0.21780569649999992,-0.017946169500000053
163192.0,-0.21829602899999997,-0.873968648,7.097170671499999,0.07891331679967162,-0.23768940951209977,0.10166019294091372,7.154111118396461,0.27029310348456875,-0.05746696899999998,0.12091599450000001,-0.05982056499999988
163202.0,-0.383440015,-0.7590347099999999,7.0289163875,0.045340163308308694,-0.24914749605144254,0.14749079376903282,7.080171291611102,0.29305927633184903,-0.16514398600000005,0.11493393800000007,-0.06825428399999911
163212.0,-0.5259306395,-0.713531854,6.999006104999999,0.05866226148878141,-0.2989766461958806,0.185596567327825,7.054914400760992,0.35675535272422587,-0.14249062449999994,0.045502855999999925,-0.029910282500000385
163222.0,-0.612131093,-0.8571992764999999,6.9834135315,0.11488629801252674,-0.40263000514257186,0.199450990930156,7.062404663185678,0.46377848192337656,-0.08620045350000005,-0.14366742249999997,-0.015592573499999318
163232.0,-0.6611643429999999,-0.9769384729999999,6.9020183365,0.19029499367419375,-0.549717627854394,0.18266441418447452,7.002099983995118,0.6097277615466437,-0.04903324999999992,-0.11973919649999998,-0.08139519499999981
163242.0,-0.6061490365,-1.0296001835,6.800225309499999,0.26543839928955765,-0.694672458220279,0.14376102515752093,6.9043868266687864,0.7574263002969657,0.05501530649999997,-0.052661710500000014,-0.10179302700000115
163252.0,-0.3307783045,-1.0858903544999998,6.6925482925,0.3227270866570195,-0.7804745895775723,0.08540594161709052,6.7881348540058255,0.848874273554046,0.27537073199999995,-0.05629017099999989,-0.10767701699999943
163262.0,-0.015984839499999997,-0.9744868105,6.545252409499999,0.3221947612351612,-0.7591571380937135,0.019057250102526086,6.6174171066208185,0.8249195132056766,0.314793465,0.11140354399999985,-0.14729588300000085
163272.0,0.265367949,-0.7434421365,6.375303165,0.24785071641721074,-0.6134029469304151,-0.04089655503273113,6.4239876092921575,0.6628466497954014,0.2813527885,0.23104467399999995,-0.16994924449999882
163282.0,0.508376736,-0.5316184964999999,6.2196716295,0.10849141163321951,-0.367191094680827,-0.08459785417341716,6.2630168697149555,0.3921179457023352,0.243008787,0.2118236400000001,-0.15563153550000042
163292.0,0.6233106740000001,-0.44659484099999996,6.1310195135,-0.058314940967634545,-0.050633746929607495,-0.10564827028172076,6.178783328718359,0.13086621291116265,0.11493393800000007,0.08502365549999996,-0.08865211599999956
163302.0,0.6316463265,-0.48013358399999995,6.0867915219999995,-0.2165936148432443,0.253933188860411,-0.10538123490616562,6.138284481233882,0.35000009009431593,0.008335652499999902,-0.03353874299999998,-0.04422799150000056
163312.0,0.6233106740000001,-0.7661935645,6.0113783835,-0.34369547229047936,0.454312694952628,-0.10111739554354347,6.0919815203441505,0.5785769872278059,-0.008335652499999902,-0.28605998050000003,-0.0754131384999992
163322.0,0.5922235935,-1.049899949,5.8976212435,-0.39965247343866955,0.541711802575496,-0.09685530151017333,6.019547742097469,0.6801137596063369,-0.031087080500000086,-0.2837063845000001,-0.11375714000000059
163332.0,0.5035714775,-1.2749625664999997,5.764741136,-0.33223738575113654,0.5281226690194681,-0.11017739969064605,5.9254834523453335,0.633588425893015,-0.088652116,-0.22506261749999967,-0.13288010750000012
163342.0,0.3048887485,-1.4521687319999999,5.788669362,-0.10387850642019851,0.38476656024840994,-0.12030380001071714,5.975821630346565,0.4163040406704013,-0.198682729,-0.17720616550000012,0.023928226000000663
163352.0,0.19230840649999997,-1.4257888435,6.007749923,0.25691072056431336,0.17959088937171253,-0.133892933566745,6.177614061008193,0.34085674930285037,-0.112580342,0.02637988849999995,0.21908056100000017
163362.0,0.2234935535,-1.3551809635,6.3620641875,0.6123714573424864,0.019179423150165686,-0.1504142202661233,6.508634690790294,0.6308653498952052,0.031185147000000024,0.07060787999999985,0.35431426449999925
163372.0,0.18161915799999998,-1.2199472599999999,6.724812171,0.8585833095920745,-0.02665117767795341,-0.16959887940404497,6.836984391598673,0.8755794450972508,-0.04187439550000002,0.1352337035000002,0.36274798350000026
163382.0,0.174362237,-1.0068487554999999,7.185724720999999,0.9939458103889988,0.06341304771270997,-0.2047724998194867,7.258015319089238,1.016799520698343,-0.007256920999999972,0.2130985045,0.46091254999999887
163392.0,0.170831843,-0.8715169855,7.967412792499999,1.0456389721745667,0.26858871858940736,-0.2434088534708852,8.016756949084238,1.106683617766069,-0.0035303939999999923,0.13533176999999985,0.7816880715000005
163402.0,0.04873905049999999,-0.815324881,8.9012020055,1.0349819917618894,0.4351280358147063,-0.26339287340622025,8.938597613682951,1.1532128756585045,-0.12209279250000002,0.056192104500000006,0.9337892130000007
163412.0,-0.056682437,-0.7447170009999999,9.8265574995,0.9936787750134436,0.45857653431525014,-0.2753850306966733,9.854899725579271,1.1285064735607906,-0.1054214875,0.07060788000000007,0.9253554939999997
163422.0,-0.17151830849999997,-0.6799931109999999,10.526850375999999,0.9486475349827379,0.3208159511260857,-0.29270393286421303,10.550184263786557,1.043326704556122,-0.11483587149999996,0.06472389,0.7002928764999989
163432.0,-0.20152665749999998,-0.4980797535,10.857236414499999,0.9315939228615012,0.08233067147507651,-0.31934987455441044,10.870523400226622,0.9882458798072145,-0.030008349000000017,0.18191335749999993,0.33038603850000037
163442.0,-0.044718324,-0.36402284799999995,10.980506004999999,0.9430520094008441,-0.12124627780679409,-0.34306540843050937,10.986629350633816,1.0108123598267704,0.15680833349999998,0.13405690550000005,0.12326959049999964
163452.0,0.100223963,-0.24546044949999998,11.0331677155,0.9550424213620452,-0.20571497761556365,-0.34066732603826916,11.036352908156735,1.0346395051642454,0.144942287,0.11856239849999997,0.05266171050000068
163462.0,0.160044528,-0.12454445499999998,11.176835138,0.9534436997672184,-0.1977213696414296,-0.3156201059428986,11.178674754828743,1.0236037709553885,0.05982056499999999,0.1209159945,0.14366742250000009
163472.0,0.079826131,-0.024026292499999997,11.5515472345,0.9760928374703488,-0.20118410287738636,-0.2705888659121929,11.551848033315116,1.0326909532706976,-0.080218397,0.10051816249999998,0.3747120964999997
163482.0,-0.047071919999999996,0.015494507,11.923807668499999,1.025921987614787,-0.3019070540099791,-0.2156965156077192,11.923910648808931,1.090957735559802,-0.12689805099999998,0.039520799499999995,0.3722604339999993
163492.0,-0.16798791449999997,0.014317708999999998,12.300873360999999,1.0706879375991893,-0.4641825318726559,-0.17466207956408056,12.302028709914818,1.179976662758109,-0.12091599449999998,-0.0011767980000000015,0.37706569250000044
163502.0,-0.08776951749999999,-0.27066354,12.341669024999998,1.071752588442906,-0.6064739897999976,-0.1687995186066316,12.344948625358143,1.2429632289894288,0.08021839699999998,-0.284981249,0.04079566399999912
163512.0,0.0834545915,-0.31371473349999995,12.124942059999999,1.0248555914418183,-0.6227282411238207,-0.20263970747354965,12.12928693539791,1.2162163856188142,0.17122410899999999,-0.04305119349999997,-0.21672696499999944
163522.0,0.20907777799999996,-0.23830159499999998,11.802891674,0.956908178332427,-0.44126810412322237,-0.25806438319988156,11.807148387125972,1.084890790518715,0.12562318649999998,0.07541313849999998,-0.322050385999999
163532.0,0.274978466,-0.136508568,11.753858424,0.8724394785236574,-0.1252430817938611,-0.31215562737768987,11.75786696630545,0.9350281326930299,0.06590068800000001,0.10179302699999998,-0.04903324999999903
163542.0,0.195936867,-0.020397831999999998,11.957346411499998,0.7898365356852699,0.22142468621276462,-0.35265773799947026,11.958969041351848,0.8928819210503889,-0.07904159899999999,0.11611073599999999,0.2034879874999973
163552.0,0.0175539035,0.04903325,12.431399872499998,0.7432048287304854,0.44338867916439545,-0.3707777462936754,12.431508966699361,0.9415004383461936,-0.1783829635,0.069431082,0.47405346100000045
163562.0,-0.23496733399999997,0.2788030595,13.098154005999998,0.7735822843614467,0.460442291285632,-0.37131007171553365,13.103227814509195,0.9738109794203553,-0.2525212375,0.2297698095,0.6667541334999996
163572.0,-0.3762811605,0.40217071649999997,13.666841639499998,0.8154160812024989,0.30322826825373883,-0.3475962831686867,13.677934390693952,0.936842539717581,-0.14131382650000002,0.12336765699999996,0.5686876334999997
163582.0,-0.41933235399999996,0.5865357365,13.97447625,0.8170148027973256,0.11910301348534504,-0.30469609015466603,13.993064362573227,0.880078646012266,-0.04305119349999997,0.18436502000000005,0.30763461050000274
163592.0,-0.45885315349999994,0.6810718425,14.126479324999998,0.7951650258916086,-0.000804596785169386,-0.2567326969806099,14.150329437535213,0.8355834748701814,-0.03952079949999998,0.09453610599999995,0.15200307499999788
163602.0,-0.454047895,0.6930359555,14.1181436725,0.7645222802143441,-0.05702863330891472,-0.21276610779362073,14.142433987256986,0.795623025425276,0.004805258499999965,0.011964112999999998,-0.008335652499997792
163612.0,-0.5450536069999999,0.7265746985,14.217485037,0.7120280123021107,-0.06582160208046216,-0.18718481694713984,14.246468860890511,0.7391579866976122,-0.09100571199999996,0.03353874300000004,0.09934136449999897
163622.0,-0.6228203415,0.7134337874999999,14.290544579499999,0.6264946616496245,-0.07488160622756472,-0.16853248323107645,14.321890843237481,0.653074279030135,-0.07776673450000005,-0.013140911000000144,0.07305954249999935
163632.0,-0.6372361169999999,0.6260565359999999,14.233077610499999,0.5164446709943741,-0.11245330903524665,-0.16320399302473776,14.261083932211951,0.5531694028511361,-0.01441577549999995,-0.08737725149999997,-0.057466969000000034
163642.0,-0.5929100589999999,0.4943532265,13.9804583065,0.3997345039135133,-0.17134071799753534,-0.17945824434856095,14.001754958232885,0.47047909276349503,0.044326058,-0.13170330949999987,-0.25261930399999954
163652.0,-0.4600299515,0.478760653,13.547102443,0.3126006863369484,-0.20891242080521724,-0.2156965156077192,13.563363296773948,0.43346115801803786,0.13288010749999996,-0.01559257350000004,-0.4333558634999992
163662.0,-0.2613472225,0.640374245,13.056279610499999,0.24092350461604525,-0.1734735103434724,-0.2420771672516135,13.074586754919858,0.38306467961942153,0.198682729,0.16161359199999997,-0.490822832500001
163672.0,-0.09610516999999999,0.8115983539999999,12.722265111499999,0.1839001072948865,-0.06928608064567089,-0.24687333203609393,12.748488446055333,0.3155412057163258,0.1652420525,0.17122410899999996,-0.33401449900000024
163682.0,-0.0626644935,0.988706453,12.717557919499999,0.1604516087943427,0.05248728659522547,-0.22848628836633367,12.756086654016842,0.2840873421858945,0.03344067649999999,0.17710809900000013,-0.004707191999999694
163692.0,-0.18956254449999999,1.0174399374999998,12.77021963,0.1354043886989721,0.06954089871646206,-0.1869195269008367,12.812089110802134,0.24105848794445753,-0.12689805099999998,0.028733484499999795,0.05266171050000068
163702.0,-0.29243430299999995,0.9336911465,12.773750023999998,0.10076309370538862,-0.0226543736908864,-0.14588334552794602,12.811166482965692,0.17874107586907198,-0.10287175849999997,-0.08374879099999988,0.003530393999998438
163712.0,-0.38589167750000003,0.7863952634999999,12.631357466,0.0826448307404355,-0.16814327480788172,-0.1301614196259811,12.66169504178224,0.2281322512716797,-0.09345737450000008,-0.14729588300000007,-0.1423925579999974
163722.0,-0.2829218525,0.619976413,12.276945135,0.08903971711974272,-0.319494736882326,-0.13682334138084348,12.295844719867706,0.35878347908855746,0.10296982500000001,-0.16641885049999994,-0.3544123310000007
163732.0,0.0595263655,0.51582979,12.0159901785,0.13993351810789736,-0.38078022823685487,-0.17066527557701353,12.027204318969954,0.44011544848362516,0.342448218,-0.104146623,-0.2609549565000009
163742.0,0.26419115099999996,0.4727785965,11.620978316499999,0.12421333753518445,-0.3272213094809049,-0.20583715066320324,11.63359160354782,0.40604392766445113,0.20466478549999995,-0.04305119349999997,-0.3950118620000005
163752.0,0.6747955864999999,0.3003776895,11.63657089,0.1215482197673891,-0.1532207097033302,-0.2364816416697197,11.659989619116503,0.30687802537395764,0.4106044355,-0.172400907,0.015592573500001095
163762.0,1.1476722494999998,0.202213123,11.8053433365,0.12980886311707826,0.0402298392584693,-0.31135626658027643,11.862721990843028,0.33972268933546196,0.47287666299999986,-0.0981645665,0.16877244650000023
163772.0,1.3187982919999999,0.41531162749999995,12.053157381999998,0.10795908621136124,0.18545170499990948,-0.3515930871557537,12.132201595678332,0.4119043555471088,0.17112604250000008,0.21309850449999995,0.24781404549999841
163782.0,1.1943519034999999,0.860631604,12.140534633499998,0.09996373290797522,0.24567254551072185,-0.3017639370113156,12.2294621473886,0.40175766476220953,-0.1244463885,0.4453199765000001,0.08737725149999953
163792.0,1.2410315575,1.0054758245,12.192019546,0.11195589019842826,0.22888596876504036,-0.21223203704251048,12.296197850165344,0.33161023143872853,0.04667965400000007,0.1448442204999999,0.0514849125000012
163802.0,1.167972015,1.0856942215,12.0842444625,0.10609332924097932,0.21875956844496927,-0.1067129211254373,12.189005488549244,0.2655168371888831,-0.07305954250000002,0.08021839700000011,-0.10777508349999998
163812.0,0.94536106,1.174248271,11.825643102,0.050935688890202516,0.22169172158831973,-0.0027925268031909274,11.921342261322382,0.22748508089424044,-0.22261095499999994,0.0885540494999999,-0.2586013604999984
163822.0,0.705882667,1.1670894165,11.412685070499998,-0.03939557187601601,0.23794597291214292,0.0814091376300235,11.493900493918106,0.2545540115539504,-0.23947839299999996,-0.007158854499999867,-0.4129580315000023
163832.0,0.42217628249999994,1.0605891975,10.8440955035,-0.14171724460343557,0.2531338280629976,0.13043718164779622,10.904012543480869,0.3180791893287541,-0.2837063845000001,-0.10650021900000017,-0.5685895669999983
163842.0,0.15288567349999999,1.0270504544999999,10.325715984499999,-0.2221891404251381,0.27151912640350584,0.14456038595493434,10.377794431275317,0.37945797568798617,-0.26929060899999996,-0.03353874300000004,-0.5183795190000016
163852.0,-0.09738003449999999,0.9719370815,9.867255097000001,-0.26748741583139896,0.2888397739002976,0.13603445255894203,9.91548625690069,0.4165132709745823,-0.250265708,-0.055113372999999855,-0.4584608874999976
163862.0,-0.3176373935,0.9408500009999999,9.557168824,-0.2797448631681551,0.27898040895578163,0.11285124410470136,9.608619472565698,0.4108803479677312,-0.22025735899999999,-0.031087080500000086,-0.31008627300000136
163872.0,-0.5079844699999999,0.9097629205,9.408696143,-0.265621658861017,0.24354149849403678,0.07954338065964157,9.466217824695402,0.3690453583931982,-0.19034707649999993,-0.031087080499999975,-0.14847268099999944
163882.0,-0.731772223,0.919275371,9.324947351999999,-0.22245443047144126,0.1460159905510976,0.04969999577979053,9.398680806988464,0.27069675416137284,-0.2237877530000001,0.009512450500000047,-0.08374879100000143
163892.0,-0.8395473065,0.9169217749999999,9.2830729565,-0.14704573480977426,-0.02372076986385493,0.027583183498518384,9.365950498322217,0.15147922319774867,-0.10777508349999998,-0.002353596000000069,-0.04187439549999894
