timestamp,ax,ay,az,gx,gy,gz,acc_mag,gyro_mag,dax,day,daz
61732.0,3.0946845405,-5.776607182499999,9.1959899045,0.5048853553584157,0.04451636790136737,-0.24051684290033057,11.292142988369665,0.5610162927984053,0.0,0.0,0.0
61742.0,3.2802263584999998,-6.219573563,9.2750315035,0.5123466379106915,0.04025252853874522,-0.2189341013701687,11.639123234139422,0.5586156855790168,0.18554181799999991,-0.4429663805000006,0.07904159899999996
61752.0,3.5938430255,-6.478076856999999,9.694069657999998,0.5112802417377229,0.07009591341859626,-0.20001473227855018,12.2006628504885,0.5534679898583402,0.31361666700000024,-0.2585032939999987,0.41903815449999904
61762.0,3.5172530889999996,-6.284199386499999,9.947767693499998,0.5110132063621677,0.10180505526882924,-0.20747601483082592,12.280892203142622,0.5608431715594957,-0.07658993650000046,0.19387747049999948,0.25369803549999936
61772.0,3.3963370945,-6.129744648999999,10.115363341999998,0.5126119279569945,0.0719616703889782,-0.2024128146707904,12.30566742042455,0.5558060976922713,-0.12091599449999935,0.15445473750000005,0.16759564850000075
61782.0,3.3400469234999997,-6.047172655999999,10.135761173999999,0.5112802417377229,-0.027429594524342887,-0.1824287947354553,12.266126738258567,0.5435440491770517,-0.056290171000000555,0.08257199300000018,0.02039783200000045
61792.0,3.308959843,-5.9860772265,10.147725287,0.5227383282770657,-0.14920296176523926,-0.16803855505276205,12.237592259289723,0.5689937079033835,-0.031087080499999864,0.06109542949999902,0.01196411300000122
61802.0,3.3317112709999996,-5.8903643225,10.1297791175,0.5648391604936729,-0.23926718715590264,-0.16723919425534867,12.182328053965234,0.6358152343030742,0.02275142799999985,0.09571290399999999,-0.017946169500000053
61812.0,3.445468411,-5.837702612,10.110656149999999,0.6239936048315167,-0.2592512070912377,-0.17390111601021102,12.172731498759154,0.6977254513048035,0.11375714000000015,0.05266171049999979,-0.01912296750000131
61822.0,3.540004517,-5.789748093499999,10.091435116,0.6663614724236789,-0.19316780562297642,-0.18455984175214038,12.16099821836206,0.7179232189081396,0.09453610600000006,0.04795451850000099,-0.019221033999999193
61832.0,3.6165944535,-5.6844246725,10.160866197999999,0.6703582764107461,-0.06606594817574135,-0.1962849636670383,12.191621762180478,0.7016214899947952,0.07658993650000001,0.10532342099999958,0.06943108199999948
61842.0,3.645327938,-5.623329243,10.2817821925,0.6362510521682729,0.07382742735936015,-0.20321217546820378,12.272949629357743,0.6719829452257371,0.028733484500000017,0.06109542949999991,0.12091599450000068
61852.0,3.6501331964999997,-5.607834736,10.441042188499999,0.5805610863956377,0.1876071866261225,-0.19974769690299501,12.401074338964198,0.6419865839164418,0.004805258499999798,0.015494506999999658,0.1592599959999994
61862.0,3.599825082,-5.599401017,10.554701261999998,0.5291332146563729,0.24329715239875754,-0.19681728908889656,12.478531608336027,0.6147458893740028,-0.0503081144999995,0.008433719000000117,0.11365907349999915
61872.0,3.5735432599999997,-5.702370842,10.564311779,0.4907621510512776,0.21931458314710345,-0.19202112430441615,12.525650802042238,0.5708051221429226,-0.02628182200000051,-0.10296982499999974,0.009610517000002261
61882.0,3.5448097755,-5.784942835,10.4912522365,0.4689123741455606,0.12898506771013693,-0.18908897116106566,12.493903050630912,0.5217955551111615,-0.028733484499999573,-0.08257199300000018,-0.07305954250000113
61892.0,3.5184298869999995,-5.7059993024999995,10.290215911499999,0.4646485347829384,0.012007865253720986,-0.19122176350700276,12.28113677210514,0.5026014450263858,-0.026379888500000614,0.0789435325000003,-0.20103632500000046
61902.0,3.4466452089999997,-5.479759887,10.0627016315,0.48143685685787185,-0.09644340380670266,-0.19282048510182956,11.96516175153891,0.5275059400176595,-0.07178467799999977,0.22623941549999937,-0.2275142799999994
61912.0,3.4394863544999996,-5.2188049305,9.914327017,0.5224712929015105,-0.14547144782447535,-0.1954838575403729,11.720062776513569,0.576499898176218,-0.007158854500000089,0.2609549565,-0.14837461449999978
61922.0,3.4634145805,-5.0140420785,9.832931821999999,0.5621740427258776,-0.11989190230724647,-0.2024128146707904,11.568163498908927,0.6094133819473928,0.02392822600000022,0.204762852,-0.0813951950000007
61932.0,3.5100942345,-4.8883208255,9.895105983,0.5786953294252558,-0.03622256329589032,-0.21626898360237334,11.581431882236735,0.6188478259303605,0.04667965400000007,0.12572125300000003,0.062174161000001504
61942.0,3.538827719,-4.731512492,10.022004034,0.5693682899025981,0.04344997172839884,-0.2343889918965785,11.634048175258132,0.6172571175062318,0.028733484500000017,0.1568083334999999,0.1268980509999995
61952.0,3.6070820029999995,-4.6213838124999995,10.189599682499999,0.543254673634259,0.08182103533349416,-0.24398132146553933,11.755686734870388,0.6011216245258367,0.06825428399999955,0.11012867950000071,0.16759564849999897
61962.0,3.7112286259999996,-4.5974555865,10.2315721445,0.5099485555184512,0.08661720011797458,-0.2407838782758857,11.815027902311117,0.5705496864158359,0.1041466230000001,0.023928225999999775,0.04197246200000038
61972.0,3.8441087334999997,-4.5831378775,10.152530545499998,0.46544789558035177,0.08155399995793904,-0.23279027030175167,11.783726118527053,0.5267676037461683,0.13288010750000012,0.014317709000000178,-0.07904159900000174
61982.0,3.8536211839999996,-4.510078334999999,10.091435116,0.41295537299737034,0.08661720011797458,-0.22772707014171614,11.70590729153652,0.47947293762943977,0.009512450499999936,0.07305954250000024,-0.06109542949999813
61992.0,3.8069415299999996,-4.393967599,9.959829872999999,0.3660583759962827,0.09967400825214416,-0.22586131317133418,11.532474416750453,0.44152800063593234,-0.04667965400000007,0.11611073599999955,-0.13160524300000098
62002.0,3.7542798195,-4.3903391385,9.881965071999998,0.334881559567908,0.12152378515786118,-0.22559427779577904,11.446524730169319,0.4216710417753719,-0.05266171049999979,0.003628460499999875,-0.07786480100000048
62012.0,3.6932824565,-4.4478061075,9.7610490775,0.30983433947253736,0.15429932318106268,-0.2271929993906059,11.344663660363342,0.4140317113731959,-0.060997362999999805,-0.057466969000000034,-0.1209159944999989
62022.0,3.5843305749999996,-4.470557535499999,9.6880876015,0.289316248786092,0.188671837469839,-0.23865108592994863,11.25576970817339,0.4198276966583374,-0.10895188150000035,-0.022751427999999407,-0.07296147599999969
62032.0,3.50293538,-4.4286831399999995,9.5658967425,0.28558648017458016,0.21611713995744986,-0.2642323767764295,11.108112851386958,0.44506741599314464,-0.08139519499999981,0.04187439549999983,-0.12219085899999982
62042.0,3.4526272655,-4.3760214295,9.440273556,0.30663689628288376,0.23583586984648178,-0.2935434362344223,10.963072716990894,0.48560528479883647,-0.050308114499999945,0.05266171049999979,-0.12562318650000037
62052.0,3.4358578939999997,-4.231177209,9.407911611,0.3596634896169755,0.2635482077096477,-0.31379449154531247,10.87275406335082,0.5452361566097841,-0.01676937150000013,0.14484422049999957,-0.03236194499999989
62062.0,3.482537548,-4.074368875499999,9.4342914995,0.434005789105674,0.29419095338691215,-0.3228544956924151,10.850548631493753,0.6157469995223223,0.04667965400000007,0.15680833350000078,0.02637988850000106
62072.0,3.598648284,-4.000132535,9.525199145,0.5123466379106915,0.3107122400862905,-0.31326042079420224,10.939869675705026,0.6761458901405749,0.11611073599999999,0.07423634049999972,0.09090764549999975
62082.0,3.6717078265,-3.9031447664999996,9.569525203,0.5850902158045631,0.30671543609922347,-0.28155127894396925,10.96776139612318,0.7181058710571526,0.07305954250000024,0.09698776850000002,0.044326057999999335
62092.0,3.7195642785,-3.8552883144999996,9.686812736999999,0.6487755348805841,0.28459862381795137,-0.23945044672736204,11.06945108898896,0.7478252387935252,0.047856451999999994,0.047856451999999994,0.11728753399999903
62102.0,3.6800434789999996,-3.8815701364999997,9.822144506999999,0.7089946300621445,0.24782628180768285,-0.18988833195847907,11.184088226059794,0.7746927326531156,-0.039520799500000425,-0.026281822000000066,0.13533177000000052
62112.0,3.587860969,-3.9151088794999995,9.905893297999999,0.735907607127897,0.17321694694342923,-0.1373958093754976,11.239552744774796,0.7684020597129202,-0.09218250999999977,-0.033538742999999815,0.08374879099999966
62122.0,3.4059476115,-3.8097854585,9.880788274,0.7295127207485899,0.08448615310128951,-0.10861707533936311,11.124069457158946,0.7423775244814066,-0.18191335750000004,0.10532342099999958,-0.025105023999998366
62132.0,3.2167773329999996,-3.7164261504999994,9.729961996999998,0.7140578302221801,0.029860838172370986,-0.10755242449564657,10.900992624769868,0.7227293951216154,-0.18917027850000023,0.09335930800000058,-0.15082627700000195
62142.0,3.1964775675,-3.7187797464999996,9.5048993795,0.7031338144339475,0.05091125428067459,-0.12327260506835949,10.695321587354389,0.7156711898443336,-0.020299765499999456,-0.002353596000000291,-0.225062617499999
62152.0,3.2084416805,-3.6900462619999996,9.370842474,0.6951384611305615,0.16229293115519672,-0.14858686053928527,10.569920912920413,0.7291327250719389,0.011964112999999887,0.028733484500000017,-0.1340569054999996
62162.0,3.1270464854999998,-3.619438382,9.3564266985,0.6812822921989785,0.32563305986159,-0.1808300731406285,10.508162279293954,0.7764547422037946,-0.08139519500000025,0.07060787999999985,-0.014415775499999839
62172.0,3.0587922015,-3.4614532505,9.509704638,0.6559697820573048,0.4831141182690384,-0.21653601897792848,10.572244352045264,0.8429611223288938,-0.06825428399999955,0.15798513149999982,0.15327793950000057
62182.0,2.986909457,-3.353678167,9.88314187,0.6506395465217141,0.6011559715691709,-0.2578374903971223,10.855656524350593,0.9226052748090819,-0.07188274450000032,0.10777508349999998,0.3734372319999988
62192.0,2.9415046675,-3.36564228,10.310515677,0.6834150845449156,0.6270025524619549,-0.2882132006988316,11.237736924822126,0.9712132760801849,-0.04540478950000004,-0.011964112999999887,0.4273738070000004
62202.0,2.9114963185,-3.2806186244999997,10.7570124515,0.7510954622787517,0.5369383270712915,-0.312728095372344,11.616909496668267,0.9748056330207898,-0.030008349000000045,0.08502365550000013,0.4464967744999999
62212.0,2.8493221574999996,-3.101058863,11.046798959,0.8408943976231119,0.349348593737689,-0.32658426430392695,11.82230815321504,0.9673702029685297,-0.06217416100000017,0.17955976149999975,0.28978650750000057
62222.0,2.8852144965,-2.8844299644999998,11.1951735735,0.9274941444485666,0.13671164030871583,-0.3220551348950017,11.915381246595175,0.9912895492713095,0.03589233900000055,0.21662889850000022,0.14837461449999978
62232.0,3.0599689994999997,-2.7263467665,11.1473171215,0.9821194593774851,-0.010108947027551158,-0.3039351266007966,11.87682853191007,1.0281232340919895,0.1747545029999995,0.15808319799999992,-0.04785645199999955
62242.0,3.2718907059999998,-2.6281822,10.9725626185,0.9871826595375207,-0.04608192824040628,-0.2812859888976661,11.7477547167665,1.027509102126139,0.21192170650000008,0.09816456649999994,-0.17475450300000084
62252.0,3.4322294335,-2.6258286039999996,10.789374396499998,0.9448147919453583,0.02586403418530397,-0.25757045502156717,11.622640603994343,0.9796358908508337,0.1603387275000001,0.002353596000000291,-0.18318822200000184
62262.0,3.4742018954999994,-2.5575743199999996,10.722296910499999,0.8726035394733449,0.16016013880925967,-0.2346542819428816,11.557634543882111,0.9176877678159059,0.04197246199999949,0.068254284,-0.06707748599999874
62272.0,3.426247377,-2.5504154655,10.830071993999999,0.7990588554528079,0.2928592671676405,-0.21840003061905844,11.641917777165585,0.878612644012095,-0.04795451849999921,0.007158854499999645,0.10777508349999998
62282.0,3.2539445364999997,-2.5827774105,11.0096317555,0.7439012151020311,0.3485492329402756,-0.20534322248488884,11.76736527819721,0.8467829855600616,-0.17230284050000044,-0.03236194499999989,0.1795597615000002
62292.0,3.0707563145,-2.5456102069999997,11.143688660999999,0.7015350928391207,0.33469306400869264,-0.20587729323599913,11.836024359654052,0.8040873046196552,-0.18318822199999962,0.037167203500000134,0.1340569054999996
62302.0,2.9618044329999997,-2.4606846179999997,11.167616886999998,0.6567691428547182,0.32749881683197196,-0.23119154870692488,11.812828671550594,0.769448318099383,-0.10895188150000035,0.08492558900000002,0.023928225999998887
62312.0,2.9917147155,-2.418712156,11.0563114095,0.5992134201117012,0.3501479545351024,-0.2618342943841893,11.70651730517498,0.7417664798457426,0.029910282500000385,0.04197246199999993,-0.11130547749999842
62322.0,2.951017118,-2.279849992,10.9162724475,0.5483178737942945,0.3991777438821271,-0.281018953522111,11.53565005384608,0.734143728551694,-0.040697597499999905,0.13886216399999984,-0.14003896199999843
62332.0,2.913947981,-2.137457434,10.765446170499999,0.5259357714667193,0.45646643124958897,-0.28021959272469754,11.355820021824446,0.7506617472023097,-0.03706913700000003,0.14239255800000006,-0.15082627700000195
62342.0,2.860011406,-2.0607694309999998,10.6960150885,0.5333970540189951,0.5105594207566493,-0.2543730118319136,11.261934765554887,0.7809538837267838,-0.053936575000000264,0.07668800300000012,-0.06943108199999948
62352.0,2.7151671855,-1.9818258985,10.83242559,0.588819984416075,0.5499951352054611,-0.2050779324385857,11.342010884321535,0.8314208207464528,-0.1448442205,0.07894353249999986,0.13641050150000034
62362.0,2.48892777,-1.9614280665,11.0910269505,0.6892776455023646,0.5236162288908188,-0.14059325256515123,11.5348532856317,0.8769515895498304,-0.22623941549999982,0.020397832000000005,0.25860136050000015
62372.0,2.1550113375,-1.917200075,11.434651966499999,0.8094522911484341,0.40983646962405645,-0.07850840041320893,11.792836621751183,0.9106824432340838,-0.33391643250000014,0.0442279914999999,0.34362501599999895
62382.0,1.922691799,-1.8549278475,11.7147298905,0.9128386147195703,0.2576856467521988,-0.034807101272522914,12.015506542828186,0.9491510751003966,-0.23231953849999987,0.062272227500000055,0.2800779240000004
62392.0,1.8353145475,-1.7962840805,11.8979181125,0.9693296866188706,0.15882845258998796,-0.015889477510156375,12.171913218466456,0.9823843413900253,-0.0873772515000002,0.05864376699999996,0.18318822200000007
62402.0,1.9274970574999999,-1.7195960774999999,11.888307595499999,0.9570722392821145,0.1519012407888225,-0.02015157154352653,12.165694105214364,0.9692612361965884,0.09218251,0.07668800300000012,-0.009610517000000485
62412.0,2.0100690505,-1.676544884,11.860750908999998,0.8880584299997547,0.22864162266976115,-0.03454181122621978,12.146134877449239,0.9176698226668885,0.08257199299999995,0.04305119349999997,-0.027556686500000538
62422.0,2.0783233345,-1.6454578034999998,11.949403024999999,0.7979942046090913,0.3608066802770317,-0.041203732981082125,12.239901630311632,0.8767405310203269,0.068254284,0.031087080500000086,0.08865211600000045
62432.0,2.1142156735,-1.6466346015,12.143280495499999,0.743635925055728,0.4932387732598575,-0.04466646621703888,12.435456349379416,0.8934617897172186,0.035892339000000106,-0.0011767980000001454,0.19387747050000037
62442.0,2.0902874474999997,-1.6801733445,12.3970765975,0.7465663328698265,0.5670487473266977,-0.04146902302738527,12.683839806818224,0.9384163527402555,-0.02392822600000022,-0.03353874300000004,0.2537961020000008
62452.0,2.0447845915,-1.6873321989999999,12.704711207999999,0.7961284476387095,0.5601215355255321,-0.02841221489321569,12.97836356610874,0.9738397679568439,-0.0455028559999997,-0.007158854499999867,0.3076346104999992
62462.0,2.026838422,-1.6788984799999997,13.0651055955,0.8840616260126877,0.4793826043282745,-0.005497787143782138,13.327556352032701,1.0056852716353335,-0.017946169500000053,0.008433719000000117,0.3603943875000013
62472.0,2.1561881355,-1.6430061409999999,13.3475371155,0.9725271298085243,0.34055562496614156,0.015287338918218332,13.620035370904318,1.0305439605571836,0.1293497134999999,0.035892338999999884,0.2824315199999994
62482.0,2.5978796514999996,-1.620254713,13.9916378875,1.0639230414184595,0.17961183332273645,0.004096287754430691,14.32271394651174,1.0789853698285379,0.4416915159999997,0.02275142799999985,0.6441007719999998
