timestamp,ax,ay,az,gx,gy,gz,acc_mag,gyro_mag,dax,day,daz
40952.0,-1.4565817245,-3.476849691,7.3776408615,-0.15813730220619823,-0.3285844116267124,-0.0802397670311873,8.28490789177699,0.373381228942145,0.0,0.0,0.0
40962.0,-1.5703388644999998,-3.5271578055,6.344510283999999,-0.1221643209933431,-0.2577048453739707,-0.11221594425697541,7.426952071882548,0.3064772859421581,-0.11375713999999992,-0.050308114499999945,-1.0331305775000006
40972.0,-1.3572403599999998,-3.34995164,6.309794742999999,-0.06833836686183797,-0.13219996419231048,-0.13726316435234603,7.271711427438664,0.2024552770510329,0.2130985045,0.1772061654999999,-0.03471554099999974
40982.0,-1.3308604714999999,-3.1201818305,6.423551883,0.03851243527450687,0.04419697264825241,-0.16764061998330734,7.26420973290119,0.17759492540731878,0.02637988849999995,0.22976980950000003,0.11375714000000059
40992.0,-1.6002491469999998,-2.841182638,6.7396202125,0.18106918324815172,0.17263226164401113,-0.1703057377511027,7.48702856436954,0.30264168779833756,-0.2693886754999999,0.27899919250000016,0.3160683295000002
41002.0,-1.806188797,-2.7142845870000003,7.199257898,0.33641744930966305,0.18835418754597605,-0.1492535763135471,7.903098953673138,0.4134375771606982,-0.20593965000000014,0.1268980509999995,0.4596376854999997
41012.0,-1.81815291,-2.7945029839999997,7.6398706825,0.47497739329624084,0.09722356598234413,-0.1284701955807986,8.335619411720366,0.5015581093725668,-0.01196411300000011,-0.08021839699999944,0.44061278449999985
41022.0,-1.6565393179999999,-2.9369936084999995,7.909161291499999,0.5802312191670108,-0.057857664703612026,-0.13912892132272797,8.597958263646765,0.5994769668714697,0.16161359200000014,-0.14249062449999972,0.26929060899999957
41032.0,-1.3392941905,-3.071050514,7.9295591235,0.6401850243022681,-0.2022801696476388,-0.17456783178447285,8.608308084712629,0.6937060330338097,0.3172451274999999,-0.1340569055000005,0.02039783200000045
41042.0,-1.03165958,-3.0076014885,7.7714759255,0.6513760754660557,-0.2819527046719279,-0.22333058575594242,8.39677475363364,0.7440864666794232,0.30763461050000007,0.06344902549999976,-0.15808319799999992
41052.0,-0.848471358,-2.7765568144999997,7.570341534,0.6351218241422325,-0.2752907829170656,-0.26090228856362435,8.107973996683649,0.7397531688601169,0.18318822199999996,0.2310446740000005,-0.20113439150000012
41062.0,-0.7742350175,-2.5874846024999996,7.381269322,0.6148707688313424,-0.2038788912424656,-0.268096535740345,7.859876158973253,0.7010766128844103,0.07423634049999994,0.18907221200000013,-0.18907221200000013
41072.0,-0.8424893014999999,-2.3898806049999997,7.368128411,0.6034126822919995,-0.08929977117828988,-0.24917716664872644,7.791702882572109,0.6589162121714776,-0.06825428399999989,0.1976039974999999,-0.01314091099999981
41082.0,-1.068728717,-2.2870088465,7.499733654,0.6058107646842398,0.03060783909222456,-0.21880145634701714,7.913191228287733,0.6448392045469743,-0.22623941550000004,0.10287175849999963,0.1316052430000001
41092.0,-1.2841808175,-2.3217243874999998,7.718814215,0.612205651063547,0.13319654719519924,-0.19561824789277646,8.16208413269756,0.6563562891353325,-0.21545210050000008,-0.03471554099999974,0.21908056100000017
41102.0,-1.497279322,-2.4006679199999996,8.012131116499999,0.6103398940931651,0.1971471563175235,-0.19828336566057178,8.497016938796428,0.671340510220727,-0.2130985045,-0.07894353249999986,0.293316901499999
41112.0,-1.5954438885,-2.5766972874999996,8.298191097,0.5922216311282119,0.22006332939620904,-0.23318995070045836,8.834295987518866,0.6734477577576352,-0.09816456649999994,-0.17602936749999998,0.28605998050000103
41122.0,-1.5919134945,-2.7142845870000003,8.664567541,0.5642422578894908,0.18515674435632246,-0.2950095128060975,9.218256888682792,0.663085935769229,0.0035303939999999923,-0.1375872995000007,0.36637644400000013
41132.0,-1.5152254915,-2.6951616195,8.987794724999999,0.5485220773167779,0.08709716566227303,-0.34963482773501603,9.504749258347381,0.6562826360156186,0.0766880029999999,0.01912296750000042,0.3232271839999985
41142.0,-1.290162874,-2.6233769415,9.100277000499998,0.5405267240133919,-0.06132214326882077,-0.3730833262355599,9.558329786341917,0.6596368038115524,0.22506261750000012,0.07178467799999977,0.11248227549999967
41152.0,-0.9921387804999999,-2.419888954,8.945822263,0.5184116570613717,-0.18575888294826048,-0.36668843985625266,9.320297091329744,0.6616021619489431,0.29802409350000003,0.20348798749999997,-0.15445473749999827
41162.0,-0.7873759284999999,-2.169623246,8.653780226,0.47471210324993773,-0.2084097659806429,-0.3304484232678424,8.956290419714707,0.6148027097925717,0.204762852,0.25026570800000014,-0.29204203699999987
41172.0,-0.7252017675,-1.9996740014999999,8.365268582999999,0.4211531844939877,-0.13219996419231048,-0.26916293191331353,8.631473349410687,0.5170063048532832,0.06217416099999995,0.16994924450000015,-0.2885116430000014
41182.0,-0.8652407295,-1.8811116029999997,8.2312116775,0.37372211674178984,0.011955505376161158,-0.20068144805281202,8.487642079090003,0.42436328569203174,-0.140038962,0.11856239850000017,-0.1340569054999996
41192.0,-1.19444997,-1.7842219009999998,8.378409494,0.37372211674178984,0.16090713972911322,-0.13726316435234603,8.649156269370462,0.42941879843084135,-0.3292092405,0.09688970199999991,0.1471978165000003
41202.0,-1.5834797754999999,-1.7231264714999999,8.790190727499999,0.439538482834496,0.2405796747534024,-0.08237255937712437,9.096374336076353,0.507797101542773,-0.3890298054999999,0.06109542949999991,0.4117812334999993
41212.0,-1.9198478705,-1.7088087624999997,9.407911611,0.5607795246535341,0.19954523870976368,-0.028014279823760983,9.752673690483485,0.5958831911007594,-0.3363680950000001,0.014317709000000178,0.6177208835000005
41222.0,-2.120982262,-1.9182788065,10.0017042685,0.6932098723071078,0.008491026810952413,0.019682077974740052,10.402521214095975,0.6935412091532448,-0.20113439150000012,-0.20947004400000035,0.5937926574999999
41232.0,-2.0910719795,-2.181587359,10.365629049999999,0.8048585845571851,-0.3152605681169877,0.05245761599794157,10.797137168277642,0.8659898200446866,0.02991028249999994,-0.26330855249999985,0.36392478149999974
41242.0,-1.794224684,-2.3456526135,10.500862753499998,0.8978532177619469,-0.6677908970810624,0.06391570253728435,10.908228406470862,1.1207900338157217,0.2968472955000001,-0.1640652545000001,0.13523370349999908
41252.0,-1.382345384,-2.482063115,10.405149849499999,0.9674010977954169,-0.9361178162826705,0.0604512239720756,10.786040026722478,1.3475295174716344,0.41187930000000006,-0.1364105014999999,-0.0957129039999991
41262.0,-0.9478127224999999,-2.4413655175,10.0842762615,0.9658023762005902,-1.0474994931571928,0.025811674307744142,10.418792745093997,1.4250247929667228,0.43453266150000003,0.040697597499999905,-0.32087358799999954
41272.0,-0.826896728,-2.1624643915,9.624638575999999,0.8754711154343717,-0.9806167308915181,-0.03600788779789501,9.899175630420437,1.3150495864597413,0.1209159944999999,0.27890112600000005,-0.4596376855000006
41282.0,-0.8700459879999999,-1.9026862329999998,9.2283518495,0.7265177357521675,-0.7615848910832376,-0.09676105373056562,9.462540503514512,1.0569778939068557,-0.043149259999999856,0.2597781585000001,-0.39628672649999963
41292.0,-1.1118779769999998,-1.7447011015,9.0512437505,0.578632497572184,-0.45835138684174287,-0.15218572945689757,9.284679208259067,0.7536989168870422,-0.24183198899999991,0.15798513149999982,-0.1771080989999998
41302.0,-1.4781563545,-1.7757881819999999,9.2475728835,0.48616844446002844,-0.17989806732006353,-0.21027377762177285,9.531840017086108,0.559408734799081,-0.36627837750000025,-0.031087080499999864,0.19632913300000077
41312.0,-1.8228601019999997,-1.9350481779999997,9.684459141,0.4813722796755481,-0.0024329889772800955,-0.2744914221196522,10.042707765156916,0.5541396321259352,-0.34470374749999966,-0.15925999599999985,0.43688625749999943
41322.0,-2.07312581,-2.0440000595,10.175281973499999,0.5533182421012584,0.04766145121346115,-0.34856843156204753,10.583579267315864,0.6556924907724853,-0.25026570800000036,-0.10895188150000035,0.49082283249999925
41332.0,-2.1508925445,-2.0343895425,10.6014789825,0.6740252131691862,-0.02641555822893418,-0.42744160578892326,11.00710843795991,0.7985700320345902,-0.07776673449999993,0.00961051700000004,0.4261970090000009
41342.0,-2.1150002055,-1.7698061254999997,10.930688222999999,0.8184477181132129,-0.1764335887548548,-0.4972547758686965,11.273215362954495,0.9737801551941127,0.035892339000000106,0.2645834170000003,0.3292092404999991
41352.0,-1.8827787335,-1.383129916,11.1951735735,0.9612715014624129,-0.32378650151298005,-0.5524124162194732,11.436337502218391,1.155006526249637,0.23222147199999998,0.3866762094999998,0.2644853505000011
41362.0,-1.54160538,-1.014399876,11.337664197999999,1.0601286956246239,-0.3935996715927532,-0.5851862089134228,11.486870057708702,1.2732778376564768,0.3411733534999999,0.36873004,0.14249062449999883
41372.0,-1.3034018514999999,-0.4996488175,11.475349564,1.078515739294384,-0.3864054244160326,-0.589450048276045,11.559937410873719,1.2883930733035156,0.23820352850000015,0.5147510584999999,0.13768536600000125
41382.0,-1.1537523725,-0.022064962499999997,11.56988567,1.0206929811758119,-0.3264516192807754,-0.5553428240335717,11.62729056214262,1.206975755248708,0.1496494789999998,0.477583855,0.09453610599999962
41392.0,-1.0771624359999998,0.2101565095,11.676483955499998,0.9167725868535654,-0.22439698192891094,-0.49032581873827896,11.727946207033163,1.063600202156029,0.07658993650000023,0.232221472,0.10659828549999872
41402.0,-1.1082495165,0.1371950335,11.7459150375,0.7736817681288103,-0.11221594425697541,-0.41065328371398985,11.798879588173115,0.8830696551832644,-0.031087080500000086,-0.072961476,0.06943108200000125
41412.0,-1.208767679,-0.14778621549999998,11.762684408999998,0.6143384434094841,-0.03760660939272182,-0.3421735451827403,11.825553034552698,0.7042078635912336,-0.10051816250000001,-0.284981249,0.016769371499998798
41422.0,-1.382345384,-0.433846196,11.832115490999998,0.48910059760337893,-0.04746597433723778,-0.3016714345609599,11.92048901156374,0.5766091117263351,-0.17357770500000003,-0.28605998050000003,0.06943108199999948
41432.0,-1.565533606,-0.5547621905,11.834469086999999,0.44246889064859446,-0.1548508472246929,-0.2878152656293769,11.950452507360644,0.5500864761174481,-0.18318822200000007,-0.12091599449999996,0.002353596000000735
41442.0,-1.65536252,-0.488959569,11.821328176,0.5088193274924109,-0.33711034502270476,-0.2950095128060975,11.946677629258643,0.6779167392808997,-0.08982891399999993,0.06580262149999999,-0.013140910999998923
41452.0,-1.575144123,-0.2878251775,11.700412181499999,0.6561722402505361,-0.5326936863304413,-0.3232541760911218,11.809469402052656,0.9048855367901909,0.08021839699999989,0.2011343915,-0.12091599450000068
41462.0,-1.3045786495,-0.0328522775,11.448969675499999,0.7859392154655666,-0.6707213048951608,-0.36109291427435886,11.523103373457461,1.0945115860446828,0.27056547350000004,0.25497289999999995,-0.25144250600000007
41472.0,-0.984979926,0.249677309,11.092301814999999,0.8243102790706619,-0.7032298075428072,-0.39786351095537537,11.138746956830678,1.154259490646702,0.31959872350000007,0.2825295865,-0.3566678605
41482.0,-0.6652831359999999,0.388539473,10.8827337045,0.7800766545081175,-0.615296629168829,-0.4157164838740254,10.909970552489378,1.0770003359979436,0.31969679000000006,0.13886216400000004,-0.20956811049999935
41492.0,-0.431884866,0.36578804499999995,10.87557485,0.6942762684800763,-0.4186486370173758,-0.4074558405243362,10.89029172011922,0.9073623753652775,0.2333982699999999,-0.022751428000000073,-0.007158854500000089
41502.0,-0.4019745835,0.3574523925,11.045622160999999,0.5983494821319639,-0.1671065492321971,-0.3786788518174537,11.058712615049648,0.7275605640616232,0.029910282499999996,-0.008335652499999957,0.17004731099999937
41512.0,-0.5528008605,0.42443181199999996,11.3459998505,0.5013580449401351,0.05298994141979983,-0.33844203124197647,11.367385089014675,0.6072156384918486,-0.150826277,0.06697941949999997,0.3003776895000012
41522.0,-0.757465646,0.551329863,11.717181553,0.42994615326553515,0.18835418754597605,-0.30007271296613314,11.7545762309268,0.5571127603464051,-0.2046647855,0.126898051,0.3711817024999995
41532.0,-1.0016512309999999,0.689015229,12.1517142145,0.41395719198801506,0.21153565067096475,-0.26729717494293154,12.212379191838055,0.53624217293669,-0.24418558499999987,0.13768536600000003,0.43453266150000047
41542.0,-1.1549291705,0.7896314579999999,12.5120105355,0.45046249862272847,0.1172075859176792,-0.23425634687342692,12.589987564282897,0.5210855178495801,-0.15327793950000013,0.10061622899999989,0.36029632099999986
41552.0,-1.1884679135,0.8458235624999999,12.702357611999998,0.49602780940454444,-0.043469170350170776,-0.19615231864388671,12.78584226335651,0.5351718308945045,-0.03353874300000004,0.056192104500000006,0.19034707649999838
41562.0,-1.0064564894999999,0.8650445964999999,12.705986072499998,0.5202756687025016,-0.2148046523599501,-0.1532521256298661,12.775106218492057,0.5833644008074084,0.18201142400000014,0.01922103399999997,0.003628460499999875
41572.0,-0.7946328495,0.8446467645,12.5335851655,0.4901669937763475,-0.30433480699950327,-0.11541338744662903,12.587121458980464,0.5883906920924842,0.21182363999999987,-0.020397831999999894,-0.17240090699999833
41582.0,-0.6018341105,0.7908082559999999,12.307345749999998,0.4030331761997826,-0.29287846578941246,-0.07571063762226203,12.347402212788005,0.5039301910880261,0.192798739,-0.05383850850000005,-0.22623941550000204
41592.0,-0.48091811599999995,0.849452023,12.012852050499998,0.27939405198850426,-0.18655998907492588,-0.041870448755343966,12.052446447127561,0.3385539843055541,0.12091599450000007,0.05864376700000007,-0.29449369950000026
41602.0,-0.44865423749999994,0.872203451,11.810540861,0.13710259406116257,-0.01655619328441821,-0.014690436314036272,11.851198458979313,0.1388777799126545,0.03226387850000001,0.022751427999999962,-0.20231118949999782
41612.0,-0.5671185695,0.930847218,11.759055948499999,0.020392426980301748,0.19581372476899983,-0.0024329889772800955,11.809466406873906,0.19688774802262357,-0.118464332,0.05864376700000007,-0.0514849125000012
41622.0,-0.8987794724999999,0.9236883634999999,11.8392743455,-0.07047115920777504,0.3876672974652245,-0.010161306905110988,11.909215833171684,0.39415145561331916,-0.33166090299999995,-0.007158854500000089,0.08021839700000122
41632.0,-1.253093737,0.8147364819999999,11.91704108,-0.13468880370565442,0.49691792732306156,-0.030679397591556325,12.010408300770543,0.515761306977645,-0.35431426450000003,-0.10895188150000001,0.07776673450000082
41642.0,-1.484138411,0.6052664379999999,11.967349194499999,-0.16080241997399358,0.5270266022492157,-0.05705830390619862,12.074206434671995,0.5539585794917321,-0.23104467400000006,-0.20947004400000002,0.05030811449999817
41652.0,-1.614566856,0.4053088445,11.901546573,-0.15307410204616267,0.5038451391242271,-0.08530296719122286,12.01740039364636,0.5334493426258745,-0.13042844499999995,-0.19995759349999992,-0.0658026214999996
41662.0,-1.679290746,0.2903749065,11.767391601,-0.11976623860110289,0.44442365941082806,-0.1058210578776682,11.890157277648242,0.47228639324367244,-0.06472389,-0.11493393800000001,-0.13415497199999926
41672.0,-1.6864496005,0.2988086255,11.6105832675,-0.0670066806425663,0.36421879896468073,-0.11834554058997951,11.736227786697512,0.38878129552171603,-0.007158854500000089,0.008433719000000006,-0.15680833350000078
41682.0,-1.6768390835,0.29998542349999996,11.434651966499999,-0.005187118536927148,0.27841841293663944,-0.11834554058997951,11.560841066343222,0.30257129050590326,0.00961051700000004,0.001176797999999979,-0.17593130100000032
41692.0,-1.693608455,0.3143031325,11.268233116,0.060095176804668755,0.2032750073212756,-0.11328234042994395,11.399130388519374,0.24034360305598892,-0.016769371499999908,0.014317709000000067,-0.1664188504999995
41702.0,-1.6972369155,0.3131263345,11.0563114095,0.1325734646522373,0.13852503740153793,-0.11727914441701097,11.190204789570798,0.22476500446506703,-0.003628460500000097,-0.0011767980000000344,-0.21192170650000008
41712.0,-1.6505572614999997,0.319108391,10.935395414999999,0.21810856063397538,0.07723954604700906,-0.13193467414600735,11.063861998465995,0.2663532427761781,0.04667965400000029,0.005982056499999999,-0.12091599450000068
