timestamp,ax,ay,az,gx,gy,gz,acc_mag,gyro_mag,dax,day,daz
108262.0,0.8885805564999999,-3.2800302254999996,9.0747797105,-0.049778535596130276,0.03642153083061767,-0.023504349036607638,9.690190941342998,0.0660067037336021,0.0,0.0,0.0
108272.0,0.8550418135,-3.4835182129999995,9.1646086245,-0.07056191632887876,-0.0192684349420174,-0.01124690169985146,9.841546976131132,0.07400506346841793,-0.033538742999999926,-0.20348798749999997,0.08982891399999993
108282.0,0.9460475254999999,-3.58531124,8.9419976695,-0.09560913642424937,-0.030993556856915305,-0.0011222467090323538,9.680329794460436,0.10051351636526056,0.09100571199999996,-0.10179302700000026,-0.2226109550000004
108292.0,0.894562613,-3.6966167175,8.673785792,-0.10999937610694262,-0.02193355270981274,0.01353328301996403,9.470996641862932,0.11297828653192259,-0.05148491249999998,-0.1113054775000002,-0.26821187749999886
108302.0,0.852590151,-3.7684013954999998,8.435582263499999,-0.11586019173513958,-0.005946336761544681,0.02605776573227534,9.278297643828004,0.11890311225843984,-0.04197246199999993,-0.07178467799999977,-0.23820352850000148
108312.0,0.7927695859999999,-3.852248253,8.332612438499998,-0.09241169323459576,0.01217367153266045,0.02792352270265728,9.214159227486416,0.09730283883420851,-0.0598205650000001,-0.0838468575000002,-0.10296982500000063
108322.0,0.7449131339999999,-3.8690176244999996,8.360169125,-0.03539004124268902,0.019367918709381073,0.016997761585172775,9.242111271484488,0.04377779337973533,-0.047856451999999994,-0.016769371499999686,0.027556686500002314
108332.0,0.735302617,-3.8713712205,8.347028214,0.02829527783333207,0.030026644451310446,-0.001387536755335492,9.230442300929827,0.0412813200239318,-0.00961051699999993,-0.002353596000000291,-0.013140911000000699
108342.0,0.7724698205,-3.8246915665,8.430777005,0.0719948316447661,0.043348742631783156,-0.01870818425212722,9.289939510592966,0.08609509526869884,0.03716720350000002,0.04667965400000007,0.08374879099999966
108352.0,0.8346439815,-3.8582303094999997,8.513348998,0.08931547914155782,0.05880363315819295,-0.027235862977371513,9.38401208752132,0.11034905672008047,0.06217416099999995,-0.033538742999999815,0.08257199300000018
108362.0,0.8299367894999999,-3.919325739,8.560028652,0.07998843961890012,0.06813067268085064,-0.022437952863639102,9.451137489530792,0.1074402194772634,-0.004707192000000027,-0.06109542950000035,0.04667965400000007
108372.0,0.805910497,-4.0090565865,8.416459296,0.060004419683565055,0.048411942791818714,-0.00778416846389471,9.35728665394828,0.07749090182153019,-0.02402629249999999,-0.08973084749999982,-0.14356935600000043
108382.0,0.8095389574999999,-4.1623345259999995,8.1578579355,0.05121145091201762,0.011374310735247044,0.009004153611038746,9.194075708076486,0.05322652000147228,0.003628460499999986,-0.15327793949999968,-0.25860136050000015
108392.0,0.7987516424999999,-4.3214964555,7.896902978999999,0.07332826319328975,-0.01687035254977719,0.02072753019668466,9.03738969288337,0.07804661098441508,-0.010787315000000075,-0.15916192950000063,-0.2609549565
108402.0,0.7952212484999999,-4.4244662805,7.657424585999999,0.12608782115182635,-0.033658674624710644,0.02286032254262173,8.879438607908986,0.1324901481886853,-0.0035303939999999923,-0.10296982499999974,-0.23947839299999973
108412.0,0.7999284405,-4.358663659,7.481493285,0.1895043595230403,-0.03525739621953745,0.019395843977412983,8.695434214328122,0.19372966997859495,0.004707192000000138,0.0658026214999996,-0.17593130099999943
108422.0,0.8299367894999999,-4.244906519,7.339002660499999,0.2545213648183331,-0.01580570170606065,0.015666075365901103,8.518743245364327,0.2554924094230161,0.030008348999999934,0.11375714000000059,-0.1424906245000006
108432.0,0.9160391765,-4.153900807,7.368912943,0.30781499352798,0.02842792285648364,0.016465436163314504,8.50851912196188,0.3095631238158265,0.08610238700000006,0.0910057119999994,0.029910282500000385
108442.0,1.014203743,-4.078487668499999,7.598780819,0.33605965681300415,0.09557597516846147,0.024724334183751674,8.683555771089633,0.3502601214347793,0.09816456649999994,0.07541313850000098,0.22986787600000014
108452.0,1.0776527685,-4.0761340725,7.9064154295,0.3104783659665233,0.16112530588561252,0.04604178566761041,8.9603353402809,0.3528144355853892,0.06344902549999998,0.0023535959999989586,0.30763461050000007
108462.0,1.0968738025,-4.109574749,8.175804105,0.23187222711520267,0.2021614872585032,0.07135604113853616,9.216046306283626,0.31579373211781536,0.01922103400000008,-0.03344067649999971,0.26938867549999923
108472.0,0.9711525495,-3.993464013,8.3314356405,0.1348807899233738,0.20322613810221973,0.09667029660946193,9.289979113502897,0.26237156275949025,-0.12572125300000003,0.11611073599999999,0.1556315355000013
108482.0,0.8299367894999999,-3.977969506,8.270340210999999,0.06559994526545887,0.15872722349337232,0.1158549557473836,9.214747075797304,0.20717155950558072,-0.14121576000000002,0.015494507000000102,-0.061095429500001686
108492.0,0.7389310775,-3.967182191,8.1243191925,0.035489525010052696,0.09077981038398106,0.1283794384596949,9.07133485301401,0.16118858699677624,-0.09100571199999996,0.010787314999999964,-0.14602101849999904
108502.0,0.7197100434999999,-3.8977511089999997,7.927990059499999,0.06187017665394699,0.02523047966683003,0.13024345010082483,8.863603817745709,0.14638255414350093,-0.01922103400000008,0.06943108200000037,-0.19632913300000077
108512.0,0.709020795,-3.9253077954999998,7.711361161,0.12235630721106248,-0.02246587813167101,0.13504136021455726,8.681926210958878,0.18360814405454026,-0.01068924849999986,-0.027556686500000094,-0.2166288984999989
108522.0,0.7113743909999999,-3.8941226485,7.4982626565,0.19190244191528052,-0.04351803956922661,0.1406368857964511,8.479044025808198,0.24186587321803052,0.002353595999999847,0.03118514699999997,-0.21309850450000045
108532.0,0.7293205605,-3.830673623,7.4515830025,0.26971096529843974,-0.033658674624710644,0.1369053718556872,8.410235319482023,0.3043353282526567,0.017946169500000164,0.06344902549999976,-0.04667965400000007
108542.0,0.8334671834999999,-3.8079221949999997,7.493457397999999,0.32513389569551965,0.01910088333382594,0.13504136021455726,8.446706030446778,0.35258057638343504,0.10414662299999988,0.022751428000000296,0.04187439549999983
108552.0,0.875341579,-3.76967626,7.5102267695,0.3112777267639367,0.10277022234518211,0.13557368563641553,8.448679666933065,0.3547333731371265,0.04187439550000005,0.03824593499999995,0.016769371500000574
108562.0,0.8274851269999999,-3.4344849629999996,7.5700473345,0.2582528787590969,0.19017107529730215,0.13797176802865574,8.353803639244214,0.34913578453095606,-0.047856452000000105,0.33519129700000017,0.05982056499999988
108572.0,0.6132098245,-2.8622669355,7.684981272499999,0.24892583923643924,0.2799682653124104,0.1142562341525568,8.22359626061467,0.39166412915191723,-0.21427530249999993,0.5722180274999995,0.11493393799999918
108582.0,0.525832573,-2.6875124325,7.902885035499999,0.29768859320790886,0.3692331299056604,0.08228180225602068,8.363899500472234,0.4813750073783775,-0.08737725149999997,0.17475450299999995,0.2179037629999998
108592.0,0.4947454925,-2.6372043179999998,8.0441007955,0.3344609352181774,0.47555160662014695,0.048174578013547485,8.479809981679463,0.5833817255560927,-0.031087080499999975,0.05030811450000039,0.14121576000000147
108602.0,0.3713778355,-2.6443631725,8.119513934,0.337658378407831,0.5725447891412279,0.013800318395519163,8.547343716570376,0.664839202265929,-0.12336765700000002,-0.007158854500000089,0.07541313850000009
108612.0,0.33911395699999997,-2.7641023689999997,8.2261122195,0.33286221362335056,0.6327638843227882,-0.001387536755335492,8.684709691748527,0.7149750427950246,-0.03226387850000001,-0.11973919649999987,0.10659828549999872
108622.0,0.304398416,-3.0430034950000002,8.2608277605,0.3168749976750825,0.6490181356466114,0.009269443657341885,8.808734526303592,0.7223020331796827,-0.03471554099999996,-0.2789011260000005,0.03471554100000063
108632.0,0.20741064749999996,-3.481164617,8.2033607915,0.2811690518377825,0.5829364795076021,0.04630882104316555,8.91384622611747,0.6488570580324163,-0.09698776850000004,-0.4381611219999999,-0.057466969000000034
108642.0,0.040991796999999996,-3.8798049394999996,7.920831204999999,0.23054054089593098,0.41399907989006296,0.09134006107387124,8.820098280296634,0.4825838641141928,-0.16641885049999997,-0.3986403224999995,-0.2825295865000008
108652.0,-0.09787036699999999,-4.1156548719999995,7.344984716999999,0.20362756383017844,0.17285042780051044,0.12571432069189956,8.420035280633781,0.29520424381986554,-0.13886216399999998,-0.23584993249999986,-0.5758464879999998
108662.0,-0.25467870049999997,-3.8941226485,6.741679608999999,0.2499922354094078,-0.07655886763873126,0.14090217584275422,7.789691675057197,0.29700303220058205,-0.15680833349999998,0.22153222349999968,-0.6033051079999998
108672.0,-0.3911872685,-3.263260854,6.267626148,0.3882868893496825,-0.2652132518160504,0.12358327367521449,7.077078239738389,0.48618679837278517,-0.13650856800000005,0.6308617944999999,-0.47405346099999957
108682.0,-0.4174690904999999,-2.6875124325,6.005494393499999,0.581737438311482,-0.35767730492820593,0.08388052385084747,6.592644873396783,0.6880315718594625,-0.0262818219999999,0.5757484214999997,-0.26213175450000037
108692.0,-0.30018155649999995,-2.3342768995,5.9515578185,0.7687948462232261,-0.3475509046081348,0.028188812748960415,6.399999849793012,0.8441751927399446,0.11728753399999997,0.3532355330000003,-0.05393657499999893
108702.0,-0.07394214099999999,-2.106860686,6.1563206705,0.9057560686149773,-0.21165433306010034,-0.031232666964438528,6.507273898373544,0.9306809829483392,0.22623941549999996,0.22741621349999974,0.204762852
108712.0,0.29841635949999995,-1.979962635,6.569278702,0.9395962574818952,0.03695385625247594,-0.07946135018479784,6.8676580450808835,0.9436741072738531,0.37235850049999997,0.12689805100000018,0.41295803149999966
108722.0,0.6012457115,-1.804031334,7.090011816999999,0.8394073771004128,0.3519124824088687,-0.09518327608676275,7.3405921440201665,0.9151540832299093,0.302829352,0.17593130099999987,0.5207331149999987
108732.0,0.6347844544999999,-1.5370943209999999,7.678999215999999,0.6267704236714396,0.6516832534144068,-0.069869020615837,7.857012104779648,0.9068703914076576,0.033538742999999926,0.26693701300000017,0.5889873990000005
108742.0,0.49709908849999995,-1.217397531,8.293091639,0.38242432839223356,0.8376742651531824,-0.014444344889505072,8.3966977547798,0.9209534084553148,-0.13768536599999992,0.31969678999999984,0.6140924230000007
108752.0,0.343821149,-0.9936097779999998,8.7671451,0.1863069163333867,0.8475336300976984,0.06122964081846507,8.829966397325128,0.8699267728579205,-0.15327793949999996,0.2237877530000002,0.47405346100000045
108762.0,0.18701281549999998,-0.7912985884999999,8.933563950499998,0.08025547499445526,0.729757066843869,0.15342665855506551,8.970490070614675,0.7500173714191728,-0.1568083335,0.20231118949999993,0.16641885049999772
108772.0,-0.193583271,-0.45130203299999994,9.122734228999999,0.11409566386137332,0.5197852311826913,0.2458889663379691,9.135941539916354,0.5862217079180592,-0.3805960865,0.33999655549999996,0.18917027850000068
108782.0,-0.745501533,-0.381870951,9.29866553,0.3224705232569763,0.21521829539267276,0.31117300700881706,9.336315043834647,0.4971265365400092,-0.551918262,0.06943108199999992,0.17593130100000032
108792.0,-0.9430074639999999,-0.4908228324999999,9.4662611785,0.6347640316455737,-0.10213841315596016,0.3178331834344274,9.52576877893009,0.7171998074490977,-0.1975059309999999,-0.1089518814999999,0.16759564850000075
108802.0,-0.9190792379999999,-0.6260565359999999,9.746437168999998,0.9174811905298751,-0.29958751143407863,0.2533502488902449,9.80967333407467,0.9978530756559957,0.023928225999999997,-0.13523370349999997,0.2801759904999983
108812.0,-0.7036271374999999,-0.544661341,10.026515093,1.071496025042863,-0.3318289787061699,0.14836345839502998,10.065920327280718,1.131470688342729,0.21545210049999997,0.08139519499999992,0.2800779240000022
108822.0,-0.43306166399999996,-0.3674551755,10.317380331999999,1.0608372993009334,-0.17035286164090654,0.043643703275370205,10.333000659342309,1.075314207984314,0.2705654735,0.17720616549999996,0.2908652389999986
108832.0,-0.28458898299999996,-0.15563153549999997,10.7088618,0.9334684064781432,0.10676702633224912,-0.04801924371011999,10.71377305693873,0.9407806926011859,0.148472681,0.21182364000000004,0.3914814680000003
108842.0,-0.2295736765,-0.06227222749999999,11.0859274925,0.7631993206413323,0.390283546013964,-0.11276921362985762,11.08847916858876,0.8645873841661823,0.05501530649999997,0.09335930799999997,0.37706569250000044
108852.0,-0.2797837245,0.08139519499999999,11.611465866,0.6094497761746479,0.5736094399849444,-0.14048155149302358,11.61512133675526,0.848641199582637,-0.05021004800000001,0.14366742249999997,0.5255383734999999
108862.0,-0.44865423749999994,0.196329133,12.11905807,0.5428340492845284,0.5800043263642516,-0.12529369634216891,12.128949017013936,0.8042215702199057,-0.16887051299999994,0.114933938,0.5075922039999998
108872.0,-0.631744393,0.0718827445,12.479354391,0.5793393559192418,0.39134994218693253,-0.07493222077587255,12.495541369753242,0.7031384673569221,-0.18309015550000002,-0.12444638849999999,0.36029632099999986
108882.0,-0.6963702165,-0.1005181625,12.705593806499998,0.6904539974182088,0.10889981867818618,-0.024837780585131305,12.725059895937298,0.6994303456408799,-0.06462582350000001,-0.172400907,0.2262394154999985
108892.0,-0.6808757095,-0.23584993249999997,12.727168436499998,0.8359428985352041,-0.16422501063715444,0.0023422318561763904,12.74755009142891,0.8519248028906543,0.01549450699999999,-0.13533176999999996,0.021574629999999928
108902.0,-0.5862415369999999,-0.2478140455,12.826509801,0.9417290498278323,-0.3134436803656616,0.007670722062515079,12.842291252576398,0.9925519553291723,0.09463417250000006,-0.011964113000000026,0.09934136450000253
108912.0,-0.5682953675,-0.2501676415,12.973805683999998,0.9505220185993799,-0.3206379275423823,-0.012313297872819996,12.98865571950255,1.0032210153926295,0.017946169499999942,-0.0023535959999999856,0.14729588299999818
108922.0,-0.52759777,-0.300475756,13.032449451,0.8404737732733814,-0.23803498470399465,-0.054946455511285484,13.046585138637733,0.8752576366285986,0.040697597500000016,-0.0503081145,0.05864376700000129
108932.0,-0.5144568589999999,-0.31724512749999995,12.933108086499999,0.6352963570674319,-0.07682590301428639,-0.11330328438096787,12.947223451682074,0.6498779230968112,0.013140911000000033,-0.016769371499999963,-0.09934136450000075
108942.0,-0.5300494325,-0.37706569249999994,12.775024888499999,0.4061398622683325,0.10943214410004445,-0.17885261509811892,12.791575033558162,0.4570702788555704,-0.015592573500000095,-0.05982056499999999,-0.15808319799999992
108952.0,-0.4976874875,-0.42855060500000003,12.67215313,0.22974118009851757,0.25891784920410676,-0.2244179258799349,12.68916125701099,0.4125322628907853,0.032361945,-0.05148491250000009,-0.10287175849999919
108962.0,-0.5300494325,-0.4596376855,12.5404498205,0.14100864092712587,0.3154071757741553,-0.23747473401410446,12.560059749193227,0.41923665469638227,-0.032361945,-0.031087080499999975,-0.13170330950000064
108972.0,-0.559959715,-0.44649677449999997,12.524857247,0.14926928427681505,0.28343274387761913,-0.22628193752106482,12.54531638938573,0.3921975965999738,-0.02991028249999994,0.013140911000000033,-0.015592573499999318
108982.0,-0.5420135454999999,-0.430904201,12.537998158,0.23826711349450988,0.1664555414212032,-0.20230111359866274,12.557103763366628,0.3541248440961049,0.017946169500000053,0.015592573499999984,0.013140911000000699
108992.0,-0.47738772199999996,-0.415409694,12.679311984499998,0.33872477458079947,0.009241518389309974,-0.16899325015360298,12.695094196234654,0.3786536638861845,0.06462582349999996,0.01549450699999999,0.14131382649999757
109002.0,-0.45816668799999993,-0.277724328,12.785812203499999,0.39814450896494646,-0.15836244967970547,-0.13302026894074784,12.797032516154886,0.448655889782542,0.019221034000000026,0.13768536599999998,0.10650021900000084
109012.0,-0.3372506935,-0.1591619295,12.709222266999998,0.39361537955602116,-0.3235700806857328,-0.09464920533565249,12.714692335329115,0.5182558597919301,0.12091599449999996,0.11856239850000003,-0.07658993650000134
109022.0,-0.271448072,-0.06227222749999999,12.444638849999999,0.31820668389435414,-0.435217047606558,-0.0496179653049468,12.447754737021436,0.5414160273610427,0.06580262149999999,0.096889702,-0.264583416999999
109032.0,-0.24506818349999998,-0.0993413645,12.0891477875,0.20549332080056035,-0.4722546796631297,-0.013112658670233398,12.092039585995442,0.515193098919977,0.026379888500000004,-0.03706913700000001,-0.35549106249999873
109042.0,-0.29057103949999996,-0.2705654735,11.609112269999999,0.08371995355966401,-0.44374472633180234,-0.001387536755335492,11.615899659600668,0.45157539573095196,-0.04550285599999998,-0.17122410899999999,-0.48003551750000106
109052.0,-0.303810017,-0.477583855,11.143394461499998,-0.034323645069720486,-0.3723310893279503,-0.014978415640615335,11.15776084120712,0.3742097080864061,-0.013238977500000026,-0.20701838150000001,-0.4657178085000009
109062.0,-0.3360738955,-0.5733948255,10.813008423,-0.1044038505250488,-0.29239326425735807,-0.04162435733081277,10.833414902283382,0.313251611505405,-0.03226387850000001,-0.09581097049999998,-0.3303860384999986
109072.0,-0.41511549449999996,-0.6440027055,10.584415411499998,-0.09747489339463132,-0.26175051858009357,-0.06587221662876999,10.612111475180798,0.28697358370210707,-0.07904159899999996,-0.07060788000000007,-0.228593011500001
109082.0,-0.37324109899999997,-0.7074517309999999,10.389263076499999,-0.03938684522975603,-0.2772054091065034,-0.0885213543319004,10.420008836004115,0.2936497787974827,0.041874395499999995,-0.06344902549999987,-0.1951523349999995
109092.0,-0.297729894,-0.6906823595,10.316203534,0.028562313208887205,-0.30225262920187396,-0.1071736880479638,10.343584512460843,0.32196064511845285,0.07551120499999997,0.016769371499999908,-0.07305954249999935
109102.0,-0.1983885295,-0.5674127689999999,10.352095873,0.08851611834414443,-0.32756688467279976,-0.11330328438096787,10.36953249779589,0.35773286317093145,0.0993413645,0.12326959050000008,0.035892339000000106
109112.0,-0.063154826,-0.45728408949999994,10.367688446499999,0.11356333843951505,-0.339824332009556,-0.1063743272505504,10.377960348461855,0.37375487416390435,0.1352337035,0.11012867949999999,0.015592573499999318
109122.0,0.014709975,-0.38304774899999994,10.420350157,0.09491100472345164,-0.3350264218958235,-0.09225112294341227,10.427398494153199,0.36022364146492936,0.077864801,0.0742363405,0.05266171050000068
109132.0,0.08649465299999999,-0.42374534649999995,10.383281019999998,0.04668057617384033,-0.3286315355165163,-0.08185943257703804,10.392283973408839,0.3418753121091075,0.07178467799999999,-0.040697597500000016,-0.03706913700000136
109142.0,0.16190779149999998,-0.442868314,10.323362388499998,-0.0010157816246606998,-0.31451007653863017,-0.08052774635776637,10.334125869215548,0.3246572623400018,0.07541313849999999,-0.019122967500000032,-0.05991863150000043
109152.0,0.211039108,-0.533874026,10.2766827345,-0.024197244749649387,-0.30731582936190954,-0.08479158572038852,10.292704552561162,0.31971571534544674,0.04913131650000002,-0.09100571200000002,-0.046679653999998294
109162.0,0.32469818149999996,-0.6033051079999999,10.237260001499997,-0.014871950556243681,-0.3057171077670828,-0.0901200759267272,10.26016073464349,0.3190701380258838,0.11365907349999996,-0.06943108199999992,-0.0394227330000021
109172.0,0.4396321195,-0.6092871645,10.154589942,0.017369516715847567,-0.29559070744701166,-0.09225112294341227,10.182347673276928,0.310138414460846,0.11493393800000001,-0.005982056500000055,-0.08267005949999806
109182.0,0.4934706279999999,-0.604481906,10.127033255499999,0.06320186287321866,-0.26761133420829053,-0.09678199768158957,10.157052436282044,0.2915082447249575,0.05383850849999994,0.00480525850000002,-0.027556686500000538
109192.0,0.5366198879999999,-0.6200744794999999,10.154589942,0.12102462099179079,-0.2167175332201359,-0.10530793107758185,10.187646939038077,0.26963532490953046,0.04314926000000002,-0.015592573499999984,0.027556686500000538
109202.0,0.5688837664999999,-0.6224280754999999,10.2311798785,0.18071139075149287,-0.14663907309405957,-0.11969817076027511,10.265870014527806,0.2617007386091596,0.03226387850000001,-0.002353595999999958,0.07658993650000134
109212.0,0.6502789614999999,-0.624879738,10.3880862785,0.21961477977844648,-0.06962991050831378,-0.1375511436789251,10.42716039697733,0.26832683999539003,0.08139519499999992,-0.0024516625000000625,0.15690639999999867
109222.0,0.8299367894999999,-0.536227622,10.613148896,0.2329386232881712,0.0265621658861017,-0.15087324185939782,10.659046140524365,0.2787986477462071,0.17965782800000007,0.088652116,0.22506261750000078
109232.0,0.9472243234999999,-0.26576021499999997,10.9937449825,0.21242053260172586,0.1360780857902419,-0.1444783554800906,11.03767598505912,0.29071244091949133,0.11728753399999992,0.270467407,0.38059608650000065
109242.0,0.9208444349999999,-0.069431082,11.314618570499999,0.15406544906129543,0.20509189507260167,-0.1079730488453772,11.352240683870368,0.2783110261845475,-0.02637988849999995,0.19632913299999996,0.32087358799999777
109252.0,0.840626038,-0.034715541,11.455834330499998,0.06773099228214395,0.19576660087919595,-0.05388180466756894,11.486687839077582,0.21404508452555573,-0.08021839699999989,0.034715541,0.1412157599999997
109262.0,0.7077459304999999,-0.12444638849999999,11.3960137655,-0.009009389598794729,0.12808447781610788,-5.585053606381855e-05,11.4186479475118,0.12840095668510526,-0.13288010750000012,-0.08973084749999999,-0.05982056499999899
109272.0,0.585653138,-0.336368095,11.188897317499999,-0.04471533543609472,0.023631758072003222,0.04097858550757486,11.209262075397374,0.0650935149069228,-0.12209279249999994,-0.21192170649999997,-0.20711644800000073
