timestamp,ax,ay,az,gx,gy,gz,acc_mag,gyro_mag,dax,day,daz
190552.0,1.0227355285,-2.1897268784999997,8.7223287095,-0.20891765679297325,0.03970274982436701,-0.06498908002726085,9.050961820726538,0.22236563625315975,0.0,0.0,0.0
190562.0,0.6551822864999999,-1.2787871599999998,8.390765873,-0.1937298016421186,-0.0013316862192716736,-0.08417373916518253,8.51290269911654,0.21123027197238892,-0.36755324200000006,0.9109397184999999,-0.33156283649999985
190572.0,1.0262659225,-1.9970262059999997,8.515310328,-0.15828914585112172,-0.019718729889031932,-0.0956318257045253,8.806352558992797,0.18598313926346924,0.37108363600000005,-0.7182390459999999,0.12454445500000055
190582.0,1.1268821514999998,-2.1598165959999998,8.4051816485,-0.08821068572504541,-0.02238210232757528,-0.09350077868784022,8.751099911211588,0.13047788776615468,0.10061622899999989,-0.16279039000000006,-0.11012867950000071
190592.0,1.1137412405,-2.041352264,8.237585999999999,-0.017598154847858826,-0.014123204307138116,-0.08097629597552891,8.55951877875879,0.08406140888580706,-0.01314091099999981,0.11846433199999984,-0.16759564850000075
190602.0,1.1376694665,-1.9898673515,8.114218343,0.053014376029327764,-0.0031974431896536117,-0.048467793327882536,8.431749712215709,0.07190184071916629,0.023928225999999997,0.05148491249999987,-0.1233676569999993
190612.0,1.1747386034999998,-1.9539750125,7.975356178999999,0.12416097765762461,0.0063948863793072235,-0.006899286533133584,8.294837871709186,0.12451683861778569,0.03706913699999981,0.035892339000000106,-0.13886216399999984
190622.0,1.2214182574999999,-1.9551518104999999,7.835317217,0.1862458298095669,0.02158274153016188,0.03520154568347363,8.167415567538631,0.19076811230370133,0.04667965400000007,-0.0011767979999999234,-0.14003896199999932
190632.0,1.2657443154999999,-1.962310665,7.682137343999999,0.23340986218620968,0.046097636203674235,0.07836877407304937,8.029197094994784,0.25049315475490413,0.044326058,-0.007158854500000089,-0.1531798730000009
190642.0,1.2345591685,-2.020954432,7.617413453999999,0.2645866786145844,0.08979719001510825,0.1156734415051762,7.9770533962064,0.30240699546233757,-0.03118514699999997,-0.05864376699999996,-0.06472388999999978
190652.0,1.135217804,-2.1406936285,7.440305355,0.29016622413181326,0.1265695320253768,0.14791490877726743,7.824923798303773,0.34942109882293015,-0.09934136449999986,-0.11973919649999987,-0.1771080989999998
190662.0,1.0143018094999998,-2.2699452755,7.307425247499999,0.3208089698090777,0.15108442669888913,0.16416916010109062,7.718803240290568,0.3907638829641133,-0.12091599450000023,-0.12925164700000025,-0.13288010750000012
190672.0,0.8479810255,-2.299855558,7.117078171,0.37383556314316946,0.14948570510406234,0.15883892456549994,7.527364020651335,0.43281498155465215,-0.16632078399999983,-0.02991028249999994,-0.19034707649999927
190682.0,0.776098281,-2.3837024154999997,6.8943691495,0.4468461764125962,0.12417144963313657,0.1423193831953736,7.335986076664066,0.485123552419034,-0.07188274449999998,-0.08384685749999976,-0.22270902150000005
190692.0,0.7617805719999999,-2.4160643605,6.681270645,0.5233212682472318,0.1135127238912072,0.11753745314630613,7.145421895570172,0.5482383981236746,-0.014317709000000067,-0.032361945000000336,-0.21309850450000045
190702.0,0.7413827399999999,-2.4747081275,6.487393174499999,0.5989969992844539,0.12577017122796338,0.08023278571417934,6.9828431805414075,0.6172947764447296,-0.020397832000000005,-0.05864376699999996,-0.19387747050000037
190712.0,0.6887210294999999,-2.4650976104999995,6.3257795825,0.672539937975739,0.14548890111699533,0.029071949350469545,6.823967336684886,0.6887105101272072,-0.052661710500000014,0.009610517000000485,-0.16161359199999925
190722.0,0.658810747,-2.378897157,6.1965279355,0.7463499120425792,0.16067675626784997,-0.031948251957756205,6.670093083261827,0.7641177278494983,-0.02991028249999994,0.08620045349999961,-0.12925164700000025
190732.0,0.6958798839999999,-2.1657986525,6.061196165499999,0.8214933176579431,0.16893739961753912,-0.08683885693297787,6.474027461541893,0.8431678972895117,0.03706913699999992,0.2130985045,-0.13533177000000052
190742.0,0.8395473065,-1.9324003825,5.9882346895,0.9059620174667127,0.17506525062129122,-0.12467584978696293,6.348067864686759,0.9311063776967448,0.14366742250000009,0.2333982699999999,-0.07296147599999969
190752.0,1.0813792955000001,-1.7360712495,5.9223340014999994,0.9914953681191987,0.19984718067035873,-0.13720033249927424,6.26556977372366,1.0206987272754031,0.24183198900000014,0.1963291330000001,-0.06590068800000015
190762.0,1.2526034045,-1.5169906885,5.875654347499999,1.0623749343719404,0.2568705779915174,-0.1204137557535928,6.19625613166986,1.0996010492874981,0.17122410899999996,0.21908056099999995,-0.04667965400000007
190772.0,1.339980656,-1.3937210979999999,5.824169434999999,1.105008092010406,0.34160456784659016,-0.07911053900514697,6.136689357059939,1.1593080011644095,0.08737725149999997,0.12326959050000008,-0.05148491250000031
190782.0,1.31605243,-1.361359153,5.782295039499999,1.1217964140853391,0.466310088230837,-0.026350981046610388,6.084425089175811,1.215140595668952,-0.023928225999999997,0.03236194499999989,-0.04187439549999983
190792.0,1.1137412405,-1.335077331,5.825346232999999,1.1276572297135363,0.6078004400315132,0.010953686385516413,6.079268851175103,1.2810746215084976,-0.20231118950000004,0.026281822000000066,0.043051193500000196
190802.0,0.83356525,-1.317033095,5.8912469210000005,1.1433791556155013,0.7055929833500076,0.03013834552343808,6.0939476108287005,1.3439068686183842,-0.28017599049999997,0.018044235999999936,0.06590068800000104
190812.0,0.650377028,-1.313502701,6.001375600499999,1.1878780702243488,0.7455627685499296,0.028007298506753008,6.177765673960217,1.4027482170145167,-0.18318822200000007,0.0035303939999999923,0.11012867949999894
190822.0,0.40981990349999997,-1.176994133,6.202509992,1.2771429348175984,0.7290414818505514,0.014683454997028295,6.326483837273357,1.4706499114554783,-0.2405571245,0.136508568,0.201134391500001
190832.0,0.18711088199999998,-1.0213625975,6.4071747775,1.404778863015944,0.6616263941630184,-0.016758651477649555,6.490768881046908,1.5528792586124895,-0.2227090215,0.15563153549999997,0.20466478549999945
190842.0,0.038736267500000005,-0.8155210139999999,6.632237395,1.5481367171162543,0.5550408820729767,-0.07005228018729641,6.682301092163672,1.6461181602835444,-0.14837461449999997,0.20584158350000015,0.2250626174999999
190852.0,-0.012748645,-0.505434741,6.9099617229999994,1.6912257905117571,0.44046176200880094,-0.1337358539340655,6.928434009116648,1.7527511280588266,-0.05148491250000001,0.3100862729999999,0.2777243279999997
190862.0,0.116503002,-0.17387190449999998,7.073928910999999,1.8114004361578269,0.34453672098994065,-0.19795349843194487,7.077024418958232,1.8544709972832445,0.129251647,0.33156283649999996,0.16396718799999999
190872.0,0.3296015065,0.278704993,7.155324105999999,1.8862768063976356,0.3122935083885974,-0.24351880921376082,7.16833151354727,1.9273995009276645,0.21309850449999998,0.45257689749999996,0.08139519499999981
190882.0,0.5151433245,0.7981632435,7.2283836484999995,1.9222497876104907,0.34693480338218086,-0.2560432919260721,7.290539580713729,1.9700167946255556,0.18554181800000003,0.5194582505,0.07305954250000024
190892.0,0.694703086,1.2937913344999998,7.370874272999999,1.9417014821239675,0.42180942829273754,-0.2323277580499732,7.5157365536119265,2.000525937507331,0.17955976149999997,0.4956280909999998,0.14249062449999972
190902.0,0.742559538,1.7354828504999997,7.605449341,1.9686144591897201,0.5084109204474442,-0.1827656432810902,7.8362079522159,2.0414033979899715,0.047856451999999994,0.4416915159999999,0.23457506800000072
190912.0,0.7006851424999999,1.9689791869999997,7.928676524999999,1.9920629576902638,0.5784893805735206,-0.12787329297661654,8.199496944681758,2.0782965067320642,-0.04187439550000005,0.2334963365,0.3232271839999994
190922.0,0.5259306395,2.0802846645,8.3153527345,2.0144450600178394,0.6123313147696906,-0.09936333964528918,8.587740006665047,2.1077978110206206,-0.17475450299999995,0.11130547750000042,0.38667620950000003
190932.0,0.39422733,2.1676619159999997,8.605041175499998,2.0421573978810055,0.58728409467432,-0.1204137557535928,8.882618251498041,2.1283347758640416,-0.13170330949999998,0.08737725149999953,0.28968844099999913
190942.0,0.24575464899999996,2.326921912,8.724780372,2.0450878056951036,0.5723615295697685,-0.17663604694808613,9.03309213235907,2.1310049616591007,-0.14847268100000002,0.1592599960000003,0.1197391965000012
190952.0,0.140431228,2.5172689884999997,8.746355002,2.0000565656643983,0.5979410750869973,-0.24271944841634743,9.102477130499796,2.1015880961246896,-0.10532342099999997,0.1903470764999997,0.021574629999999928
190962.0,0.056682437,2.9122808504999997,8.7643011715,1.9467629369547512,0.6448398174173369,-0.3157300616857742,9.235668231135715,2.0749433232451473,-0.08374879099999999,0.39501186200000005,0.017946169500000053
190972.0,-0.054721107,3.3683881419999997,8.885217165999999,1.969946145408992,0.6459044682610534,-0.3636934548598304,9.502426909042688,2.1047929416071356,-0.111403544,0.45610729149999996,0.1209159944999989
190982.0,-0.048640984,3.9047138305,8.951019787499998,2.062408453191895,0.6022049144496194,-0.38660962793851594,9.765751956692274,2.1830360489921867,0.006080123,0.5363256885000003,0.0658026214999996
190992.0,-0.04265892749999999,4.525965107999999,9.068307321499999,2.1881786244198587,0.5254645325686808,-0.3818134631540355,10.135106196784491,2.2825468643603544,0.005982056500000006,0.6212512774999994,0.1172875340000008
191002.0,0.057859234999999995,5.1915424435,9.1389152015,2.319811356605271,0.44339391515215143,-0.3479715289578655,10.510719846611103,2.3873012124979156,0.10051816249999998,0.665577335500001,0.07060788000000073
191012.0,0.138077632,5.645296138999999,9.408303877,2.426396868695313,0.4255409422335014,-0.27842539425364743,10.972903707380295,2.4791142688663417,0.08021839700000001,0.4537536954999988,0.2693886755000001
191022.0,0.057859234999999995,6.0594309685,9.466947644,2.4650332223467113,0.3783769098568587,-0.17717011769919638,11.24024684103195,2.5001894175824724,-0.08021839700000001,0.4141348295000009,0.058643766999999514
191032.0,0.0087279185,6.157595535,9.4262500465,2.472227469523432,0.3791762706542721,-0.06552140544911914,11.259229497987619,2.5019944763858972,-0.049131316499999994,0.0981645664999995,-0.04069759749999946
191042.0,-0.3611789195,6.1635775915,9.590315301,2.4637015361274393,0.40555517696891435,0.034402184886060234,11.405888238577777,2.4970950664738267,-0.36990683799999996,0.00598205650000061,0.16406525450000053
191052.0,-0.8615142024999999,6.0606077664999995,9.768600198,2.4602370575622308,0.3541290505589014,0.08289790348197466,11.528170845751506,2.4869752363571935,-0.5003352829999999,-0.10296982500000063,0.17828489699999928
191062.0,-1.212298073,5.909781489499999,9.891967854999999,2.4706287479286053,0.21263695342897315,0.061847487373671066,11.586466757203837,2.4805334095208753,-0.35078387050000004,-0.15082627700000018,0.1233676569999993
191072.0,-1.4026451494999999,5.906251095499999,9.8906929905,2.497808760369913,0.017320647496791724,-0.016493361431346415,11.605043009435022,2.497923265270912,-0.19034707649999993,-0.0035303940000002143,-0.0012748644999991399
191082.0,-1.4995348514999998,6.2689010125,9.8200851105,2.5633580910870637,-0.21343631422638654,-0.12787329297661654,11.746565295985482,2.5754050831721105,-0.09688970199999991,0.3626499170000006,-0.07060787999999896
191092.0,-1.352337035,6.881816637499999,9.577076323499998,2.653689351853282,-0.4356655972243206,-0.22753159326549277,11.870493106629928,2.698822394059722,0.14719781649999986,0.6129156249999994,-0.2430087870000026
191102.0,-1.0782411675,7.5594561525,9.301803657999999,2.7304297337342214,-0.5454485525040159,-0.2792247550510608,12.034597318931947,2.7983436383192792,0.2740958674999998,0.677639515000001,-0.2752726654999993
191112.0,-0.73942141,8.416557362499999,9.225115655,2.772265275904525,-0.5044141164603771,-0.27869242962920254,12.509514007584203,2.8315292389807882,0.33881975750000015,0.8571012099999988,-0.07668800299999923
191122.0,-0.43061000149999995,9.1359732065,9.4142859335,2.8436771675791253,-0.32162054791125505,-0.23365944426924487,13.125555646942102,2.8713300656918186,0.3088114085,0.7194158440000002,0.18917027850000068
191132.0,-0.048640984,9.368194678499998,10.0009197365,2.971311350448218,-0.03570594583729999,-0.17823476854291292,13.703424136160837,2.976866421018601,0.38196901749999995,0.2322214719999991,0.5866338029999998
191142.0,0.014709975,9.517844157499999,11.158496702499999,3.105609200401426,0.3202871163627314,-0.1654449957842985,14.666343185999866,3.126461960292497,0.063350959,0.1496494790000007,1.1575769659999988
191152.0,-0.25575743199999995,9.763304607,12.413061436999998,3.129857059699383,0.6269868444986869,-0.20488245556236234,15.794670713624487,3.1986082188854814,-0.27046740699999994,0.24546044950000123,1.2545647344999988
191162.0,-0.5419154789999999,10.012295450499998,13.450899206499999,2.942267326365781,0.8521465353107194,-0.24698328777896955,16.7769610489476,3.073124058980342,-0.28615804699999997,0.2489908434999979,1.0378377695000012
191172.0,-0.7909063224999999,10.103301162500001,14.0398866055,2.543906396573587,1.0122909661567112,-0.2603053859594423,17.31532971347767,2.750263923453528,-0.2489908435,0.09100571200000296,0.5889873990000005
191182.0,-1.0231277945,9.948846425,14.105689227,2.0163108169882213,1.0751769244353189,-0.24698328777896955,17.291524057780954,2.2983723532065055,-0.23222147199999998,-0.15445473750000183,0.0658026214999996
191192.0,-1.1619899585,9.430466906,13.5526922335,1.4988398923936743,1.0378705116739402,-0.20408309476494893,16.55171874775509,1.8344879753222278,-0.13886216400000007,-0.5183795189999998,-0.552996993499999
191202.0,-1.5318967964999999,9.248553548499999,12.387858346499998,1.0924853546273465,0.9507384394266272,-0.18329796870294848,15.535169292529405,1.4598034030681133,-0.3699068379999999,-0.18191335750000093,-1.1648338870000021
191212.0,-1.8850342629999999,9.090470350499999,11.123781161499998,0.8553335065248611,0.843353566539172,-0.1840973295003619,14.488909989883496,1.21520881839609,-0.3531374665,-0.15808319799999992,-1.2640771849999997
191222.0,-2.0514531134999996,9.064188528499999,10.030830019,0.8635941498745502,0.7135865913241416,-0.22086967151063042,13.674265041571754,1.1418336528620832,-0.16641885049999972,-0.02628182199999962,-1.0929511424999987
191232.0,-1.990357684,9.1671583535,9.397516562,1.101011288023339,0.5539762312292602,-0.3016068573786361,13.278239097164464,1.2688901518806124,0.06109542949999969,0.10296982500000063,-0.6333134569999999
191242.0,-1.6983156469999998,9.471164503499999,9.222762058999999,1.4218324751371807,0.41035134175339477,-0.3826128239514489,13.328412249256598,1.5285249046337568,0.2920420370000001,0.3040061499999993,-0.17475450300000084
191252.0,-1.3307624049999998,9.8483282625,9.3328907385,1.6680443273867687,0.3448020110362438,-0.438302789724084,13.633170859389123,1.758797782697525,0.36755324200000006,0.3771637590000019,0.11012867950000071
191262.0,-0.9644840275000001,10.2421633265,9.5866868405,1.7575762273555737,0.37571179208906336,-0.44203255833559585,14.061888337766733,1.850844760726555,0.3662783774999997,0.39383506399999924,0.2537961020000008
191272.0,-0.7202984425,10.5198876545,10.0009197365,1.6949573044525212,0.49801923008107,-0.3732857844287912,14.532902727448658,1.8056150459896254,0.2441855850000001,0.2777243279999997,0.4142328959999997
191282.0,-0.715493184,10.591672332499998,10.363569653499999,1.5374779913743248,0.6512347037966443,-0.25071305639048147,14.835734874226572,1.6884318908484843,0.00480525850000002,0.07178467799999844,0.3626499169999988
191292.0,-0.9907658494999999,10.477915192499998,10.668850668,1.3424269754884466,0.7751391180542256,-0.11828096340765572,14.986417127714073,1.5546514796447415,-0.27527266549999996,-0.11375714000000059,0.3052810145000002
191302.0,-1.467270973,9.942864368499999,10.9262752305,1.1457772380077416,0.8329618761727978,-0.031948251957756205,14.845771329615483,1.4169162491471092,-0.47650512350000007,-0.5350508239999989,0.2574245625000007
191312.0,-1.9197498039999998,9.2054042885,11.0315986515,0.9872315287565765,0.8049825029340767,-0.04180587157302018,14.495553671125117,1.2745080040152896,-0.45247883099999986,-0.7374600799999982,0.10532342099999958
191322.0,-2.3614413199999995,8.7960747175,10.914213050999999,0.8705213616757158,0.7103891481344881,-0.1297390499469985,14.215040698719957,1.1310580904631449,-0.4416915159999997,-0.40932957100000067,-0.11738560050000046
191332.0,-2.6512278274999996,8.657212553499999,10.626976272499999,0.7868520226643596,0.597408749665139,-0.2587066643646155,13.960980011663448,1.021255334347941,-0.2897865075000001,-0.13886216400000073,-0.2872367785000005
191342.0,-2.7540995859999997,8.7421381425,10.327677314499999,0.7442188650258941,0.49268899454547926,-0.4017974830893706,13.808365672468145,0.9787979269612387,-0.10287175850000008,0.08492558900000091,-0.2992989579999996
191352.0,-2.6117070279999997,9.0414371005,10.0703508185,0.7356911863006498,0.3914337179910282,-0.5467523134552557,13.783343718055718,0.996694521631082,0.14239255800000006,0.2992989579999996,-0.25732649599999924
191362.0,-2.2896566419999997,9.508331707,9.877552079500001,0.7442188650258941,0.3040328650389082,-0.6592003865027463,13.900249439194646,1.0396359226429062,0.3220503859999999,0.46689460650000036,-0.19279873899999878
191372.0,-1.8873878589999997,10.055346644,9.7147616895,0.7396879902877168,0.23528609113210358,-0.7175554700431768,14.108466385297856,1.057063725725649,0.402268783,0.5470149370000001,-0.1627903900000014
191382.0,-1.4301037694999998,10.468402741999999,9.650135866,0.6981212288222198,0.21183759263155974,-0.7132916306805546,14.309359698900254,1.0203104263816505,0.4572840894999999,0.41305609799999843,-0.06462582350000012
191392.0,-1.211121275,10.7856478695,9.660923181,0.6184486937979307,0.23768417352434376,-0.6416144489596515,14.530328675456404,0.9223023659939912,0.21898249449999985,0.31724512750000144,0.010787314999999964
191402.0,-1.1739540714999999,10.954420316,9.730354262999999,0.5107967855349205,0.2635307544171278,-0.5265012581443654,14.698887260778186,0.7794648096380412,0.037167203500000134,0.16877244650000023,0.06943108199999948
191412.0,-1.2792774925000001,10.973543283499998,9.8440133365,0.3842272535095437,0.26779459377974996,-0.3956696320856185,14.797290348805584,0.6131060141214708,-0.10532342100000025,0.019122967499997756,0.11365907350000093
191422.0,-1.413334398,10.837132782,9.891967854999999,0.26352028244161585,0.22676015773611127,-0.2659009115413361,14.740827286812038,0.4376829939044108,-0.13405690549999982,-0.13641050149999856,0.04795451849999921
191432.0,-1.5067917725,10.656298156,9.811749458,0.15986692349492462,0.1710684466342242,-0.15958243482684953,14.563568905381882,0.2833520781057449,-0.09345737450000002,-0.18083462599999933,-0.08021839699999944
191442.0,-1.5426841115,10.433687201,9.672887293999999,0.0727331059183597,0.1196423202242113,-0.08337437836776912,14.311060459609985,0.16295912510005686,-0.035892339000000106,-0.2226109550000004,-0.13886216400000073
191452.0,-1.585735305,10.284037722,9.5196093545,0.0183748263649963,0.07514166028611187,-0.020490165418413427,14.10315392340757,0.08002343552592048,-0.04305119349999997,-0.14964947899999892,-0.1532779394999988
191462.0,-1.6383970154999998,10.1739090425,9.338872795,-0.001609193570338772,0.043966589186989154,0.030670670945296356,13.90709585307636,0.05363152547633656,-0.05266171049999979,-0.11012867950000071,-0.18073655949999967
191472.0,-1.6647769039999998,10.0601519025,9.259831195999999,0.012245230031992215,0.03170914185023298,0.061048126576257654,13.773983164643441,0.06987337900721116,-0.02637988849999995,-0.11375714000000059,-0.07904159900000174
191482.0,-1.743818503,10.033870080499998,9.2538491395,0.06846926655573755,-0.0013316862192716736,0.08289790348197466,13.760565964391985,0.10752616543229851,-0.07904159900000018,-0.026281822000001398,-0.0059820564999988335
191492.0,-1.8300189564999998,10.104477960499999,9.269441712999999,0.1542713979130308,-0.07274357789387166,0.10901151975031383,13.833726681776097,0.20242234011372243,-0.08620045349999983,0.07060788000000073,0.015592573499999318
191502.0,-1.839531407,10.23618127,9.271795309,0.2283466620261741,-0.1297669752150304,0.13192769282899938,13.933035241526973,0.29391594385153197,-0.009512450500000158,0.13170330950000064,0.002353596000000735
191512.0,-1.7893213590000001,10.3737685695,9.299351995499999,0.26831644722609627,-0.1444225049440268,0.1492465949965391,14.046162920724274,0.33930240480197443,0.05021004799999984,0.13758729949999982,0.02755668649999876
191522.0,-1.689881928,10.4612438875,9.313767771,0.2600558038764071,-0.09379399400217527,0.15910595994105506,14.108139306671713,0.3189687146562324,0.09943943100000019,0.08747531800000097,0.014415775500001615
191532.0,-1.6264329025,10.5893187365,9.3124929065,0.1947735085348112,0.018919369091618534,0.16043764616032674,14.195121676940191,0.25305118150139366,0.06344902549999998,0.128074848999999,-0.0012748645000009162
191542.0,-1.689881928,10.713765125,9.3221034235,0.07033502352611948,0.17373356440201956,0.15351043435916126,14.301820734531589,0.2422722030926966,-0.06344902549999998,0.12444638850000089,0.009610517000000485
191552.0,-1.8275672939999998,10.696995753499998,9.395162966,-0.10952639187965216,0.3485335249770076,0.15510915595398805,14.353912620682674,0.3969011196908269,-0.13768536599999992,-0.01676937150000235,0.07305954249999935
191562.0,-1.8958215779999998,10.644334043,9.592668897,-0.31257101573966445,0.5014819633170268,0.15564148137584632,14.453902007487471,0.6110720662390757,-0.068254284,-0.05266171049999713,0.19750593100000025
