timestamp,ax,ay,az,gx,gy,gz,acc_mag,gyro_mag,dax,day,daz
31162.0,0.6185054154999999,-2.6001351809999997,8.828142462999999,-0.1379857306626717,0.10711260152414401,-0.05608615551283778,9.223846879447882,0.1834634244529183,0.0,0.0,0.0
31172.0,0.2689964095,-2.029192018,8.206793119,-0.1046796125468639,0.11910301348534504,-0.07180633608555072,8.458216869547892,0.17406751278249166,-0.34950900599999996,0.5709431629999999,-0.6213493439999986
31182.0,0.4209994845,-2.1680541819999997,8.261906492,-0.1092087419557892,0.10737963689969914,-0.059016563326936264,8.552005518273985,0.16413375791469487,0.15200307500000004,-0.13886216399999984,0.0551133729999993
31192.0,0.429335137,-2.1788414969999996,8.21405004,-0.10281385557648196,0.11830365268793164,-0.020380209675537785,8.508953930333387,0.15805630668919013,0.008335652499999957,-0.010787314999999964,-0.04785645199999955
31202.0,0.4233530805,-2.3032878854999996,8.120690732,-0.09934937701127322,0.09885195817445484,-0.012119566325848624,8.45162593108868,0.1406729975346332,-0.005982056499999999,-0.1244463885,-0.09335930800000014
31212.0,0.429335137,-2.366736911,7.950643421,-0.08789129047193045,0.07300537728167081,-0.008922123136195012,8.30653375805114,0.11460483556167154,0.005982056499999999,-0.0634490255000002,-0.17004731100000026
31222.0,0.38510714549999997,-2.354772798,7.830904224499999,-0.0673731997854851,0.02770710187540998,-0.013451252545120298,8.186349822540437,0.0740794690768086,-0.04422799150000001,0.011964112999999887,-0.11973919650000031
31232.0,0.37794829099999994,-2.2901469745,7.6250626409999995,-0.0369974894837758,-0.025586526834236872,-0.020912535097396056,7.970520582412118,0.04960663975458372,-0.007158854500000034,0.06462582350000012,-0.20584158349999981
31242.0,0.33479903099999997,-2.171584576,7.3915663044999995,-0.0018238690683340744,-0.08713905356432089,-0.019313813502569253,7.71123351972299,0.08927241761303453,-0.04314925999999997,0.11856239849999994,-0.2334963365
31252.0,0.3396042895,-2.0483149855,7.153362775999999,0.04027696314827314,-0.14202965853954255,-0.008388052385084749,7.448592105783017,0.14786824232444684,0.00480525850000002,0.12326959050000008,-0.2382035285000006
31262.0,0.324011716,-1.8543394485,6.8301355919999995,0.08477587775712057,-0.18572921235097659,0.006000441968356505,7.084794322171515,0.20425056933536323,-0.015592573499999984,0.1939755369999998,-0.3232271839999994
31272.0,0.35039160449999995,-1.7382287124999998,6.506908407999999,0.10982309785249118,-0.20118410287738636,0.027583183498518384,6.744187895037072,0.23086140449284626,0.02637988849999995,0.11611073600000021,-0.3232271840000003
31282.0,0.40069971899999995,-1.7143004864999998,6.225653685999999,0.11568565880994015,-0.1750722319382992,0.04410447019789671,6.469787495801248,0.21442635645271005,0.0503081145,0.023928225999999997,-0.2812547219999999
31292.0,0.39707125849999997,-1.695177519,6.004219529,0.11755141578032208,-0.1292398857809281,0.0425057486030699,6.251555371079645,0.17979995020280978,-0.003628460499999986,0.019122967499999755,-0.22143415699999913
31302.0,0.324011716,-1.6078002675,5.7564054835,0.11408693721511333,-0.08633969276690749,0.027317893452215244,5.985499927553856,0.14565932545798696,-0.07305954249999996,0.08737725149999997,-0.2478140455000002
31312.0,0.221041891,-1.5418995795,5.6031275439999995,0.10929077243063291,-0.0716841630379111,0.0014695672301792255,5.8156127884489175,0.13071056497764147,-0.10296982500000001,0.06590068800000015,-0.15327793950000057
31322.0,0.2689964095,-1.5191481514999998,5.630684230499999,0.11595269418549528,-0.08447393579652555,-0.0329029470585971,5.838216772108683,0.14718517942704476,0.04795451849999999,0.022751428000000073,0.02755668649999965
31332.0,0.35039160449999995,-1.4857074749999999,5.67020503,0.11408693721511333,-0.11485139142748685,-0.06807656747403883,5.872080215733796,0.17561631585647836,0.08139519499999998,0.03344067649999993,0.03952079950000087
31342.0,0.4209994845,-1.3731271329999999,5.6522588605,0.08051203839449843,-0.1710736826219802,-0.09312378756940945,5.831873533902362,0.2107615548992645,0.07060788000000007,0.112580342,-0.017946169500000053
31352.0,0.519164051,-1.2007262259999998,5.4810347515,0.008035495876181893,-0.2379564448876549,-0.1005850701216852,5.634981519828224,0.25846700986573123,0.09816456649999994,0.1724009070000001,-0.17122410899999974
31362.0,0.6149750214999999,-1.081085096,5.233220706,-0.08043000791965468,-0.29124832826804975,-0.08459785417341716,5.378990446131076,0.31376961583881274,0.09581097049999998,0.11964112999999976,-0.2478140455000002
31372.0,0.6030109084999999,-0.9015253344999999,4.8657655305,-0.16303469608729432,-0.3061708933726013,-0.052089351525770766,4.98518247231907,0.3507623534805703,-0.011964112999999998,0.17955976150000008,-0.36745517549999995
31382.0,0.5969307855,-0.768645227,4.529299368999999,-0.2203233834547562,-0.2891172812513647,-0.01691573111032904,4.632676831130283,0.3638919311748053,-0.006080122999999937,0.1328801074999999,-0.33646616150000064
31392.0,0.6281159325,-0.7003909429999999,4.409658239,-0.22698530520961854,-0.22330091515865852,0.014793410739903938,4.508898189411394,0.3187545646624023,0.03118514699999997,0.06825428400000011,-0.11964112999999976
31402.0,0.599382448,-0.669205796,4.446727376,-0.19101232399676343,-0.13456837598726681,0.040639991632687965,4.536571400610632,0.2371623171045516,-0.028733484500000017,0.03118514699999997,0.037069137000000474
31412.0,0.635274787,-0.7913966549999999,4.6574722845,-0.1363870090678449,-0.0676873590508441,0.05342976439130241,4.766752647393059,0.16136212238521275,0.035892338999999995,-0.12219085899999993,0.21074490849999972
31422.0,0.7047058689999999,-0.9530102469999999,4.8382088439999995,-0.08256280026559176,-0.04930031538108383,0.05716127833206629,4.9812753096822355,0.11186844427686603,0.06943108199999992,-0.16161359200000003,0.18073655949999967
31432.0,0.747855129,-0.9110377849999999,5.0309095164999995,-0.02660579911740156,-0.06715328829973383,0.0627568039139601,5.167139218453435,0.09568620127080985,0.04314926000000008,0.041972462000000044,0.1927006725
31442.0,0.7095111274999999,-0.806891162,5.2260618515,0.0671899402140257,-0.11458435605193172,0.08167617300557865,5.335372701420552,0.15593287002629505,-0.03834400150000006,0.10414662299999988,0.1951523350000004
31452.0,0.678424047,-0.7303012254999999,5.4929988645,0.20841500196839888,-0.1990530558607013,0.10965380091504774,5.582708625113167,0.30835513316318913,-0.031087080499999864,0.07658993650000012,0.2669370129999997
31462.0,0.611346561,-0.560351981,5.787492564,0.36909175823624885,-0.2720636691301281,0.1296378208503828,5.846606634502824,0.4765011339475587,-0.06707748600000007,0.16994924449999982,0.29449369950000026
31472.0,0.48082004949999996,-0.469346269,6.255563968499999,0.5180433925892008,-0.32775363490276316,0.1389648603730405,6.291546264967051,0.6285719005935608,-0.1305265115,0.09100571200000007,0.46807140449999896
31482.0,0.4880769705,-0.6596933454999999,6.758350913999999,0.6470127523360699,-0.3701215024949255,0.1328370093692884,6.807989535537938,0.757140079082315,0.007256921000000027,-0.19034707649999993,0.5027869455000005
31492.0,0.6269391344999999,-0.920648302,7.165326888999999,0.7344118599589379,-0.40502808753481206,0.08620530241450391,7.251382999164332,0.8431132106098386,0.13886216399999995,-0.2609549565000001,0.40697597499999993
31502.0,0.8052240315,-1.1121721764999999,7.5268980745,0.795964386689022,-0.4010312835477451,0.002535963403147761,7.651111508467097,0.8912866129206503,0.17828489700000005,-0.19152387449999986,0.3615711855000008
31512.0,0.9812533989999999,-1.1600286285,7.953095083499999,0.8684426745365905,-0.33841236064469254,-0.0896593090042007,8.096928186613766,0.9363516414704952,0.17602936749999987,-0.047856452000000216,0.4261970089999991
31522.0,0.94536106,-0.908684189,8.51805619,0.9513126527505332,-0.2379564448876549,-0.16080591063249755,8.618392874840426,0.99371906182843,-0.035892338999999884,0.25134443950000007,0.5649611065000002
31532.0,0.7777654115,-0.7709988229999999,9.2950370695,1.0405775173437832,-0.1470928586995781,-0.20956866460396714,9.359330763669606,1.071614158111797,-0.16759564849999997,0.13768536600000014,0.7769808794999999
31542.0,0.81002929,-0.9158430435,10.1652791905,1.145297272463443,-0.15082262731109,-0.2412778064542001,10.238545646320945,1.180113675502734,0.03226387850000001,-0.14484422050000012,0.8702421210000004
31552.0,1.03754357,-1.14933938,10.974523948499998,1.2510816784268195,-0.21743835420120955,-0.2703218305366378,11.083214947219382,1.2982906824119462,0.22751427999999996,-0.2334963365,0.8092447579999984
31562.0,1.1560079019999998,-1.279767825,11.650888598999998,1.3232929308988328,-0.28618687343726623,-0.2732522383507362,11.777833633639924,1.3811856838449739,0.11846433199999984,-0.13042844499999995,0.6763646505
31572.0,1.2182801294999999,-1.417453191,11.976469379,1.3499406179182822,-0.337347709800976,-0.25566630080764136,12.12143550940792,1.4147467641179536,0.062272227500000055,-0.13768536599999992,0.325580780000001
31582.0,1.2433851535,-1.47492016,12.158480802999998,1.3451427078045497,-0.3165625837389755,-0.2591307793728501,12.31056666263735,1.4059763634576623,0.025105024000000142,-0.057466969000000034,0.1820114239999988
31592.0,1.2470136139999999,-1.5825971769999998,12.2446812565,1.3403465430200694,-0.2310292330864894,-0.3020309723868707,12.40934631039976,1.3932430047221989,0.003628460499999875,-0.10767701699999987,0.08620045350000183
31602.0,1.2781006945,-1.6078002675,12.4936721,1.3438110215852779,-0.10818946967262451,-0.3574539027839506,12.661374555227914,1.3947423832728358,0.031087080500000086,-0.025203090500000247,0.24899084349999967
31612.0,1.3332140674999997,-1.5491565004999999,12.7569806525,1.3171650798950807,0.02530901948316977,-0.41367793930769603,12.919671086412404,1.380830848305496,0.055113372999999743,0.05864376700000018,0.26330855249999985
31622.0,1.512773829,-1.5778899849999999,13.024015731999999,1.2510816784268195,0.16200320649936567,-0.4603096462624805,13.20618064581331,1.342883232248297,0.1795597615000002,-0.028733484500000017,0.2670350794999994
31632.0,1.6599716455,-1.511989297,13.302916857999998,1.1546225666568488,0.32854252372466464,-0.479227270024847,13.491079068368366,1.2925758150546098,0.14719781650000008,0.06590068799999993,0.27890112599999917
31642.0,1.5403305154999998,-1.3516505695,13.7015571805,1.0874745143448707,0.47029991090089607,-0.44698580275275573,13.853961402051086,1.2663250504532906,-0.1196411300000002,0.1603387274999999,0.39864032250000214
31652.0,1.3594958895,-1.3588094239999997,14.1540360115,1.0960004477408631,0.49321608397958155,-0.37717263267298257,14.283953498214611,1.2596580019123425,-0.18083462599999978,-0.007158854499999645,0.4524788310000005
31662.0,1.1105050459999999,-1.4210816515,14.630443068499998,1.145030237087888,0.394891215239229,-0.30629481174949286,14.741185803660473,1.2493397566007884,-0.24899084350000011,-0.06227222750000028,0.47640705699999764
31672.0,0.990863916,-1.45334553,14.933370487,1.1658136178206364,0.1958451406955357,-0.2617941518113935,15.036607949654218,1.2107901917973825,-0.11964112999999987,-0.03226387850000001,0.30292741850000127
31682.0,0.9980227705,-1.45334553,14.9752448825,1.1039958010442492,-0.0032026791774095948,-0.24420821426829858,15.078667778383139,1.1306876835772812,0.007158854499999978,0.0,0.041874395500000716
31692.0,1.0925588764999998,-1.4497170695,14.7322360955,0.9563741075813168,-0.11218627365969153,-0.24607397123868052,14.843656721097119,0.9938760450734198,0.09453610599999984,0.003628460500000097,-0.24300878700000084
31702.0,1.4014683515,-1.4760969579999998,14.2809340625,0.8007605514735024,-0.0810094572313168,-0.2687231089418109,14.42525748356492,0.8485234836092709,0.3089094750000001,-0.02637988849999995,-0.45130203299999927
31712.0,1.7557826159999999,-1.4485402715,14.055871445,0.6907123061475039,0.09752027195518317,-0.2761843914940867,14.238980426672812,0.7502476333923186,0.3543142644999999,0.027556686499999872,-0.22506261750000078
31722.0,1.9029804325,-1.4210816515,14.101374301,0.6366193166404437,0.35385677919559033,-0.22395715895740836,14.299984781936347,0.7620076007171426,0.14719781650000008,0.02745861999999999,0.04550285600000059
31732.0,1.812072787,-1.3432168505,14.508350276,0.6600678151409874,0.5712898974090439,-0.1184380430403352,14.682645096302041,0.8809592711958124,-0.09090764549999997,0.07786480100000004,0.40697597499999993
31742.0,1.5546482245,-0.9972382384999999,15.130876418,0.7328131383641111,0.7253047319220315,-0.025708699881876476,15.243189836220504,1.031379167502022,-0.2574245625,0.345978612,0.6225261419999999
31752.0,1.280552357,-0.6896036279999999,15.7856664385,0.7440041895278988,0.7991147059888717,0.02918190509334519,15.852527634745012,1.0922353825744813,-0.27409586750000003,0.30763461050000007,0.6547900205000001
31762.0,1.026756255,-0.2693886755,16.101734768,0.6763220664648106,0.7719364388768161,0.051565752750172465,16.13668681002049,1.027597406628561,-0.2537961019999999,0.42021495249999985,0.3160683295000002
31772.0,1.6109383954999998,-0.237124797,15.98680083,0.5092504238176535,0.6733445347609083,-0.036634460999360983,16.069509994444047,0.8450271832216745,0.5841821404999998,0.03226387850000001,-0.11493393800000007
31782.0,1.2661365814999999,0.177108099,15.689953534499999,0.3437775027653231,0.6014003176644501,-0.02117957047295119,15.741953850666471,0.6930468149410125,-0.344801814,0.414232896,-0.296847295500001
31792.0,0.9405558014999998,0.9049576619999999,14.9081673965,0.2009537194161231,0.4521816479359429,0.05982465077060964,14.965194576343249,0.4984271550759091,-0.32558078,0.7278495629999999,-0.7817861379999993
31802.0,1.1488490475,0.6139943565,14.088233390000001,0.09756565051573501,0.32481275511315266,0.09819571437570497,14.148327224617985,0.3530790001777371,0.2082932460000001,-0.29096330549999994,-0.8199340064999987
31812.0,1.0362687055,0.5984998495,13.198770235,0.000307177948351002,0.23554789051990274,0.12111188745439051,13.252908760576755,0.26486032615216837,-0.112580342,-0.01549450699999999,-0.8894631550000014
31822.0,0.7980651769999999,0.756484981,12.218301367999999,-0.09508553764865108,0.18332065798322442,0.1163157226699101,12.26768380227047,0.2370170256617841,-0.23820352850000004,0.15798513149999993,-0.9804688670000008
31832.0,0.6304695284999999,0.755308183,11.418667126999999,-0.15344062118908147,0.18864914818956308,0.0984627497512601,11.460974707017906,0.26234983977909765,-0.16759564849999997,-0.0011767979999999234,-0.7996342409999997
31842.0,0.498766219,0.7397156094999999,10.8009462435,-0.18754784543155467,0.2376789375365878,0.0688846549177122,10.837729775148034,0.31050051104252924,-0.13170330949999992,-0.015592573500000095,-0.6177208834999988
31852.0,0.34195788549999995,0.8307213214999999,10.529203972,-0.20673424989872835,0.34106700643697585,0.02864957967148692,10.567458038404075,0.39985816407374114,-0.15680833350000006,0.09100571199999996,-0.27174227150000085
31862.0,0.009218250999999998,0.8797545714999999,10.0934945125,-0.24963444291274897,0.3988880192262961,0.0022689280275926286,10.131766112386046,0.47056790690083283,-0.33273963449999994,0.04903325000000003,-0.43570945949999995
31872.0,-0.16798791449999997,1.1766999335,10.2347102725,-0.23577827398116596,0.3991550546018512,-0.019313813502569253,10.303501202743366,0.4639926459414595,-0.17720616549999998,0.296945362,0.1412157599999997
31882.0,-0.39658092599999994,1.344295582,10.409464775499998,-0.17235999028070004,0.2960340210770182,-0.031038935417467155,10.503397733830084,0.3439586070974837,-0.22859301149999997,0.16759564850000008,0.17475450299999906
31892.0,-0.4947454925,1.3190924914999997,10.507629342,-0.10601129876613558,0.030904545065063592,0.011328932174695194,10.60165329051748,0.11100374352237066,-0.09816456650000005,-0.025203090500000247,0.09816456650000127
31902.0,-0.509161268,1.2939874675,10.342485356,-0.0665738389880717,-0.27126430833271464,0.07847698448667303,10.435547522863995,0.2901293472004466,-0.01441577549999995,-0.025105023999999698,-0.16514398600000035
31912.0,-0.463658412,1.13953273,10.1162459405,-0.04872086606942171,-0.48416829713724296,0.1195131658595637,10.19077749214663,0.5010749041382014,0.045502855999999925,-0.15445473750000005,-0.2262394154999985
31922.0,-0.314008933,0.8450390305,9.766638868,-0.04152661889270109,-0.5878216560839341,0.12590805223887094,9.808156164692756,0.602587418601239,0.14964947900000003,-0.29449369950000004,-0.34960707250000134
