timestamp,ax,ay,az,gx,gy,gz,acc_mag,gyro_mag,dax,day,daz
81322.0,-1.2112193414999999,-3.0482990859999997,7.566811139999999,-0.15920369837916676,-0.17403550636261458,-0.1260721131885584,8.247169844216875,0.2674478505733876,0.0,0.0,0.0
81332.0,-0.9896871179999999,-3.2374693644999994,6.606740104999999,-0.11710112083330754,-0.14792189009427542,-0.10075785771763264,7.4235909971271035,0.21388245360787894,0.22153222350000001,-0.1891702784999998,-0.9600710349999995
81342.0,-0.8376840429999999,-3.3308286725,6.898782142,-0.06913947298850337,-0.03840597019013522,-0.07091447283778161,7.706447251764139,0.10622686914916588,0.152003075,-0.09335930800000058,0.29204203700000075
81352.0,-0.9382022055,-3.197948565,6.9574259089999995,0.007335618846132167,0.08203571083148947,-0.08423831634750632,7.7144587419996675,0.11781240637787703,-0.10051816250000012,0.13288010750000012,0.058643766999999514
81362.0,-1.231519107,-3.0554579404999997,7.1238447595,0.08994030701377179,0.15238120633312094,-0.09782744990353417,7.848670377492368,0.2021867968584922,-0.2933169015,0.14249062450000016,0.16641885050000038
81372.0,-1.436281959,-2.9310115519999997,7.31183824,0.1661483634728522,0.17929418339887349,-0.10502169708025479,8.007291241839066,0.2660474388957591,-0.204762852,0.1244463885,0.1879934805000003
81382.0,-1.6529108575,-2.8831550999999997,7.449523606,0.22476873705958572,0.14225480601304985,-0.1167468189951527,8.157211508220724,0.2904948101750848,-0.2166288985,0.047856451999999994,0.13768536599999948
81392.0,-1.6816443419999998,-2.813724018,7.627808502999999,0.28259149517815785,0.04206592563156733,-0.1314006033948971,8.302314924217809,0.3144735502690336,-0.028733484499999795,0.06943108199999992,0.17828489699999928
81402.0,-1.6278058334999999,-2.7730264205,7.8073682645,0.3534710614308996,-0.0839712809719512,-0.1476548547187203,8.443602701328942,0.39216695860202655,0.05383850849999994,0.040697597499999905,0.17955976150000108
81412.0,-1.4482460719999999,-2.6712333935,7.867286895999999,0.4179539959750821,-0.20681104438581607,-0.16284445519882693,8.433688850769055,0.49393791858946573,0.17955976149999997,0.10179302699999981,0.059918631499998654
81422.0,-1.1489471139999998,-2.5766972874999996,7.7930505555,0.4446016829945315,-0.29554183822795577,-0.1671065492321971,8.28800852694769,0.5594106125745397,0.29929895800000006,0.09453610600000051,-0.07423634049999883
81432.0,-0.8054201644999999,-2.527565971,7.6422242785,0.41395719198801506,-0.3221877799181532,-0.160978698228445,8.089553961871768,0.5487072658626961,0.34352694949999996,0.04913131649999958,-0.15082627700000018
81442.0,-0.6353728535,-2.4031195824999996,7.3992154915,0.3340193669174228,-0.3024707953583733,-0.1447244469046218,7.805579560827836,0.47328921924389056,0.17004731099999992,0.12444638850000045,-0.24300878699999995
81452.0,-0.5671185695,-2.3240779835,7.171799277999999,0.24662025929455475,-0.2696952573351718,-0.11887786601183778,7.560268965399476,0.3843033061933327,0.068254284,0.07904159899999952,-0.22741621350000063
81462.0,-0.6090910315,-2.307308612,6.907215860999999,0.2010549485127388,-0.2427822802694192,-0.09542936751129395,7.307824290862025,0.3293525347069375,-0.041972462000000044,0.01676937150000013,-0.2645834169999999
81472.0,-0.6820525075,-2.4305782024999996,6.922710368,0.24422043157306256,-0.24091826862828927,-0.08903448113198674,7.368637924383981,0.3544183547546989,-0.07296147600000003,-0.12326959049999964,0.015494507000000546
81482.0,-0.7479531955,-2.4833379795,7.067652655,0.38704596025151455,-0.272093339727412,-0.09702808910612076,7.528486936617101,0.4829635710347305,-0.06590068799999993,-0.05275977700000034,0.14494228700000011
81492.0,-0.723926903,-2.524035577,7.256724866999999,0.5890241879385584,-0.3304484232678424,-0.11861083063628264,7.717180932839728,0.6857216516642232,0.02402629249999999,-0.040697597499999905,0.18907221199999924
81502.0,-0.557606119,-2.4533296305,7.515326227499999,0.7763468858966057,-0.3850737381967609,-0.13992828212014138,7.925268397069267,0.8778246950429675,0.16632078399999994,0.07070594649999995,0.25860136050000015
81512.0,-0.34686121049999996,-2.307308612,7.810996724999999,0.8999860101078839,-0.40878927207285987,-0.14605613312389346,8.152033830175117,0.9992076267597597,0.21074490850000005,0.14602101849999993,0.29567049749999974
81522.0,-0.20564545049999997,-2.112156277,8.07675694,0.9348925951477706,-0.4002615933476156,-0.13060124259748368,8.350897967142217,1.0253244326257478,0.14121576,0.19515233499999995,0.26576021500000024
81532.0,-0.18407082049999998,-1.9398534365,8.2192475645,0.8829323979866474,-0.37174989468703623,-0.09622872830870735,8.447067180305812,0.9628227104541027,0.021574629999999984,0.1723028405,0.1424906245000006
81542.0,-0.17573516799999997,-1.844042466,8.322217389499999,0.7973973020049093,-0.3344452272549094,-0.05412789609210014,8.52588281316249,0.8663866898871737,0.008335652500000013,0.09581097049999987,0.10296982499999885
81552.0,-0.2619356215,-1.7183212129999998,8.365268582999999,0.7406409400593057,-0.311796089551779,-0.011225957748827528,8.543942680436427,0.8036739548343541,-0.08620045350000002,0.12572125300000025,0.043051193500000196
81562.0,-0.354020065,-1.6752700195,8.516094859999999,0.7457041402193413,-0.32298714071556667,0.027410395902570946,8.68652585958141,0.8131092716304616,-0.0920844435,0.04305119349999975,0.15082627700000018
81572.0,-0.28704064549999997,-1.6907645265,8.707618734499999,0.7992630589752913,-0.3597594827258352,0.05405633759276837,8.874891607318661,0.8781630887754528,0.06697941950000003,-0.01549450699999988,0.19152387449999964
81582.0,-0.16975311149999997,-1.6824288739999997,8.933858149999999,0.8704079152743361,-0.40532479350765116,0.05485569839018178,9.092480655973608,0.9617209963654275,0.117287534,0.008335652500000235,0.22623941550000026
81592.0,-0.04285506049999999,-1.6321207594999998,9.091941348,0.9210364262161876,-0.4311713744004351,0.037269760847086914,9.237372581274037,1.0176472314083334,0.12689805099999998,0.050308114499999945,0.1580831980000017
81602.0,-0.014121576,-1.531602597,9.233157108,0.9327598028018335,-0.39280031079533984,0.019682077974740052,9.359337375853954,1.0122847020859471,0.028733484499999993,0.10051816249999979,0.1412157599999997
81612.0,-0.1817172245,-1.4633483129999998,9.407911611,0.9162402614317071,-0.28728119487826664,0.019416787928436915,9.522773247076113,0.9604185094283562,-0.1675956485,0.06825428400000022,0.17475450299999906
81622.0,-0.327738243,-1.371165803,9.689264399499999,0.8837317587840607,-0.1447244469046218,0.0340723176574333,9.791289630005815,0.8961517225592812,-0.1460210185,0.09218250999999977,0.28135278849999956
81632.0,-0.571923828,-1.2334804369999999,10.134584376,0.8363006910318629,0.002363175807200322,0.0519252905760833,10.225378786517357,0.8379144742882043,-0.24418558499999998,0.13768536600000014,0.44531997650000044
81642.0,-0.8748512464999999,-1.1233517574999998,10.486545044499998,0.759026238399814,0.08389972247261941,0.08016995386110753,10.582764801549187,0.7678458279579605,-0.30292741849999993,0.11012867950000005,0.3519606684999985
81652.0,-1.01008495,-1.0503902815,10.715138056,0.6623000912542882,0.0892299580082101,0.12013973906102966,10.813777087994076,0.6789970200105725,-0.13523370350000008,0.07296147599999991,0.22859301150000277
81662.0,-0.9933155785,-1.0324441119999999,10.777410283499998,0.57250290123918,0.04020016866118539,0.1419895159667467,10.872220982935628,0.5912162448141433,0.01676937150000002,0.017946169500000053,0.06227222749999761
81672.0,-0.860435471,-1.207198615,10.776233485499999,0.5162788647154346,-0.025881487477823914,0.14412056298343176,10.877724294622675,0.5366418304796824,0.1328801075,-0.17475450300000017,-0.0011767979999994793
81682.0,-0.6305675949999999,-1.1916060415,10.813302622499998,0.5272046258329192,-0.0599887117202971,0.13692631580671114,10.897020421003566,0.5479892143043404,0.22986787600000003,0.015592573499999984,0.037069136999999586
81692.0,-0.453459496,-0.933004681,10.917449245499999,0.5988835528830743,-0.06132214326882077,0.12307014687512816,10.966623057137916,0.6144657648891445,0.1771080989999999,0.25860136050000004,0.1041466230000001
81702.0,-0.4749360595,-0.573885158,11.0072781595,0.6782890525318084,-0.01922131105221355,0.1265346254403369,11.032455797137454,0.69025829152455,-0.02147656349999999,0.35911952300000005,0.0898289140000017
81712.0,-0.6150730879999999,-0.1825017565,11.087496556499998,0.7275841319251362,0.051391219824973036,0.15664504569574306,11.10604347574359,0.7460277453589604,-0.14013702849999993,0.39138340149999995,0.08021839699999767
81722.0,-0.7287321615,0.076099604,11.153299178000001,0.735310704523715,0.14545224920270344,0.19688012094196836,11.177339766997733,0.7749838520946173,-0.11365907350000004,0.2586013605,0.06580262150000316
81732.0,-0.800614906,0.1275845165,11.326876882999999,0.7174577316050651,0.2717564911817771,0.23711694151744564,11.355853202608763,0.8030078649016488,-0.07188274449999998,0.051484912499999994,0.1735777049999978
81742.0,-0.987333522,0.12993811249999998,11.616565324,0.6966743508723166,0.4340319690444539,0.2744216089495724,11.659172411603844,0.8654745061377842,-0.18671861600000006,0.0023535959999999856,0.2896884410000009
81752.0,-1.324878415,-0.006472388999999999,12.031975017999999,0.6737581777936309,0.561400861867244,0.3061307507998054,12.104700225124468,0.9288902230265592,-0.3375448929999999,-0.13641050149999998,0.41540969399999916
81762.0,-1.7678447955,-0.2770378625,12.4329689365,0.6393856635048546,0.5901795959033785,0.32211796674807347,12.56108043817127,0.9278394077738514,-0.44296638050000015,-0.2705654735,0.4009939185000011
81772.0,-2.1856080855,-0.5320107625,12.812486291499999,0.6124726864391021,0.4966508919475064,0.31572308036876623,13.008448144367344,0.8493915254955908,-0.4177632900000001,-0.2549729,0.37951735499999906
81782.0,-2.5232510449999994,-0.6912707585,12.975276681499999,0.6082088470764799,0.2749539343714307,0.28774370713004516,13.236406463203236,0.7268521917703565,-0.33764295949999923,-0.15925999599999996,0.16279038999999962
81792.0,-2.5973893189999995,-0.736675548,12.865148001999998,0.6148707688313424,-0.001101302758008422,0.23871566311227244,13.145385321505069,0.659585053686136,-0.07413827400000006,-0.04540478950000004,-0.11012867950000071
81802.0,-2.4598020194999997,-0.699606411,12.5347619635,0.6273935062144017,-0.2505105981972501,0.17423098323883793,12.792979816565605,0.6976636775477972,0.13758729949999982,0.03706913700000003,-0.3303860384999986
81812.0,-2.1568746009999997,-0.575061956,12.111016616999999,0.6481786322764022,-0.4119867152625135,0.10361845236165135,12.315012293738384,0.7749873396142201,0.30292741849999993,0.124544455,-0.4237453465000005
81822.0,-1.724793602,-0.4159000265,11.6992353835,0.6556399148286778,-0.4370339353578841,0.034871678454846705,11.833004451958987,0.7887194637697318,0.43208099899999963,0.15916192949999997,-0.4117812334999993
81832.0,-1.4230429814999999,-0.25664003049999995,11.450146473499998,0.6332560671718506,-0.335511623427878,-0.02454980125855224,11.541090489943137,0.7170662373916401,0.30175062050000023,0.15925999600000007,-0.2490889100000011
81842.0,-1.244660018,-0.1621039245,11.29333814,0.5788977876184872,-0.17536719258188627,-0.07304551985446668,11.362875630188192,0.6092716542843929,0.17838296349999982,0.09453610599999995,-0.156808333499999
81852.0,-1.0998157975,-0.260268491,11.237146035499999,0.5064194997709187,0.001296779634231787,-0.11807850521442437,11.293838386438479,0.5200047353431699,0.1448442205,-0.0981645665,-0.056192104500000895
81862.0,-1.0064564894999999,-0.37284883299999994,11.186837921,0.4344752826744604,0.1614412104802235,-0.1617780590258584,11.238207756944599,0.4909217616673213,0.09335930800000014,-0.11258034199999994,-0.05030811449999817
81872.0,-1.0184206025,-0.4745437935,11.249110148499998,0.4070299801868496,0.2922745818682224,-0.20787569522953261,11.305080781163463,0.5425035858354422,-0.01196411300000011,-0.10169496050000004,0.06227222749999761
81882.0,-1.135806203,-0.4996488175,11.392777571,0.44486697304083467,0.3852692150729843,-0.24065123325273413,11.4601520694048,0.6358081533383556,-0.11738560050000002,-0.02510502400000003,0.14366742250000186
81892.0,-1.3129143019999998,-0.4147232285,11.669227034499999,0.5354652691826083,0.4350983652174224,-0.25237460983838006,11.750174420124972,0.7346608643494978,-0.1771080989999998,0.08492558900000002,0.27644946349999877
81902.0,-1.5726924605000001,-0.318912258,12.0583549065,0.6641658482246702,0.43909516920448943,-0.23771908010938367,12.164661510076177,0.8309218992268566,-0.2597781585000003,0.09581097049999998,0.3891278720000013
81912.0,-1.81815291,-0.15729866599999998,12.504851680999998,0.8136515533287325,0.38819962288708276,-0.2012137734746703,12.637315317672314,0.923696259643747,-0.2454604494999999,0.16161359200000003,0.44649677449999814
81922.0,-2.0108535825,-0.1011065615,12.934579084,0.9610062114161098,0.28534562473780495,-0.14552380770203519,13.090343415941451,1.0129818569675628,-0.19270067249999978,0.05619210449999998,0.4297274030000011
81932.0,-2.110194947,-0.07953193149999999,13.3224320915,1.0878410334877897,0.1475850415486405,-0.08157319857971097,13.488752532206288,1.1008331596364735,-0.0993413645000003,0.02157463000000001,0.3878530075000004
81942.0,-2.144910488,0.1156204035,13.6780212205,1.1648484507442833,0.010623819156889484,-0.03760660939272182,13.845659016012426,1.1655037691079564,-0.03471554099999974,0.19515233499999998,0.35558912900000017
81952.0,-2.1736439725,0.22574908299999996,13.859934577999999,1.147794838623047,-0.10102489309318777,-0.01655619328441821,14.031160938215374,1.1523511305718703,-0.028733484500000017,0.11012867949999997,0.18191335749999915
