timestamp,ax,ay,az,gx,gy,gz,acc_mag,gyro_mag,dax,day,daz
110642.0,0.5522124614999999,-3.3278866774999996,8.0788163365,-0.05004382564243341,0.1262187208457259,-0.15593644201943338,8.754829623688694,0.20676490013186877,0.0,0.0,0.0
110652.0,0.3917756675,-4.050930982,8.501384885,-0.07056191632887876,0.10303725772073724,-0.12049753155768851,9.425342166599524,0.1735376490163142,-0.16043679399999994,-0.7230443045000001,0.42256854850000103
110662.0,0.4647371435,-4.220978293,8.4834387155,-0.06283534373029985,0.09131213580583933,-0.09491624071120762,9.486905227848016,0.14592902150661083,0.07296147600000003,-0.17004731100000026,-0.017946169500000053
110672.0,0.36657257699999996,-4.2377476645,8.428423408999999,-0.02579596634447619,0.05480682917112594,-0.08052774635776637,9.440932257121792,0.10076675214027236,-0.09816456650000005,-0.016769371499999686,-0.055015306500001415
110682.0,0.361865385,-4.1802806955,8.384097351,0.02882760325519034,0.016702800941585733,-0.07013605599139214,9.375435010764907,0.07764715460827004,-0.004707191999999971,0.057466969000000034,-0.044326057999999335
110692.0,0.365395779,-4.0748592079999995,8.428423408999999,0.10023949492979033,-0.012608258516407038,-0.069869020615837,9.368901365779903,0.12283568116965146,0.0035303939999999923,0.10542148750000013,0.044326057999999335
110702.0,0.420509152,-3.989933619,8.485890377999999,0.1599280100187444,-0.020334831114985935,-0.0722671030080772,9.386518723061023,0.17667203491840652,0.05511337300000002,0.08492558899999958,0.057466969000000034
110712.0,0.4480658385,-3.943253965,8.4583336915,0.18524226548967015,-0.004879940588576145,-0.0759968716195891,9.343094972485453,0.2002848852007005,0.027556686499999983,0.04667965400000007,-0.02755668649999876
110722.0,0.4982758865,-4.015038643,8.4451927805,0.18071139075149287,0.030026644451310446,-0.07706326779255762,9.364298973423475,0.19873840435912632,0.05021004800000001,-0.07178467799999977,-0.013140911000000699
110732.0,0.5078864035,-4.1239905245,8.381743755,0.16285841783284288,0.07505788448201615,-0.08132710715517977,9.35515231407311,0.19690263746370337,0.00961051700000004,-0.10895188150000035,-0.06344902549999887
110742.0,0.5042579429999999,-4.253242171499999,8.3302588425,0.14553951566530315,0.11049854027301301,-0.08639030731521533,9.366832838561498,0.20212610722164281,-0.003628460500000097,-0.12925164699999936,-0.0514849125000012
110752.0,0.5401502819999999,-4.3214964555,8.281127525999999,0.13727887231561398,0.13368000339800168,-0.09038711130228233,9.356503996895347,0.21186236565824418,0.035892338999999995,-0.06825428400000089,-0.049131316500000466
110762.0,0.4767012565,-4.2497117775,8.221306961,0.145272480289748,0.1432723329669625,-0.09651496230603442,9.266994249850269,0.22571263339092618,-0.06344902549999992,0.07178467800000021,-0.05982056499999899
110772.0,0.4839581775,-4.243729721,8.18659142,0.16685522181990992,0.1291508739890764,-0.09731432310344784,9.233836501719395,0.23235896966072964,0.007256920999999972,0.005982056499999722,-0.03471554100000063
110782.0,0.5341682255,-4.2412780585,8.216501702499999,0.19456755968307587,0.10863278330263106,-0.09545031146231789,9.262001699947627,0.24242190257350343,0.05021004800000001,0.0024516625000003955,0.029910282499999497
110792.0,0.5869280025,-4.168316582499999,8.161486395999999,0.20442692462759182,0.09051277500842593,-0.08958775050486893,9.183093585723505,0.24085035809179045,0.05275977700000001,0.07296147600000058,-0.05501530649999964
110802.0,0.6084045659999999,-4.176652235,8.0776395385,0.19536692048048926,0.08651597102135891,-0.07120070683510868,9.113881748300152,0.22521720074989282,0.021476563499999934,-0.008335652500000457,-0.08384685749999932
110812.0,0.6491021634999999,-4.278445262,7.973492915499999,0.17937970453222118,0.0979740575607017,-0.046952847537151454,9.072101010908074,0.20971543635322043,0.040697597500000016,-0.10179302700000026,-0.10414662300000099
110822.0,0.629979196,-4.406520111,7.828648695,0.1652565002250831,0.10889981867818618,-0.029099874618501456,9.005666752982005,0.2000392063511481,-0.019122967499999977,-0.12807484899999988,-0.14484422049999868
110832.0,0.5318146295,-4.374158166,7.6586994505,0.16179376698912634,0.10676702633224912,-0.026169466804402977,8.835822753678556,0.1956048617524361,-0.09816456649999994,0.03236194499999989,-0.1699492444999997
110842.0,0.41933235399999996,-4.2030321235,7.612019796499999,0.1940352342612176,0.10490301469111918,-0.03815987876560402,8.705410044138759,0.22385372673577797,-0.11248227550000006,0.17112604250000008,-0.04667965400000096
110852.0,0.44080891749999995,-4.1024158945,7.6059396735,0.2478611883927227,0.11262958728969807,-0.0512166868997736,8.653002195198788,0.27702660821930075,0.02147656349999999,0.10061622899999989,-0.006080122999999382
110862.0,0.537796686,-4.037790071,7.652717394,0.27903625949184546,0.14060896052841917,-0.057079247857222556,8.669317011470334,0.31763210547428816,0.09698776850000002,0.06462582350000012,0.04677772049999973
110872.0,0.573689025,-3.8738228829999994,7.744801837499999,0.2763711417240501,0.18324211816688468,-0.04828627908567512,8.678570062424065,0.3350973688289438,0.035892338999999995,0.16396718800000043,0.09208444349999922
110882.0,0.5916351945,-3.7481016299999994,7.9196544069999995,0.2579858433835418,0.21948038942604292,-0.028567549196643185,8.781755175276421,0.33991828664552226,0.017946169500000053,0.12572125300000003,0.1748525695000005
110892.0,0.5557428554999999,-3.6092394659999996,7.973492915499999,0.21775076813731656,0.24905848425959082,-0.0048520153205442364,8.769951477511146,0.3308611002501609,-0.035892339000000106,0.13886216399999984,0.05383850849999927
110902.0,0.467188806,-3.4954823259999994,7.889744124499999,0.1777809829373944,0.2727740181356898,0.009536479032897017,8.642032424257174,0.3257340745092853,-0.0885540494999999,0.11375714000000015,-0.08374879099999966
110912.0,0.40128811799999997,-3.3865304445,7.758040815,0.1692533042121501,0.30768060317557633,0.019662879352968118,8.474480390701203,0.351711050980299,-0.06590068800000004,0.10895188149999946,-0.13170330949999887
110922.0,0.261249156,-3.2476682805,7.657424585999999,0.21002245020948565,0.360440161134113,0.01806415775814131,8.321763735648458,0.4175558084207334,-0.140038962,0.13886216399999984,-0.10061622900000078
110932.0,0.11287454149999998,-3.2333505715,7.667035102999999,0.2968892324104954,0.40547140116481867,0.010068804454755286,8.32170198042278,0.5026446600800635,-0.1483746145,0.014317709000000178,0.009610516999999597
110942.0,-0.025987622499999998,-3.2441378865,7.7412714435,0.3960134619482614,0.42758821344609077,-0.005918411493512772,8.393592171716259,0.5828321970489219,-0.13886216399999998,-0.010787314999999964,0.07423634050000061
110952.0,-0.204370586,-3.1914761759999997,7.904061833499999,0.49167321292081856,0.4150654760630315,-0.03389603940298187,8.526516345271904,0.6443375196358816,-0.1783829635,0.052661710500000236,0.16279038999999962
110962.0,-0.320481322,-2.9592547039999997,8.003403197999999,0.5942619210237933,0.37136417692234547,-0.07546454619773083,8.538990539323345,0.7048074066104368,-0.11611073600000002,0.23222147199999998,0.09934136449999986
110972.0,-0.41864588849999995,-2.4923600974999998,8.1447170245,0.712570809699481,0.3242001445457027,-0.1290234649536808,8.527809721420168,0.7934166289333001,-0.09816456649999994,0.4668946064999999,0.14131382650000113
110982.0,-0.388735606,-2.096073371,8.2943665035,0.8386080163029994,0.3351259056631872,-0.17991726594183546,8.563945039663105,0.920838205244661,0.02991028249999994,0.39628672649999963,0.14964947899999892
110992.0,-0.32646337849999996,-1.611232595,8.536100425999999,0.960913708965754,0.43345077440353974,-0.23294385927592717,8.692966081577072,1.0795821281790992,0.062272227500000055,0.4848407760000002,0.24173392249999992
111002.0,-0.236732531,-1.412549866,8.9096357245,1.0509779343564174,0.6109141074170712,-0.274245330695121,9.024020620458318,1.2461866499659493,0.08973084749999996,0.19868272899999995,0.3735352985000002
111012.0,-0.1983885295,-1.493945061,9.3477968465,1.045914734196382,0.8192889668126742,-0.2873021388292906,9.468502296422534,1.359306647274982,0.0383440015,-0.08139519500000003,0.43816112200000035
111022.0,-0.307340411,-1.7741210514999999,9.793116822999998,0.943060736047104,0.9631774010055907,-0.27238131905399104,9.957263717635216,1.3752330132203714,-0.10895188149999999,-0.28017599049999986,0.44531997649999866
111032.0,-0.4378669225,-2.2493513105,10.033673947499999,0.7767884541973603,0.9922231704172804,-0.23560897704372252,10.292031949260938,1.2819589355945975,-0.1305265115,-0.47523025899999993,0.24055712450000044
111042.0,-0.605462571,-2.8526564184999996,9.912757953,0.5894657562393129,0.892299580082101,-0.19590622721935552,10.332811998756966,1.087220156296231,-0.16759564850000003,-0.6033051079999998,-0.1209159944999989
111052.0,-0.7765886135,-3.4021230179999997,9.481853752,0.4181302742295335,0.6807272774968444,-0.15966621063094524,10.103617247230803,0.8146875789974805,-0.17112604249999996,-0.5494665995000001,-0.4309042010000006
111062.0,-0.9597768354999999,-3.7469248319999995,8.8078426975,0.2971562677860506,0.38815249899727894,-0.12955753570479106,9.619704270637673,0.5057166845381571,-0.18318822199999996,-0.34480181399999976,-0.6740110544999993
111072.0,-1.163264823,-3.7864456315,8.0452775935,0.2755717809266367,0.03562217003320427,-0.11783241378989316,8.967544096641388,0.30181653894461347,-0.20348798750000008,-0.039520799500000425,-0.7625651040000001
111082.0,-1.24348322,-3.3650538809999997,7.377346661999999,0.3784275244051665,-0.3113126333489766,-0.12449433554475553,8.203357965600262,0.5055905324398662,-0.08021839699999989,0.4213917505000002,-0.6679309315000008
111092.0,-1.1225672254999999,-2.602488777,6.7931645215000005,0.5854689522522458,-0.5657833836190018,-0.13728410830336998,7.360719341636662,0.825670429180651,0.12091599450000001,0.7625651039999997,-0.5841821404999985
111102.0,-0.789827591,-1.6939026544999998,6.518970587499999,0.8260835335906881,-0.6366629498717434,-0.141280912290437,6.781600942780185,1.0524799344342322,0.3327396344999999,0.9085861225000003,-0.27419393400000125
111112.0,-0.37441789699999994,-0.997140172,6.6578327515,0.9984854117734361,-0.47678555440130693,-0.11730008836803489,6.7424931762039,1.1126800497633085,0.41540969400000005,0.6967624824999997,0.13886216400000073
111122.0,-0.09669356900000001,-0.627233334,7.078047703999999,1.0200681533035978,-0.12532162161020083,-0.06773797359915193,7.106442893717389,1.0299674651631197,0.2777243279999999,0.369906838,0.4202149524999994
111132.0,-0.15886772999999998,-0.588987399,7.6706635635,0.8937656566537763,0.2679778533512093,-0.01684242728174528,7.694883015109629,0.933227113974524,-0.06217416099999998,0.038245935000000064,0.5926158595000004
111142.0,-0.355196863,-0.7242211024999999,8.452351635,0.7077746449150005,0.5557564670662944,0.019662879352968118,8.490754335068146,0.9001093419663045,-0.196329133,-0.13523370349999997,0.7816880714999996
111152.0,-0.5790826825,-0.869065323,9.152644511499998,0.5702793517721392,0.6348966766687253,0.04657585641872068,9.212030875040723,0.8546821862562601,-0.22388581949999997,-0.1448442205,0.7002928764999989
111162.0,-0.7682529610000001,-0.951637316,9.587177173,0.4900744913259918,0.5008658620910728,0.08281412767787895,9.664874150229853,0.7056187345866826,-0.18917027850000012,-0.08257199300000007,0.43453266150000225
111172.0,-0.9082919229999998,-1.1216846269999998,9.7547728215,0.46769238899841653,0.20748997746484188,0.12091815590741914,9.860971727923685,0.5257465757410672,-0.14003896199999977,-0.1700473109999998,0.16759564849999897
111182.0,-1.103444258,-0.6763646504999999,9.8253807015,0.5367061982807763,-0.16155989286935912,0.1337079286660336,9.910255511356294,0.5762230058277124,-0.19515233500000007,0.4453199764999999,0.07060788000000073
111192.0,-1.0567646039999998,-0.33156283649999996,9.745162304499999,0.6715363736558422,-0.47332107583609817,0.13184217169565166,9.80789853556117,0.8320915215352852,0.04667965400000007,0.344801814,-0.08021839700000122
111202.0,-0.872399584,0.0155925735,9.6027697465,0.7949084624915653,-0.6385287068421255,0.12704600691117124,9.642329125621433,1.0274916355252022,0.18436501999999988,0.34715540999999994,-0.14239255799999917
111212.0,-0.6629295399999999,0.3496070725,9.7080931675,0.8849726878822287,-0.6220074201427471,0.10333221836432427,9.736979697473277,1.0866220301292555,0.20947004400000002,0.334014499,0.10532342099999958
111222.0,-0.48572337449999997,0.435807526,9.9618892695,0.9156154335594933,-0.44960554195999924,0.07215540193594958,9.98324061685549,1.0225962876727168,0.17720616549999996,0.0862004535,0.2537961020000008
111232.0,-0.4402205185,0.458558954,10.34013176,0.8447358673067515,-0.18660711296472973,0.02179392636965319,10.359652273766851,0.8653761467420552,0.04550285599999998,0.022751428000000018,0.3782424904999999
111242.0,-0.44139731649999997,0.415409694,10.9219603045,0.7237618608632685,0.0809204454394651,-0.04855156913197826,10.938766552859436,0.7298880767594166,-0.001176797999999979,-0.04314926000000002,0.5818285445000004
111252.0,-0.5072980045,0.4645410105,11.460639589,0.6022555289979273,0.2754391359034851,-0.1180994491654483,11.481263406296371,0.6727004680309165,-0.06590068799999999,0.04913131650000002,0.5386792844999988
111262.0,-0.5647649735,0.5674127689999999,11.9263573975,0.49726873850271236,0.36683504751342016,-0.1615319676013272,11.95319695724201,0.6386992460723657,-0.057466969000000034,0.10287175849999991,0.4657178085000009
111272.0,-0.5539776584999999,0.5363256885,12.2507613795,0.4317194077855614,0.34098846662063614,-0.16659516776136274,12.275002683002187,0.5748119095394989,0.010787315000000075,-0.031087080499999975,0.32440398199999976
111282.0,-0.48336977849999996,0.436984324,12.473372334499999,0.4117353878502263,0.22534295038349186,-0.1356853867085432,12.490381060530492,0.48858571311691057,0.07060787999999996,-0.09934136449999997,0.2226109549999986
111292.0,-0.5227925115,0.3268556445,12.4973005605,0.40693922306574587,0.0662649157104687,-0.08106007177962464,12.512500466409405,0.4201919865494656,-0.03942273299999999,-0.11012867949999999,0.023928226000000663
111302.0,-0.6569474834999999,0.24899084349999998,12.3680489135,0.421060682043632,-0.0930784090088576,-0.04055796115784423,12.387986533854173,0.4331288912090141,-0.13415497199999993,-0.07786480100000001,-0.12925164700000025
111312.0,-0.6629295399999999,0.033538742999999996,12.233992008,0.4588994202268691,-0.21085497226268693,-0.02190562744178083,12.251985997139178,0.5054981243546539,-0.005982056500000055,-0.21545210049999997,-0.1340569054999996
111322.0,-0.5994805145,-0.0897308475,12.038839672999998,0.470622796812515,-0.2550885968252313,-0.02430370983402104,12.054090143368638,0.5358606903119462,0.06344902549999998,-0.1232695905,-0.1951523350000013
111332.0,-0.6496905625,-0.13042844499999998,11.8592799115,0.42052835662177374,-0.24096539251809312,-0.03736051796819062,11.877778808580926,0.486111332327544,-0.05021004800000006,-0.040697597499999974,-0.17955976149999842
111342.0,-0.6772472489999999,-0.11846433199999999,11.749151232,0.35071518654200057,-0.19779816412851736,-0.06320709886097464,11.769250286515339,0.40757869565302746,-0.027556686499999872,0.011964112999999985,-0.11012867950000071
111352.0,-0.664106338,-0.17240090699999996,11.6976663195,0.30088603639756245,-0.1258539470320591,-0.10264455863903851,11.717770975030655,0.34191742906846184,0.013140910999999922,-0.05393657499999997,-0.051484912499999425
111362.0,-0.628213999,-0.0538385085,11.734833522999999,0.25585479636685676,-0.05604077695228593,-0.14261259850970864,11.751760260746543,0.2982291044801512,0.035892338999999995,0.11856239849999997,0.037167203499999246
111372.0,-0.550349198,0.11493393799999999,11.82093591,0.220681175951415,-0.0038135444156076103,-0.17059197174842977,11.834298451457567,0.2789558125677367,0.07786480099999993,0.16877244649999998,0.08610238700000039
111382.0,-0.4162922925,0.217903763,12.0220703015,0.20629268159797376,-8.377580409572782e-05,-0.17272301876511484,12.031249131197173,0.2690537468808092,0.13405690550000005,0.10296982500000001,0.20113439150000012
111392.0,-0.355196863,0.2801759905,12.1801534995,0.21162117180431245,-0.05497438077931739,-0.1500738810619844,12.188552115346589,0.2651940283545358,0.06109542950000002,0.06227222750000003,0.15808319799999992
111402.0,-0.3252865805,0.331660903,12.201630063,0.23187222711520267,-0.18394374052618637,-0.10983880581575915,12.210470363926916,0.3156969949954563,0.029910282499999996,0.05148491249999998,0.021476563500000267
111412.0,-0.25105024,0.29567049749999996,12.049626988,0.25585479636685676,-0.33156368865986674,-0.06693861280173852,12.055868190057234,0.42411900964880583,0.0742363405,-0.035990405500000044,-0.15200307499999965
111422.0,-0.168478247,0.296945362,11.829369629,0.2793032948674006,-0.4298885574002193,-0.03416307477853701,11.834295386174587,0.5137914148618598,0.08257199299999998,0.001274864500000028,-0.22025735899999965
111432.0,-0.18289402249999998,0.324403982,11.724046207999999,0.30408347958721604,-0.4514712989303812,-0.026169466804402977,11.729959405484864,0.5449568215084395,-0.014415775499999978,0.02745861999999999,-0.10532342100000136
111442.0,-0.1254270535,0.31969678999999995,11.6988431175,0.29262539304787333,-0.3912504584195689,-0.04082499653339937,11.703882615233422,0.4902787189057845,0.05746696899999998,-0.004707192000000027,-0.025203090499999803
111452.0,-0.075118939,0.2825295865,11.67972015,0.21695140733990315,-0.27693837373094826,-0.06933669519397873,11.683378304435767,0.3585670833915596,0.0503081145,-0.03716720349999997,-0.019122967499999532
111462.0,-0.015298373999999998,0.262229821,11.610289068,0.11542909540989697,-0.155432041865607,-0.09811368390086124,11.613260126329259,0.21704674767030493,0.059820565,-0.02029976550000001,-0.06943108199999948
111472.0,0.05295591,0.21427530250000001,11.526442210499999,0.03389080341522589,-0.05497438077931739,-0.11170281745688909,11.52855534165758,0.1290282470081879,0.068254284,-0.04795451849999996,-0.08384685750000109
111482.0,0.1595541955,0.15327793950000002,11.4211187895,-0.003146828641345776,0.007909832170038301,-0.10983880581575915,11.423261621441968,0.11016819522207039,0.1065982855,-0.060997363,-0.10532342099999958
111492.0,0.158279331,0.102969825,11.3493341115,0.012840387306922283,0.02389704811830636,-0.09438391528934935,11.35090480560646,0.09820523367065268,-0.0012748645000000003,-0.050308114500000015,-0.07178467800000021
111502.0,0.146315218,0.0742363405,11.228418117,0.05813866271318312,-0.003014183618194207,-0.06773797359915193,11.229616760488447,0.08931753731648037,-0.011964112999999998,-0.028733484500000003,-0.1209159944999989
111512.0,0.17985396099999998,0.0850236555,11.203313092999998,0.0999742048834872,-0.020601866490541063,-0.042690753503781306,11.20507923796468,0.11064257308875355,0.03353874299999998,0.010787315000000006,-0.02510502400000192
111522.0,0.14513842,0.08267005949999999,11.199684632499999,0.10743548743576295,-0.02699675286984829,-0.017908823454713816,11.200930111698513,0.11221378963214702,-0.03471554099999999,-0.0023535960000000133,-0.003628460499999875
111532.0,0.1020872265,0.09100571199999999,11.0978916055,0.07572634558552997,-0.029394835262088498,0.006072000467688272,11.098734248951924,0.08145799497596318,-0.04305119349999999,0.008335652499999999,-0.10179302699999937
111542.0,0.0577611685,0.140038962,10.911172989499999,0.015238469699162491,-0.02646442744799002,0.026590091154133612,10.912224487713715,0.04049209585224449,-0.044326058,0.04903325,-0.18671861600000028
111552.0,0.088848249,0.09218251,10.659828549999999,-0.04738045320389007,-0.010210176124166827,0.04657585641872068,10.660597372656719,0.06721953171087855,0.031087080500000003,-0.047856451999999994,-0.2513444395000004
111562.0,0.169066646,0.10532342099999999,10.433491067999999,-0.09161233243718235,0.02842792285648364,0.07615220592301658,10.43539229832001,0.12247499630314965,0.08021839699999998,0.013140910999999991,-0.22633748199999992
111572.0,0.142784824,0.16406525449999998,10.2288262825,-0.11506083093772618,0.07639131603053981,0.11931943431259234,10.231138354614389,0.18251508262506652,-0.026281821999999982,0.05874183349999999,-0.20466478549999856
111582.0,-0.01765197,0.12572125299999998,10.075646409500001,-0.1121304231236277,0.1112979010704264,0.17367771386595574,10.076446198673967,0.23478586598488205,-0.160436794,-0.0383440015,-0.15317987299999913
111592.0,-0.1983885295,-0.0310870805,10.0217098345,-0.08974832079605241,0.10889981867818618,0.21817662847480315,10.02372148566216,0.2598364347170836,-0.1807365595,-0.15680833349999998,-0.053936575000001596
111602.0,-0.3911872685,-0.2370267305,9.986994293499999,-0.05377533958319729,0.07505788448201615,0.2285683188411774,9.99746288657325,0.24651358897246617,-0.19279873900000002,-0.20593965,-0.03471554100000063
111612.0,-0.5767290865,-0.48238911349999997,9.879317276499998,-0.006878342582109653,0.017236871692696,0.20325580869950363,9.9078870373955,0.20410131090347397,-0.18554181799999997,-0.24536238299999996,-0.10767701700000032
111622.0,-0.5994805145,-0.6081103664999999,9.83018596,0.040020399748229976,-0.022200588085367873,0.1494298545679985,9.867204827776256,0.15628109272575966,-0.022751427999999962,-0.12572125299999998,-0.04913131649999869
111632.0,-0.525244174,-0.5865357365,9.866078299,0.07386058861514803,-0.019802505693127664,0.0902754102301547,9.897444448670134,0.11830965926130127,0.07423634049999994,0.021574629999999928,0.035892339000000106
111642.0,-0.3935408645,-0.385401345,9.920014874,0.06080378048097845,0.014571753924900658,0.047640507262437216,9.935295854132399,0.07860695685147216,0.13170330950000003,0.2011343915,0.05393657499999982
111652.0,-0.32293298449999996,-0.2034879875,10.012197384,-0.003146828641345776,0.058538343111889816,0.02845584812451555,10.019470521425337,0.06516421899531082,0.07060788000000001,0.1819133575,0.09218251000000066
111662.0,-0.28704064549999997,-0.0550153065,10.049266521,-0.09054768159346581,0.09291085740066614,0.02872288350007068,10.053515635150212,0.13287706386520293,0.035892338999999995,0.148472681,0.037069136999999586
111672.0,-0.30018155649999995,-0.07541313849999999,10.026515093,-0.1696861458666447,0.10250493229887897,0.04497538949464188,10.031291094294792,0.20328166396620412,-0.013140910999999977,-0.02039783199999999,-0.022751427999999407
111682.0,-0.29302270199999997,-0.16877244649999998,9.966694527999998,-0.20565912707949982,0.08678300639691404,0.06389475858626041,9.972429305693277,0.23218420903494963,0.007158854499999978,-0.09335930799999999,-0.059820565000002546
111692.0,-0.34323275000000003,-0.2944936995,9.831362758000001,-0.19579976213498387,0.05560618996853934,0.0793496491126702,9.841759443265577,0.21846272457615606,-0.05021004800000006,-0.125721253,-0.13533176999999696
111702.0,-0.42462794499999995,-0.4249221445,9.7547728215,-0.15156613757243959,0.007909832170038301,0.08601157086753256,9.773252300009268,0.17445013564536552,-0.08139519499999992,-0.130428445,-0.07658993650000134
111712.0,-0.467777205,-0.521909913,9.738003449999999,-0.07829023425670964,-0.04085292180143127,0.07695156672042999,9.763191930051216,0.11713183009077045,-0.04314926000000002,-0.09698776850000002,-0.016769371500000574
111722.0,-0.47856452,-0.524263509,9.7547728215,-0.004213224814314312,-0.07496014604390447,0.05350306821988617,9.780565884740355,0.0921919360204635,-0.01078731500000002,-0.002353595999999958,0.016769371500000574
111732.0,-0.45463629399999994,-0.512299396,9.796647216999999,0.03309144261781249,-0.08162206779876681,0.026323055778578477,9.820562179698157,0.09192447330170904,0.023928226000000052,0.011964112999999998,0.04187439549999894
111742.0,-0.410310236,-0.45846088749999997,9.817045049,0.029893999428158877,-0.05630781232784106,-0.0011222467090323538,9.836305931051001,0.06376111956854323,0.044326057999999946,0.05383850849999999,0.020397832000002225
111752.0,-0.354020065,-0.404622379,9.8828476705,-0.0012828170002158322,-0.009676105373056564,-0.01604306648433188,9.897460661923214,0.018779047283268385,0.056290171,0.05383850849999999,0.0658026214999996
111762.0,-0.367160976,-0.38422454699999997,9.857742646499998,-0.04551469623350813,0.0257628050886883,-0.02057394122250916,9.87205782850969,0.05620139461520083,-0.013140910999999977,0.020397832000000005,-0.02510502400000192
111772.0,-0.37441789699999994,-0.46326614599999993,9.8230271055,-0.08255232829007979,0.035889205408759395,-0.020839231268812295,9.841070358401636,0.0923969454628251,-0.007256920999999972,-0.07904159899999996,-0.03471554099999885
111782.0,-0.40668177549999995,-0.5315204299999999,9.7798778455,-0.09108000701532408,0.019634954084936207,-0.02430370983402104,9.802750364409619,0.09629002758087324,-0.03226387850000001,-0.068254284,-0.043149259999999856
111792.0,-0.4199207529999999,-0.6104639625,9.726039337,-0.07349406947222922,-0.0200677957394308,-0.0333637139811236,9.754221694896147,0.08316989890605012,-0.013238977499999971,-0.07894353250000008,-0.05383850850000016
111802.0,-0.3600021215,-0.6451795035,9.595610892,-0.046581092406476655,-0.060571651690463205,-0.04162435733081277,9.62401197577653,0.0870132764668398,0.05991863149999993,-0.03471554099999996,-0.13042844499999973
111812.0,-0.30498681499999997,-0.639197447,9.4746948975,-0.017270032948483893,-0.08908160502179058,-0.05068436147791533,9.501128024307834,0.10393599419702498,0.05501530650000003,0.005982056499999944,-0.12091599450000068
