timestamp,ax,ay,az,gx,gy,gz,acc_mag,gyro_mag,dax,day,daz
34112.0,0.40305331499999997,-1.7837315685,7.6226109785,-0.09988170243313149,0.057283451379705884,0.048633599606821995,7.8388996940096565,0.12499190091213282,0.0,0.0,0.0
34122.0,-0.013533176999999999,-1.52395341,7.162973292999999,-0.052185344634630454,0.13322621779248317,0.055562556737239484,7.323305506324422,0.1534918011266539,-0.416586492,0.25977815849999986,-0.4596376855000006
34132.0,-0.184757286,-1.3731271329999999,7.105506323999999,-0.018877481189570666,0.11297516248159295,0.0425057486030699,7.239325486432757,0.12217399599797128,-0.17122410899999999,0.15082627700000018,-0.057466969000000034
34142.0,-0.047071919999999996,-1.6988059795,7.252704140499999,0.03947760235085974,0.12150109587758526,0.05076639195275907,7.449152627733121,0.13747081122452118,0.137685366,-0.3256788465,0.1471978164999994
34152.0,-0.0075511204999999994,-1.6712492929999998,7.4215746535,0.10076309370538862,0.11777132726607337,0.019856610899939488,7.607424107820428,0.15626122863821684,0.039520799499999995,0.027556686500000094,0.16887051300000078
34162.0,0.1313110435,-1.7561748819999998,7.6573265195,0.13060822391449167,0.11830365268793164,-0.036100390248250715,7.85722866108342,0.17988190728775572,0.138862164,-0.08492558900000002,0.2357518660000002
34172.0,0.27850886,-1.600641413,7.835709482999999,0.1106224586499046,0.09885195817445484,-0.09632123075906306,8.002372349502693,0.1768808002232427,0.14719781650000002,0.15553346899999987,0.17838296349999894
34182.0,0.5179872529999999,-1.5060072405,7.912397486,0.04454080251089529,0.049556878781126995,-0.15307759270466664,8.071084349650176,0.16695064154143793,0.2394783929999999,0.09463417249999995,0.076688003000001
34192.0,0.7513855229999999,-1.371950335,7.836886280999999,-0.030602603104468575,0.001059414855960558,-0.19118162093420688,7.9914713605947805,0.19361832005168683,0.23339827000000002,0.13405690550000005,-0.07551120500000064
34202.0,0.9536967125,-1.2234776539999999,7.659778181999999,-0.10654362418799385,-0.038643334968406454,-0.19970929965945117,7.815282258927944,0.22962720997970035,0.20231118950000004,0.1484726810000001,-0.1771080989999998
34212.0,1.030286649,-1.0128308119999998,7.3317457395,-0.16863022166918812,-0.05516287633853278,-0.1759937657833522,7.472737946798391,0.2499057826076564,0.07658993650000001,0.21064684200000006,-0.32803244249999963
34222.0,1.0435256265,-0.7758040814999999,7.076772839499999,-0.19447680256197214,-0.028516934648335348,-0.13602398058343007,7.195243673977912,0.23903339848277913,0.013238977499999915,0.2370267304999999,-0.2549729000000003
34232.0,1.0422507619999999,-0.6489060305000001,7.026464724999999,-0.18754784543155467,0.0418285608532961,-0.07047464986627902,7.132921716868773,0.20467168612890949,-0.001274864500000028,0.12689805099999985,-0.050308114499999945
34242.0,1.0554897395,-0.6261546025,7.049216153,-0.17022894326401491,0.13482493938730997,0.018523179351415817,7.155248182148389,0.21794211520231635,0.013238977500000138,0.022751428000000073,0.022751428000000296
34252.0,1.0470560205,-0.6489060305000001,7.092365413,-0.1662321392769479,0.20783555265673676,0.10006147134608691,7.198545165379128,0.28432558647555023,-0.008433719000000117,-0.022751428000000073,0.043149259999999856
34262.0,0.92378643,-0.8775971085,7.165326888999999,-0.16889551171549128,0.25846231826933624,0.1877276143445101,7.277737799572482,0.3613448782399972,-0.12326959049999986,-0.22869107799999988,0.07296147599999969
34272.0,0.693918554,-1.211513541,7.183273058499999,-0.15237597034536493,0.25073574567075735,0.24901310569903898,7.317697715305254,0.3848303227471076,-0.22986787600000003,-0.3339164325,0.017946169500000053
34282.0,0.4796432515,-1.547881636,7.1593448324999995,-0.0913557690371392,0.16839809287867288,0.2615375884113503,7.340450506502989,0.3242000992806235,-0.21427530250000004,-0.3363680950000001,-0.023928225999999775
34292.0,0.3958944605,-1.8268808285,7.1246292915,0.01576206847476079,0.04982216882743013,0.22956141118556217,7.365770056599325,0.23543392451976572,-0.08374879099999999,-0.27899919249999994,-0.03471554099999974
34302.0,0.4317867995,-1.9465219585,7.123452493499999,0.14766183603572824,-0.06475520590749362,0.17333911999106882,7.39722671021353,0.23673551704981308,0.035892338999999995,-0.11964112999999998,-0.0011767980000003675
34312.0,0.46532554249999997,-1.8615963695,7.105506323999999,0.27583008965593186,-0.1406979723202709,0.12644037766072921,7.3600468085361035,0.3344627436316681,0.03353874299999998,0.08492558900000002,-0.017946169500000053
34322.0,0.5120051965,-1.6880186645,7.24319169,0.3906744997664107,-0.15348774507888532,0.10245955373832712,7.454889817497534,0.4320682964641045,0.046679654000000015,0.17357770500000003,0.13768536600000036
34332.0,0.5934003915,-1.6113306615,7.480218420499999,0.47727599192111736,-0.11218627365969153,0.09713106353198843,7.674775445816632,0.49981254082384613,0.08139519500000003,0.0766880029999999,0.23702673049999934
34342.0,0.6771491825,-1.6891954624999999,7.7998171439999995,0.5228395573736813,-0.04743630373995389,0.11072019708801628,8.0093108196478,0.5365355232511871,0.08374879099999999,-0.07786480099999982,0.3195987235000004
34352.0,0.6688135299999999,-1.7622550049999999,8.1290263845,0.5377621224782329,0.01251750139530333,0.13097125239890647,8.344694374298902,0.5536228474046329,-0.008335652500000124,-0.07305954250000002,0.3292092405
34362.0,0.6316463265,-1.8699320219999997,8.434307399,0.5534840483801977,0.04609240021591825,0.14216230356269413,8.662168559287455,0.573305522146132,-0.03716720349999991,-0.10767701699999987,0.3052810145000002
34372.0,0.620957078,-1.9405399019999998,8.659370016499999,0.5993146492083169,0.05781752213081615,0.14216230356269413,8.895840145069585,0.6186525965154328,-0.01068924849999997,-0.07060788000000007,0.225062617499999
34382.0,0.5718257615,-1.986042758,8.940624738499999,0.6781878234351927,0.04982216882743013,0.1357674171833869,9.176389336378305,0.6934362003321436,-0.04913131650000002,-0.04550285600000015,0.2812547219999999
34392.0,0.5131819945,-1.938186306,9.243552157,0.77198356276662,0.02131221549610276,0.12084485207883539,9.458497681737004,0.781675322614928,-0.05864376699999996,0.047856451999999994,0.30292741850000127
34402.0,0.568197301,-1.9370095079999998,9.582273848,0.8537871448075941,-0.026918213053508545,0.10059379676794518,9.79259036746717,0.8601140568441423,0.05501530649999997,0.0011767980000001454,0.33872169099999994
34412.0,0.6616546755,-1.9166116759999998,9.8312646915,0.8974866986190281,-0.08500626121838382,0.0968640281564333,10.038174767383019,0.906692383664438,0.09345737450000002,0.020397832000000005,0.24899084349999967
34422.0,0.7502087249999999,-1.8508090545,10.02043497,0.9041486203738904,-0.1462934979021647,0.11898084043770543,10.217505775642323,0.9236032457953594,0.0885540494999999,0.06580262149999982,0.18917027850000068
34432.0,0.71784678,-1.7035131715,10.067114623999998,0.8929575692101028,-0.18439752613170493,0.16001527648134414,10.235431499345056,0.9257324433984743,-0.03236194499999989,0.14729588299999996,0.046679653999998294
34442.0,0.7118647235,-1.7214593409999999,10.053973713,0.8876273336745122,-0.19265816948139408,0.2095773912502271,10.22509467286122,0.9321599308473284,-0.005982056500000055,-0.01794616949999983,-0.013140910999998923
34452.0,0.644885304,-1.719105745,9.991701485499998,0.8966873378216147,-0.1524213489059168,0.2503465372475626,10.159000944637718,0.943373647142933,-0.06697941949999997,0.002353595999999847,-0.062272227500001165
34462.0,0.48082004949999996,-1.49649479,10.080255535,0.9307945620640878,-0.06475520590749362,0.2791235259544451,10.202070193220417,0.9739002496156579,-0.16406525450000004,0.22261095499999994,0.08855404950000079
34472.0,0.3515684025,-1.3839144479999999,10.403482718999998,0.9723630688588368,0.03969751383661103,0.31482947179174514,10.501012914264564,1.0228310840965151,-0.12925164699999997,0.11258034200000022,0.3232271839999985
34482.0,0.11934693049999999,-1.4905127334999997,10.769859163,0.9867515632122782,0.12629726066206567,0.3635922257632147,10.873165973597592,1.0591642706341944,-0.23222147199999998,-0.10659828549999983,0.3663764440000019
34492.0,-0.2146675685,-1.6784081475,11.030814119499999,0.9718289981077266,0.1350902294336131,0.395835438364558,11.159838538864289,1.058010711626662,-0.33401449899999996,-0.1878954140000002,0.2609549564999991
34502.0,-0.5151433245,-1.9237705305,11.320502560499998,0.9752934766729354,0.09858492279889972,0.3849096772470734,11.494348346952261,1.0531247847631795,-0.300475756,-0.24536238300000002,0.28968844099999913
34512.0,-0.7772750789999999,-2.042332929,11.559882886999999,1.0291194308044405,0.018647097728307416,0.32735395450405647,11.764615280682476,1.0800903335565912,-0.2621317544999999,-0.11856239850000017,0.23938032650000096
34522.0,-0.8766164434999999,-1.9740786449999999,11.765822537,1.1242468563551393,-0.09220225372435643,0.22636396799590855,11.962442177826263,1.150509841602025,-0.09934136449999997,0.06825428400000022,0.20593965000000125
34532.0,-0.8012033049999999,-1.7154772845,11.8628103055,1.20045491281422,-0.1780026397523977,0.10885444011763434,12.01295373311058,1.2184523899570068,0.07541313849999998,0.25860136049999993,0.09698776850000002
34542.0,-0.5055328075,-1.3216422205,11.905861498999998,1.2140440463702478,-0.20651433841297703,-0.0011938052083641214,11.989655525153236,1.231483878769052,0.29567049749999996,0.3938350639999999,0.04305119349999842
34552.0,-0.18112882549999998,-0.909860987,11.933418185499999,1.170876817980672,-0.13750052913061728,-0.07500377927520431,11.969424558311637,1.1813062622797301,0.324403982,0.41178123350000007,0.027556686500000538
34562.0,-0.084141057,-0.4035436475,12.05433418,1.0805455572144533,0.009854128956759984,-0.09179210135013777,12.06138050622842,1.0844821782508294,0.09698776849999997,0.5063173395,0.12091599450000068
34572.0,-0.0673716855,-0.10542148749999998,12.269786280499998,0.9678321941206596,0.14388494353441253,-0.06301336731400327,12.27042411667909,0.9804961587954135,0.016769371500000005,0.29812216,0.21545210049999852
34582.0,-0.14405968849999998,-0.046777720499999995,12.480531188999999,0.8537871448075941,0.20250531712114608,-0.009189158511750145,12.481450240600553,0.8775222690822118,-0.07668800299999998,0.058643766999999986,0.2107449085000006
34592.0,-0.29488596549999996,0.007060788,12.6396931185,0.772248852812923,0.17692577160391718,0.0510316819990622,12.64313448940698,0.7938987667808601,-0.15082627699999998,0.05383850849999999,0.15916192950000152
34602.0,-0.3774579585,-0.025203090499999997,12.7426629435,0.7519977975020329,0.07540345967391102,0.09206786337195288,12.748277083506375,0.7613559355811053,-0.08257199300000007,-0.032263878499999996,0.10296982499999885
34612.0,-0.360688587,0.041776328999999994,12.667249804999999,0.7541305898479699,-0.0429054290017766,0.11125252250987455,12.672452767350498,0.7634991461338274,0.01676937150000002,0.0669794195,-0.07541313850000009
34622.0,-0.267329279,0.259680092,12.502007752499999,0.7301480205963159,-0.10285923413703381,0.11524932649694156,12.507561574390184,0.7463099632766361,0.09335930800000003,0.21790376299999997,-0.16524205250000001
34632.0,-0.116503002,0.39373699749999996,12.266157819999998,0.651009556323137,-0.06608863745601729,0.11365060490211476,12.273028535688427,0.6641517977235755,0.15082627699999998,0.1340569055,-0.23584993250000075
34642.0,-0.060212830999999994,0.4931764285,12.148870286,0.5257717105170319,0.047958157186300185,0.11231891868284308,12.159025363930233,0.5397697804757084,0.056290171,0.09943943100000002,-0.11728753399999903
34652.0,-0.1201314625,0.5888893325,12.1536755445,0.40906154343617096,0.17133024602202335,0.10752275389836266,12.16852708651265,0.45634037967972685,-0.0599186315,0.09571290399999999,0.0048052585000011305
34662.0,-0.25301156999999996,0.48709630549999994,12.2087889175,0.35017238914463034,0.2384782983340012,0.1187138050621503,12.221121245510021,0.43998360015786214,-0.13288010749999996,-0.10179302700000004,0.0551133729999993
34672.0,-0.3307783045,0.350685804,12.333235306,0.3698911190336623,0.25206743189002906,0.14109590738972558,12.342653196659944,0.4693244988723041,-0.07776673450000005,-0.13641050149999995,0.12444638850000089
34682.0,-0.38461681299999995,0.292042037,12.570262036499999,0.44370109310050243,0.2368795767391744,0.15548614707241884,12.579535218381102,0.5264584844279148,-0.05383850849999994,-0.05864376700000001,0.23702673049999845
34692.0,-0.349901272,0.2501676415,12.819252879999999,0.48580192531710964,0.20410403871597288,0.16667719823620647,12.826467134421277,0.5526692118020088,0.03471554099999996,-0.041874395499999995,0.24899084349999967
34702.0,-0.3643170475,0.29684729549999994,13.0299977885,0.4588889482513571,0.18998257973808674,0.18373081035744307,13.038469526607011,0.5295559064969231,-0.014415775500000005,0.04667965399999996,0.2107449085000006
34712.0,-0.3547065305,0.3566678605,13.125710692499998,0.3832132172141349,0.22648788637280018,0.18586185737412816,13.135345822196756,0.48238341860784034,0.009610516999999985,0.05982056500000005,0.0957129039999991
34722.0,-0.38108641899999995,0.33391643249999997,13.294483139,0.28355666225451076,0.30429466442670733,0.17307208461551368,13.304135032981103,0.45050368475811675,-0.02637988849999995,-0.022751428000000018,0.168772446500002
34732.0,-0.5067096055,0.2740958675,13.4369737635,0.18070266410523292,0.3394682848421491,0.1584165548865173,13.449317718377907,0.41591823005311035,-0.12562318650000004,-0.05982056499999999,0.14249062449999883
34742.0,-0.5247538415,0.2405571245,13.3100757125,0.07838099137781335,0.28963913469771096,0.12990485622593795,13.322587954177637,0.3269704571194303,-0.018044236000000047,-0.03353874299999998,-0.1268980509999995
34752.0,-0.0171616375,-0.2693886755,13.059908070999999,-0.04658981905273663,0.1902478697843899,0.05422912518871581,13.062697409159421,0.20323794236214437,0.507592204,-0.5099458,-0.2501676415000009
34762.0,-0.25654196399999996,-0.15092434349999997,12.852791622999998,-0.06444279197138662,0.12443324902093572,0.04437150557345184,12.856237569406252,0.1469875416687703,-0.23938032649999996,0.11846433200000003,-0.20711644800000073
34772.0,-0.5043560094999999,0.342252085,12.357163532,-0.04845557602311857,0.012252211349000192,0.06755296869844052,12.372186630931346,0.08403251222381297,-0.24781404549999997,0.4931764285,-0.4956280909999986
34782.0,-0.315185731,0.1734796385,11.907038297,-0.06470982734694176,-0.059959041123013194,0.07394785507774776,11.91247238134153,0.11511183100907475,0.1891702784999999,-0.16877244649999998,-0.4501252349999998
34792.0,-0.24575464899999996,0.083748791,11.454559466,-0.10361321637389537,-0.06502224128304875,0.07021808646623587,11.457501549972807,0.14104669487724428,0.06943108200000006,-0.0897308475,-0.4524788310000005
34802.0,-0.20152665749999998,0.06452775699999999,10.9876648595,-0.14917852715571134,-0.06049311187412346,0.042238713227514775,10.989702265748502,0.1664264355313745,0.04422799149999998,-0.019221034000000012,-0.4668946064999986
34812.0,-0.17151830849999997,0.0789435325,10.465754946499999,-0.18808191618266495,-0.05809502948188325,0.007599163563183311,10.467458010981629,0.19699641350111913,0.030008349000000017,0.014415775500000005,-0.5219099130000018
34822.0,-0.18112882549999998,0.07178467799999999,10.043186397999998,-0.20859826153985828,-0.08154352798242707,-0.01744805653218731,10.045076093111229,0.2246486508974011,-0.009610517000000013,-0.007158854500000006,-0.42256854850000103
34832.0,-0.23741899649999998,0.0789435325,9.6433692775,-0.20486849292834639,-0.11991284625827041,-0.029173178447085217,9.646614477807928,0.23916785827781498,-0.056290171,0.007158854500000006,-0.39981712049999807
