timestamp,ax,ay,az,gx,gy,gz,acc_mag,gyro_mag,dax,day,daz
159562.0,1.7828489699999999,-3.8704886219999994,6.077965537,-0.12924512176868408,0.34133927780028706,0.22065848667113908,7.422997891136788,0.426505535497748,0.0,0.0,0.0
159572.0,1.679879145,-3.7220159409999996,5.145451188499999,-0.03811450020505217,0.2544724955992772,0.2161293572622138,6.568946988680917,0.336036999767857,-0.10296982499999996,0.14847268099999988,-0.9325143485000007
159582.0,1.9241627964999999,-4.179300030499999,5.2531282054999995,0.08898735724218289,0.19984718067035873,0.206537027693253,6.983144503430503,0.30085742334069543,0.24428365149999998,-0.4572840894999999,0.10767701700000032
159592.0,1.8200161735,-4.083587126499999,5.210077011999999,0.26591836483385606,0.16120908168970824,0.19241382338611485,6.865351058940027,0.3656829558582322,-0.10414662299999988,0.09571290399999999,-0.043051193500000196
159602.0,1.8080520605,-3.9256019949999996,5.1358406715,0.43698681146808027,0.13562953617247936,0.18122277222232722,6.712396195075186,0.4921326423347134,-0.01196411300000011,0.15798513149999982,-0.07423634049999972
159612.0,1.793636285,-3.8764706784999996,5.0173763395,0.5624916926497405,0.13855994398657784,0.1809557368467721,6.5892504411589385,0.6069108180575561,-0.014415775499999839,0.04913131650000002,-0.1184643319999994
159622.0,1.8080520605,-3.8836295329999997,4.897637143,0.6554863258545024,0.17373356440201956,0.17136340727781127,6.506802608621325,0.6994362673867623,0.014415775499999839,-0.007158854500000089,-0.11973919650000031
159632.0,1.7673544629999998,-3.8465603959999997,4.7790747445,0.7378239786465869,0.2310222517694814,0.1553761913295432,6.384287281402634,0.7886046316821856,-0.04069759750000013,0.03706913700000003,-0.11856239849999994
159642.0,1.7517618895,-3.8070395964999997,4.7084668645,0.8065707525533915,0.2824501235087463,0.12792914351268037,6.303322966572311,0.8641182308599549,-0.015592573499999762,0.03952079949999998,-0.07060787999999985
159652.0,1.7960879475,-3.7279979974999997,4.609125499999999,0.8689226400808889,0.3264167126957355,0.09622174699169937,6.194185891565494,0.9331843597951944,0.044326058,0.07904159899999996,-0.09934136450000075
159662.0,1.85345685,-3.5975695525,4.539694418,0.9408686025065992,0.35945754076524017,0.07863406411935252,6.0816637845829105,1.0102607420045786,0.05736890249999993,0.13042844499999973,-0.06943108199999948
159672.0,1.9780013049999998,-3.5484382359999995,4.503802079,1.0266689885346405,0.3903673218180597,0.07410493471042723,6.065322435295028,1.1008757419938833,0.12454445499999989,0.049131316500000466,-0.035892339000000106
159682.0,2.0019295309999996,-3.4814588164999996,4.42476048,1.1084725705756147,0.42927071084501334,0.07756766794638399,5.975515261753189,1.191218504733088,0.023928225999999775,0.06697941949999997,-0.07904159899999996
159692.0,1.9002345704999999,-3.3366145959999995,4.364939915,1.1884121409754589,0.4439262405740097,0.09542238619428597,5.813483365996996,1.272202560787809,-0.10169496049999971,0.1448442205,-0.05982056499999988
159702.0,1.7529386875,-3.185788319,4.3709219715,1.283537821196906,0.43806367961656073,0.12126896708707001,5.685683787949565,1.3616443324967302,-0.14729588299999996,0.15082627699999973,0.005982056499999722
159712.0,1.5207172155,-3.1246928895,4.491837965999999,1.3935878118521563,0.4164809380863989,0.13059426128047572,5.679163214418912,1.4603418169084939,-0.23222147199999998,0.06109542949999991,0.12091599449999979
159722.0,1.375872995,-3.0995878655,4.4774221905,1.4855177942132016,0.373046674321268,0.0986198293839396,5.616741128653423,1.534813607215525,-0.1448442205,0.025105023999999698,-0.014415775499999839
159732.0,1.3124239695,-2.9367974755,4.3493473415,1.5505347995084944,0.3456013718336572,0.032803463291233424,5.409626455203208,1.588922446157789,-0.06344902549999998,0.16279039000000006,-0.12807484899999988
159742.0,1.3579268255,-2.704477937,4.206856716999999,1.6142183732552635,0.35652713295114163,-0.04606971093564233,5.182259122477406,1.6537638801687875,0.04550285600000015,0.2323195385000001,-0.1424906245000006
159752.0,1.4428524145000001,-2.3466332784999997,4.032102214,1.6805670647698279,0.4255409422335014,-0.10948799463610828,4.8832733998759315,1.7370602677153972,0.08492558900000002,0.35784465850000036,-0.17475450299999906
159762.0,1.4632502465,-1.8317841535,3.9076558254999996,1.7445194192214042,0.5243981363957123,-0.13320352851220724,4.557006530548327,1.8264951654751196,0.020397831999999783,0.5148491249999998,-0.12444638850000045
159772.0,1.471585899,-1.406862009,3.9435481644999997,1.8172629971152758,0.6333817308779942,-0.11561759096911237,4.4380624033731735,1.9279482993679835,0.008335652500000013,0.4249221445,0.035892339000000106
159782.0,1.3938191645,-1.057353003,4.2236260885,1.9470299723303064,0.7258440386608979,-0.06472204465170572,4.571623844077551,2.0789334344023653,-0.07776673449999993,0.3495090059999999,0.280077924
159792.0,1.189154379,-0.749620326,4.7180773815,2.1071744031762982,0.7703429532697452,0.0013596114873035826,4.923034932647656,2.243571723747012,-0.2046647854999999,0.30773267700000007,0.494451293
159802.0,0.8946606795000001,-0.5700605645,5.2758796335,2.273446685026042,0.7383667760439572,0.06424556976591127,5.381476812718007,2.391207397708529,-0.29449369950000004,0.17955976149999997,0.5578022520000001
159812.0,0.6744033205,-0.553291193,5.674519956,2.4351898374668606,0.6568302293785381,0.09728639783541591,5.741178251369228,2.524091943240406,-0.2202573590000001,0.01676937150000002,0.39864032250000037
159822.0,0.5031792115,-0.5592732494999999,6.007357657,2.567621930449686,0.6006061928547927,0.09728639783541591,6.0542812872882426,2.6387259842252457,-0.17122410899999996,-0.005982056499999944,0.3328377009999999
159832.0,0.2601704245,-0.3929524655,6.227615016,2.6419642299383845,0.5904815378639735,0.059182369605875716,6.245421449144623,2.707793565193678,-0.243008787,0.1663207839999999,0.22025735899999965
159842.0,-0.07737446849999999,-0.16788984799999998,6.575947224,2.6683448815822786,0.6181921303978876,-0.014360569085409343,6.578545105285091,2.7390567980778857,-0.337544893,0.22506261750000003,0.3483322080000004
159852.0,-0.33479903099999997,0.028439284999999995,6.943500466,2.697921231086575,0.6078004400315132,-0.1398654502670696,6.951625558488608,2.7690725321357346,-0.2574245625,0.196329133,0.3675532419999996
159862.0,-0.310870805,0.32891504099999996,7.1913145115,2.758674397019245,0.5422511093143623,-0.303472614349018,7.20554162883734,2.8277935430264316,0.023928225999999997,0.300475756,0.2478140455000002
159872.0,-0.055897905,0.8879921575,7.3086020455,2.847406936190637,0.4623115389145179,-0.4492285508415685,7.362561952680037,2.919463051687977,0.25497289999999995,0.5590771165000001,0.11728753399999992
159882.0,0.32724791049999996,1.623000575,7.378033127499999,2.9441330833361627,0.4124841340993319,-0.5230385249084087,7.5615206732418825,3.0185480072075284,0.38314581549999993,0.7350084175,0.06943108199999948
159892.0,0.685092569,2.3628142509999996,7.544451978,3.0264689907989952,0.4151492518671272,-0.5126450892127824,7.935426810271506,3.0975261808558945,0.3578446585000001,0.7398136759999996,0.16641885050000038
159902.0,0.8479810255,2.9817119324999997,7.8077605305,3.083759423495709,0.4798992217868649,-0.44256662908670613,8.400642973585686,3.1521009923940246,0.16288845649999995,0.6188976815,0.26330855250000074
159912.0,1.0395048999999998,3.3612292874999996,8.056751374,3.080029654884197,0.5843519415309695,-0.34024495635928653,8.791454684107894,3.1533817556497996,0.19152387449999986,0.37951735499999995,0.24899084349999878
159922.0,1.08853815,3.6497409304999997,8.291424508499999,3.011548171023696,0.7706099886453004,-0.21287606353649638,9.12432159362694,3.115859168740281,0.04903325000000014,0.2885116430000001,0.2346731344999995
159932.0,0.685092569,3.9764985084999998,8.681631112,2.9281458673878946,0.9659262945774818,-0.07751181741032016,9.573537015181385,3.0843248708745388,-0.40344558099999994,0.32675757800000005,0.39020660350000114
159942.0,0.000392266,4.1261479875,9.252672341499999,2.879383113416425,1.0805054146416575,0.013884094199614892,10.130994167789357,3.0754726194471877,-0.6847003030000001,0.1496494789999998,0.5710412294999987
159952.0,-0.6173286175,4.051911647,9.7027975765,2.837814606621676,1.0765086106545905,-0.007166321908688718,10.532965557126492,3.035146435765252,-0.6177208835,-0.07423634049999972,0.45012523500000157
159962.0,-0.9046634625,4.121342729,10.061917099499999,2.7677344011663476,0.9797824635090647,-0.1377326579211325,10.910822956471897,2.939268221217239,-0.28733484499999995,0.06943108200000037,0.3591195229999986
159972.0,-1.027933053,4.754656186,10.146940755,2.6981882664621297,0.8265669897934905,-0.32452303045732167,11.25272449205071,2.8405541901515257,-0.12326959049999997,0.6333134569999999,0.08502365550000057
159982.0,-0.7465802645,5.5961648225,9.993662815499999,2.66727848540931,0.6722851199049478,-0.4937274654504159,11.478141804396508,2.7946571545205834,0.2813527884999999,0.8415086364999995,-0.15327793950000057
159992.0,-0.30243708599999997,6.4640533475,9.802138940999999,2.675272093383444,0.5912808986613869,-0.5952497773804221,11.745526028619693,2.8037503762335003,0.44414317850000007,0.8678885250000006,-0.19152387449999964
160002.0,0.2027034555,7.194354573,9.7147616895,2.6976559410402716,0.5582383252626303,-0.6304216524666117,12.090344126479383,2.8260235427045957,0.5051405415,0.7303012254999999,-0.08737725149999953
160012.0,0.7797267414999999,7.576225524,9.628561236,2.6984535565084333,0.6136630009889622,-0.593116985034485,12.276659091842582,2.8301981614989766,0.5770232859999999,0.3818709509999998,-0.08620045350000005
160022.0,0.962816897,7.999970870499999,9.674064092,2.678736571948653,0.762082309920056,-0.4724100139665572,12.590236946226272,2.824813319545947,0.18309015550000007,0.4237453464999996,0.04550285600000059
160032.0,0.7485415944999999,8.655937689,10.158904867999999,2.718971647194878,0.9320861057105637,-0.2781583588780923,13.367457496159146,2.8877263373322037,-0.21427530250000004,0.6559668185000005,0.48484077599999864
160042.0,0.29488596549999996,9.2616944595,11.262643325500001,2.954524773702537,1.0402703393954322,-0.0490018640789928,14.584686375483416,3.1326953570577416,-0.45365562899999995,0.6057567704999993,1.1037384575000022
160052.0,-0.06541035549999999,9.799196946,13.446093947999998,3.429095505283063,1.0463981903991844,0.12206832788448341,16.638088284401682,3.5872755447408426,-0.360296321,0.5375024865000011,2.183450622499997
160062.0,-0.38746074150000004,10.4516333705,16.248540318499998,4.043023796318328,1.0690473281023147,0.16656724249333082,19.323608059042,4.185289506544415,-0.322050386,0.6524364244999994,2.8024463705000002
160072.0,-0.2485985775,11.019046139499999,19.316746904,4.496544111790551,1.1729677224245612,0.10208256261989634,22.240006520465734,4.648137592274908,0.13886216400000004,0.5674127689999988,3.0682065855000005
160082.0,-0.0079433865,11.995886546,22.0976186445,4.499741554980204,1.4258414964290116,0.013351768777756621,25.14370909153315,4.720262313080077,0.240655191,0.9768404065000009,2.7808717405000003
160092.0,0.001569064,12.4508170395,24.2284075565,3.755245182603243,1.6744496857415878,0.03253642791567829,27.24038509523923,4.111776592993166,0.0095124505,0.4549304935000009,2.130788912
160102.0,0.3392120235,11.404545551,24.683338049999996,2.2827719792194476,1.8489826109410208,0.2329159340078953,27.192754573825333,2.946868581560182,0.3376429595,-1.0462714885000004,0.45493049349999737
160112.0,-0.06668521999999999,9.978756707499999,23.425144855,0.5203908604331332,1.9070724044351481,0.4572780093517663,25.462078544843422,2.0289985168099824,-0.4058972435,-1.4257888435000012,-1.258193194999997
160122.0,-0.9680144215,8.3494798765,20.8513895625,-0.9683365942744859,1.7602518170988812,0.5899753923808952,22.481799590233972,2.093856055947021,-0.9013292015000001,-1.6292768309999985,-2.5737552924999996
160132.0,-1.9951629424999997,7.3966657625,17.460053859499997,-1.831407145373438,1.4468919125373152,0.5953056279164859,19.06685134850287,2.4087210567684703,-1.0271485209999995,-0.9528141140000006,-3.391335703000003
160142.0,-2.5613989134999997,6.5083794054999995,14.2254284235,-2.0954719705416758,1.0581233123140823,0.512168614326988,15.851895177300953,2.4026952392864906,-0.566235971,-0.8882863570000001,-3.2346254359999964
160152.0,-2.5721862285,5.4704435695,11.861143174999999,-1.9094809588029,0.7474267801910596,0.3861314077234695,13.312723697989755,2.086590948846497,-0.010787315000000408,-1.037935835999999,-2.3642852485000017
160162.0,-2.4896142354999995,5.059839134,10.057111840999998,-1.3893466617698103,0.4697728214667937,0.15963828536291333,11.530205968929804,1.4752813401224183,0.08257199300000062,-0.4106044355000007,-1.8040313340000012
160172.0,-2.4452881774999997,5.2717608405,8.8372626475,-0.7389113187705794,0.23342033416172164,-0.07804588816143043,10.57677208468393,0.7788235679962138,0.04432605799999978,0.21192170650000008,-1.2198491934999982
160182.0,-1.988004088,5.660790646,8.435091931,-0.15242833022292476,0.03170914185023298,-0.2669673077143046,10.351207025084907,0.3090492014544794,0.45728408949999966,0.3890298054999999,-0.4021707164999988
160192.0,-1.3691064065,6.14680822,8.587095005999998,0.2544602782945133,-0.11404679464231747,-0.36795729422245255,10.648751301812293,0.461680923332789,0.6188976815,0.4860175739999999,0.15200307499999788
160202.0,-0.752562321,6.592128196499999,8.945037731,0.4396519292358756,-0.19744909827811852,-0.3612953724675902,11.137154224266308,0.6023406938420849,0.6165440855000001,0.44531997649999955,0.3579427250000009
160212.0,-0.2952782315,6.842393904499999,9.289839545,0.4202002347223988,-0.19318525891549634,-0.2565756173479304,11.54151906597144,0.5288854591879777,0.4572840895,0.2502657079999997,0.3448018140000002
160222.0,-0.12650578499999998,7.044705093999999,9.4729297005,0.2957617497137071,-0.14975274047961745,-0.11055439080907681,11.805942176958306,0.3494612556522329,0.1687724465,0.2023111895000005,0.1830901555000004
160232.0,-0.233006004,6.9345764144999995,9.662099978999999,0.14867412700188495,-0.09219527240734847,0.03759962807571384,11.895327563822338,0.17893489409690277,-0.10650021900000001,-0.11012867949999983,0.1891702784999989
160242.0,-0.5143587924999999,6.782475272999999,9.7602645455,0.07086734894797775,-0.020518090686445337,0.16177107770885044,11.896608751842804,0.17780060397933006,-0.28135278849999995,-0.1521011415000002,0.09816456650000127
160252.0,-0.9118223169999998,6.4736638645,9.8667647645,0.06980269810426122,0.06155252673008402,0.22758744380155657,11.836080038859615,0.24588040748627984,-0.3974635244999999,-0.30881140849999955,0.10650021899999906
160262.0,-1.2912416055,6.0726699459999995,10.103791495,0.1023112007519076,0.12710185744723507,0.22545465145561952,11.858803806930114,0.2783024682405984,-0.3794192885000002,-0.4009939185000002,0.23702673050000023
160272.0,-1.5318967964999999,5.706293501999999,10.320518459999999,0.08605694942808441,0.1795961253594685,0.16976468568298447,11.892081172330398,0.26168801136858433,-0.24065519099999988,-0.36637644400000013,0.21672696499999944
160282.0,-1.7174386145,5.5232033465,10.3480751465,-0.019729201864543904,0.208373114066351,0.07943342491676592,11.854873674526248,0.22387109028619112,-0.18554181800000014,-0.18309015549999952,0.027556686500000538
160292.0,-1.791674955,5.435728028499999,10.285802918999998,-0.17560979334791346,0.22782480857982781,-0.013295918241692803,11.770937941927297,0.2879578517179586,-0.07423634049999994,-0.08747531800000097,-0.062272227500001165
160302.0,-1.8647344975,5.471718434,10.1433122945,-0.313637411912633,0.25713586803782057,-0.08737118235483614,11.674918486691752,0.41487468504224273,-0.07305954250000002,0.035990405500000655,-0.14249062449999883
160312.0,-1.9281835229999997,5.5890059679999995,9.964929331,-0.4055673942736784,0.3085637397770855,-0.14252882270561293,11.586832871001999,0.5291606165475755,-0.06344902549999976,0.11728753399999992,-0.17838296349999894
160322.0,-1.9496600864999998,5.6752064214999995,9.864411168499998,-0.45459543829145105,0.3877022040502644,-0.17477203530695617,11.546243981518558,0.6225072496494842,-0.021476563500000045,0.08620045350000005,-0.100518162500002
160332.0,-1.9137677475,5.845155666,9.816554716499999,-0.4716490504126876,0.47936515103575456,-0.19075925125522425,11.584174474393137,0.6990227941363396,0.035892338999999884,0.1699492445000006,-0.04785645199999955
160342.0,-1.8204084394999998,5.997158741,9.949434823999999,-0.46472183861152216,0.5979410750869973,-0.19022692583336598,11.75887125400986,0.7808240518008399,0.09335930800000014,0.15200307499999965,0.13288010750000012
160352.0,-1.8072675285,6.1372957695,10.188815150499998,-0.4556618344644196,0.7175833953112086,-0.1734386037584325,12.030983727565731,0.867545149192546,0.01314091099999981,0.14013702849999987,0.23938032649999919
160362.0,-1.9891808859999998,6.306068215999999,10.6077552385,-0.4324803713394309,0.7871295300154267,-0.14892370908492017,12.499912325372419,0.9103792834548733,-0.18191335749999982,0.16877244649999934,0.41894008800000115
160372.0,-2.4105726365,6.499945686499999,11.068667788499999,-0.3650652836518979,0.7671455100800916,-0.13426992468517576,13.060457915994752,0.8601240071285345,-0.4213917505000002,0.19387747050000037,0.46091254999999975
160382.0,-2.8618746694999997,6.505927743,11.543898047499999,-0.2704701835230573,0.6392442918354431,-0.15771842318571958,13.556511518533707,0.7118022800127737,-0.4513020329999997,0.00598205650000061,0.47523025899999993
160392.0,-2.9193416384999997,6.161223995499999,11.928220661,-0.190532358452465,0.42500687148239114,-0.22193606768359894,13.7392024827685,0.5159351108071317,-0.057466969000000034,-0.34470374750000055,0.3843226135000002
160402.0,-2.7469407315,5.9469486929999995,12.144849559499999,-0.16734914999822428,0.18705740791174424,-0.3266558228032587,13.798885931930718,0.411946887876414,0.17240090699999966,-0.21427530249999993,0.21662889849999978
160412.0,-2.5027551464999997,5.997158741,12.1220981315,-0.2273029551334815,-0.025846580892784028,-0.4505602370608402,13.7540888247023,0.5053109996592012,0.24418558500000032,0.050210048000000285,-0.022751427999999407
