timestamp,ax,ay,az,gx,gy,gz,acc_mag,gyro_mag,dax,day,daz
145042.0,-1.3890139059999997,-2.5917995285,8.006933592,0.0011065387457644049,-0.04024205656323326,0.012927653769521999,8.529816526379228,0.04228205028636832,0.0,0.0,0.0
145052.0,-1.6380047495,-2.3368266285,7.591523898,0.053866096704300995,-0.06928608064567089,-0.015317009515502238,8.110182078409606,0.08908831643876487,-0.24899084350000034,0.2549729000000003,-0.41540969399999916
145062.0,-1.5242476095,-2.423027082,7.505323444499999,0.06665586946291545,-0.13750052913061728,-0.04516039439535328,8.032700107792722,0.15933882661486123,0.11375714000000015,-0.08620045350000005,-0.08620045350000094
145072.0,-1.2345591685,-2.541491414,7.4310871039999995,0.07811395600225822,-0.1414973331176843,-0.06008295949990479,7.950117640337043,0.17243331297637024,0.289688441,-0.11846433199999984,-0.07423634049999972
145082.0,-1.1268821514999998,-2.5391378179999995,7.3054639175,0.07624994436112828,-0.14362838013436938,-0.08140041098376354,7.815810085465327,0.18184936761898207,0.1076770170000001,0.002353596000000291,-0.12562318649999948
145092.0,-1.016753472,-2.495988558,7.140221864999999,0.07518354818815973,-0.13403605056540854,-0.08140041098376354,7.6319404338552745,0.1739087567595712,0.11012867949999983,0.04314925999999941,-0.1652420525000009
145102.0,-0.952029582,-2.4421500495,7.0397037025,0.09676628971832162,-0.12311203477717601,-0.07154104603924757,7.511849666245202,0.17215809362680715,0.06472389,0.05383850850000016,-0.10051816249999934
145112.0,-0.9544812444999999,-2.2936773684999996,6.9259465625,0.1324722355556216,-0.12071395238493582,-0.05821720252952285,7.358038196657919,0.18844095670490565,-0.0024516624999999515,0.14847268100000033,-0.1137571399999997
145122.0,-0.9807630665,-2.1165692695,6.881620504499999,0.1852317935141582,-0.11804883461714047,-0.03823318259418778,7.2662550487274435,0.22295318103632705,-0.026281822000000066,0.1771080989999998,-0.04432605800000111
145132.0,-0.985568325,-1.9812374994999997,6.9498747885,0.25637839514245503,-0.12977221120278637,-0.014784684093643965,7.293655224131193,0.28773128988698854,-0.00480525850000002,0.13533177000000007,0.06825428400000089
145142.0,-0.9891967855,-1.8519858524999997,7.049216153,0.33018836920929523,-0.19212584405953578,0.00493404579538797,7.355257320449081,0.3820484837354991,-0.003628460499999986,0.12925164700000003,0.09934136449999986
145152.0,-0.90417313,-1.847180594,7.1354166065,0.3880111273278674,-0.3024411247610894,0.021455332494766294,7.425885492261523,0.4924262383032167,0.08502365550000002,0.004805258499999798,0.08620045350000005
145162.0,-0.6671463994999999,-2.0483149855,7.070790783,0.42984492416891945,-0.4364719393387419,0.031047662063727128,7.3916683431514585,0.6133827271643129,0.23702673050000012,-0.2011343914999999,-0.06462582350000012
145172.0,-0.462481614,-2.1356922369999998,6.908000393,0.46182110139470756,-0.5523827456221894,0.014793410739903938,7.245380597605502,0.7201557278504759,0.2046647854999999,-0.08737725149999997,-0.16279038999999962
145182.0,-0.33440676499999994,-2.1057819545,6.6135066935,0.4855348899415545,-0.6213965549045491,-0.012119566325848624,6.948713284439423,0.7886854199779063,0.12807484900000005,0.02991028249999994,-0.29449369950000026
145192.0,-0.26252402049999995,-2.0602790984999997,6.308225679,0.5071193768009684,-0.605142303580726,-0.030771900041912024,6.641338723649809,0.7901355451706875,0.07188274449999998,0.04550285600000015,-0.30528101449999934
145202.0,-0.29841635949999995,-1.9106296194999999,6.0376602055,0.528169792909272,-0.49376062670620385,-0.04436103359793987,6.339786954118115,0.7243830395094877,-0.035892338999999995,0.1496494789999998,-0.2705654735000005
145212.0,-0.382263217,-1.7921652874999998,5.953911414499999,0.5468221266253355,-0.3024411247610894,-0.0686088928958971,6.2295298953054665,0.6286431836091186,-0.08384685750000004,0.11846433200000006,-0.08374879100000054
145222.0,-0.5330894939999999,-1.7011595755,6.040111867999999,0.5609453309324736,-0.08927010058100597,-0.09925338390241353,6.297704318867548,0.5766108300827908,-0.15082627699999995,0.09100571199999985,0.08620045350000005
145232.0,-0.6576339489999999,-1.6413390104999999,6.238794596999999,0.5700035897503241,0.07886793823911976,-0.13495932973971353,6.4845226641459774,0.5910484453021919,-0.124544455,0.0598205650000001,0.19868272899999972
145242.0,-0.674305254,-1.692823923,6.528483037999999,0.5697382997040209,0.15347727310337336,-0.17386271876666715,6.778010857715324,0.6151302695249303,-0.016671305000000025,-0.05148491250000009,0.289688441
145252.0,-0.5139665265,-1.8220755699999998,6.857692278499999,0.5827951078381906,0.10444748375634866,-0.20263970747354965,7.114215653165977,0.6257973039476333,0.1603387275,-0.1292516469999998,0.3292092405
145262.0,-0.26252402049999995,-1.8818961349999999,7.1031527279999995,0.6251612301011009,-0.07328288463273791,-0.21596355098327433,7.3529062690586,0.665460141672604,0.251442506,-0.0598205650000001,0.24546044950000034
145272.0,-0.0171616375,-1.7777495119999998,7.046862557,0.6688625292417869,-0.31976002692862915,-0.20983395465027027,7.267665357352834,0.7704893551304194,0.24536238299999996,0.1041466230000001,-0.05629017099999967
145282.0,0.183972754,-1.52395341,6.721281777,0.7059001612983585,-0.5411916944584017,-0.17865888355114753,6.894338887514687,0.9072499570369497,0.20113439149999998,0.2537961019999997,-0.3255807800000001
145292.0,0.2354576665,-1.164833887,6.320189792,0.7679850134503008,-0.6331199314901951,-0.13256124734747332,6.430946843499653,1.004098756513883,0.05148491250000001,0.35911952300000016,-0.4010919849999999
145302.0,0.1983885295,-0.7877681944999999,6.0256960925000005,0.8580509841702163,-0.5846242128942806,-0.08406378342230687,6.080209711520872,1.0416831002857858,-0.037069137,0.3770656925,-0.2944936994999994
145312.0,0.146903617,-0.47650512349999996,6.0723757465,0.9582398645516987,-0.3965021541388198,-0.04169591583014453,6.092814211190988,1.0378709677265747,-0.05148491250000001,0.31126307099999995,0.04667965399999918
145322.0,-0.011179581,-0.34725347649999994,6.5344650945,1.035781352559303,-0.12790819956165644,-0.0001291543646475804,6.5436949830513615,1.043649143393283,-0.15808319799999998,0.12925164700000003,0.4620893480000001
145332.0,-0.1691647125,-0.39030467,7.253979005,1.0626925842958033,0.10151707594225017,0.03291341903410906,7.266441071140658,1.0680377046610632,-0.15798513150000001,-0.043051193500000084,0.7195139104999999
145342.0,-0.20623384949999998,-0.5842802069999999,8.117062271499998,1.0602945019035632,0.19984194468260275,0.026783822701104982,8.140676610723476,1.0792954214578758,-0.037069136999999974,-0.19397553699999992,0.8630832664999986
145352.0,-0.21829602899999997,-0.7829629359999999,8.7909752595,1.037912399575988,0.13988639421809354,-0.009189158511750145,8.828472695125017,1.0473370007381002,-0.012062179499999992,-0.19868272899999995,0.6739129880000014
145362.0,-0.18711088199999998,-0.7291244275,9.217172268499999,0.9862192377904199,-0.05276479394629257,-0.07500377927520431,9.247859078735221,0.990473662130233,0.031185146999999996,0.05383850849999994,0.4261970089999991
145372.0,-0.10934414749999999,-0.4070740415,9.269833979,0.9299952012666745,-0.28219006945019914,-0.14828142792018625,9.279412018876984,0.9831122476815147,0.07776673449999999,0.32205038599999997,0.05266171050000068
145382.0,-0.02549729,0.07178467799999999,9.128618219,0.8878943690500672,-0.4503263629410729,-0.20823523305544345,9.128936068351647,1.017109706981605,0.08384685749999998,0.4788587195,-0.1412157599999997
145392.0,0.18877801249999998,0.6104639625,8.8808041735,0.8479245838501452,-0.4679140458134198,-0.2466062966605388,8.903762471875003,0.9993669594896315,0.2142753025,0.5386792845,-0.2478140455000002
145402.0,0.35392199849999995,1.0701016479999998,8.725172637999998,0.7999611906760891,-0.30403984635591624,-0.24394117889274347,8.797671048691148,0.8898794488691245,0.16514398599999996,0.45963768549999984,-0.1556315355000013
145412.0,0.5095535339999999,1.2700592414999998,8.793426922,0.7354782561319065,-0.018392279657516247,-0.18638545614972646,8.899272572153627,0.7589506436244535,0.15563153549999997,0.19995759349999997,0.06825428400000177
145422.0,0.6221338759999999,1.2521130719999998,9.1477411865,0.6744580548236807,0.2952346602796048,-0.08779529736307076,9.253972472399541,0.7414615206374682,0.112580342,-0.017946169500000053,0.35431426449999925
145432.0,0.5922235935,1.1227633584999999,9.753497957,0.6419495521760343,0.5241258650324012,0.027050858076660116,9.835753592943016,0.8291796541508104,-0.02991028249999994,-0.1293497134999999,0.6057567705000011
145442.0,0.3958944605,0.986352857,10.4047575835,0.6478121131334833,0.5803499015561465,0.12297764442477245,10.458900743088034,0.8784019826861525,-0.196329133,-0.1364105014999999,0.6512596264999999
145452.0,0.13248784149999998,0.869065323,10.933826351,0.6824516627978148,0.5014767273292707,0.1799992964166792,10.96911054906497,0.8658053631266542,-0.263406619,-0.11728753400000003,0.5290687675000001
145462.0,-0.269682875,0.7649187,11.313343706,0.7242854596388668,0.35305741839817695,0.19305610455084876,11.342379612795886,0.8285587651063853,-0.40217071649999997,-0.104146623,0.37951735499999906
145472.0,-0.5498588655,0.7157873834999999,11.503690782499998,0.7517325074557297,0.19184659137921672,0.15175463313165496,11.539046666415825,0.7905291557345789,-0.28017599049999997,-0.04913131650000002,0.19034707649999838
145482.0,-0.7533468529999999,0.6942127535,11.660499116,0.7437371541523436,0.11617260567124657,0.06355616471137351,11.705413382802158,0.7554339248722506,-0.20348798749999997,-0.021574629999999928,0.15680833350000256
145492.0,-0.9066247924999999,0.7684490939999999,11.950187557,0.7003046357164647,0.11670493109310484,-0.034501668653423904,12.009140900660743,0.7108002454187022,-0.15327793950000002,0.07423634049999994,0.28968844099999913
145502.0,-0.8730860494999999,0.7253979004999999,12.254193706999999,0.6350205950456169,0.10817899769711253,-0.12243484702740222,12.306654491475728,0.6557012608204018,0.03353874300000004,-0.043051193500000084,0.3040061499999993
145512.0,-0.694703086,0.7121589229999999,12.707947402499999,0.5755991153322179,0.054885368987465676,-0.18718481694713984,12.74683136681477,0.6077539806497827,0.17838296349999994,-0.013238977499999915,0.45375369549999967
145522.0,-0.416978758,0.661948875,13.0443154975,0.5239059535466499,-0.09113585755138791,-0.22049268039219963,13.067754757266286,0.5756737051488352,0.27772432799999996,-0.05021004799999995,0.336368095000001
145532.0,-0.2146675685,0.6930359555,12.9999894395,0.45515917963984526,-0.30403984635591624,-0.22289076278443984,13.020219139004269,0.5910079518222877,0.20231118950000002,0.031087080499999975,-0.044326057999999335
145542.0,-0.055407572499999995,0.8211108045,12.700788548,0.3840125780115484,-0.4503263629410729,-0.2146301194347507,12.727424039976233,0.6295439471549114,0.159259996,0.128074849,-0.29920089149999995
145552.0,0.030792880999999998,0.919275371,12.170444916,0.32166069048405094,-0.45245915528701,-0.20663651146061665,12.20515238998013,0.5923542309077606,0.0862004535,0.09816456650000005,-0.530343632000001
145562.0,0.12415218899999998,0.9755655419999999,11.703550309499999,0.26117455992693545,-0.3080366503429832,-0.213298433215479,11.744795942874816,0.456721961722591,0.09335930799999999,0.05629017099999989,-0.46689460650000036
145572.0,0.12287732449999998,1.1060920534999998,11.451029071999999,0.22173710014887157,-0.06795439442639922,-0.2255558805522352,11.504981759024275,0.32351290013843886,-0.0012748645000000003,0.13052651149999994,-0.2525212374999999
145582.0,-0.0399130655,1.163460956,11.637747688,0.2382583868482499,0.16013919485823572,-0.22315779815999498,11.69582855972519,0.3636083380685753,-0.16279038999999998,0.05736890250000015,0.18671861600000028
145592.0,-0.20025179299999998,1.0808889629999998,12.111801149,0.3011443451268576,0.2672570323701357,-0.2109003508232388,12.16158496265403,0.454525242346936,-0.1603387275,-0.08257199300000018,0.47405346100000045
145602.0,-0.246931447,0.8785777735,12.618118488499999,0.36882472286069373,0.2136981136141857,-0.21063331544768368,12.651078540323399,0.47546288344308474,-0.046679654000000015,-0.20231118949999982,0.5063173394999989
145612.0,-0.18112882549999998,0.6834254384999999,12.968902359,0.40586410024651737,0.06714281632422185,-0.2146301194347507,12.988160238412972,0.46400421746083154,0.06580262150000002,-0.19515233500000007,0.3507838705000008
145622.0,-0.09012311349999999,0.733733553,13.004794698,0.3928072921123478,-0.07568096702497812,-0.21436482938844753,13.025788737712347,0.4538473946000014,0.09100571199999999,0.050308114500000056,0.035892339000000106
145632.0,-0.0063743225,0.9121165164999999,12.786989001499999,0.3323194162259803,-0.14842454491884977,-0.19651185646979755,12.819480679658648,0.41362174709310234,0.08374879099999999,0.17838296349999994,-0.21780569650000103
145642.0,0.034323275,1.055783939,12.5259359785,0.2497164733875927,-0.10099522249590387,-0.1602718398813873,12.57039895749287,0.3134412460208427,0.0406975975,0.14366742249999997,-0.2610530229999988
145652.0,-0.14759008249999997,1.055783939,12.441010389499999,0.18576586426526845,-0.009065240134858547,-0.11630699602365012,12.486600901364215,0.21935918542192429,-0.18191335749999998,0.0,-0.08492558900000091
145662.0,-0.428942871,0.988706453,12.457779761,0.16338201660844118,0.016249015336067207,-0.06274807726770014,12.504311616813089,0.17576983544176733,-0.2813527885,-0.06707748599999985,0.016769371500000574
145672.0,-0.6659696015,0.8714189189999999,12.5475106085,0.17857161708854785,-0.025052456083126607,-0.01691573111032904,12.595352671240818,0.1811120922092528,-0.23702673049999995,-0.11728753400000014,0.08973084750000027
145682.0,-0.8407241044999999,0.660772077,12.572615632499998,0.2140105275502927,-0.11991284625827041,0.0052010811709431014,12.618006997945972,0.24537042985140023,-0.17475450299999995,-0.21064684199999995,0.025105023999998366
145692.0,-0.9149604449999998,0.5769252195,12.486513245499998,0.2529139165772463,-0.23609068791727295,-0.0003944444109507185,12.533276042394368,0.3459832621762024,-0.07423634049999994,-0.08384685749999998,-0.08610238700000039
145702.0,-0.83356525,0.5086709355,12.320094394999998,0.2771617758752035,-0.32535555251052295,-0.0313042254637703,12.358733877235984,0.42854969383679503,0.08139519499999981,-0.068254284,-0.1664188504999995
145712.0,-0.6779337145,0.525440307,12.146516689999999,0.2593088029565535,-0.3538672511711023,-0.07527081465075945,12.176762678886558,0.44511659402940895,0.15563153550000008,0.01676937150000002,-0.17357770499999958
145722.0,-0.5498588655,0.6295869299999999,11.875951216499999,0.18576586426526845,-0.31309985050301875,-0.12323420782481563,11.905332493092478,0.3843528882283112,0.128074849,0.10414662299999988,-0.2705654734999996
145732.0,-0.450517501,0.673912988,11.671286430999999,0.08131139919191183,-0.23022987228907602,-0.1605388752569424,11.699403903128871,0.2922157904726485,0.09934136449999997,0.04432605800000011,-0.20466478550000033
145742.0,-0.38461681299999995,0.6594972125,11.506044378499999,-0.011150908590991772,-0.13750052913061728,-0.19038226013679344,11.53134527737978,0.2351087902405992,0.06590068800000004,-0.01441577549999995,-0.16524205250000001
145752.0,-0.3547065305,0.6511615599999999,11.363553754,-0.04978726224239024,-0.08607265739135236,-0.22075971576775477,11.387720668336069,0.242120065128567,0.02991028249999994,-0.008335652500000124,-0.14249062449999883
145762.0,-0.3415656195,0.6714613255,11.209197083,-0.025539402944433024,-0.10845650504817964,-0.24021141028123155,11.234483816784923,0.2647953855702967,0.013140911000000033,0.020299765500000122,-0.1543566710000004
145772.0,-0.266152481,0.7493261265,11.0774937735,0.03521376298823759,-0.16814327480788172,-0.23967908485937328,11.105998158154414,0.2948868150425469,0.07541313849999998,0.07786480099999993,-0.13170330949999887
145782.0,-0.19073934249999996,0.848667491,11.0331677155,0.10049780365908549,-0.22809707994313894,-0.22528884517668005,11.067402940410593,0.3359808776998014,0.07541313850000003,0.09934136450000008,-0.04432605800000111
145792.0,-0.12366185649999999,0.8870114925,10.981682803,0.1439303220949644,-0.2771268692901636,-0.19651185646979755,11.018141350894263,0.36896090447923335,0.06707748599999998,0.03834400149999995,-0.051484912499999425
145802.0,0.012748645,0.8845598299999999,10.852431156,0.15405672241503549,-0.2795249516824038,-0.1605388752569424,10.888428289542915,0.35726797058101584,0.13641050149999998,-0.0024516625000000625,-0.12925164700000025
145812.0,0.07266727649999999,0.7541313849999999,10.773389556999998,0.11941542742145202,-0.2094447462270755,-0.12030380001071714,10.799996167860087,0.2694441506609315,0.059918631499999986,-0.13042844500000006,-0.07904159900000174
145822.0,0.10973641349999999,0.641551043,10.657278821,0.05599888905023806,-0.10232690871517554,-0.0864618658145471,10.677135462742681,0.14519754151567957,0.037069137,-0.11258034199999989,-0.11611073599999777
145832.0,0.1205237285,0.446398708,10.596281457999998,0.0008412486994612669,0.009587093581204853,-0.06727720667662541,10.606364999979503,0.06796206736789645,0.010787315000000006,-0.195152335,-0.060997363000002025
145842.0,0.1289574475,0.23339827,10.5699015695,-0.02980324230705517,0.09139067562217908,-0.053421037745042435,10.573264584064058,0.10997407020042792,0.008433718999999992,-0.213000438,-0.026379888499997506
145852.0,0.1372931,0.13042844499999998,10.528027174,-0.03246661474559852,0.13695598640399503,-0.04089655503273113,10.52973015566188,0.14657268332972415,0.008335652500000013,-0.10296982500000001,-0.041874395500000716
145862.0,0.17563710149999998,0.22378775299999998,10.5328324325,0.014163346879933984,0.15880576330971205,-0.0329029470585971,10.536673497880628,0.1627958070109991,0.038344001499999975,0.093359308,0.004805258499999354
145872.0,0.18632634999999997,0.44885037049999993,10.57353003,0.08557523855453397,0.1529432023522631,-0.02224422131666773,10.584692790020602,0.17666224831982524,0.010689248499999998,0.22506261749999995,0.04069759750000124
145882.0,0.17563710149999998,0.560155848,10.720727846499999,0.16924457756589012,0.14708238672406612,0.02118829711921116,10.736788557301127,0.22522410939931878,-0.010689248499999998,0.11130547750000003,0.14719781649999852
145892.0,0.18279595599999998,0.7014696745,10.885969899,0.2534462419991046,0.1707961752709131,0.0688846549177122,10.910078583938208,0.31329128100503123,0.007158854500000006,0.14131382650000002,0.16524205250000001
145902.0,0.034323275,0.861808402,10.974523948499998,0.2734320072636916,0.21716084685014245,0.10139315756535858,11.008363534384413,0.3635993239845148,-0.148472681,0.1603387275,0.08855404949999901
145912.0,-0.13082071099999998,0.903780864,10.978152408999998,0.2382583868482499,0.261926796834545,0.11604868729435497,11.016068455841747,0.37261240401559137,-0.16514398599999996,0.041972462000000044,0.003628460499999875
145922.0,-0.25899362649999996,0.8714189189999999,10.9290210925,0.18043562872967778,0.2949676249040497,0.09713106353198843,10.96676573431149,0.3591620238269428,-0.12817291549999998,-0.032361945000000114,-0.04913131649999869
145932.0,-0.34391921549999993,0.8115983539999999,10.905092866499999,0.12261287061110564,0.3013642566126089,0.05529552136168435,10.9406591548222,0.33001806902929814,-0.08492558899999997,-0.05982056499999999,-0.023928226000000663
