timestamp,ax,ay,az,gx,gy,gz,acc_mag,gyro_mag,dax,day,daz
46582.0,-0.271448072,-2.6544640219999995,6.5504499339999995,-0.06940476303480651,0.442292612394143,0.1590431280879833,7.073065646360532,0.47511524149659096,0.0,0.0,0.0
46592.0,-0.871222786,-2.863934066,6.7874766645,-0.05315051171098332,0.4340319690444539,0.1947490739252833,7.418287332556817,0.4786814481912795,-0.599774714,-0.20947004400000058,0.23702673050000023
46602.0,-0.7946328495,-2.9669038909999994,6.8198386095,0.004937536453891958,0.3495632692356843,0.20114396030459047,7.479582790741895,0.4033333004253277,0.07658993650000001,-0.1029698249999993,0.03236194499999989
46612.0,-0.8700459879999999,-3.0758557724999998,6.8401383749999995,0.12537921747551664,0.2547028790605405,0.16357225749690857,7.550189517065389,0.3276421648676131,-0.07541313849999987,-0.10895188150000035,0.0202997654999999
46622.0,-1.024402659,-2.8652089304999997,6.7156919864999995,0.2852566129459532,0.14625335532936884,0.1062835701294467,7.3728788055089804,0.3377241129294102,-0.15435667100000006,0.21064684200000006,-0.1244463885
46632.0,-1.0651002564999998,-2.6353410545,6.672542726499999,0.4576584911287011,0.06204994556690241,0.05645441998500858,7.252743444166323,0.4652833456968975,-0.040697597499999905,0.2298678759999997,-0.043149260000000744
46642.0,-1.019695467,-2.3923322675,6.7504075275,0.6135373372828187,0.04446400802380754,0.02074847414770859,7.234019236280113,0.6154962318561265,0.04540478949999982,0.24300878699999995,0.07786480100000137
46652.0,-1.0376416364999999,-2.1636411895,6.9622311675,0.7363771006966835,0.0916280404004503,-3.490658503988659e-05,7.364150065853342,0.7420558829606768,-0.01794616949999983,0.22869107800000021,0.21182363999999954
46662.0,-1.105797854,-2.0953869055,7.3261559489999994,0.8141838787505907,0.15318056713053432,-0.0024329889772800955,7.699740006436578,0.8284718426109317,-0.06815621750000012,0.068254284,0.36392478149999974
46672.0,-1.1932731719999998,-2.018796969,7.873268952499999,0.8629466327220603,0.19741244636382663,-0.008028514559173916,8.215096229713865,0.8852756756805871,-0.08747531799999986,0.07658993650000001,0.5471130034999998
46682.0,-1.2926145365000001,-2.027230688,8.379586291999999,0.860283260283517,0.20620716046462606,-0.026148522853379045,8.717682205002333,0.8850380930775439,-0.0993413645000003,-0.008433719000000117,0.5063173394999998
46692.0,-1.379991788,-2.028407486,8.699283082,0.8123198671094608,0.176362030255523,-0.05172981369985994,9.038602790530165,0.8328523913887769,-0.08737725149999997,-0.0011767979999999234,0.31969679000000006
46702.0,-1.3871506424999998,-1.9840814279999999,8.8549146175,0.7398415792618923,0.10681589555130495,-0.08690168878604966,9.179884471012578,0.7525470759102221,-0.007158854499999645,0.044326058,0.1556315355000013
46712.0,-1.324878415,-1.8787580069999998,8.9710253535,0.6713600954013907,0.019149752552881785,-0.12553978776670013,9.260903322923706,0.6832651967082102,0.06227222749999983,0.10532342100000003,0.11611073599999955
46722.0,-1.2841808175,-1.7794166425,9.002112433999999,0.6058107646842398,-0.08663639873974652,-0.15565020802210633,9.265714879814634,0.6314582610523206,0.040697597499999905,0.09934136449999986,0.031087080499998976
46732.0,-1.170521744,-1.7518599559999999,8.899142609,0.5349311984314981,-0.1884240007160558,-0.18096271816378007,9.145155746838457,0.5953171394025428,0.11365907350000004,0.027556686500000094,-0.10296982499999885
46742.0,-0.984979926,-1.8045216665,8.6501517655,0.4701812285117604,-0.25637315915469905,-0.21533697778180838,8.891097202577063,0.5772067206642625,0.18554181800000003,-0.052661710500000014,-0.24899084349999967
46752.0,-0.7742350175,-1.8212910379999998,8.31015521,0.42435062768364135,-0.26862886116220325,-0.2601029277662109,8.542553512955742,0.5655868220683341,0.21074490849999994,-0.016769371499999908,-0.33999655550000085
46762.0,-0.5755522885,-1.750683158,8.065969625,0.4102274233765032,-0.20894209140250117,-0.30273608540467645,8.27381519904361,0.5509922629728329,0.19868272900000006,0.07060787999999985,-0.24418558500000032
46772.0,-0.476210924,-1.680075278,7.927107460999999,0.42168550991584597,-0.09915913612280584,-0.3291167370485707,8.117170842240883,0.5440303577513907,0.09934136449999997,0.07060788000000007,-0.13886216399999984
46782.0,-0.40315138149999996,-1.6022104769999999,7.903179234999999,0.44540104379194495,0.03007551367036629,-0.33258121561377946,8.074023251734484,0.5566838342476182,0.07305954250000002,0.07786480100000004,-0.023928226000000663
46792.0,-0.354020065,-1.566318138,7.937894776,0.47657611489106766,0.1265346254403369,-0.3227218506692635,8.09869472141644,0.5893090849625389,0.049131316499999966,0.035892338999999884,0.034715541000001515
46802.0,-0.3696126385,-1.5005155165,8.0013438015,0.5162788647154346,0.13719335118226628,-0.3011373638098497,8.149212412718093,0.6132288264936869,-0.015592573499999984,0.06580262150000005,0.06344902549999887
46812.0,-0.38638200999999994,-1.3161504965,8.062439230999999,0.5794318583695974,0.034871678454846705,-0.2707616535081403,8.17829258101327,0.6405225877846663,-0.016769371499999963,0.18436502,0.06109542949999991
46822.0,-0.431884866,-0.9833127955,8.2347420715,0.6977407470452851,-0.14365805073165328,-0.23132419373007643,8.304481053949486,0.7489931029269901,-0.045502856000000036,0.332837701,0.17230284050000044
46832.0,-0.49533389149999996,-0.5894777314999999,8.555615659499999,0.8890602489903995,-0.335511623427878,-0.17723294955226818,8.590192021898261,0.9666476577311292,-0.06344902549999998,0.393835064,0.32087358799999954
46842.0,-0.45218463149999993,-0.177696498,9.045261693999999,1.1227476185276761,-0.5254994391537207,-0.10369001086098312,9.05830039793945,1.2439708573004409,0.04314926000000002,0.41178123349999995,0.48964603449999977
46852.0,-0.3241097825,0.19936919449999999,9.615028059,1.3537716156264097,-0.6915046856279093,-0.0008342673824532896,9.622554744047191,1.5201569042448082,0.12807484899999994,0.3770656925,0.5697663650000013
46862.0,-0.16975311149999997,0.56094038,10.136937971999998,1.5416266390063154,-0.8188753237799515,0.12919974320813224,10.153865356451892,1.750389117777723,0.15435667100000003,0.3615711855,0.5219099129999982
46872.0,-0.143373223,0.7979671104999999,10.595496926,1.6535406413026956,-0.9110705961872999,0.27228881660363535,10.626469898295884,1.907455761826266,0.026379888499999976,0.2370267304999999,0.4585589540000008
46882.0,-0.048837117,0.7908082559999999,10.881556906499998,1.6729923358161727,-0.9731571936684943,0.40738602735425644,10.910364039350496,1.9778527889031265,0.094536106,-0.007158854499999978,0.28605998049999926
46892.0,0.0481506515,0.5130839279999999,11.154475975999999,1.616503009246124,-0.9611650363780413,0.4955844957745379,11.166373981806847,1.944871254995939,0.0969877685,-0.277724328,0.27291906950000033
46902.0,-0.012846711499999998,0.350293538,11.4358287645,1.509385171734224,-0.9028099528376109,0.5163696218365383,11.44119968061595,1.8330158193396509,-0.060997363,-0.1627903899999999,0.28135278850000134
46912.0,-0.18407082049999998,0.30949787399999995,11.6441220105,1.3833479651307057,-0.8353948651500779,0.49185472716302603,11.649688768219546,1.6892179391608992,-0.17122410899999999,-0.040795664000000065,0.2082932460000002
46922.0,-0.37324109899999997,0.37059330349999997,11.7853377705,1.2522493036964035,-0.7392027887556624,0.4404268554237611,11.797068902034763,1.5193830644346205,-0.18917027849999998,0.06109542950000002,0.1412157599999997
46932.0,-0.6150730879999999,0.479545185,11.844079604,1.1144869751779871,-0.6179617469366242,0.3650181597620941,11.869730416227966,1.3255927713571953,-0.24183198899999997,0.10895188150000001,0.058741833499999174
46942.0,-0.765899365,0.523871243,11.881148741,0.9679334232172753,-0.4873954109241805,0.27228881660363535,11.917329328432427,1.117403507251732,-0.15082627700000006,0.044326058,0.03706913700000136
46952.0,-0.9286897550000001,0.4735631285,11.936262114,0.8211128358810083,-0.34856843156204753,0.17103354004918433,11.981697707413103,0.9082833877991677,-0.16279039000000006,-0.0503081145,0.0551133729999993
46962.0,-1.0268543215,0.39569832749999995,11.996082678999999,0.6812194603459067,-0.22040017794184394,0.06231698094245754,12.046452033913276,0.7186929787499997,-0.09816456649999983,-0.07786480100000004,0.05982056499999899
46972.0,-1.081869628,0.29753376099999995,12.0942472455,0.5573150460883253,-0.1167468189951527,-0.05013109210503313,12.14618395489744,0.5716143863983502,-0.05501530650000008,-0.0981645665,0.09816456650000127
46982.0,-1.15130071,0.30351581749999995,12.237914667999998,0.455525698782764,-0.0328104446082414,-0.15218572945689757,12.295697239179594,0.48139451988700904,-0.06943108199999992,0.005982056499999999,0.1436674224999983
46992.0,-1.1932731719999998,0.38500907900000003,12.318133065,0.3619969948268919,0.018617427131023514,-0.23985187245532072,12.381782386271116,0.4346462395753623,-0.04197246199999993,0.08149326150000008,0.08021839700000122
47002.0,-1.1800341945,0.49150929799999993,12.271453410999998,0.2671366046517481,0.03220656068705136,-0.3160599289144011,12.337853577853531,0.4150820482284549,0.013238977499999915,0.1065002189999999,-0.04667965400000185
47012.0,-1.0771624359999998,0.5178891865,12.186429755499999,0.18533302261077386,0.03380528228187817,-0.3802775734122805,12.24489927719942,0.42438444743008136,0.10287175850000008,0.026379888500000115,-0.0850236554999988
47022.0,-0.850824954,0.5825150099999999,11.994905880999998,0.10699391913500839,0.05778610620428026,-0.4420971355179197,12.039144235919458,0.45851587762614165,0.2263374819999998,0.0646258234999999,-0.1915238745000014
47032.0,-0.569570232,0.651946092,11.791319826999999,0.011332422833199182,0.12840038241071883,-0.5087128624080391,11.823056593734885,0.5247893466809991,0.281254722,0.06943108200000003,-0.20358605399999874
47042.0,-0.3707894365,0.6866616329999999,11.604601211,-0.11470303844106734,0.24271246709933944,-0.5604060241936073,11.630810731449328,0.6213863859673359,0.1987807955,0.03471554099999996,-0.1867186159999985
47052.0,-0.24634304799999998,0.651946092,11.381990255999998,-0.2737810731140905,0.3751445600821652,-0.5811894049263557,11.403307449676646,0.7439560748817067,0.12444638850000003,-0.03471554099999996,-0.22261095500000216
47062.0,-0.2319272725,0.5561351215,11.178404202,-0.42326677821815284,0.5014470567319869,-0.5750615539226036,11.194632510108868,0.872524903397162,0.014415775499999978,-0.09581097049999998,-0.20358605399999874
47072.0,-0.291845904,0.4735631285,10.939023875499998,-0.5040057094154106,0.5816519171781342,-0.5585402672232254,10.953158421985655,0.9509510702397481,-0.059918631499999986,-0.08257199300000001,-0.23938032650000096
47082.0,-0.37441789699999994,0.443652846,10.7858440025,-0.47895848932003987,0.6058997764760915,-0.5356258394737918,10.801455802604712,0.9398993635158588,-0.08257199299999995,-0.029910282499999996,-0.15317987299999913
47092.0,-0.387558808,0.459147353,10.7187665165,-0.3531883180920765,0.6120293728090955,-0.5041819876698619,10.735593777554497,0.8680561144929154,-0.013140911000000033,0.01549450699999999,-0.06707748599999874
47102.0,-0.4139386964999999,0.5429942105,10.6385481195,-0.18904708325901778,0.6202900161587847,-0.4642122024699398,10.660435922044352,0.7974907352170304,-0.02637988849999995,0.08384685749999998,-0.08021839700000122
47112.0,-0.42590280950000003,0.6842099705,10.7785870815,-0.0398284135305106,0.6578599736372146,-0.4045254327102378,10.808675957782723,0.7733090411651212,-0.01196411300000011,0.14121576000000002,0.1400389620000002
47122.0,-0.4402205185,0.759623109,10.9498111905,0.05769709441242855,0.7348673908937084,-0.3411071490097718,10.98495272999544,0.8122272613056876,-0.014317708999999956,0.07541313849999998,0.17122410900000062
47132.0,-0.664106338,0.758446311,11.3436462545,0.10699391913500839,0.8222682438458284,-0.28967927727050685,11.388353190082979,0.8783432399974025,-0.22388581949999997,-0.0011767979999999234,0.39383506399999924
47142.0,-1.0627466604999998,0.7225539719999999,11.82485857,0.13923538640709962,0.85690779351016,-0.2550397276061754,11.89448590344952,0.9048329802034283,-0.3986403224999998,-0.035892339000000106,0.48121231550000054
