timestamp,ax,ay,az,gx,gy,gz,acc_mag,gyro_mag,dax,day,daz
117592.0,0.284000584,-3.3446560489999997,10.003763665,-0.18167655782784575,-0.19779816412851736,0.02392497338633827,10.551903519412923,0.26963473394264964,0.0,0.0,0.0
117602.0,0.629979196,-3.690634661,9.911581154999999,-0.2816001481630251,-0.26414860097233384,0.032719687487137696,10.595145066516007,0.38748381229457174,0.34597861199999996,-0.34597861200000013,-0.09218251000000066
117612.0,0.7329490209999999,-3.67749375,9.59678769,-0.3503486673990817,-0.21192136843565548,0.03298497753344083,10.30337364728706,0.41078323224157387,0.10296982499999996,0.01314091099999981,-0.3147934649999993
117622.0,0.7975748444999999,-3.7097576285,9.230411246,-0.40816968018840183,-0.12159010766943695,0.04550946024575214,9.979925804587747,0.4283196856088069,0.06462582350000001,-0.03226387849999979,-0.36637644400000013
117632.0,0.7508951905,-3.793604486,9.064090462,-0.4532026655483596,-0.010475466170469966,0.056967546785094914,9.854593572879336,0.4568891472100633,-0.04667965399999996,-0.0838468575000002,-0.16632078399999983
117642.0,0.5773174855,-3.9647305284999996,8.9802436045,-0.4715879638888678,0.050010664386645524,0.06576051555664235,9.833471352419098,0.4787700070425435,-0.17357770500000003,-0.17112604249999963,-0.08384685749999932
117652.0,0.467188806,-4.167041718,8.8629560705,-0.4633273205391787,0.03269176221910579,0.05936562917733513,9.804819853909446,0.4682576589898197,-0.11012867949999994,-0.2023111895000005,-0.1172875340000008
117662.0,0.3725546335,-4.2401012604999995,8.673785792,-0.4241586414659219,-0.034723325468427185,0.042312017056098536,9.661874332640489,0.4276757758503027,-0.0946341725,-0.07305954249999935,-0.1891702784999989
117672.0,0.38216515049999994,-4.2616758905,8.4379358595,-0.3570088438246921,-0.11732801363606682,0.026590091154133612,9.460797702464717,0.3767336065450143,0.00961051699999993,-0.021574630000000816,-0.23584993250000075
117682.0,0.501904347,-4.219801495,8.265633019000001,-0.289328466090856,-0.17728181877132404,0.02099456557223979,9.294047656189676,0.3399714345955014,0.11973919650000003,0.041874395500000716,-0.17230284049999867
117692.0,0.677835648,-4.2030321235,8.117160338,-0.24696059849869365,-0.2073922390267302,0.030321605094897487,9.165873234431773,0.3239143061905174,0.17593130099999998,0.016769371499999686,-0.14847268100000122
117702.0,0.8789700395,-4.254517036,7.985457028499999,-0.2309733825504256,-0.216984568595691,0.051637311249504235,9.090711055466063,0.3210878670528078,0.2011343915,-0.05148491250000031,-0.13170330950000064
117712.0,1.0286195185,-4.283152454,7.841789606,-0.217916574416256,-0.20632584285376165,0.08174773150491041,8.994282477375004,0.31103163575564097,0.14964947900000003,-0.02863541799999947,-0.1436674224999992
117722.0,1.149535513,-4.210190978,7.8022688065,-0.1915359227723617,-0.1762154225983555,0.12171751670483255,8.939940631556997,0.2873204460990695,0.12091599450000001,0.07296147599999969,-0.03952079949999998
117732.0,1.2237718535,-4.204208921499999,7.702927441999999,-0.16329125948733747,-0.14397395532626425,0.17154666684927067,8.860478620354302,0.2771656438744614,0.07423634049999994,0.00598205650000061,-0.09934136450000075
117742.0,1.2776103619999999,-4.182634291499999,7.673017159499999,-0.13344787460748644,-0.10533585634561378,0.2184436638503583,8.83186900851133,0.2768060912366047,0.05383850849999994,0.021574629999999928,-0.029910282500000385
117752.0,1.221320191,-4.256870632,7.702927441999999,-0.08708320302825706,-0.061636302534179746,0.2610768214888238,8.885249673658304,0.28203479352458044,-0.05629017099999989,-0.07423634050000061,0.029910282500000385
117762.0,1.185427852,-4.357388794499999,7.736466185,-0.04231725304385451,-0.04431740036664002,0.2943846849338836,8.957956537647409,0.3006944040118748,-0.035892339000000106,-0.10051816249999934,0.03353874300000115
117772.0,1.1590479635,-4.4615354175,7.723325274,-0.005811946409141118,-0.03845483940919106,0.31676853259071086,8.994356216612035,0.3191470768074206,-0.02637988849999995,-0.10414662300000099,-0.013140911000000699
117782.0,1.1663048845,-4.53459496,7.6814508785,0.018435912888816103,-0.051244612167805514,0.33542086630677426,8.995971661453495,0.3398132585910381,0.007256920999999972,-0.07305954249999935,-0.04187439549999983
117792.0,1.1578711654999998,-4.5621516465,7.587993504,0.034957199588194425,-0.07202799290055399,0.358869364807318,8.929251855463884,0.3676917983332495,-0.008433719000000117,-0.027556686500000538,-0.0934573744999998
117802.0,1.0849096894999999,-4.466340676,7.5006162524999995,0.057339301915769705,-0.10160608773410189,0.38364954952713354,8.796844447626107,0.40099696939152835,-0.07296147599999991,0.09581097050000054,-0.08737725150000042
117812.0,1.0022396299999998,-4.272463205499999,7.445600946,0.11942589939696399,-0.15090116712742974,0.4031012440406104,8.642650031406454,0.4466814532015875,-0.08267005950000006,0.19387747050000037,-0.05501530649999964
117822.0,1.0274427204999999,-4.1035926924999995,7.459918655,0.22467797993848204,-0.18660711296472973,0.4276161387141227,8.575867178837651,0.5178397159035256,0.025203090500000025,0.1688705129999999,0.014317709000000178
117832.0,1.0729455764999998,-3.884610198,7.552101165,0.34325390398972483,-0.1940683955170055,0.4635891199269778,8.56011919350022,0.6086055018297173,0.045502855999999925,0.21898249449999962,0.09218250999999977
117842.0,1.129137681,-3.7648710014999995,7.7053791044999995,0.4471742983119712,-0.18740647376214314,0.525408682032617,8.64997530081184,0.7149407826065152,0.05619210450000023,0.11973919650000031,0.15327793949999968
117852.0,1.114819972,-3.7899760254999997,7.855028583499999,0.5076621741983386,-0.17301797940870187,0.6101426718876897,8.792509078268663,0.8123608707764691,-0.014317708999999956,-0.025105024000000142,0.1496494789999998
117862.0,0.9819398644999999,-4.00307453,7.936423778499999,0.516455142969886,-0.16129285749380398,0.6970094540886994,8.94290970446248,0.8823624423487145,-0.13288010750000012,-0.21309850450000045,0.08139519499999981
117872.0,0.7281437624999999,-4.339442625,7.8801336074999995,0.47675239314551904,-0.15409861031708336,0.7641592517299293,9.025378734800302,0.9137716279662448,-0.253796102,-0.3363680950000001,-0.05629017099999967
117882.0,0.40491657849999996,-4.7955499165,7.5976040209999995,0.407204513112049,-0.15116820250298488,0.7950690327827489,8.993600129931432,0.9059812955226505,-0.32322718399999995,-0.4561072914999995,-0.28252958649999993
117892.0,0.09483030549999999,-5.32108829,7.170230214,0.317939648518799,-0.16129285749380398,0.7817451892730242,8.929455453641888,0.8592011097119756,-0.31008627299999997,-0.5255383734999999,-0.4273738069999995
117902.0,-0.20201698999999998,-5.844175001,6.613604759999999,0.22547734073589545,-0.19246967392217867,0.7276539450952159,8.828077946419405,0.7857256966509829,-0.2968472955,-0.5230867110000004,-0.5566254540000006
117912.0,-0.5898699975,-5.878890542,6.005494393499999,0.1721854573555006,-0.24656091809998693,0.6389214059238242,8.424681805808907,0.7061591045980413,-0.38785300750000007,-0.03471554099999974,-0.6081103665
117922.0,-0.789827591,-5.83103409,5.426019445,0.20815669323910374,-0.31530943733604355,0.5230105996403768,8.004153496764358,0.645204880289662,-0.19995759349999997,0.04785645199999955,-0.5794749484999997
117932.0,-0.793357985,-5.6993307804999995,4.996292042,0.34192221777045306,-0.39071813299771063,0.40150252244578355,7.620677293185332,0.6563350805713563,-0.0035303939999999923,0.13170330950000064,-0.42972740299999934
117942.0,-0.5443671415,-5.27205504,4.7114088595,0.5367061982807763,-0.41683174926604977,0.2869234023816078,7.091422520969214,0.7376498419327675,0.2489908435,0.42727574049999983,-0.28488318250000066
117952.0,-0.281058589,-4.704544204499999,4.6180495514999995,0.7123037743239258,-0.3733974855009189,0.21444685986329126,6.598341591843708,0.8323399574691492,0.26330855249999996,0.5675108355000003,-0.09335930800000014
117962.0,0.08286619249999999,-4.1228137264999996,4.706603600999999,0.8596584324113031,-0.25135882821371935,0.178206843274881,6.257521656872025,0.9132094830469245,0.3639247815,0.5817304779999999,0.0885540494999999
117972.0,0.40727017449999997,-3.7660477994999995,4.9293126225,0.9268064847232809,-0.07176270285425085,0.18566812582715678,6.216679817514642,0.9479413476551392,0.324403982,0.3567659270000001,0.22270902150000094
117982.0,0.305575214,-3.3243562835,5.3351117995,0.928939277069218,0.13794384276062382,0.20858429890584235,6.29349972783198,0.9620104438037514,-0.10169496049999999,0.4416915159999997,0.40579917699999957
117992.0,-0.0224572285,-3.137539601,5.839075542999999,0.9180135159517334,0.27437273973051657,0.2075179027328738,6.628684807095286,0.9803534544907484,-0.32803244249999997,0.18681668249999994,0.5039637434999991
118002.0,-0.273801668,-3.299153193,6.3322519715,0.9318696848833165,0.2898276302569263,0.1696809098788887,7.145403709717689,0.990541657903495,-0.2513444395,-0.16161359200000014,0.4931764285000009
118012.0,-0.503669544,-3.40094622,6.684212639999999,0.97077307391027,0.19736532247402278,0.10013477517467068,7.516569484653302,0.9956808749512824,-0.22986787599999997,-0.10179302699999981,0.3519606684999994
118022.0,-0.643708506,-3.274048169,6.748838463499999,1.0267300750584603,0.030026644451310446,0.019928169399271254,7.528650122036887,1.0273623403367298,-0.140038962,0.12689805099999996,0.06462582350000012
118032.0,-0.6030109084999999,-2.9783776714999997,6.6339045255,1.0866838801937175,-0.1279849940487442,-0.0496179653049468,7.296783192839783,1.0953191117914147,0.040697597500000016,0.2956704975000002,-0.11493393799999918
118042.0,-0.388735606,-2.4731390635,6.5621198475,1.1687544976102466,-0.20925625066786013,-0.10450857028016845,7.023457061286505,1.1919300715183567,0.21427530249999993,0.5052386079999995,-0.07178467800000021
118052.0,-0.10983448,-1.8255078975,6.653125559499999,1.286531060864076,-0.17008757159460342,-0.14394603005823234,6.899900173720192,1.3056846526434014,0.278901126,0.647631166,0.0910057119999994
118062.0,0.13199750899999999,-1.259369993,6.953601315499999,1.3904514551863225,-0.00887674457564316,-0.15433772042460658,7.067956379079765,1.3990190055070328,0.24183198899999997,0.5661379045000001,0.300475756
118072.0,0.2995931575,-0.854747614,7.40009809,1.4293548442132762,0.2090886990596687,-0.14261259850970864,7.455320334182908,1.4515893730680571,0.1675956485,0.404622379,0.4464967745000008
118082.0,0.26487761649999997,-0.615269221,7.930441721999999,1.402975937898634,0.45157078269774487,-0.12289561394992872,7.95868219443841,1.478972949731311,-0.034715541000000016,0.23947839299999996,0.5303436319999992
118092.0,0.0338329425,-0.612915625,8.4367590615,1.321704681279518,0.6783291951046042,-0.10744072342351893,8.4590610408703,1.48948892929663,-0.23104467399999998,0.002353596000000069,0.5063173395000007
118102.0,-0.25830716099999995,-0.706274933,8.947979726,1.210855329826854,0.8315464141494304,-0.10850537426723547,8.979526048033664,1.4728928966152797,-0.29214010349999997,-0.09335930800000003,0.5112206644999997
118112.0,-0.620957078,-0.5147510585,9.4423329525,1.1279853516129112,0.8576582850885175,-0.12555898638847207,9.47671925989224,1.422565902338862,-0.36264991700000004,0.19152387449999997,0.49435322649999947
118122.0,-0.9478127224999999,-0.26929060899999996,9.850583792,1.1407768697007776,0.7366842786450346,-0.13781643372522825,9.899740776012347,1.3649428421189658,-0.32685564449999993,0.24546044950000007,0.40825083950000085
118132.0,-0.9837050614999999,-0.17240090699999996,10.201269596,1.228975338121059,0.5008658620910728,-0.1306221865485076,10.250038979976082,1.3335325827053188,-0.035892338999999995,0.096889702,0.3506858039999994
118142.0,-0.9621304315,0.037167203499999996,10.398775527,1.3382242226496441,0.2293397543705589,-0.11143752741058595,10.44325661990399,1.3622992019143143,0.021574629999999928,0.20956811049999996,0.19750593100000025
118152.0,-0.8616122689999999,0.18554181799999997,10.452712102,1.456800146700887,-0.013672909360123577,-0.0869226327370736,10.489804180994767,1.4594550900798697,0.10051816250000012,0.14837461449999997,0.05393657499999982
118162.0,-0.7263785654999999,0.30165255399999996,10.544894612,1.5487301290619322,-0.14210819835588231,-0.06374116961208491,10.574186609944956,1.5565419009482722,0.13523370349999997,0.11611073599999999,0.09218251000000066
118172.0,-0.664106338,0.4992565514999999,10.813008423,1.581505667085134,-0.12771970400244104,-0.06640454205062826,10.844881073034244,1.5880434694988106,0.062272227499999944,0.19760399749999996,0.2681138109999992
118182.0,-0.5970288519999999,0.7542294515,11.238028634,1.548463093686377,-0.010475466170469966,-0.08905367975375868,11.27912200014852,1.5510571381409388,0.06707748600000007,0.25497290000000006,0.4250202110000014
118192.0,-0.512103263,0.948106922,11.762292142999998,1.4544020643086468,0.1392755289798955,-0.10930473506464887,11.811548287366861,1.4651384107808505,0.08492558899999991,0.19387747050000004,0.5242635089999972
118202.0,-0.512103263,1.13364874,12.254291773499999,1.3424880620122663,0.25625273143631144,-0.1141026451783813,12.31726739531738,1.3714806132974409,0.0,0.18554181799999991,0.4919996305000005
118212.0,-0.5802594805,1.1133489745,12.681665580499999,1.2614838407687055,0.2887612340839578,-0.10530793107758185,12.743660733846013,1.2983891139323742,-0.0681562175,-0.0202997654999999,0.4273738070000004
118222.0,-0.6102678295,0.9780172045,13.087464757499998,1.2119217259998225,0.23413591915503928,-0.09038711130228233,13.138138310081269,1.23763634742946,-0.030008349000000045,-0.13533177000000007,0.4057991769999987
118232.0,-0.5922235935,0.8619064684999999,13.328119948499998,1.190871309891519,0.12142255606124551,-0.07626390699514422,13.369083472951456,1.1994724245906416,0.018044236000000047,-0.1161107360000001,0.2406551910000001
118242.0,-0.5227925115,0.9038789305,13.4646285165,1.177282176335491,-0.007278022980816354,-0.06320709886097464,13.50505572807559,1.1790001822231244,0.06943108200000003,0.041972462000000155,0.13650856800000177
118252.0,-0.47130759899999997,0.936142809,13.5220954855,1.1402427989496675,-0.08748288342696378,-0.04855156913197826,13.562653152340697,1.1446240213775198,0.05148491249999998,0.03226387850000001,0.057466969000000034
118262.0,-0.40315138149999996,0.8032627014999999,13.3712692085,1.0248643180880783,-0.10906737028637765,-0.03842691414115916,13.401440305064476,1.0313676306156498,0.0681562175,-0.13288010750000012,-0.15082627700000018
118272.0,-0.363630582,0.7002928764999999,13.0611829355,0.8495320320912318,-0.047247808180738496,-0.05654517710611229,13.084996636898257,0.8527217517929886,0.03952079949999998,-0.10296982499999996,-0.3100862729999996
118282.0,-0.39236406649999994,0.5027869455,12.673329927999998,0.6715363736558422,0.09530893979290635,-0.0962496722597313,12.689367034536673,0.685061234166255,-0.02873348449999996,-0.1975059309999999,-0.3878530075000022
118292.0,-0.37794829099999994,0.40579917699999996,12.378836228499999,0.5217836331762248,0.2754391359034851,-0.1428796338852638,12.39125111741134,0.6070745153743704,0.014415775500000005,-0.09698776850000007,-0.2944936994999985
118302.0,-0.4737592615,0.5195563169999999,12.348925945999998,0.452769823893865,0.43158501743315786,-0.18817790929152464,12.368927141194726,0.65320522521409,-0.09581097050000004,0.11375713999999998,-0.029910282500001273
118312.0,-0.5659417714999999,0.6847983695,12.6087041045,0.4764853577699639,0.48194649299945413,-0.2137592001380055,12.639962740864133,0.7106361332829082,-0.09218250999999994,0.16524205250000001,0.2597781585000014
118322.0,-0.6186034819999999,0.912214583,13.045590361999999,0.5367061982807763,0.4150654760630315,-0.2134921647624504,13.092067583330284,0.711274769064243,-0.052661710500000014,0.22741621350000008,0.43688625749999943
118332.0,-0.6629295399999999,1.144436055,13.4191256605,0.5854689522522458,0.2549210452170398,-0.2020340782231076,13.484144131211227,0.669758465500326,-0.044326058,0.23222147199999987,0.373535298500002
118342.0,-0.628213999,1.3228190185,13.714796157999999,0.607584019204266,0.05640555076595274,-0.18951134084004828,13.7927566729692,0.6389479437768097,0.03471554099999996,0.17838296350000005,0.29567049749999796
118352.0,-0.5216157135,1.3910733025,13.829730095999999,0.5899980816611712,-0.1578301242578472,-0.17378941493808336,13.909299134525309,0.634988854415281,0.10659828549999995,0.068254284,0.11493393800000007
118362.0,-0.3445076145,1.4736452954999997,13.7531401595,0.5215165978006696,-0.32996496706503997,-0.15566940664387824,13.836154819900269,0.6364663427367353,0.17710809900000002,0.08257199299999973,-0.07658993649999957
118372.0,-0.21398110299999998,1.50237878,13.381958456999998,0.39441474035343455,-0.41709703931235287,-0.13888282989819678,13.467729654841946,0.590611012470754,0.13052651150000003,0.02873348450000024,-0.37118170250000126
118382.0,-0.0942419065,1.4640347785,12.8301382615,0.23400501946113975,-0.40750470974339204,-0.12769177873440915,12.91374179619542,0.4869534145607892,0.11973919649999998,-0.038344001499999836,-0.5518201954999977
118392.0,0.007453054,1.3048728490000001,12.2627254925,0.0930452477530697,-0.30225262920187396,-0.12982282575109422,12.331957882042927,0.34185967307489573,0.1016949605,-0.15916192949999997,-0.5674127690000006
118402.0,0.10081236199999999,1.1013848615,11.9179236785,-0.00048345620280242926,-0.14903715548629978,-0.1359524220840983,11.969131821148281,0.20173093098451797,0.09335930799999999,-0.2034879875000002,-0.3448018140000002
118412.0,0.0673716855,1.052253545,11.8029897405,-0.03459068044527562,-0.006745697558958084,-0.13621771213040146,11.84999338739564,0.14070282409129187,-0.03344067649999999,-0.04913131650000002,-0.11493393800000007
118422.0,-0.050013915,0.9540889785,11.8245643705,-0.029792770331543206,0.05960299395560636,-0.12929050032923595,11.863098656029413,0.14545157107396361,-0.11738560049999999,-0.09816456649999994,0.021574629999999928
118432.0,-0.10865768199999999,0.8379782425,11.8951722505,-0.023931954703346248,0.05081002518405892,-0.11969817076027511,11.925147248391788,0.1322197004930948,-0.05864376699999999,-0.11611073599999999,0.07060788000000073
118442.0,-0.10149882749999999,0.7565830474999999,11.925082533,-0.037254052883818965,-0.013140583938265307,-0.11063816661317255,11.949490086970654,0.11747911862979354,0.007158854500000006,-0.08139519500000003,0.029910282499999497
118452.0,-0.020005566,0.8164036125,11.804264604999998,-0.08308639904119007,-0.09680992294962147,-0.09145176214599887,11.832479788532487,0.15696794477456813,0.08149326149999998,0.0598205650000001,-0.12081792800000102
118462.0,0.14396162199999998,0.9158430435,11.666579238999999,-0.15476358076209318,-0.15569733191191015,-0.05734453790352569,11.703356978610966,0.22689605796963805,0.16396718799999999,0.09943943099999997,-0.13768536599999948
118472.0,0.1522972745,1.053430343,11.411606338999999,-0.2426967591360715,-0.17728181877132404,-0.007250097712784445,11.461137342501319,0.30063786201818593,0.008335652500000013,0.13758729950000004,-0.2549729000000003
