timestamp,ax,ay,az,gx,gy,gz,acc_mag,gyro_mag,dax,day,daz
108402.0,0.04746418599999999,-1.3875429085,7.8393379435,0.2768947404996484,-0.3141645013467353,0.036643187645620946,7.961328253770228,0.42037216180860815,0.0,0.0,0.0
108412.0,0.197113665,-0.830819388,7.314976368,0.2936830625745818,-0.34987044718403526,0.030248301266313726,7.364644860195561,0.4577925630516951,0.149649479,0.5567235205,-0.5243615755000004
108422.0,0.10738281749999999,-0.8475887595,7.142575461,0.27449665810740814,-0.3045721717777745,0.031579987485585395,7.193491641115902,0.41122976393149757,-0.0897308475,-0.01676937150000002,-0.1724009070000001
108432.0,0.1660265845,-0.9829205295,7.0540214115,0.27129921491775455,-0.2256989975508987,0.05476319593982608,7.124108061222383,0.35713066115920983,0.058643767,-0.13533176999999996,-0.0885540494999999
108442.0,0.125328987,-0.9769384729999999,7.057649872,0.2886198624145463,-0.08474097117208068,0.060091686146164766,7.126046438997688,0.30674658583147785,-0.04069759749999999,0.005982056500000055,0.003628460499999875
108452.0,-0.0075511204999999994,-0.9756636084999999,7.168955349499999,0.3072721961306097,0.04849048260815846,0.05263040359388901,7.2350464614608185,0.31549562405991566,-0.1328801075,0.001274864500000028,0.1113054774999993
108462.0,-0.0673716855,-0.9530102469999999,7.4131409344999994,0.3323194162259803,0.13162749619765635,0.032646383658553935,7.474451551094143,0.35892586772482965,-0.059820565,0.02265336149999997,0.24418558500000032
108472.0,-0.0661948875,-0.9075073909999999,7.6214341805,0.363496232654355,0.18971554436253163,-0.0017278759594743863,7.675559288777885,0.4100298580372069,0.0011767980000000067,0.045502856000000036,0.2082932460000002
108482.0,-0.0422666615,-0.7399117425,7.8968049124999995,0.38934281354713907,0.21049892509528012,-0.039564868813459456,7.9315057639421696,0.44436809378182957,0.023928225999999997,0.16759564849999986,0.27537073199999984
108492.0,0.10620601949999998,-0.6249778045,8.160113464999998,0.39493833912903287,0.20836787807859503,-0.07367209305593264,8.184700894740745,0.4525715872922395,0.148472681,0.11493393800000007,0.26330855249999896
108502.0,0.2270239475,-0.4992565514999999,8.410379173,0.3685594328143906,0.1894485089869765,-0.09765466230758672,8.428242688163788,0.4257501921834711,0.120817928,0.12572125300000003,0.25026570800000236
108512.0,0.355196863,-0.320873588,8.506092077,0.31100196474212155,0.1529432023522631,-0.11150908590991772,8.519549700152186,0.3640715883719719,0.12817291549999998,0.17838296349999994,0.0957129039999991
108522.0,0.5885951329999999,-0.2095681105,8.4989332225,0.23079710429597414,0.13322621779248317,-0.11470827442882332,8.521867691066557,0.29012844858981884,0.2333982699999999,0.1113054775,-0.007158854500000089
108532.0,0.7346161515,-0.063547092,8.4989332225,0.14313096129755096,0.1326921470413729,-0.09871931315130326,8.530859572367872,0.21872169704324132,0.14602101850000015,0.1460210185,0.0
108542.0,0.7226520385,0.087279185,8.3732119695,0.08370948158415203,0.11510620949827803,-0.06301336731400327,8.404791628057207,0.15565153784141825,-0.011964112999999998,0.150826277,-0.12572125300000003
108552.0,0.7095111274999999,0.083748791,8.367229913,0.07838099137781335,0.059948569147501234,-0.009189158511750145,8.397675649668916,0.09910525408047575,-0.013140911000000144,-0.0035303939999999923,-0.00598205650000061
108562.0,0.6867596994999999,0.12326959049999998,8.352912203999999,0.12048182359442057,-0.014128440294894098,0.05049935657720393,8.382003135559632,0.1313988875771597,-0.022751427999999962,0.03952079949999998,-0.014317709000000178
108572.0,0.6999006105,0.24889277699999998,8.2810294595,0.16871225214403185,-0.07488160622756472,0.10032850672164205,8.314280328935746,0.2100878107737953,0.013140911000000033,0.12562318649999998,-0.07188274449999987
108582.0,0.7777654115,0.31479346499999994,8.255924435499999,0.18816394665750868,-0.08660672814246262,0.1496235861149699,8.298451798113817,0.2555261507227313,0.07786480100000004,0.06590068799999996,-0.025105024000000142
108592.0,0.6017360439999999,0.2848831825,8.230819411499999,0.18283371112191799,-0.07328288463273791,0.20185081865164822,8.2577014283059,0.2820324451070279,-0.1760293675000001,-0.02991028249999994,-0.025105024000000142
108602.0,0.34440954799999995,0.1387640975,8.2535708395,0.19056202904974887,-0.09726370855514,0.23489164672115284,8.261918966811118,0.3177234672113966,-0.25732649599999996,-0.146119085,0.022751428000001184
108612.0,0.174362237,-0.21074490849999997,8.3492837435,0.24998350876314782,-0.17773560437684255,0.23036077198297558,8.353762902765656,0.3835984684345452,-0.17004731099999995,-0.34950900599999996,0.0957129039999991
108622.0,0.055897905,-0.44777163899999994,8.4414662535,0.3357838947911891,-0.29444751678695535,0.18719528892265183,8.45351858846099,0.4842439884376261,-0.118464332,-0.23702673049999998,0.09218251000000066
108632.0,0.1660265845,-0.517202721,8.492951166,0.40080090008648184,-0.37598406345237445,0.11205188330728795,8.51030451801998,0.560857381187948,0.11012867949999999,-0.06943108200000003,0.051484912499999425
108642.0,0.3958944605,-0.4118793,8.415086364999999,0.40559706487096225,-0.3488057963403187,0.023853414887006503,8.4344564443734,0.5354843116229598,0.229867876,0.10532342099999997,-0.07786480100000048
108652.0,0.57663102,-0.19162194099999996,8.3696815755,0.3480413421279452,-0.19398985570066576,-0.04729318674129035,8.391709717141259,0.401249903996416,0.1807365595,0.22025735900000004,-0.045404789499999154
108662.0,0.6950953519999999,0.10404855649999999,8.437837793,0.24225519083531694,0.054620078941162546,-0.09339082294496458,8.467059127670058,0.2653163702460373,0.11846433199999995,0.29567049749999996,0.06815621750000034
108672.0,0.5742774239999999,0.315970263,8.595920991,0.1215482197673891,0.30935786458674297,-0.10351547793578368,8.620875213708338,0.34812600058393345,-0.12081792800000002,0.21192170649999997,0.15808319799999992
108682.0,0.32999377249999995,0.47042500049999997,8.896396746999999,0.04454080251089529,0.49001864078992796,-0.0856625050171337,8.914935257814067,0.49943990246648645,-0.24428365149999998,0.1544547375,0.3004757559999991
108692.0,0.08698498549999999,0.465619742,9.289055012999999,0.03814591613158807,0.5587654146967326,-0.05288871232318417,9.301124188310947,0.5625576552407178,-0.24300878699999995,-0.004805258499999965,0.39265826599999976
108702.0,-0.0542307745,0.33391643249999997,9.716428819999999,0.06772226563588397,0.49081800158734135,-0.0038589229761594626,9.722316091082565,0.4954831048901512,-0.14121576,-0.13170330950000003,0.4273738070000004
108712.0,-0.11532620399999999,0.2093719775,9.996506744,0.10609332924097932,0.3256121159105661,0.04676958796569205,9.999364171842567,0.3456391744227951,-0.061095429499999986,-0.12454445499999997,0.2800779240000004
108722.0,-0.026674088000000002,0.026281822,10.162925594499999,0.14046758885900762,0.10604620535117545,0.08567297699264564,10.162994582330615,0.19574677564657167,0.08865211599999999,-0.1830901555,0.1664188504999995
108732.0,0.1420983585,-0.1293497135,10.219117699,0.1751071385233391,-0.09806306935255339,0.10405827533315393,10.220924118585657,0.22606857410526132,0.1687724465,-0.1556315355,0.056192104500000895
108742.0,0.26173948849999995,-0.16887051299999997,10.179694966,0.18976266825233548,-0.2472834844103126,0.10166019294091372,10.184459455995043,0.32786245096554595,0.11964112999999996,-0.03952079949999998,-0.03942273300000032
108752.0,0.285765781,-0.1652420525,10.191659079,0.19748924085091438,-0.32802067027831827,0.07794465906481476,10.19700356968007,0.39073639484752104,0.024026292500000046,0.003628460499999986,0.01196411300000122
108762.0,0.174362237,-0.15572960199999997,10.341308557999998,0.22626797488704886,-0.33867939602024766,0.05049935657720393,10.343950724476345,0.4104279653761882,-0.111403544,0.00951245050000002,0.14964947899999714
108772.0,0.0248108245,-0.1185623985,10.6046171105,0.27049985412034117,-0.3450742823995549,0.03291341903410906,10.605308891289297,0.4396927616020173,-0.1495514125,0.03716720349999997,0.2633085525000016
108782.0,-0.10453888899999998,-0.1856398845,10.863218471,0.3067398707087514,-0.385044067599477,0.03691022302117608,10.865307455139321,0.4936705853496288,-0.1293497135,-0.06707748599999999,0.25860136050000015
108792.0,-0.2134907705,-0.41423289599999996,11.046406693,0.32699092601964164,-0.4735095713953136,0.04836830956051886,11.056232090019295,0.5774719675204144,-0.10895188150000003,-0.22859301149999997,0.18318822200000007
108802.0,-0.26252402049999995,-0.6405703779999999,11.043955030499998,0.3379149418078741,-0.5824931658775956,0.03557679147265242,11.065631115585624,0.674351914272223,-0.049033249999999945,-0.22633748199999998,-0.002451662500002172
108812.0,-0.20623384949999998,-0.920648302,10.8140871545,0.3485736675498035,-0.6917420504061805,-0.012119566325848624,10.855164977179157,0.7746983605876512,0.05629017099999997,-0.2800779240000001,-0.22986787599999836
108822.0,-0.037461403,-1.166010685,10.4992936895,0.37069047983107567,-0.7333105572009295,-0.0795346540133816,10.563908000954164,0.8255189678794541,0.16877244649999998,-0.24536238300000002,-0.3147934649999993
108832.0,0.18161915799999998,-1.1947441694999998,10.2706026115,0.41199195125026944,-0.6712239597197353,-0.16933184402848986,10.341454305486124,0.8055757229453566,0.21908056099999998,-0.028733484499999795,-0.22869107800000066
108842.0,0.34793994199999995,-1.0666693205,10.229905014,0.4682159877740148,-0.514011682017094,-0.2545999046346728,10.291248818194866,0.7404426594255783,0.16632078399999997,0.12807484899999988,-0.04069759749999946
108852.0,0.448556171,-0.7949270489999999,10.322087523999999,0.5462898012034771,-0.3144315367222904,-0.30709417254690624,10.362364715878826,0.7011466102012792,0.10061622900000006,0.2717422715000001,0.09218250999999889
108862.0,0.565843705,-0.46816947099999995,10.610599166999998,0.6254282654766561,-0.07514864160311985,-0.3180181883351388,10.635984977180327,0.7056510481136528,0.11728753400000003,0.32675757799999994,0.28851164299999965
108872.0,0.5502511314999999,-0.2670350795,11.028362456999998,0.6531406033398219,0.18838385814325995,-0.28524265031193724,11.04530952596475,0.7371868794932698,-0.015592573500000095,0.20113439149999995,0.4177632899999999
108882.0,0.39707125849999997,-0.0946341725,11.5168316935,0.6107727357476597,0.440456526021045,-0.2250235551303769,11.52406323600047,0.7859267691144779,-0.15317987299999997,0.172400907,0.48846923650000207
108892.0,0.134939504,-0.1605348605,12.1177832055,0.5345646792885792,0.6501630716359197,-0.1714646363744269,12.119597762577495,0.8589944921761548,-0.2621317545,-0.06590068799999999,0.600951512
108902.0,-0.23859579449999999,-0.3029274185,12.719911515499998,0.4655508700062194,0.7301008967065119,-0.1301614196259811,12.72575506349944,0.8756294462238301,-0.3735352985,-0.142392558,0.6021283099999977
108912.0,-0.6085026325,-0.530343632,13.152090581,0.4253157947599942,0.6216513729753403,-0.11257548208288624,13.176836739999144,0.7615885988909271,-0.369906838,-0.22741621350000002,0.4321790655000015
108922.0,-0.8036549674999999,-0.7661935645,13.356755366499998,0.4093268334824741,0.3778376031179924,-0.1309625257526465,13.40282909708227,0.5722419891009844,-0.19515233499999984,-0.23584993249999997,0.20466478549999856
108932.0,-0.8598470719999999,-0.8284657919999999,13.267024519,0.3997345039135133,0.10737963689969914,-0.1759937657833522,13.320646836527434,0.449768680139357,-0.056192104500000006,-0.062272227499999944,-0.08973084749999849
108942.0,-0.8191494744999999,-0.7434421365,12.979689674,0.3848136841382138,-0.09966179094738022,-0.24260949267347176,13.02674387962086,0.4656966931492467,0.040697597500000016,0.0850236554999999,-0.28733484500000017
108952.0,-0.6324308585,-0.5878106009999999,12.7306988305,0.3571013462750478,-0.19558857729549256,-0.3190845845081073,12.759944467211646,0.5172922144693828,0.18671861599999984,0.15563153550000008,-0.24899084349999967
108962.0,-0.5247538415,-0.3233252505,12.5259359785,0.31606516490215714,-0.212376899370426,-0.3801047858163331,12.541091577261552,0.5380341848352242,0.10767701699999999,0.26448535049999994,-0.204762852
108972.0,-0.36912230599999996,0.020299765499999997,12.3643223865,0.2715662502933097,-0.17400583576533066,-0.41127985691545577,12.369847672246056,0.5226637349990504,0.15563153550000008,0.343625016,-0.16161359200000014
108982.0,-0.2278084795,0.178284897,12.209965715499997,0.21134540978249736,-0.08234288877984047,-0.41847410409217645,12.213392034218659,0.47599139631351595,0.14131382649999996,0.1579851315,-0.15435667100000217
108992.0,-0.141608026,0.306359746,12.001672469499999,0.13353863172859015,0.017580701555338883,-0.411813927666566,12.006417083882727,0.4332809230179487,0.0862004535,0.128074849,-0.20829324599999843
109002.0,-0.0673716855,0.38422454699999997,11.7274785355,0.05040161813909225,0.11190876630862442,-0.3982230487812862,11.733964387500826,0.41670792129310413,0.0742363405,0.07786480099999998,-0.2741939339999995
109012.0,-0.071000146,0.38059608649999993,11.6005804845,0.009100146719898434,0.19717682691480737,-0.38303519363043154,11.60703932875018,0.4309030903834617,-0.0036284604999999998,-0.0036284605000000414,-0.1268980509999995
109022.0,-0.220649625,0.40932957099999995,11.650888598999998,0.041343359321241675,0.19770915233666564,-0.3670479776821635,11.660164754454193,0.4189539356518974,-0.14964947899999997,0.028733484500000017,0.05030811449999817
109032.0,-0.2852754485,0.410506369,11.794556021499998,0.1199494981725623,0.06474473393198164,-0.36944606007440367,11.805145035314403,0.39378947927575786,-0.06462582349999998,0.0011767980000000344,0.14366742250000009
109042.0,-0.2409493905,0.43325779699999994,11.872322755999999,0.19935499782129631,-0.1500232665136766,-0.3896971153852939,11.88266874696417,0.46272371604595947,0.044326057999999974,0.022751427999999962,0.07776673450000082
109052.0,-0.07335374199999999,0.5529969935,11.731106996,0.24092350461604525,-0.37518470265496107,-0.41874113946773156,11.744362809360307,0.6116795223525987,0.16759564850000003,0.11973919650000003,-0.1412157599999997
109062.0,0.1876012145,0.734910351,11.3887568445,0.24598670477608078,-0.5222723253667831,-0.44032388099789344,11.413985715026737,0.7260598879897365,0.2609549565,0.18191335750000004,-0.3423501514999998
109072.0,0.473661195,0.9121165164999999,10.957754577,0.2153422137695644,-0.5523827456221894,-0.4421896379682754,11.005848301566097,0.7396151990182459,0.2860599805,0.1772061654999999,-0.43100226750000026
109082.0,0.658026215,1.1778767314999998,10.4981168915,0.1548560832124489,-0.45059339831662804,-0.4150113708562197,10.584462686496371,0.6318617372925718,0.18436502000000005,0.2657602149999999,-0.45963768549999884
109092.0,0.7585443774999999,1.297615928,10.138997368499998,0.07465122276630146,-0.2278317898968358,-0.3603860559273011,10.249803135069769,0.4328489792698323,0.1005181624999999,0.11973919650000009,-0.35911952300000216
109102.0,0.957325173,1.0725533104999998,10.124581592999998,0.031216959001170577,0.05941624372564296,-0.31295498817510325,10.226142700160134,0.32007126264540653,0.19878079550000005,-0.22506261750000012,-0.014415775499999839
109112.0,1.0794179655,0.7875720615,10.217940901,0.025089107997418487,0.32960891989763313,-0.3020309723868707,10.30493712511766,0.44776580005305133,0.12209279250000005,-0.28498124899999977,0.09335930800000192
109122.0,1.053038077,0.5769252195,10.785353670000001,0.05786290069136801,0.4950818409499635,-0.29750009764869345,10.851985333914227,0.580482947739041,-0.02637988849999995,-0.21064684200000006,0.5674127690000006
109132.0,0.8113041544999999,0.604481906,11.4234723855,0.1719096953336855,0.5211954572183027,-0.26259351260880687,11.468187919112218,0.6084020059458612,-0.24173392250000014,0.027556686499999983,0.6381187154999992
109142.0,0.6855829015,0.561332646,11.881933272999998,0.26836880710365607,0.3618503871697244,-0.2226254727381367,11.914925789039518,0.5025133037373216,-0.12572125299999992,-0.04314925999999997,0.4584608874999976
109152.0,0.7825706699999999,0.3662783775,12.114154745,0.29474771341829836,0.1521438415548497,-0.18318801296007284,12.144929884078142,0.37892190644068385,0.0969877684999999,-0.19505426850000002,0.23222147200000265
