timestamp,ax,ay,az,gx,gy,gz,acc_mag,gyro_mag,dax,day,daz
122282.0,0.044620257499999996,-5.032576646999999,7.119922099499999,0.032025046444843955,0.04254938183436976,0.01539903999034597,8.719065854680625,0.05543630513396146,0.0,0.0,0.0
122292.0,0.0230456275,-5.471914567,7.214556271999999,0.05574058032094291,0.08411788862911872,0.011934561425137226,9.054954573676678,0.1016133123087063,-0.021574629999999997,-0.4393379200000007,0.09463417250000017
122302.0,0.005099457999999999,-5.471914567,7.368912943,0.10237228727572739,0.1712517062056836,-0.012046262497264863,9.178385097310507,0.19988082579520938,-0.017946169499999998,0.0,0.1543566710000004
122312.0,-0.0714904785,-5.378555258999999,7.5509243669999995,0.16472417480322482,0.22374422878866507,-0.04135732195525763,9.270945278599537,0.2809020501173829,-0.0765899365,0.09335930800000103,0.1820114239999997
122322.0,-0.072765343,-5.346193314,7.686158070499999,0.2070920423953872,0.2575861629848351,-0.07200006763252208,9.3629110660367,0.3382628491629411,-0.0012748645000000003,0.032361944999999004,0.13523370349999997
122332.0,-0.050013915,-5.309124176999999,7.864541033999999,0.22974118009851757,0.27437273973051657,-0.0970490330571447,9.488957086738738,0.37078285418505535,0.022751427999999997,0.037069137000000474,0.17838296349999982
122342.0,-0.020005566,-5.194190239,7.9938907475,0.24412967445195885,0.2735733789331032,-0.12156218240140505,9.533220953306389,0.38628882432590145,0.030008349,0.11493393799999918,0.1293497135000008
122352.0,0.042168594999999996,-5.0744510425,8.0452775935,0.2438626390764037,0.2645133747860006,-0.13222090814333443,9.51200941597551,0.3832997270129939,0.06217416099999999,0.11973919650000031,0.051386845999999764
122362.0,0.12003339599999999,-4.9810917345,8.0321366825,0.2252103053603403,0.2599842453770753,-0.1319556180970313,9.452031663617172,0.368407077337223,0.07786480099999998,0.09335930800000014,-0.013140911000000699
122372.0,0.18230562349999999,-5.020612534,7.957900341999999,0.20122948143793823,0.26131593159634703,-0.12475962559105867,9.411055382374569,0.3526248494979748,0.0622722275,-0.03952079949999998,-0.07423634049999972
122382.0,0.20025179299999998,-5.020612534,7.8920977205,0.1900384302741506,0.25625273143631144,-0.11436793522468443,9.355846163072526,0.33891015322234175,0.017946169499999998,0.0,-0.0658026214999996
122392.0,0.20495898499999998,-4.97393288,7.838259212,0.208690763990214,0.2378674330958032,-0.1071736880479638,9.285489968482016,0.334094223404428,0.004707191999999999,0.04667965400000007,-0.05383850850000016
122402.0,0.239674526,-4.893714483,7.8107025255,0.24333031365454544,0.2248106249616336,-0.09518327608676275,9.220247245133363,0.34468727084919837,0.034715541000000016,0.08021839699999944,-0.02755668649999965
122412.0,0.293611101,-4.76799323,7.7831458389999995,0.2665135221087861,0.2277410327757321,-0.08319286412556172,9.132213645721352,0.36030055248084436,0.05393657499999999,0.12572125300000003,-0.027556686500000538
122422.0,0.2876290445,-4.659139415,7.7436250395,0.28330009885446755,0.23973319006618513,-0.07040134603769527,9.041794031497174,0.3777397224997393,-0.005982056499999999,0.1088538149999998,-0.03952079949999909
122432.0,0.273213269,-4.638741583,7.756864017,0.3024847579923892,0.25625273143631144,-0.057878608654635955,9.042207050407571,0.4006400186277965,-0.014415775500000005,0.02039783200000045,0.013238977499999471
122442.0,0.18828767999999999,-4.6159901549999995,7.772358524,0.3285983742607284,0.26371401398858724,-0.050949651524218466,9.041701962965389,0.4244029214451826,-0.084925589,0.022751428000000296,0.015494507000000546
122452.0,0.108069283,-4.657864550499999,7.7879510975,0.3603075161109614,0.2525229628247996,-0.04988500068050193,9.075216991223083,0.44280680461433686,-0.08021839699999998,-0.04187439549999983,0.015592573499999318
122462.0,0.055407572499999995,-4.643546841499999,7.791579558,0.39361537955602116,0.2261423111809053,-0.05361476929201381,9.070518688417902,0.45710825349747064,-0.05266171050000001,0.014317709000000178,0.003628460499999875
122472.0,0.0230456275,-4.544205477,7.9052386315,0.43864836491597886,0.18937171449988874,-0.061875412641702966,9.11828560306726,0.48177027822985313,-0.032361944999999996,0.09934136449999897,0.11365907350000004
122482.0,0.07688413599999999,-4.5382234205,8.0093852545,0.46262918883838094,0.16672083146750635,-0.06160837726614784,9.206065127933064,0.49559781492642097,0.05383850849999999,0.00598205650000061,0.1041466230000001
122492.0,0.058937966499999994,-4.4256430785,7.985457028499999,0.43598324714818354,0.15206704706776195,-0.05921029487390763,9.130022688700732,0.46552297216876215,-0.017946169499999998,0.11258034199999933,-0.023928226000000663
122502.0,0.044620257499999996,-4.4711459345,7.884938866,0.39414770497787943,0.13901023893359235,-0.05388180466756894,9.064513106368848,0.42140183761101224,-0.014317708999999998,-0.0455028559999997,-0.10051816249999934
122512.0,0.0253992235,-4.4376071915,7.708909498499999,0.35977519068910313,0.13954256435545062,-0.05361476929201381,8.894958592521407,0.3895957630525664,-0.019221033999999998,0.03353874300000026,-0.17602936750000087
122522.0,-0.0452086565,-4.3214964555,7.5006162524999995,0.3616392023302331,0.16272402748043932,-0.07173477758621893,8.656593995607553,0.40299863535357827,-0.07060788,0.11611073599999955,-0.20829324599999932
122532.0,-0.042756994,-4.2999218255,7.3150744345,0.4002773013108835,0.20402724422888513,-0.09038711130228233,8.485367985433669,0.4582781515869245,0.0024516625,0.021574629999999928,-0.18554181799999991
122542.0,0.007453054,-4.2185266304999995,7.135514673,0.44850598453124285,0.27170762196272125,-0.10850537426723547,8.289245570548015,0.5354960935785147,0.050210048,0.0813951950000007,-0.1795597614999993
122552.0,0.011081514499999999,-4.1228137264999996,7.124727358,0.49460536606416905,0.3473833529999434,-0.12555898638847207,8.231613192395162,0.6173124987750163,0.003628460499999999,0.09571290399999999,-0.010787314999999964
122562.0,0.039814999,-4.0221974975,7.179840731,0.5436334100819418,0.40707012275964544,-0.13115625729961788,8.229809892431735,0.6916974289598864,0.028733484499999996,0.10061622899999989,0.0551133729999993
122572.0,0.056584370499999995,-3.8594071075,7.2468201505,0.5870676738470726,0.45689927290408355,-0.12795706878071228,8.21064110201507,0.7548366781678305,0.016769371499999998,0.16279038999999962,0.06697941949999997
122582.0,0.0816893945,-3.700245178,7.396469629499999,0.6073187291579628,0.49313754416324185,-0.1087724096427906,8.270807125946167,0.7898430941325596,0.025105024000000004,0.1591619295000002,0.1496494789999998
122592.0,0.1271922505,-3.5685418684999997,7.5102267695,0.5974593642134469,0.5147220310226557,-0.07386582460290401,8.315898933076275,0.7920559457201813,0.045502855999999994,0.1317033095000002,0.11375714000000059
122602.0,0.1511204765,-3.5386315859999997,7.602409279499999,0.5604217321568752,0.5117898778793052,-0.02563714138254471,8.386976675351026,0.7593804448309788,0.023928225999999997,0.02991028249999994,0.09218250999999889
122612.0,0.12836904849999997,-3.6020806115,7.561711681999999,0.5033983348357165,0.4926052187413836,0.03298497753344083,8.37681006744526,0.7050941737027049,-0.022751428000000018,-0.0634490255000002,-0.04069759749999946
122622.0,-0.07629573699999999,-3.4225208499999997,7.47070597,0.45143813767459334,0.4289198996653624,0.08654389628939083,8.21771973836798,0.6286958871036127,-0.20466478549999995,0.1795597615000002,-0.0910057119999994
122632.0,-0.32293298449999996,-3.2333505715,7.341454322999999,0.46369558501134944,0.30661420700260783,0.12118519128297427,8.02843653567697,0.5689566926235657,-0.2466372475,0.1891702784999998,-0.12925164700000114
122642.0,-0.5264209719999999,-3.1184166335,7.2348560375,0.5748102265103164,0.13527872499282848,0.14196857201572274,7.895871277015672,0.6073402714926041,-0.20348798749999997,0.11493393800000007,-0.10659828549999872
122652.0,-0.558782917,-2.8503028225,7.2396612959999995,0.7552057126671984,-0.025665066650576614,0.13797176802865574,7.800587170789317,0.7681344757686005,-0.032361945000000114,0.26811381099999965,0.004805258499999354
122662.0,-0.423451147,-2.5270756384999995,7.312720838499999,0.9353341634485252,-0.11359649969530294,0.13450728946344698,7.748632667666465,0.9517596193240081,0.13533177000000002,0.3232271840000007,0.07305954249999935
122672.0,-0.259483959,-2.1571688005,7.5796578514999995,1.0565734599383112,-0.10693457794044058,0.14969514461430167,7.884917393646842,1.0724696343143758,0.16396718800000004,0.36990683799999946,0.2669370130000006
122682.0,-0.15288567349999999,-1.8351184145,7.991439084999999,1.09574388434082,-0.03552268626584059,0.17794155322857788,8.200861678730117,1.1106663394896095,0.1065982855,0.32205038600000013,0.4117812334999993
122692.0,-0.2176095635,-1.5166964889999999,8.5720908315,1.0826870762066505,0.04281641720992489,0.2053868557161887,8.707954029814234,1.1028274167196708,-0.06472389,0.31842192550000004,0.5806517465000018
122702.0,-0.45218463149999993,-1.422160383,9.0137823475,1.0408532793655982,0.05081002518405892,0.2285683188411774,9.136480903720102,1.066864885636043,-0.23457506799999994,0.09453610599999984,0.4416915159999988
122712.0,-0.5982056499999999,-1.402939349,9.238844965,0.9963526194274989,-0.003014183618194207,0.22750366799746086,9.363885150084355,1.0220007566020788,-0.1460210185,0.01922103400000008,0.22506261750000078
122722.0,-0.780217074,-1.276041298,9.366919814,1.028328796653287,-0.10267248390707043,0.2005906909317083,9.48557889001343,1.0527290146407597,-0.18201142400000003,0.12689805099999996,0.128074848999999
122732.0,-0.8891689555,-1.2580951284999997,9.319063362,1.137579426511124,-0.23110602757357715,0.16594939593812486,9.445547455216724,1.1726193541019376,-0.10895188150000001,0.017946169500000275,-0.04785645199999955
122742.0,-0.7885527264999999,-1.379011123,9.156272971999998,1.244163193271914,-0.30624943318894104,0.12118519128297427,9.293052341271192,1.2870184992483227,0.10061622900000011,-0.12091599450000023,-0.1627903900000014
122752.0,-0.6102678295,-1.4556010595,8.933563950499998,1.2793368136873555,-0.26841069500570397,0.06895795874629596,9.071921854040262,1.309008091695241,0.17828489699999983,-0.07658993650000001,-0.22270902150000005
122762.0,-0.558782917,-1.2353437004999999,8.8988484095,1.2502927896049179,-0.12745266862688592,0.012733922222550629,9.001545168578378,1.2568366621217462,0.05148491249999998,0.2202573590000001,-0.03471554099999885
122772.0,-0.699998677,-0.958894237,8.9706330875,1.206858525839787,0.027094491307959972,-0.03815987876560402,9.048852650811778,1.20776561848681,-0.1412157599999999,0.2764494634999999,0.07178467800000021
122782.0,-0.735891016,-0.8235624669999999,9.171767479,1.1618272858090815,0.1315489563813166,-0.07200006763252208,9.238025190121677,1.1714656545177065,-0.035892338999999995,0.13533177000000007,0.20113439150000012
122792.0,-0.7491299935,-0.5936945909999999,9.5549132945,1.1322491909755332,0.19816468327143616,-0.0978483938545581,9.602605744273625,1.153616825614439,-0.013238977500000026,0.22986787600000003,0.3831458155000007
122802.0,-0.871222786,-0.2860599805,9.959437606999998,1.1466376853289748,0.1936338085332589,-0.10850537426723547,10.00156272304559,1.1679235631960494,-0.12209279250000005,0.3076346104999999,0.40452431249999776
122812.0,-0.8532766165,-0.07776673449999999,10.275505936499998,1.173285372348424,0.14753617232958469,-0.10610729187499528,10.311166321047644,1.1872759765536782,0.017946169500000053,0.208293246,0.3160683295000002
122822.0,-0.7910043889999999,0.1675956485,10.675323057,1.1828777019173848,0.10303725772073724,-0.09997944087124316,10.705900177758489,1.1915587366004623,0.062272227500000055,0.245362383,0.3998171205000016
122832.0,-0.840037639,0.41423289599999996,11.066804525,1.181278980322558,0.055340899922236196,-0.08479158572038852,11.106368196743063,1.1856104999387798,-0.04903325000000003,0.24663724749999996,0.3914814680000003
122842.0,-0.8101273565,0.5674127689999999,11.4068010805,1.1365130303381556,0.010040879186723379,-0.0605437264224313,11.449601498491985,1.1381688056665293,0.02991028249999994,0.15317987299999997,0.3399965554999991
122852.0,-0.7503067914999999,0.6165440855,11.7215945455,1.068031546477654,-0.042184608020702945,-0.026169466804402977,11.761754358080745,1.0691846269088123,0.0598205650000001,0.04913131650000002,0.31479346500000105
122862.0,-0.8340555825,0.609385231,11.915570082499999,0.9888930822044751,-0.12931842559726786,0.02179392636965319,11.96025959021916,0.997550880134657,-0.0837487910000001,-0.007158854499999978,0.19397553699999825
122872.0,-0.7885527264999999,0.36637644399999997,11.831723224999998,0.8705824481995355,-0.21751689401754928,0.07108900576298104,11.863630202184869,0.9001561225901359,0.04550285600000015,-0.243008787,-0.08384685750000109
122882.0,-0.7514835894999999,0.17475450299999998,11.569591470499999,0.7139024959187525,-0.25695435379561316,0.09906837900170212,11.595288418830853,0.7651776639000714,0.03706913699999992,-0.191621941,-0.2621317544999986
122892.0,-0.8460196954999999,0.11493393799999999,11.167322687499999,0.5649508615658005,-0.24762731427295548,0.11159111638476145,11.199913175646957,0.6268503330253361,-0.09453610599999995,-0.05982056499999999,-0.40226878300000024
122902.0,-0.8951510119999999,0.02157463,10.792708657499999,0.44664197289011287,-0.19433543089256064,0.11372390873069853,10.829788592794399,0.5001884035684532,-0.04913131650000002,-0.09335930799999999,-0.37461403000000004
122912.0,-1.0328363779999998,-0.09698776849999999,10.569999635999999,0.3818902576411233,-0.13304819420877972,0.10040006522097382,10.620783865421558,0.41667992987399394,-0.13768536599999992,-0.11856239849999999,-0.22270902150000005
122922.0,-1.277021963,-0.11611073599999999,10.440747988999998,0.39814450896494646,-0.10693457794044058,0.07108900576298104,10.519196041846845,0.4183392172849775,-0.2441855850000001,-0.019122967500000004,-0.12925164700000025
122932.0,-1.402743216,-0.1340569055,10.498214957999998,0.46289622421393606,-0.09521120135479466,0.025523694981165072,10.592364093455302,0.4732753387410265,-0.12572125300000003,-0.017946169499999998,0.057466969000000034
122942.0,-1.3859738445,-0.0442279915,10.6465895725,0.5079274642446417,-0.08348607943989676,-0.0410902865797025,10.73651475750562,0.5163803308080573,0.016769371499999908,0.08982891399999998,0.14837461450000156
122952.0,-1.2471116805,0.160436794,10.775939286,0.5137900252020907,-0.048579494400010165,-0.10504264103127874,10.849050419463756,0.5266631881080656,0.13886216400000007,0.2046647855,0.1293497134999999
122962.0,-1.045977289,0.415409694,10.834583053,0.46715831824730625,0.01830152253641254,-0.1391498652737519,10.892879492371508,0.48778532679910086,0.2011343914999999,0.2549729,0.058643766999999514
122972.0,-0.8568070105,0.648807964,10.906367730999998,0.38961857556895413,0.10650173628594599,-0.14261259850970864,10.959193725415654,0.42834986578029105,0.18917027850000012,0.23339826999999996,0.07178467799999844
122982.0,-0.812579019,0.8499423555,10.986586127999999,0.3365919822348624,0.16379042365340785,-0.10744072342351893,11.049333075699813,0.38944187555413945,0.04422799150000001,0.2011343915,0.08021839700000122
122992.0,-0.826896728,0.863181333,11.022478467,0.3259332564929331,0.16592147067009294,-0.043490114301194704,11.08710384942323,0.36831211242551554,-0.014317709000000067,0.013238977500000026,0.035892339000000106
123002.0,-0.905938327,0.6632237394999999,11.164969091499998,0.3683011240850954,0.1267527915968362,0.010335839830310419,11.221279998071264,0.38963934319436183,-0.07904159899999996,-0.19995759350000009,0.14249062449999883
123012.0,-0.9956691744999999,0.4213917505,11.3516877075,0.4575659886783454,0.0452144996021651,0.03724881689606298,11.40305844591904,0.461300833870504,-0.08973084749999993,-0.24183198899999991,0.18671861600000206
123022.0,-0.9310433509999999,0.2729190695,11.5599809535,0.5353727667322526,-0.031792917654328706,0.03112096589231089,11.600624387731068,0.5372181153773505,0.06462582350000001,-0.148472681,0.2082932460000002
123032.0,-0.8532766165,0.28615804699999997,11.814953853499999,0.5582889398109382,-0.06563310652124676,0.006606071218798537,11.849181489557116,0.5621724692332404,0.07776673449999993,0.013238977499999971,0.2549728999999985
123042.0,-0.7730582195,0.5375024865,12.026875559999999,0.5108596173879922,-0.06590014189680189,-0.01710946265730041,12.063675379810892,0.5153766691384526,0.080218397,0.2513444395,0.21192170650000008
123052.0,-0.7155912504999999,0.775706015,12.178878634999998,0.430920046988148,-0.03445803542212405,-0.03283138855926533,12.22451943699869,0.4335404746689166,0.057466969000000034,0.23820352850000004,0.15200307499999965
123062.0,-0.629390797,0.805714364,12.2172226365,0.3344609352181774,0.007110471372624898,-0.044554765144911246,12.259928114043419,0.33749044888304164,0.08620045349999994,0.030008348999999934,0.03834400150000228
123072.0,-0.5431903435,0.7816880715,12.153773611,0.25185799237978973,0.06253514709895683,-0.050417326102360195,12.19099278064904,0.26435771167033906,0.08620045350000005,-0.02402629249999999,-0.06344902550000064
123082.0,-0.4761128575,0.7805112734999999,12.083165731,0.20043012064052482,0.11689342665232022,-0.05068436147791533,12.11770503783411,0.2374978125223908,0.06707748599999996,-0.0011767980000000344,-0.07060788000000073
123092.0,-0.3827535495,0.805714364,12.254291773499999,0.20789140319280058,0.1533987332870336,-0.04002563573598596,12.286714076028648,0.2614422659242531,0.09335930799999997,0.025203090500000025,0.1711260424999992
123102.0,-0.37794829099999994,0.8368014444999999,12.542803416499998,0.26198264737060883,0.11769278744973362,-0.010182250856134918,12.576366689674373,0.28738506915547685,0.004805258500000076,0.031087080499999975,0.28851164299999965
123112.0,-0.376771493,0.8918167509999999,12.81336889,0.3136758091561769,0.0004485496177625427,0.03698178152050785,12.849891679952849,0.3158486450991558,0.0011767979999999234,0.05501530649999997,0.2705654735000014
123122.0,-0.3911872685,0.8619064684999999,12.989300191,0.3192730800673227,-0.13784435899326014,0.08308116305343408,13.023741002161833,0.3575455867665676,-0.014415775500000005,-0.02991028250000005,0.17593130100000032
123132.0,-0.44267218099999994,0.8020859035,12.9666468295,0.2571864825861284,-0.2851990170806374,0.11905239893703722,12.998970361432752,0.40206571584934975,-0.051484912499999924,-0.05982056499999988,-0.022653361499999747
123142.0,-0.49886428549999995,0.6991160785,12.600270385499998,0.145272480289748,-0.399511101769258,0.13344263861973044,12.629506825457316,0.4455560029538572,-0.056192104500000006,-0.10296982499999996,-0.3663764440000019
123152.0,-0.5227925115,0.5220079795,12.108270754999998,0.016570155918434165,-0.4509389735085229,0.12491495989448616,12.13078830979794,0.468213920234675,-0.023928225999999997,-0.17710809900000002,-0.4919996305000005
123162.0,-0.4965106895,0.36873004,11.520460154,-0.09534384637794623,-0.4266911142105657,0.10040006522097382,11.537048446942046,0.44859327802004706,0.026281821999999955,-0.15327793950000002,-0.5878106009999975
123172.0,-0.4917054309999999,0.2813527885,10.973445217,-0.16728806347440447,-0.3422224144017962,0.06629284097850062,10.988058679902096,0.3866474076791565,0.004805258500000076,-0.08737725149999997,-0.5470149370000001
123182.0,-0.45934348599999997,0.20593965,10.555681926999998,-0.18460871097119622,-0.22258009417758487,0.03245265211158256,10.567678483071253,0.2909904622485497,0.03236194499999995,-0.0754131385,-0.4177632900000017
123192.0,-0.42707960749999996,0.1340569055,10.310221477499999,-0.1651570164577194,-0.10107376231224362,0.0012758356832078548,10.319933873826752,0.19363463861060054,0.03226387850000001,-0.07188274450000001,-0.24546044949999946
123202.0,-0.40795664,0.06707748599999999,10.107910288,-0.12785234902559262,0.003113667385557884,-0.020039870471398893,10.116361915209657,0.1294508187863649,0.019122967499999977,-0.0669794195,-0.2023111894999996
123212.0,-0.38393034749999994,0.06707748599999999,10.040930868499998,-0.08281936366563492,0.08571661022394551,-0.03496243557595041,10.048492155883672,0.12421254432490694,0.024026292500000046,0.0,-0.06697941950000086
