timestamp,ax,ay,az,gx,gy,gz,acc_mag,gyro_mag,dax,day,daz
10252.0,-0.0075511204999999994,-2.16923098,8.9753402795,-0.11480426753768301,0.023443262512787832,0.03744254844303436,9.233761595191186,0.12301036881505703,0.0,0.0,0.0
10262.0,-0.207508714,-1.6340820895,8.5432592805,-0.09375385142937939,0.04715879638888679,0.01745852850769928,8.700607063616882,0.10638861288852663,-0.1999575935,0.5351488905000001,-0.4320809990000001
10272.0,-0.35235293449999994,-1.5946593565,8.1745292405,-0.09482024760234795,0.021577505542405895,-0.03183829621488056,8.336067379616917,0.10232372748619749,-0.14484422049999993,0.03942273299999988,-0.3687300399999991
10282.0,-0.038638201,-1.982512364,8.077541472,-0.08655960425265878,0.0511556003759538,-0.031038935417467155,8.317362828196767,0.10522773422463721,0.31371473349999995,-0.38785300749999996,-0.09698776850000002
10292.0,0.1205237285,-2.0028121294999996,7.949466622999999,-0.06897192138031191,0.047958157186300185,-0.03849847264049092,8.198768321241605,0.092408025491558,0.1591619295,-0.020299765499999678,-0.12807484900000077
10302.0,0.24379331899999998,-1.9920248145,7.756765950499999,-0.056182148621697466,0.006122615015996108,-0.039564868813459456,8.012179232568936,0.06898767341062359,0.12326959049999998,0.010787314999999742,-0.1927006725
10312.0,0.30008348999999995,-1.9370095079999998,7.557985155,-0.03646516406191753,-0.07408224543015131,-0.02384294291149454,7.808021230648221,0.08594401203525771,0.05629017099999997,0.05501530650000008,-0.19878079549999939
10322.0,0.2270239475,-1.8496322564999998,7.223970655999999,-0.014613641826948522,-0.16574519241564148,-0.004391248398017733,7.4604578542990785,0.16644611860550382,-0.07305954249999996,0.08737725149999997,-0.33401449900000113
10332.0,0.092967042,-1.787360029,6.7631561725,0.005370378108386552,-0.2310292330864894,0.01559277153731734,6.995968850544573,0.2316171021875834,-0.1340569055,0.06227222749999983,-0.4608144834999992
10342.0,0.0020593965,-1.7933420855,6.278315396499999,0.021357594056654612,-0.2598062217933719,0.015859806912872473,6.529419904912562,0.2611646093592109,-0.0909076455,-0.005982056499999944,-0.4848407760000004
10352.0,0.0595263655,-1.8376681435,5.859277242,0.03947760235085974,-0.2534113354140647,-0.017182766485884175,6.140985050661132,0.25704286309450536,0.057466969,-0.044326058,-0.41903815449999904
10362.0,0.254580634,-1.952504015,5.488193606,0.07038738340367931,-0.22170219356383172,-0.06274807726770014,5.830724850714382,0.24092232684876785,0.19505426849999996,-0.11483587149999996,-0.37108363599999983
10372.0,0.4665023405,-1.9477968229999998,5.1674180844999995,0.1122211802447314,-0.1430960547125111,-0.10884571347137437,5.541998426325879,0.21193740469982875,0.21192170650000003,0.004707192000000138,-0.32077552150000077
10382.0,0.552702794,-1.8436502,4.984229862499999,0.16604713437623653,0.0002600540585471551,-0.14428462393311922,5.342946168612614,0.21997675142204223,0.0862004535,0.10414662299999988,-0.18318822200000007
10392.0,0.48327171199999996,-1.7143004864999998,4.942355467,0.2281337318574308,0.16973152442719655,-0.15147887110983985,5.253499335473293,0.3221795126762247,-0.06943108200000003,0.12934971350000013,-0.04187439549999983
10402.0,0.21986509299999998,-1.546704838,5.0740587765,0.2918173056041999,0.28404360911581716,-0.12509996479519755,5.3091156497470635,0.42601421680666224,-0.26340661899999995,0.16759564849999986,0.13170330950000064
10412.0,0.03677493749999999,-1.4701149014999997,5.3601187569999995,0.37708536621038286,0.30935786458674297,-0.08033401481079501,5.558188851486039,0.49431691830981184,-0.1830901555,0.07658993650000023,0.28605998049999926
10422.0,-0.12366185649999999,-1.4138247304999998,5.715707886,0.4799393643596607,0.22329044318314653,-0.032637657012293965,5.889270690111723,0.5303448238025269,-0.160436794,0.05629017099999989,0.35558912900000017
10432.0,-0.20986230999999997,-1.4832558125,5.912037019,0.5755991153322179,0.04582536484036311,0.025452136481833306,6.098874626396248,0.5779810696601353,-0.08620045349999998,-0.06943108200000014,0.19632913299999988
10442.0,-0.23859579449999999,-1.5730847264999999,5.8820286699999995,0.6424818775978927,-0.16761094938602344,0.07075041188809414,6.093421435006989,0.6677439735243835,-0.028733484500000017,-0.08982891399999993,-0.030008349000000045
10452.0,-0.177500365,-1.5946593565,5.634312691,0.6992382395434963,-0.3357489882061491,0.07954338065964157,5.85832094911262,0.7797362683164771,0.06109542949999999,-0.02157463000000015,-0.24771597899999964
10462.0,-0.15484700349999997,-1.4892378689999999,5.278723562,0.7594590800543086,-0.3965021541388198,0.05822592917578283,5.486959947819061,0.8587096781462548,0.022653361500000024,0.10542148750000013,-0.35558912900000017
10472.0,-0.1116977435,-1.2378934295,5.09553534,0.8095535202450498,-0.35253556495183064,0.011063642128392056,5.244934406633812,0.8830518845878784,0.04314925999999997,0.25134443949999996,-0.18318822200000007
10482.0,0.089436648,-1.1361004024999999,5.2284154475,0.8487239446475586,-0.19985241665811468,-0.05315400236948731,5.351172874260628,0.8735551903744241,0.2011343915,0.10179302700000004,0.13288010750000012
10492.0,0.1660265845,-0.9482049884999999,5.7228667405,0.8708407569288307,0.041029200055882696,-0.1277633372337409,5.803262983572097,0.8811188850130878,0.0765899365,0.18789541399999998,0.494451293
10502.0,0.0954187045,-0.8105196225,6.412372302,0.8487239446475586,0.26938807938682074,-0.18878353854196664,6.464098183589322,0.9102425478729603,-0.07060787999999998,0.13768536599999992,0.6895055614999999
10512.0,-0.0063743225,-0.713531854,7.265943118,0.7727829235640333,0.3855659210458233,-0.23141844150968413,7.300897049861173,0.8940967629372448,-0.10179302700000001,0.09698776850000002,0.8535708160000004
10522.0,-0.08178746099999999,-0.6045799725,7.903963767,0.6715259016803302,0.3543891046174486,-0.2561986262294996,7.927474336885219,0.8013591018894215,-0.07541313849999999,0.10895188150000001,0.6380206489999996
10532.0,-0.045895122,-0.39148146799999994,8.3230019215,0.5945184844238365,0.20224002707484295,-0.2593960694191532,8.332330111517637,0.6794406358931993,0.035892338999999995,0.2130985045,0.4190381544999999
10542.0,0.03912853349999999,-0.111403544,8.482163851,0.5638757387465719,0.010119419003063122,-0.23754629251343623,8.482985641091275,0.6119530149242103,0.08502365549999999,0.280077924,0.15916192949999974
10552.0,0.28811937699999995,0.117287534,8.484517446999998,0.5633434133247137,-0.12151331318234922,-0.19704418189165582,8.490218221546607,0.6090547563513833,0.24899084349999995,0.228691078,0.0023535959999989586
10562.0,0.4557150254999999,0.373437232,8.4869691095,0.5694712643284658,-0.14895861566996005,-0.13735741213195374,8.507395383800938,0.604444578721457,0.16759564849999997,0.256149698,0.002451662500002172
10572.0,0.5179872529999999,0.42727574049999995,8.606708306,0.5644080641684303,-0.07648032782239152,-0.06567848508179862,8.632861820813519,0.5733405330558928,0.0622722275,0.05383850849999994,0.11973919649999942
10582.0,0.575454222,0.1471978165,8.8329477215,0.5377621224782329,0.044493678621091444,0.014526375364348806,8.852896712915612,0.5397951494694602,0.057466969000000034,-0.280077924,0.22623941550000026
10592.0,0.5035714775,-0.1030678915,9.0412409675,0.496460651059039,0.15880576330971205,0.06808529412029879,9.055840405816024,0.5256691504984792,-0.07188274449999998,-0.250265708,0.2082932460000002
10602.0,0.308517209,-0.23947839299999998,9.383591119,0.49006576467973184,0.22435509402686307,0.07394785507774776,9.391715235117529,0.5440293624406062,-0.19505426849999996,-0.1364105015,0.3423501514999998
10612.0,0.14445195449999998,-0.39275633249999997,9.837246748,0.5700035897503241,0.2089002035004533,0.04090702700824309,9.84614378754009,0.6084544125975583,-0.16406525450000004,-0.1532779395,0.453655629
10622.0,0.0881617835,-0.39991518699999995,10.249126047999999,0.7003046357164647,0.10684556614858887,-0.026508060679289874,10.25730419772443,0.7089042495940899,-0.056290170999999986,-0.007158854499999978,0.41187929999999895
10632.0,0.1301342455,-0.17848102999999998,10.674048192499999,0.8175471282191838,-0.03304780938651263,-0.11417420367771305,10.676333416287363,0.826142368693267,0.041972462,0.22143415699999996,0.4249221445
10642.0,0.26419115099999996,0.11483587149999999,11.051113885,0.9036145496227802,-0.16308007464784616,-0.1901169700904903,11.05486781200434,0.9376880224005826,0.13405690549999996,0.2933169015,0.37706569250000044
10652.0,0.5419154789999999,0.29557243099999997,11.316874099999998,0.9534436997672184,-0.2688662259404745,-0.22315779815999498,11.333696433361792,1.0154522829541983,0.27772432799999996,0.18073655949999998,0.26576021499999847
10662.0,0.747855129,0.45600922499999996,11.603032146999999,0.9579728291761436,-0.3064379287481564,-0.2109003508232388,11.6360468678831,1.0276648790304017,0.20593965000000003,0.160436794,0.2861580470000007
10672.0,1.0159689399999998,0.351862602,11.8208378435,0.9006841418086818,-0.2947128068332585,-0.17626080115890735,11.869633840184484,0.9639270884472326,0.26811381099999987,-0.10414662299999994,0.21780569650000103
10682.0,1.10815145,0.22741621349999996,11.883110070999999,0.7972960729082936,-0.2435519704695487,-0.1362910159589852,11.936834703128019,0.844732994043514,0.09218251000000022,-0.12444638850000006,0.06227222749999939
10692.0,0.9955711079999999,0.21898249449999999,11.843589271499999,0.6965731217757009,-0.18919369091618532,-0.1043148387331971,11.887376581734578,0.7293078583443122,-0.11258034200000011,-0.008433718999999978,-0.03952079949999998
10702.0,0.7598192419999998,0.2848831825,11.905861498999998,0.6763220664648106,-0.14016564689841263,-0.09658826613461818,11.933483219142484,0.6974146824612844,-0.2357518660000001,0.06590068800000001,0.06227222749999939
10712.0,0.5837898745,0.29321883499999996,12.067475090999999,0.7229537734195951,-0.13217029359502658,-0.10937803889323264,12.085145550413237,0.7430307533357932,-0.17602936749999987,0.008335652499999957,0.16161359200000014
10722.0,0.5957539875,0.306359746,12.253016909,0.7903688611071281,-0.1580186198170626,-0.13362589819118986,12.27131624887205,0.8170120571228251,0.011964112999999998,0.013140911000000033,0.1855418180000008
10732.0,0.7430498705,0.3482341415,12.376384566,0.8361994619352472,-0.19026008708915385,-0.16133823605435582,12.403559370312996,0.8726158761408713,0.14729588300000007,0.041874395499999995,0.12336765700000107
10742.0,0.8807352365,0.45600922499999996,12.460133357,0.843660744487523,-0.17720327895498428,-0.17199696179628518,12.499542481399946,0.8790605262032828,0.13768536599999992,0.10777508349999998,0.08374879099999966
10752.0,0.9668376234999999,0.442868314,12.6169416905,0.8388645797030426,-0.12231267397976262,-0.1544110242531903,12.661679389213631,0.8616826200564576,0.08610238699999995,-0.013140910999999977,0.156808333499999
10762.0,0.9872354554999999,0.3925601995,12.851614824999999,0.8439277798630781,-0.06395584511008022,-0.11177612128547285,12.895454275247053,0.8536968718684597,0.020397832000000005,-0.0503081145,0.2346731344999995
10772.0,0.8591606064999999,0.5194582505,13.245449889,0.8599149958113462,-0.02531949145868174,-0.059016563326936264,13.283445960434516,0.8623095913973566,-0.128074849,0.12689805100000007,0.393835064000001
10782.0,0.7430498705,0.581730478,13.707539236999999,0.8745705255403426,-0.024253095285713202,-0.0027925268031909274,13.739984184597109,0.8749112040549004,-0.11611073599999988,0.062272227499999944,0.46208934799999923
10792.0,0.6340979889999999,0.661948875,14.0163506455,0.8428613836901097,-0.034646530981339435,0.058492964551337956,14.046292820184828,0.8455986761620735,-0.10895188150000013,0.080218397,0.30881140850000044
10802.0,0.40305331499999997,0.641551043,14.1193204705,0.7506661112827611,-0.023987805239410066,0.106189322349839,14.139634021578749,0.7585190819021658,-0.23104467399999995,-0.020397832000000005,0.10296982500000063
10812.0,0.273801668,0.5230867109999999,14.1779642375,0.6448799599901328,0.03143687048692186,0.13363637016670182,14.190252181707459,0.6593308115462363,-0.12925164699999997,-0.11846433200000006,0.058643766999999514
10822.0,0.03912853349999999,0.40334751449999995,14.1887515525,0.5484208482201622,0.10977771929193933,0.1357674171833869,14.194537360483375,0.575542670862995,-0.2346731345,-0.11973919649999998,0.010787314999999964
10832.0,-0.09492837199999998,0.18191335749999998,14.327613716499998,0.476476631123704,0.14335087278330227,0.10325891453574051,14.329082966983142,0.5081750251299527,-0.1340569055,-0.22143415699999996,0.13886216399999896
10842.0,-0.09492837199999998,-0.10061622899999999,14.467652678499999,0.4357074851263684,0.11510620949827803,0.047034878011995185,14.468313966978215,0.4531034449326216,0.0,-0.2825295865,0.1400389620000002
10852.0,-0.1176798,0.083748791,14.431760339499998,0.4226506769921988,0.03863111766364249,-0.01904677812701412,14.432483115946718,0.4248396612498954,-0.022751428000000018,0.18436502,-0.035892339000000106
10862.0,0.070215614,0.326757578,14.333595772999999,0.434908124328955,-0.049567350756638956,-0.08113337560820841,14.33749170988403,0.4451793161254733,0.18789541399999998,0.243008787,-0.0981645664999995
10872.0,0.312047603,0.4608144834999999,14.1540360115,0.4458321401171875,-0.09673138313328172,-0.07313976763407437,14.164972965367081,0.462031041439767,0.24183198900000002,0.13405690549999993,-0.17955976149999842
10882.0,0.46885593649999996,0.7397156094999999,13.803252141,0.4178545122077184,-0.10659074807779768,-0.012651891747706895,13.83100772684877,0.4314209676324628,0.15680833349999995,0.278901126,-0.3507838705000008
10892.0,0.5371102205,0.858278008,13.452566336999999,0.34590854978200813,-0.053564154743705975,0.0696840157151256,13.49061412906646,0.3569001338356229,0.06825428400000005,0.11856239850000005,-0.35068580400000116
10902.0,0.485625308,0.7983593764999999,13.105410926999998,0.26437200311658904,0.04529303941850484,0.15628550786983222,13.138683541334974,0.3104338503156113,-0.051484912500000035,-0.0599186315000001,-0.34715541000000094
10912.0,0.2929246355,0.7194158439999999,12.7534502585,0.19269307606643396,0.15400959852523163,0.2250322817766369,12.777083293722193,0.3338998440302829,-0.1927006725,-0.07894353249999997,-0.3519606684999985
10922.0,0.070215614,0.5709431629999999,12.534369697499999,0.1354043886989721,0.2502034202488991,0.2484807802771807,12.547562713189842,0.3777284714584619,-0.2227090215,-0.148472681,-0.21908056100000017
10932.0,-0.164359454,0.47042500049999997,12.4398335915,0.09143779951198293,0.2859093660861991,0.2197037915702982,12.449810179092145,0.3719876245599722,-0.234575068,-0.10051816249999995,-0.09453610599999962
10942.0,-0.2960627635,0.430904201,12.383543420499999,0.05013632809278911,0.2512680710926156,0.15335335472648176,12.394574588818266,0.2986076796586077,-0.1317033095,-0.03952079949999998,-0.056290171000000555
10952.0,-0.32479624799999995,0.5134761939999999,12.2386992,0.008834856673595296,0.13215982161951462,0.0782116944403699,12.25377119553814,0.15382243753815203,-0.02873348449999996,0.0825719929999999,-0.14484422049999957
10962.0,-0.211039108,0.6571436165,11.878304812499998,-0.01861219114326753,-0.04237310357991833,0.013727014566935402,11.898340239565885,0.04827343467238343,0.11375713999999995,0.14366742250000009,-0.3603943875000013
10972.0,-0.057859234999999995,0.7996342409999999,11.371987473,-0.025007077522574753,-0.1953232872491894,-0.02730742147670328,11.400213230309483,0.19880200133740034,0.15317987300000002,0.14249062449999994,-0.5063173394999971
10982.0,0.112188076,0.9240806294999999,10.846449099500001,-0.015947073375472187,-0.2867191988591245,-0.04969126913353056,10.886320280161616,0.2914299750742223,0.17004731099999998,0.1244463885,-0.5255383734999999
10992.0,0.183972754,1.0413681635,10.332874839,-0.002090904443889207,-0.2971108892254987,-0.05475272396431412,10.386847262986253,0.3021210240272471,0.07178467799999999,0.11728753400000014,-0.5135742605000004
