timestamp,ax,ay,az,gx,gy,gz,acc_mag,gyro_mag,dax,day,daz
87992.0,-1.8600273054999998,-1.428632772,8.2694576125,0.10912496615169345,-0.043202134974615634,-0.15911294125806305,8.595616463021846,0.19771598513970734,0.0,0.0,0.0
88002.0,-1.417060925,-2.211595708,8.134223909,0.06036221218022388,-0.0770423238415337,-0.19641760869018984,8.547795964022136,0.2194515739878998,0.4429663804999999,-0.7829629359999999,-0.13523370350000086
88012.0,-1.1788573965,-2.212772506,7.988202890499999,0.059562851382810485,-0.06265382948809244,-0.254240366808762,8.372422131282251,0.2685356582084167,0.23820352849999993,-0.0011767979999999234,-0.14602101849999993
88022.0,-1.1070727185,-2.1205899959999996,7.8098199269999995,0.07475070653366514,-0.01655619328441821,-0.3048688777506135,8.167973997715011,0.3143355027423273,0.07178467799999999,0.09218251000000022,-0.17838296349999982
88032.0,-0.984979926,-1.9865330904999998,7.693709191,0.09367007562528368,0.06817954189990649,-0.333645866457496,8.00685083475097,0.3531884726396103,0.12209279250000005,0.13405690549999982,-0.11611073599999955
88042.0,-0.9514411829999999,-1.9314197174999999,7.704496506,0.12164770353475278,0.1654380144672905,-0.3491007569839058,7.99968054742328,0.4050175785480114,0.03353874300000004,0.055113372999999966,0.010787314999999964
88052.0,-0.9346718115,-1.8918989179999999,7.794227353499999,0.167747085067679,0.24271246709933944,-0.34590331379425215,8.07482959257902,0.454639999040995,0.016769371499999908,0.03952079949999998,0.08973084749999938
88062.0,-0.984979926,-1.8380604095,7.9666282605,0.23809258056931046,0.2848132993159467,-0.3267186546563305,8.235035966199026,0.49452176058271813,-0.050308114499999945,0.05383850849999994,0.172400907000001
88072.0,-1.092656943,-1.8847400634999998,8.258768364,0.32922320213294237,0.2845462639403915,-0.2944771873842392,8.541276203955434,0.5254248823902762,-0.10767701699999999,-0.04667965399999985,0.2921401034999995
88082.0,-1.2423064219999997,-1.9051378954999998,8.577190289499999,0.42967911788998003,0.21952925864509876,-0.2601029277662109,8.873616450427958,0.5481521438291861,-0.1496494789999998,-0.020397832000000005,0.31842192549999915
88092.0,-1.3740097315,-1.8847400634999998,8.920717239,0.5280039866303325,0.08656484024041476,-0.22599570352373777,9.220593468286651,0.5808233289689405,-0.1317033095000002,0.020397832000000005,0.34352694950000107
88102.0,-1.4110788684999997,-1.8823864675,9.154115508999999,0.6012816352753144,-0.08983384192940014,-0.1884240007160558,9.451579399141112,0.6364851358209372,-0.03706913699999981,0.002353595999999847,0.23339826999999858
88112.0,-1.3165427625,-1.8870936594999999,9.2295286475,0.641783745897095,-0.28142037925006963,-0.15191869408134243,9.512024305069842,0.7170516689655918,0.09453610599999984,-0.004707191999999916,0.07541313850000186
88122.0,-1.2039624205,-1.8344319489999998,9.1098875175,0.6646981736465285,-0.43596753918491554,-0.11621274824404243,9.370417102081982,0.8033658943012297,0.112580342,0.052661710500000014,-0.11964112999999976
88132.0,-1.0663751209999999,-1.7578420124999998,8.8931605525,0.6825528918944304,-0.5191045527744135,-0.08103912782860072,9.127730772329993,0.8613450685896995,0.13758729950000004,0.07658993650000001,-0.21672696500000121
88142.0,-0.9705641505,-1.717144415,8.745962736,0.7102634844283443,-0.49885349746352325,-0.03733957401716669,8.965625683224907,0.868748106778752,0.09581097049999987,0.040697597499999905,-0.1471978165000003
88152.0,-1.0029260955,-1.6022104769999999,8.784208671,0.7598255991972274,-0.39626478936054854,0.010889109203192622,8.985280248345905,0.8570176761197079,-0.03236194499999989,0.11493393800000007,0.03824593500000084
88162.0,-1.2112193414999999,-1.603387275,9.064384661499998,0.8197794043324846,-0.28701590483196354,0.061784655520599266,9.284447874725348,0.8707661827678158,-0.208293246,-0.0011767980000001454,0.2801759904999983
88172.0,-1.4422640155,-1.6201566465,9.5264740095,0.8762704762317851,-0.2371867546875254,0.10734822097316322,9.770298874818687,0.9141286258841165,-0.23104467400000006,-0.016769371499999908,0.462089348000001
88182.0,-1.6529108575,-1.6381028159999997,9.992093751499999,0.9157061906805969,-0.2539733314332069,0.13239718639778586,10.259504504477487,0.9594526021102352,-0.21064684200000006,-0.01794616949999983,0.46561974199999945
88192.0,-1.8049139324999999,-1.7207728754999998,10.2351025385,0.9223681124354592,-0.3389761019930867,0.1313307902248173,10.534519332480162,0.9914209544997798,-0.15200307499999988,-0.08267005950000006,0.24300878700000084
88202.0,-1.7379345129999997,-1.8548297809999998,10.364452252,0.9013176963271556,-0.46048243385842796,0.10361845236165135,10.671582842856486,1.0174254003485936,0.06697941950000019,-0.13405690550000005,0.1293497134999999
88212.0,-1.5248360085,-1.8739527485,10.358470195499999,0.8688091936795093,-0.5497472984516779,0.03753505089339005,10.636481022757982,1.0288150403364673,0.21309850449999979,-0.0191229675000002,-0.00598205650000061
88222.0,-1.287809278,-1.7566652145,10.262659224999998,0.8456277305545206,-0.5838545226941511,-0.05545958231137182,10.491258255367407,1.0291006401821716,0.2370267305,0.11728753400000014,-0.09581097050000054
88232.0,-0.91790244,-1.4872765389999998,10.136937971999998,0.8344349340614811,-0.5302956039382011,-0.14339276068535012,10.286498327467575,0.9990278127035982,0.3699068379999999,0.2693886755000001,-0.12572125300000003
88242.0,-0.7096091939999999,-1.0731417095,9.9885633575,0.8008617805701181,-0.37414797707927644,-0.2262627388992929,10.071076222711731,0.9124478765083869,0.2082932460000001,0.4141348294999998,-0.148374614499998
88252.0,-0.637824516,-0.6565552174999999,9.951396154000001,0.7425066970296876,-0.174834867160028,-0.2822197400474831,9.993406340216689,0.8133458105758399,0.07178467799999988,0.4165864920000001,-0.037167203499999246
88262.0,-0.6629295399999999,-0.29978929049999997,10.0734889465,0.6700284091821191,0.0783041968907256,-0.307799285564712,10.099729142356283,0.7414917508347412,-0.02510502399999992,0.3567659269999999,0.12209279249999838
88272.0,-0.7610941065,-0.0710982125,10.394362534499999,0.6068771608572083,0.32265029216993174,-0.3040695169532001,10.422432139063654,0.7515725983214134,-0.09816456650000005,0.228691078,0.32087358799999954
88282.0,-0.9394770699999999,-0.042364728,10.85400022,0.5634428970920774,0.5038451391242271,-0.2774235752630027,10.894665332675178,0.8051656119174068,-0.17838296349999994,0.028733484499999996,0.4596376855000006
88292.0,-1.2818272215,-0.1130706745,11.3185412305,0.5346659083851949,0.5693944698413781,-0.24518036266165943,11.391454761782567,0.8186520055006354,-0.34235015150000003,-0.0707059465,0.46454101049999963
88302.0,-1.5499410324999998,-0.2303582085,11.676483955499998,0.5277369512547775,0.48732385242484877,-0.21746802479849348,11.781156975080986,0.7505219308398932,-0.26811381099999987,-0.117287534,0.35794272499999913
88312.0,-1.6445752049999998,-0.3248943145,11.907528629499998,0.5597131284805655,0.30106755063976987,-0.19828336566057178,12.024949978393145,0.6657602791841944,-0.09463417249999995,-0.09453610600000001,0.23104467399999962
88322.0,-1.5464106384999998,-0.41952848699999995,11.838097547499999,0.5988835528830743,0.07244163593327664,-0.18922336151346922,11.946043008393865,0.6322300064636291,0.09816456649999994,-0.09463417249999995,-0.06943108199999948
88332.0,-1.274668367,-0.33332803349999995,11.513595499000001,0.6135373372828187,-0.1159457128684873,-0.19615231864388671,11.588734544303813,0.6544823944782975,0.27174227149999974,0.0862004535,-0.32450204849999764
88342.0,-1.023225861,-0.15376827199999998,11.049152555,0.594352678144897,-0.19934976183354033,-0.2140052915625367,11.097495574577,0.6624150499330969,0.25144250600000007,0.17955976149999997,-0.46444294400000175
88352.0,-0.884363697,0.031773546,10.622955546,0.5482550419412228,-0.17057102779740582,-0.22759442511856456,10.659751087107479,0.6176384774954401,0.13886216400000007,0.18554181799999997,-0.4261970089999991
88362.0,-0.769429759,0.13121297699999998,10.400344591,0.487234840632997,-0.041870448755343966,-0.22146657411481246,10.429592830542857,0.5368411011237754,0.11493393799999996,0.09943943099999998,-0.2226109550000004
88372.0,-0.8340555825,0.11326680749999998,10.4063266475,0.4318101649066651,0.1265346254403369,-0.20601168358840266,10.440311890879949,0.49488568753498596,-0.06462582350000001,-0.017946169499999998,0.00598205650000061
88382.0,-0.987333522,0.041384063,10.618248353999999,0.3913080542848847,0.2469745611327096,-0.1884240007160558,10.664133262087407,0.4996218882722824,-0.15327793950000002,-0.07188274449999998,0.2119217064999983
88392.0,-1.1800341945,-0.040011132,10.895972682,0.3809163639185104,0.27602033054439923,-0.17137038859481923,10.959758312926589,0.5006518843087259,-0.1927006724999999,-0.081395195,0.27772432800000146
88402.0,-1.3489047075,-0.10581375349999998,11.0778860395,0.4075623056087079,0.22645821577551625,-0.1636438159962403,11.160210551978595,0.4941352597812945,-0.1688705130000001,-0.06580262149999999,0.18191335749999915
88412.0,-1.37881499,-0.1609271265,11.1688917515,0.46485273830542173,0.1334618372415024,-0.16657422381033882,11.254828798050061,0.511514518218147,-0.02991028249999994,-0.05511337300000001,0.09100571200000118
88422.0,-1.3620456185,-0.156121868,11.116230041,0.546923355721951,0.03966784323932712,-0.17776527497412645,11.20045144755218,0.5764539771812199,0.016769371499999908,0.0048052584999999925,-0.05266171050000068
88432.0,-1.300950189,-0.09267284249999999,11.075532443499998,0.6444471183356383,-0.02454980125855224,-0.1884240007160558,11.152061628103443,0.6718767633418994,0.06109542950000013,0.0634490255,-0.04069759750000124
88442.0,-1.2172013979999998,0.030596747999999997,11.050329352999999,0.7342460536799985,-0.042669809552757364,-0.18309551050971715,11.117207122926814,0.757932679042627,0.0837487910000001,0.12326959049999998,-0.025203090499999803
88452.0,-1.160911227,0.14317708999999998,11.138981469,0.7832740976977712,-0.012826424672906327,-0.1633767806206852,11.20022869064739,0.8002342168016355,0.05629017099999989,0.11258034199999999,0.08865211600000222
88462.0,-1.2207317919999998,0.223395487,11.324523286999998,0.784607529246295,0.028476792075539478,-0.1407276429175548,11.392318435218387,0.7976366165855351,-0.05982056499999988,0.08021839700000002,0.18554181799999725
88472.0,-1.3381173924999998,0.2903749065,11.450146473499998,0.7582268776024005,0.034871678454846705,-0.11647978361959757,11.53172710425634,0.7679137789289968,-0.11738560050000002,0.06697941949999997,0.12562318650000037
88482.0,-1.359593956,0.3478418755,11.6082296715,0.7395745438863371,0.024745278134775603,-0.09702808910612076,11.69275355944168,0.7463225072515476,-0.021476563500000267,0.057466969000000034,0.1580831980000017
88492.0,-1.4816867485,0.443652846,11.8775202805,0.752898387396062,0.025544638932189008,-0.07917511618747078,11.977800778195187,0.7574808310083273,-0.12209279249999994,0.09581097049999998,0.26929060900000046
88502.0,-1.602602743,0.5298532994999999,12.1158218755,0.7912694510011572,0.02074847414770859,-0.04826533513465119,12.232833677840409,0.7930115925021468,-0.12091599450000001,0.08620045349999994,0.23830159499999937
88512.0,-1.690078061,0.548976267,12.331273975999999,0.8208458005054531,0.008225736764649275,-0.00856258531028418,12.458653886563251,0.8209316712248075,-0.08747531799999986,0.019122967500000088,0.21545210049999852
88522.0,-1.8241349665,0.628017866,12.583893279999998,0.8269753968384572,-0.026148522853379045,0.028476792075539478,12.730916891506766,0.8278786021576177,-0.13405690550000005,0.07904159899999996,0.25261930399999954
88532.0,-2.0432155275,0.7034310045,12.7167733875,0.8064573061520119,-0.10768681484805014,0.06498209871025287,12.899064704812407,0.8162061687410033,-0.21908056100000017,0.07541313849999998,0.1328801075000019
88542.0,-2.19276694,0.619584147,12.777770750499998,0.7622236815894675,-0.22439698192891094,0.09962164837458434,12.97935039671493,0.8007892476172962,-0.1495514124999997,-0.08384685749999998,0.06099736299999847
88552.0,-2.142556892,0.45797055499999995,12.720303781499998,0.7161260453857934,-0.31472824269512945,0.10814758177057664,12.907610753286095,0.7896747932362305,0.05021004799999984,-0.16161359200000003,-0.057466969000000034
88562.0,-2.0108535825,0.32626724549999997,12.550354536999999,0.6689620130091506,-0.3411071490097718,0.08736420103782816,12.71461290996056,0.7559740508627315,0.1317033095000002,-0.13170330949999998,-0.1699492444999997
88572.0,-1.866009362,0.3143031325,12.379130428,0.6215326905862046,-0.2976746305738929,0.050326568981256495,12.522924880059229,0.6909745543072158,0.1448442204999998,-0.011964112999999943,-0.17122410899999885
88582.0,-1.8193297079999997,0.45444016099999995,12.364812719,0.5661080148598727,-0.19668464406574498,0.0007644542123735164,12.506201262665064,0.5993026932111164,0.04667965400000029,0.14013702849999993,-0.014317709000000178
88592.0,-1.8563988449999997,0.583691808,12.42698688,0.5098839783361274,-0.0794404062337739,-0.049864056729477996,12.578430574365617,0.5184388813158057,-0.03706913700000003,0.12925164700000003,0.06217416099999973
