timestamp,ax,ay,az,gx,gy,gz,acc_mag,gyro_mag,dax,day,daz
139572.0,0.688622963,-3.2919943385,9.558443688499999,0.001117010721276371,0.10756638712966253,-0.07333349918104574,10.132880836964008,0.13019054287933632,0.0,0.0,0.0
139582.0,0.8131674179999999,-3.4584131889999994,9.563248947,-0.05803917894581944,0.0670642765078821,-0.031497957010741665,10.20184265012172,0.09411846137756953,0.12454445499999989,-0.1664188504999995,0.0048052585000011305
139592.0,0.8514133529999999,-3.5972753529999997,9.5715845995,-0.06683214771736687,0.022565361899034686,-0.02110626664436743,10.260629922590208,0.07362883957943034,0.03824593499999995,-0.1388621640000003,0.008335652499999568
139602.0,0.7329490209999999,-3.4512543345,9.435174098,-0.048712139423161736,-0.02646442744799002,-0.009115854683166382,10.073275584851235,0.05618128918008274,-0.11846433199999995,0.1460210184999995,-0.13641050150000034
139612.0,0.7568772469999999,-3.4655720434999995,9.3752554665,-0.032724923474893676,-0.08668352262955037,-0.0032532937257174306,10.023894842717237,0.09271212235717188,0.023928225999999997,-0.01431770899999929,-0.059918631499998654
139622.0,0.840626038,-3.4715540999999996,9.309452845,-0.018601719167755566,-0.12745266862688592,0.0010105456369047167,9.971171058520106,0.1288069404131435,0.0837487910000001,-0.005982056500000166,-0.06580262150000138
139632.0,0.8980930069999999,-3.403299816,9.205306221999999,-0.014337879805133418,-0.13144947261395293,0.012468632176247491,9.855287074844641,0.13281568219204903,0.05746696899999992,0.06825428399999955,-0.1041466230000001
139642.0,0.9507547174999998,-3.4188923895,9.129893083499999,-0.013273228961416875,-0.12478755085909057,0.027122416575991883,9.795290063084943,0.1283890062949081,0.0526617104999999,-0.015592573499999762,-0.07541313850000009
139652.0,1.0154786075,-3.5074464389999997,9.025746460499999,-0.008742354223239598,-0.11865969985533849,0.042312017056098536,9.736399565238282,0.12628087707360597,0.06472389000000012,-0.0885540494999999,-0.1041466230000001
139662.0,1.090891746,-3.5733471269999995,8.9119893205,-0.009009389598794729,-0.1109313819275076,0.05749987220695319,9.663457359570442,0.12527240678260068,0.07541313850000009,-0.06590068799999971,-0.11375713999999881
139672.0,1.185427852,-3.6463086029999996,8.821081674999999,-0.018868754543310697,-0.09281311896255445,0.0732217981089181,9.618330808286329,0.11971523156171965,0.09453610599999984,-0.07296147600000014,-0.09090764550000152
139682.0,1.2692747094999999,-3.6977935155,8.627106137999998,-0.027129397892999858,-0.07202799290055399,0.09267349262239491,9.471625810164134,0.12046747372694441,0.08384685749999998,-0.05148491250000031,-0.19397553700000003
139692.0,1.382933783,-3.782817171,8.454705231,-0.026330037095586456,-0.0504452513703921,0.116654316544797,9.365054839159987,0.1297930036936148,0.11365907350000004,-0.08502365550000013,-0.17240090699999833
139702.0,1.4176493239999999,-3.8139042514999995,8.347028214,-0.009808750396208134,-0.034723325468427185,0.1446336897835181,9.285928884649046,0.1490665124577495,0.03471554099999996,-0.03108708049999942,-0.10767701700000032
139712.0,1.430790235,-3.7876224295,8.2571993,0.0091106186954104,-0.02699675286984829,0.17341067849040062,9.196444130474742,0.17573585704980618,0.013140911000000033,0.02628182199999962,-0.08982891399999993
139722.0,1.4787447535,-3.8391073419999997,8.241606726499999,0.0277629524114738,-0.030993556856915305,0.20112301635356658,9.211379520120323,0.20538220419598582,0.0479545185000001,-0.05148491249999987,-0.015592573500001095
139732.0,1.4895320685,-3.8833353335,8.2620045585,0.05360953330425783,-0.04458269041294315,0.22776895804376399,9.24984964311173,0.23820221786099846,0.010787314999999964,-0.04422799150000012,0.02039783200000045
139742.0,1.5493526334999999,-3.900104705,8.266809816999999,0.07838971802407331,-0.06536781647494362,0.25388257431210315,9.271000746593868,0.2736316152456368,0.05982056499999988,-0.01676937150000013,0.004805258499999354
139752.0,1.6415351435,-3.9600233365,8.184139757499999,0.09118123611193976,-0.08961567577290085,0.27759810818820213,9.238861727683899,0.30562345595978685,0.09218251000000022,-0.059918631499999986,-0.08267005949999984
139762.0,1.819918107,-4.028179554,8.119513934,0.0922458869556563,-0.09680992294962147,0.30157893211060416,9.244719517641963,0.32989591863907586,0.17838296349999982,-0.06815621750000034,-0.06462582349999835
139772.0,1.947992956,-4.048577386,7.968687656999999,0.08025547499445526,-0.07868991465541635,0.33009063077118356,9.147985482163838,0.34870168978366045,0.1280748490000001,-0.02039783199999956,-0.15082627700000106
139782.0,2.0210524985,-4.096433837999999,7.831002291,0.06240250207580526,-0.058972930095636394,0.36659593740589697,9.065871181108395,0.3765162148857523,0.07305954250000002,-0.04785645199999955,-0.13768536599999948
139792.0,2.0689089505,-4.143113492,7.737642983,0.04827929776866714,-0.04458269041294315,0.4086967696225042,9.017587958285773,0.4139463206472093,0.047856451999999994,-0.04667965400000096,-0.09335930800000014
139802.0,2.0808730635,-4.050930982,7.7065559025,0.0541418587261161,-0.048846529775565306,0.45532847657728864,8.951596416599942,0.46113050855438786,0.011964112999999887,0.09218251000000066,-0.031087080499999864
139812.0,2.0664572879999996,-3.9947388774999997,7.67664562,0.07226186702032122,-0.07895695003097147,0.507555709113967,8.897138438711824,0.5187183968567509,-0.014415775500000283,0.056192104500000006,-0.029910282499999497
139822.0,2.0700857485,-3.8869637939999997,7.6514425295,0.10663612663834955,-0.13251586878692145,0.571239282860736,8.82826796853443,0.5960251985176723,0.003628460500000319,0.10777508349999998,-0.02520309050000069
139832.0,2.0904835805,-3.7492784279999998,7.690963328999999,0.16365777863025627,-0.1855424621210132,0.6423858844890329,8.807844643216013,0.6883817969316698,0.020397832000000005,0.13768536599999992,0.03952079949999909
139842.0,2.10842975,-3.6619011765,7.699397048,0.2289418193011042,-0.24949307124333742,0.7305843529093144,8.782693843001033,0.8052419797422724,0.017946169500000053,0.08737725149999997,0.008433719000001005
139852.0,2.2017890579999997,-3.6522906594999998,7.808250863,0.28543114587115265,-0.32170432371535085,0.8379692257967695,8.896959236556032,0.9418901391950697,0.0933593079999997,0.00961051700000004,0.1088538149999998
139862.0,2.1873732825,-3.6235571749999997,7.874151551,0.32033773091103923,-0.4221602394723884,0.9746634128129653,8.939632605739707,1.1094161968859273,-0.014415775499999839,0.028733484500000017,0.06590068800000015
139872.0,2.078421401,-3.5625598119999995,7.8454180665,0.3288654096362836,-0.5633853012267617,1.1313433650937483,8.863534993013616,1.3059453530049625,-0.1089518814999999,0.06099736300000025,-0.028733484500000017
139882.0,1.8868975264999999,-3.6044342074999998,7.7148915549999995,0.3291306996825867,-0.7261948498405486,1.285625234982291,8.721919509896791,1.5127849226614327,-0.19152387450000008,-0.04187439550000027,-0.13052651150000028
139892.0,1.5601399485,-3.5434368444999995,7.507775107,0.35364559435609905,-0.8937988179095642,1.4113954062102545,8.447287634924868,1.7076236488100713,-0.3267575779999998,0.06099736300000025,-0.20711644799999984
139902.0,1.2812388224999998,-3.517056956,7.1989636985,0.4189296350269469,-1.0414187660432446,1.4652213603417594,8.1139596304363,1.8457867482926085,-0.2789011260000003,0.026379888499999726,-0.30881140849999955
139912.0,1.106386253,-3.5565777554999998,6.848179828,0.5324423589181541,-1.1184261832997384,1.483606658682268,7.7955694357994725,1.932733998962897,-0.17485256949999983,-0.03952079949999998,-0.35078387049999993
139922.0,1.035778373,-3.5505956989999996,6.666266470499999,0.6792629462544212,-1.0957770455966078,1.4391077440734206,7.62356054028853,1.9321378270875909,-0.07060787999999985,0.005982056500000166,-0.18191335750000093
139932.0,1.1555175695,-3.3985926239999995,6.626745671,0.8263505689662433,-0.952953262247408,1.3421163068815916,7.536538387446032,1.8418065490317634,0.11973919649999987,0.1520030750000001,-0.03952079949999909
139942.0,1.2776103619999999,-3.1627426915,6.702158809499999,0.9044243823957056,-0.7014129197914812,1.2427250419682705,7.520250147268034,1.6894759771767411,0.12209279249999994,0.23584993249999942,0.0754131384999992
139952.0,1.357828759,-3.0693833834999995,6.8817185709999995,0.8799094877221932,-0.3667355637460565,1.1571899459865322,7.656556914443963,1.4992745750502086,0.08021839700000011,0.09335930800000058,0.1795597615000002
139962.0,1.2932029354999999,-3.0981168679999995,7.1534608425,0.7882465407367031,-0.0301941960595019,1.0868444504849009,7.902069601398912,1.3429352769247238,-0.06462582350000012,-0.028733484500000017,0.27174227150000085
139972.0,1.0058680905,-3.1866709175,7.4647239135,0.6885899857770788,0.2162829462363893,1.0210280843921948,8.178553983235982,1.250373076510673,-0.28733484499999995,-0.08855404950000034,0.31126307099999995
139982.0,0.67665885,-3.307586912,7.688609733,0.6129142547398567,0.33246078789539185,0.9613413146324927,8.397185123962634,1.1875904943921822,-0.3292092404999999,-0.12091599450000023,0.22388581949999953
139992.0,0.34744960950000003,-3.2896407425,7.7508819605,0.5764089481051432,0.3071465324244661,0.9088470467202592,8.427255105398316,1.119191325095128,-0.3292092405,0.017946169500000053,0.06227222750000028
140002.0,0.00392266,-3.054967608,7.711361161,0.615579372507652,0.16992001998641193,0.8590196419050732,8.29445196674078,1.0703856885383967,-0.3435269495,0.23467313449999994,-0.03952079949999998
140012.0,-0.20201698999999998,-2.7940126514999997,7.7281305325,0.7461457085200958,-0.029394835262088498,0.8067924093683948,8.220177558200884,1.0993231856453773,-0.20593964999999997,0.26095495650000045,0.016769371499999686
140022.0,-0.2570322965,-2.5617911795,7.698122183499999,0.9150831081376349,-0.23243945912210082,0.7577626200213702,8.117260917384808,1.2106235522479565,-0.0550153065,0.23222147199999954,-0.030008349000000933
140032.0,-0.23075047449999997,-2.305543415,7.6706635635,1.0573728207357247,-0.35874195577192247,0.7002068972783531,8.012980452012743,1.3179615972621757,0.02628182200000001,0.2562477645000003,-0.0274586199999991
140042.0,-0.12062179499999999,-2.1679561154999996,7.683804474499999,1.1349143087433289,-0.3760626032687142,0.6317271587471036,7.9847000280855305,1.3522325143503533,0.11012867949999998,0.13758729950000026,0.013140910999998923
140052.0,-0.0392266,-1.9488755544999998,7.641930078999999,1.1405098343252227,-0.2782700599502199,0.5504559021279876,7.886618412564422,1.2966104305630055,0.08139519499999999,0.21908056099999973,-0.04187439549999983
140062.0,-0.0045110589999999996,-1.7213612744999998,7.683804474499999,1.1008070845008555,-0.0744260752927942,0.45772655896952885,7.874259088279212,1.194499510572042,0.034715541,0.22751428000000007,0.04187439549999983
140072.0,-0.029616082999999998,-1.5610225469999999,7.7831458389999995,1.0349907184081495,0.17071938078382534,0.3657965766084836,7.9382005300797,1.110926653575616,-0.025105023999999997,0.1603387274999999,0.09934136450000075
140082.0,-0.112188076,-1.4149034619999998,7.968687656999999,0.9678426660961715,0.4166641976578583,0.2789297944074738,8.094104085443941,1.090013903642613,-0.082571993,0.14611908500000004,0.18554181799999991
140092.0,-0.3564717275,-1.2856518149999998,8.324276786,0.9417290498278323,0.5951939268443582,0.20671854193546038,8.43051342990794,1.133067504353541,-0.2442836515,0.12925164700000003,0.35558912900000106
140102.0,-0.5563312545,-1.229361644,8.7611630435,0.9654445837039313,0.6426232492673042,0.1467647368002032,8.864469098105205,1.1690114510432128,-0.19985952699999998,0.05629017099999989,0.43688625749999943
140112.0,-0.617426684,-1.0904994799999999,9.1167521725,1.0096764629372237,0.5877326442920825,0.10199878681580062,9.20247656887965,1.1727233149758223,-0.06109542950000002,0.13886216400000007,0.35558912900000017
140122.0,-0.6496905625,-0.9564425745,9.3358327335,1.0309939144210822,0.49313754416324185,0.07268772735780785,9.407159669805113,1.1451709893046986,-0.03226387850000001,0.13405690549999982,0.21908056100000017
140132.0,-0.6114446275,-0.6343921884999999,9.5129408325,1.0245990280417752,0.41293268371709446,0.06122964081846507,9.553656957624877,1.1063749990219007,0.038245935000000064,0.32205038600000013,0.1771080989999998
140142.0,-0.69038816,-0.406975975,9.724862539,1.0096764629372237,0.35590928639593566,0.06416179396181554,9.757828480668275,1.0724899606787401,-0.07894353250000008,0.2274162134999999,0.21192170650000008
140152.0,-0.8328787845,-0.4106044355,9.829009162,0.9753022033191953,0.3100786855678166,0.0598979545991934,9.872775910492571,1.0251589847471996,-0.14249062449999994,-0.003628460499999986,0.1041466230000001
140162.0,-0.9968459725,-0.4333558635,9.873335219999998,0.9193452021710051,0.2805005907342687,0.019395843977412983,9.932987846756468,0.9613804558657911,-0.16396718799999999,-0.022751428000000018,0.04432605799999756
140172.0,-1.1584595645,-0.38304774899999994,9.9283505265,0.8745809975158545,0.26158296697190214,-0.045354125942324644,10.00304445244788,0.913988274851293,-0.16161359200000003,0.050308114500000056,0.055015306500001415
140182.0,-1.1788573965,-0.292042037,9.898440244,0.8500661028423422,0.2466604018673506,-0.11170281745688909,9.97266827768259,0.892149792623827,-0.020397832000000005,0.09100571199999996,-0.029910282499999497
140192.0,-1.0890284824999998,-0.14484422049999998,9.898440244,0.8343441769403773,0.26637913175638256,-0.16179900297688232,9.95922096089585,0.8906553569108048,0.08982891400000015,0.1471978165,0.0
140202.0,-1.0639234585,0.093359308,10.0313203515,0.8175576001946958,0.3172729327445372,-0.1903107016374617,10.08801452617684,0.8973743403096461,0.02510502399999992,0.23820352849999998,0.13288010750000012
140212.0,-1.0399952325,0.2119217065,10.234808338999999,0.7943743917404551,0.3692331299056604,-0.19590622721935552,10.289694000764674,0.897631900244343,0.023928225999999997,0.1185623985,0.20348798749999908
140222.0,-1.044800491,0.2215322235,10.440747988999998,0.7480097201612257,0.4036073895236887,-0.19377343487341844,10.495232401516901,0.8717600646946639,-0.00480525850000002,0.009610516999999985,0.20593964999999947
140232.0,-1.0878516845,0.197505931,10.584415411499998,0.680861667849248,0.4342501352009532,-0.1927087840297019,10.6420054258325,0.8302303693016246,-0.04305119349999997,-0.02402629249999999,0.14366742250000009
140242.0,-1.1764057339999998,0.18318822199999998,10.620307750499999,0.6025225643734824,0.45929735529632376,-0.19510686642194214,10.686834194044462,0.7823389230291333,-0.0885540494999999,-0.014317709000000012,0.035892339000000106
140252.0,-1.346453045,0.1293497135,10.5293020385,0.5335087550911226,0.47635096741756033,-0.20096942737939105,10.615831035238482,0.7429202828431362,-0.17004731100000026,-0.05383850849999999,-0.0910057119999994
140262.0,-1.5715156625,0.044326057999999995,10.487427643,0.49220728367192884,0.47528457124459184,-0.22521728667734828,10.604610546552909,0.7203376013933751,-0.2250626174999999,-0.08502365549999999,-0.04187439549999894
140272.0,-1.6529108575,0.0383440015,10.754364656,0.5319100334962958,0.44064502158026037,-0.2710478875054674,10.88071430189739,0.7419995121957124,-0.08139519500000003,-0.005982056499999992,0.2669370129999997
140282.0,-1.6756622854999998,0.192798739,11.227241318999999,0.6544827615346056,0.31753996812009233,-0.31448215127059825,11.35323579795064,0.7925139367654401,-0.02275142799999985,0.1544547375,0.4728766629999992
140292.0,-1.5511178305,0.393835064,11.633040496,0.7983711957275221,0.11369598346266661,-0.33793064977114207,11.742602086561003,0.8743686104142135,0.12454445499999989,0.20103632500000002,0.40579917700000045
140302.0,-1.2865344134999999,0.5471130034999999,11.935869848,0.9033579862227371,-0.07682590301428639,-0.33633192817631524,12.017466141583846,0.9669938141255907,0.2645834170000001,0.1532779394999999,0.30282935199999983
140312.0,-1.0507825474999999,0.7961038469999999,12.2160458385,0.9582485911979587,-0.1863418229184266,-0.3232751200421457,12.286972825951555,1.028333817755547,0.23575186599999998,0.2489908435,0.2801759905000001
140322.0,-0.8795584385,0.9780172045,12.401587656499999,0.9553181833838602,-0.20552648205634827,-0.3016906331827318,12.471147385100045,1.0226882244753261,0.17122410899999985,0.18191335750000004,0.18554181799999903
140332.0,-0.676070451,1.0163612059999998,12.475823997,0.8671197149635788,-0.1519675633003983,-0.2811742878255385,12.53539970483184,0.9241481052884204,0.20348798750000008,0.038344001499999836,0.07423634050000238
140342.0,-0.5192621175,0.9924329799999999,12.400410858499999,0.7117714489020676,-0.037121407860667394,-0.26864980511322717,12.450893374616415,0.7616884613679543,0.1568083335,-0.023928225999999886,-0.07541313850000186
140352.0,-0.45463629399999994,0.909860987,12.199276467,0.522315958598083,0.12009086984197384,-0.2555929969790576,12.241604776081717,0.593770627204119,0.06462582350000001,-0.08257199299999995,-0.20113439149999834
140362.0,-0.4761128575,0.817678477,11.989806423,0.36217327308134334,0.2922257126491666,-0.24813171442678186,12.027083586881647,0.5273847689990113,-0.021476563500000045,-0.09218251,-0.20947004400000147
140372.0,-0.5539776584999999,0.6799931109999999,11.925082533,0.29289242842342844,0.4100022759029959,-0.24360258501785656,11.957293811560636,0.5596695992286803,-0.07786480099999993,-0.13768536600000003,-0.06472388999999978
140382.0,-0.631744393,0.5674127689999999,12.068749955499998,0.31767435847249587,0.4329184489816815,-0.234542580870754,12.098586021386648,0.5859569982013447,-0.07776673450000005,-0.112580342,0.1436674224999983
140392.0,-0.7179448464999999,0.532697228,12.311758742499999,0.3949470657752928,0.36710208288897533,-0.22335152970696634,12.344173300503357,0.5836377556741676,-0.08620045349999994,-0.03471554099999996,0.24300878700000084
140402.0,-0.812579019,0.5434845429999999,12.5655548445,0.4722215184073418,0.19310148311140063,-0.21429152555986378,12.603524453927017,0.5533554040158384,-0.09463417250000006,0.010787314999999964,0.2537961020000008
140412.0,-0.7706065569999999,0.6296849965,12.711575862999998,0.5276461941336738,-0.048846529775565306,-0.21189344316762357,12.75047052391843,0.5706972235014787,0.041972462000000044,0.08620045350000005,0.14602101849999904
140422.0,-0.666459934,0.7685471604999999,12.711575862999998,0.5409700376433985,-0.26761133420829053,-0.21269280396503698,12.752215278230839,0.6399239303879415,0.10414662299999988,0.13886216399999995,0.0
140432.0,-0.482094914,0.8966220094999999,12.510539538,0.4911408874989603,-0.4077717451189472,-0.21162640779206843,12.551890139173691,0.6725198167828164,0.18436502000000005,0.128074849,-0.20103632499999868
140442.0,-0.271448072,1.0391126339999999,12.092678181499998,0.38482241078447377,-0.4426783301588338,-0.20523152141276121,12.14027613867399,0.6214276862319416,0.210646842,0.14249062449999994,-0.41786135650000134
140452.0,-0.12778064949999998,1.1145257725,11.67972015,0.2513239216286795,-0.38085876805319463,-0.19617151726565865,11.733471710208764,0.49668941902573926,0.1436674225,0.07541313850000009,-0.41295803149999877
140462.0,-0.0691368825,1.0774566355,11.3050080535,0.13008462513889335,-0.24975836128964055,-0.17965197589553233,11.356447499090756,0.3340300602861694,0.058643766999999986,-0.03706913700000003,-0.3747120964999997
140472.0,-0.0787473995,0.9720351479999999,11.1086789205,0.05467592947722636,-0.09894096996630654,-0.1655287715883942,11.151403536803626,0.20044587056269078,-0.009610516999999999,-0.10542148750000002,-0.19632913300000077
140482.0,-0.122975391,0.806891162,11.0716097835,0.0346901642126393,0.01776919711455427,-0.15353835962719317,11.101654808730013,0.15840826915349168,-0.04422799150000001,-0.1651439859999999,-0.037069136999999586
140492.0,-0.134939504,0.6608701435000001,11.1194662355,0.05707401186946657,0.07479259443571301,-0.14741050862344107,11.139905178175171,0.17487490690754537,-0.011964112999999985,-0.14602101849999993,0.04785645199999955
140502.0,-0.142196425,0.646454368,11.174579608499998,0.10690141668465268,0.0699964296512326,-0.1428796338852638,11.194166002873686,0.19168203575789963,-0.0072569209999999995,-0.014415775500000061,0.0551133729999993
