timestamp,ax,ay,az,gx,gy,gz,acc_mag,gyro_mag,dax,day,daz
39712.0,2.6011158459999995,-4.655609021,7.1420851285,-0.2799944452511903,-0.11318460199183228,0.06551966011986714,8.913466159888067,0.30903150221586506,0.0,0.0,0.0
39722.0,2.820196407,-5.150060313999999,6.544762077,-0.24082402084868157,-0.13103757491048226,0.05566029517535116,8.792641221864498,0.2797590454572536,0.21908056100000062,-0.4944512929999991,-0.5973230515000001
39732.0,2.7639062359999995,-5.278135163,6.264684153,-0.16035212502697901,-0.07481528371598893,0.045268604808976924,8.645470260034791,0.18264549613807388,-0.056290171000000555,-0.12807484900000077,-0.28007792399999953
39742.0,2.7495885270000002,-5.2601889935,5.916253878499999,-0.05696580145584292,0.00699004365423729,0.047399651825662005,8.380446603255393,0.07443581287920917,-0.01431770899999929,0.017946169500000053,-0.34843027450000097
39752.0,2.8309837219999996,-5.2733299045,5.7666043995,0.04775395366381685,0.10637956323830638,0.06578669549542226,8.311209503812048,0.13388405756290106,0.08139519499999937,-0.01314091099999981,-0.14964947899999892
39762.0,2.900414804,-5.316381098,5.725906801999999,0.14661289315527967,0.21882763628579704,0.09110095096634802,8.334405960812319,0.2787117832255455,0.06943108200000037,-0.043051193500000196,-0.04069759750000124
39772.0,2.880016972,-5.327168413,5.8217177724999996,0.2369424085922462,0.3208822736376615,0.11827921807840372,8.400334450610604,0.4160494104714109,-0.020397832000000005,-0.010787314999999964,0.09581097050000054
39782.0,2.7866576640000003,-5.348743043,5.901936169499999,0.31768133978950386,0.36937799223357587,0.14359347354932947,8.438445569251671,0.507917926876896,-0.0933593079999997,-0.021574629999999928,0.08021839699999944
39792.0,2.5388436185,-5.2949045345,6.0060827925,0.3986855610330647,0.35552182330199295,0.16517621507949137,8.399688771557637,0.5591324757588396,-0.2478140455000002,0.05383850850000016,0.10414662300000099
39802.0,2.2671013469999997,-5.2290038464999995,6.0407983335,0.478625131432909,0.2969014497152594,0.17956645476218458,8.305027046933525,0.5911654581908958,-0.2717422715000004,0.06590068800000015,0.03471554099999974
39812.0,2.1522654754999997,-5.2002703619999995,6.0515856485,0.5519010347486389,0.25240078977715996,0.190225180504114,8.264184616527876,0.6359925550936703,-0.11483587149999996,0.028733484500000017,0.010787314999999964
39822.0,2.206103984,-5.258914128999999,6.1509270129999996,0.6041282672853172,0.26625695870874294,0.1864936665633501,8.38790651614988,0.68603470689334,0.05383850850000016,-0.058643766999999514,0.09934136449999986
39832.0,2.2120860405,-5.3319736715,6.4238460825,0.6078580358968291,0.36378246665168207,0.15984772487315266,8.636496186289596,0.7262095909547436,0.005982056500000166,-0.07305954250000113,0.27291906950000033
39842.0,2.2144396365,-5.346389447,6.873971317499999,0.5444414975256151,0.5010107244189882,0.12227602206547072,8.98549412645225,0.7499198062345928,0.002353595999999847,-0.014415775499999839,0.4501252349999989
39852.0,2.174918837,-5.3188327605,7.416279062499999,0.4160062085298564,0.6062628049605063,0.08204094681924545,9.381974686311052,0.7398286769036232,-0.03952079949999998,0.02755668649999965,0.5423077450000005
39862.0,2.0707722139999998,-5.2266502505000005,7.836395948499999,0.24680177353676216,0.6147904836857505,0.05166349118828415,9.64443216913227,0.6644904593545434,-0.1041466230000001,0.09218250999999977,0.42011688599999975
39872.0,1.963095197,-5.1021057955,8.039982002499999,0.08372693487667197,0.5076726461738506,0.03061307507998054,9.722475862735944,0.5154404676224545,-0.10767701699999987,0.12454445500000055,0.20358605399999963
39882.0,1.823056235,-4.9393154054999995,7.968099258,-0.03351730295529911,0.3192835520428347,0.021820106308433108,9.550443785307683,0.3217786712039786,-0.140038962,0.1627903900000005,-0.07188274449999899
39892.0,1.7164579494999999,-4.6974834165,7.6041744765,-0.09267174729314293,0.10664659861386151,0.013294172912440809,9.101431085809983,0.14190942454853414,-0.10659828550000006,0.24183198899999958,-0.36392478149999974
39902.0,1.666149835,-4.447315775,7.0822645635,-0.09773320212392647,-0.05482951845140187,0.0013020156219877698,8.527200256980144,0.11207029104847004,-0.050308114499999945,0.25016764150000004,-0.521909913
39912.0,1.6614426429999998,-4.191166076999999,6.6788189825,-0.051103240498393966,-0.10625739019066678,-0.004026474584350918,8.058094547842979,0.11797621225122769,-0.004707192000000138,0.25614969800000065,-0.4034455809999997
39922.0,1.6913529255,-3.9684570554999996,6.533974762,0.026438247509210103,-0.05109974983988998,-0.002694788365079245,7.829569101195677,0.05759711146741785,0.029910282500000163,0.2227090214999996,-0.14484422050000045
39932.0,1.7476430965,-3.8020382049999997,6.559079786,0.13142329267517303,0.04642575810304917,0.006098180406468187,7.780184994210455,0.13951566463052403,0.05629017100000011,0.16641885049999994,0.025105024000000142
39942.0,1.858948574,-3.7541817529999997,6.786594065999999,0.23907520093818327,0.09945235143714089,0.02075371013546457,7.975426600000854,0.2597661224917448,0.11130547749999997,0.047856451999999994,0.2275142799999994
39952.0,2.0348798749999997,-3.7840920354999996,7.0415669659999995,0.34326088530673277,0.10025171223455429,0.02075371013546457,8.248863799062086,0.35820267680729123,0.17593130099999965,-0.02991028249999994,0.2549729000000003
39962.0,2.1414781605,-3.767322664,7.310857575,0.43892063627928996,0.08932595111706979,-0.001895427567665842,8.498663850778039,0.4479219163430722,0.1065982855000005,0.016769371499999686,0.26929060900000046
39972.0,2.2096343779999996,-3.663176041,7.5084615725,0.5095349124857286,0.11543956738540895,-0.036002651810139036,8.641662917373313,0.5236872269755407,0.06815621749999945,0.1041466230000001,0.1976039974999999
39982.0,2.285145583,-3.5399064504999997,7.7287189315,0.5332487010325755,0.21323211070390322,-0.07197388769374216,8.802608950528382,0.578793875829662,0.07551120500000019,0.12326959050000008,0.22025735899999965
39992.0,2.285145583,-3.4405650859999994,7.976532977,0.5007401983849291,0.36138438425944186,-0.10741454348473901,8.982452715137168,0.6267992530445365,0.0,0.0993413645000003,0.2478140455000002
40002.0,2.2240501535,-3.381921319,8.349970209,0.43705662463816003,0.49781328122933466,-0.1399230461323854,9.279320739384838,0.6770635235687887,-0.06109542949999991,0.058643766999999514,0.37343723200000056
40012.0,2.0947985064999997,-3.3076849784999998,8.7042844735,0.4010836434253049,0.5340515524884929,-0.14631793251169262,9.544293001340765,0.6837310049377481,-0.12925164700000025,0.07423634050000016,0.35431426449999925
40022.0,1.9941822775,-3.1711764104999998,9.055068343999999,0.43625726384074665,0.46050861379720787,-0.125267516403389,9.79935638176904,0.6465914740399181,-0.10061622899999967,0.136508568,0.35078387049999904
40032.0,1.8493380569999998,-3.0694814499999996,9.3927113035,0.5534997563434657,0.31128994406870064,-0.07970220562157306,10.053098689054002,0.6400123835766884,-0.14484422050000023,0.10169496050000015,0.3376429595000019
40042.0,1.7643144014999999,-3.0311374484999996,9.709858364499999,0.7360262895170326,0.12849637551957854,-0.00722391777400453,10.323853398692272,0.7471935508085471,-0.0850236554999999,0.03834400150000006,0.31714706099999823
40052.0,1.8134457179999999,-3.084975957,10.0570137745,0.9398702741744585,-0.037508870954610134,0.07111518570176095,10.674698501029587,0.9433029297709496,0.04913131650000002,-0.053838508500000604,0.34715541000000094
40062.0,1.8613021699999999,-3.1556819035,10.381515822999999,1.111739826935348,-0.16114799516588846,0.13080370079071504,11.009025607533278,1.130948154108211,0.047856451999999994,-0.07070594649999995,0.3245020484999994
40072.0,1.952307882,-3.209520412,10.6436475775,1.1999382953556295,-0.26240327172033945,0.1515870815234635,11.287150264578992,1.2376130384556043,0.09100571200000007,-0.053838508499999715,0.26213175450000037
40082.0,1.976236108,-3.207166816,10.734653289499999,1.2073995779079052,-0.3641926190259008,0.1438605089248846,11.376476140966837,1.269309202091145,0.023928225999999997,0.002353595999999847,0.0910057119999994
40092.0,1.99663394,-3.16166396,10.7585815155,1.1844834048292197,-0.45985236999845797,0.11561410031060838,11.389896501372656,1.2758651020776652,0.020397832000000005,0.04550285600000015,0.023928226000000663
40102.0,2.080382731,-3.1460713864999996,10.7693688305,1.173292353665432,-0.49555831583575793,0.07724478203476504,11.410743292342616,1.2759936316123761,0.08374879099999988,0.015592573500000206,0.010787314999999964
40112.0,2.1247087889999996,-3.141266128,10.7813329435,1.173292353665432,-0.430276020494162,0.05939180911611504,11.428870476279462,1.2511114210861265,0.04432605799999978,0.004805258499999798,0.01196411300000122
40122.0,2.1247087889999996,-3.172451275,10.893815218999999,1.1695608397246684,-0.2821220016093714,0.058325412943146505,11.543571568453974,1.2045195039535632,0.0,-0.03118514699999997,0.1124822754999979
40132.0,1.9810413664999997,-3.141266128,11.133293612,1.1583697885608804,-0.11211995114811574,0.057259016770177966,11.736366747580117,1.1651909909956917,-0.14366742249999986,0.03118514699999997,0.23947839300000062
40142.0,1.8062868634999998,-3.1676460165,11.473192100999999,1.1370523370770218,0.012850859282434247,0.035676275240016084,12.03872046795463,1.137684472273229,-0.17475450299999995,-0.02637988850000017,0.3398984889999994
40152.0,1.7260684665,-3.219130929,11.8024013415,1.1045455797586274,0.04695808352490744,-0.028808404633418404,12.354707350436556,1.1059185881203812,-0.08021839699999989,-0.05148491249999987,0.3292092405000009
40162.0,1.709299095,-3.208343614,11.978430709,1.0587132336012564,-0.00606676447993229,-0.11620751225628645,12.517906150470079,1.065089058500968,-0.016769371499999908,0.010787314999999964,0.17602936749999998
40172.0,1.7320505229999998,-3.1233199584999998,12.1460263575,1.0139472836168537,-0.07241545599449672,-0.1852213215386462,12.660216540583884,1.0332666791169691,0.02275142799999985,0.08502365550000013,0.16759564850000075
40182.0,1.8517897195,-3.1472481844999995,12.280083263,0.9769096515602821,-0.05109974983988998,-0.2052053414739813,12.811508156587076,0.9995363344645278,0.11973919650000009,-0.023928225999999775,0.1340569054999996
40192.0,2.0300746165,-3.2909156069999996,12.366283716499998,0.9126920070624027,0.04402767571080896,-0.19161620791795345,12.956708742498105,0.933628355996619,0.17828489699999994,-0.14366742250000009,0.08620045349999828
40202.0,2.0636133595,-3.300526124,12.3817782235,0.8071728911453295,0.17299529012842593,-0.16283921921107095,12.979229744813525,0.8414107545781665,0.03353874300000026,-0.009610517000000485,0.015494507000001434
40212.0,1.9941822775,-3.3017029219999996,12.354319603499999,0.6800692883688425,0.3046280223138383,-0.13938897538127512,12.942457958458384,0.7581040531610327,-0.06943108200000014,-0.0011767979999994793,-0.027458620000000877
40222.0,2.0300746165,-3.397415826,12.393840402999999,0.5686893568235724,0.3819024749458872,-0.13672560294273178,13.01041571889031,0.6985348777507505,0.035892338999999884,-0.09571290400000043,0.03952079949999998
40232.0,2.1114698114999997,-3.462139716,12.461996620499999,0.5132646810972404,0.3848328827599857,-0.14898305027948797,13.105192709278784,0.6585840339590637,0.08139519499999981,-0.06472388999999978,0.06815621750000034
40242.0,2.220421693,-3.393885432,12.519463589499999,0.5239234068391698,0.3248790776247285,-0.1505817718743148,13.160003776181183,0.6345998907446052,0.10895188150000035,0.068254284,0.057466969000000034
40252.0,2.301816888,-3.3028797199999995,12.5614360515,0.5854759335692538,0.2598620723294357,-0.10874622970401068,13.190794180283202,0.6497200227012984,0.08139519499999981,0.0910057120000003,0.04197246200000038
40262.0,2.2946580334999997,-3.1424429259999997,12.603310446999998,0.6755401589599171,0.23241676984182488,-0.01468520032628029,13.19029329686542,0.7145542081465345,-0.007158854500000089,0.16043679399999977,0.04187439549999894
40272.0,2.241996323,-3.0095628184999996,12.754136723999999,0.7461526898371037,0.2262889188380728,0.1102856101042697,13.294811749149689,0.7874728104106961,-0.05266171049999979,0.13288010750000012,0.15082627700000018
40282.0,2.192963073,-2.9975987054999997,12.926537631,0.7837243926447858,0.20976763213869448,0.23872089910002842,13.44953754463015,0.8457032876763806,-0.04903324999999992,0.011964112999999887,0.17240090700000188
40292.0,2.0504724485,-3.0550656744999998,13.0617713345,0.7775947963117816,0.1594061565723981,0.3442400150171016,13.570104418623005,0.8651966123045787,-0.14249062450000016,-0.057466969000000034,0.13523370349999908
40302.0,1.8564969114999998,-3.092232878,13.017445276499998,0.7416235604281786,0.05815088001794707,0.4023280631819769,13.50786313525812,0.8457274387489097,-0.19397553700000003,-0.037167203500000134,-0.04432605800000111
40312.0,1.7152811515,-3.0527120785,12.859460144999998,0.6976569712411893,-0.043638467287614224,0.41351911434576455,13.327676304733483,0.8121746260983209,-0.1412157599999999,0.03952079949999998,-0.15798513150000026
40322.0,1.5883831005,-2.9581759724999994,12.6475384385,0.6635497469987162,-0.06122440483070908,0.3855414864362954,13.085640775734497,0.7698629308210929,-0.12689805099999996,0.09453610600000051,-0.2119217064999983
40332.0,1.480608017,-2.8048980329999997,12.4967121615,0.625445718769176,0.006190682856823887,0.3319825676803454,12.89292317214812,0.7081194086625222,-0.10777508349999998,0.15327793949999968,-0.15082627700000018
40342.0,1.293889401,-2.5451198744999997,12.351867941,0.5633591212879817,0.12689765392475172,0.2730934133888047,12.67755601799884,0.6387930232448704,-0.18671861600000006,0.2597781585000001,-0.14484422049999957
40352.0,1.1370810674999998,-2.2303264095,12.275278004499999,0.47382722131917654,0.26385887631650273,0.2139389690509609,12.527959104927728,0.5830125425345902,-0.15680833350000012,0.3147934649999997,-0.07658993650000134
40362.0,1.180132261,-2.0411561309999997,12.461996620499999,0.38429706667962343,0.4386588368914908,0.1646438896576331,12.683074953414303,0.6059813702112907,0.043051193500000196,0.18917027850000023,0.18671861600000028
40372.0,1.3789130565,-2.0016353315,12.843867571499999,0.3368659989274255,0.6187872876728175,0.12733922222550628,13.07183534978637,0.7159550866750312,0.19878079550000005,0.03952079949999954,0.3818709509999998
40382.0,1.6350627544999998,-1.9944764769999999,13.490321939499998,0.36191321902279616,0.776266600751014,0.08044222522441864,13.734633328189524,0.8602569181029773,0.25614969799999976,0.007158854500000311,0.6464543679999988
40392.0,1.99663394,-1.9777071054999997,14.4719676045,0.4746265821165899,0.9118961369234933,-0.0005619960191421741,14.742310498398904,1.0280200741362941,0.3615711855000001,0.01676937150000013,0.981645665000002
40402.0,2.2911276395,-1.7646086009999997,15.527849609999999,0.6283761265832745,0.9795782599865814,-0.1180732692266684,15.794847985529367,1.1697740896446678,0.29449369950000004,0.2130985045,1.055882005499999
40412.0,2.3389840915,-1.2726089704999999,16.278352534499998,0.724569948306942,0.8988393287893237,-0.218529184983706,16.4947004037524,1.1750186184301972,0.047856451999999994,0.49199963049999984,0.7505029244999992
40422.0,2.089993248,-0.629783063,16.522636186,0.702985461447528,0.6584900374971847,-0.2470408836442854,16.66619947732667,0.994397750742321,-0.24899084350000011,0.6428259074999999,0.24428365150000175
40432.0,1.675760352,-0.1293497135,16.1251726615,0.5641584820853951,0.3096912224738738,-0.17882643515933902,16.21252902754239,0.6679538457843153,-0.4142328959999999,0.5004333495,-0.3974635245000009
40442.0,1.1933712385,0.023830159499999996,15.301512127999999,0.3539196110486621,-0.07934441312491422,-0.02854136925786327,15.347995836353093,0.3638258329724362,-0.4823891135,0.153179873,-0.8236605335
40452.0,0.8258179964999999,-0.18799348049999998,14.152368881,0.14767754399899619,-0.42547985570968166,0.1499883599286367,14.177688875693066,0.4746980858718405,-0.36755324200000006,-0.21182363999999998,-1.1491432469999996
40462.0,0.624683605,-0.6920552904999999,12.895352483999998,-0.0010088003076527223,-0.6695589156133327,0.2946779002482186,12.92900946778483,0.7315362082973487,-0.2011343914999999,-0.5040618099999999,-1.257016397000001
40472.0,0.519360184,-1.2689805099999998,11.726988203000001,-0.08067959000268989,-0.7785425100956146,0.3711529920828541,11.806875067044015,0.8662517993060894,-0.10532342100000003,-0.5769252194999999,-1.168364280999997
40482.0,0.35892339,-1.7370519145,10.7740760225,-0.1158532104181316,-0.7641522704129213,0.3863408472337088,10.91910662518535,0.8640659170356567,-0.16043679399999994,-0.4680714045000003,-0.952912180500002
40492.0,0.2715461385,-2.111764011,10.0175910415,-0.14703002684650632,-0.6604989114662301,0.35996019558981446,10.241358055366979,0.7664515531014446,-0.08737725150000003,-0.3747120964999999,-0.7564849809999998
40502.0,0.2487947105,-2.528350503,9.563837346,-0.18539934512234965,-0.5040859945610023,0.3058689514120062,9.895526254562586,0.6180869053152891,-0.02275142799999999,-0.416586492,-0.45375369549999967
40512.0,0.22486648449999996,-2.861188204,9.266990050499999,-0.21044831054697227,-0.34394156371501056,0.23419002436185116,9.701240511946196,0.46629310328741297,-0.023928226000000025,-0.3328377009999999,-0.296847295500001
40522.0,0.20211505649999997,-3.059870933,9.123322628,-0.20591743580879499,-0.22163587105225593,0.14732324216084136,9.624898773351289,0.33649455773896747,-0.02275142799999999,-0.19868272900000017,-0.1436674224999983
40532.0,0.252423171,-3.1532302409999997,9.098217604,-0.16195084662180584,-0.13956525363572655,0.05406157358052436,9.632452542304588,0.22052027226975485,0.05030811450000003,-0.0933593079999997,-0.025105024000000142
40542.0,0.41285996499999994,-3.1759816689999996,9.172355878,-0.0753510997963512,-0.0822748209390127,-0.038933059624237515,9.71542203227451,0.11816394345472189,0.16043679399999994,-0.02275142799999985,0.07413827399999917
40552.0,0.562509444,-3.1005685305,9.292095074499999,0.03736226329744261,-0.033246776921239986,-0.12766559879562922,9.811879175798245,0.13711233354518,0.14964947900000009,0.07541313849999964,0.11973919649999942
40562.0,0.7480512619999999,-2.90669106,9.464495981499999,0.15726987356795702,0.011786208438717707,-0.21106790243143025,9.92900386709026,0.26348128449331243,0.18554181799999991,0.19387747049999993,0.1724009070000001
40572.0,1.0005724994999998,-2.6037636415,9.7445739055,0.2659881780039358,0.056552158423120266,-0.2830121195278885,10.135948452281342,0.3924840344011906,0.2525212374999999,0.30292741849999993,0.2800779240000004
40582.0,1.2782968275,-2.308093144,10.087022123499999,0.34645832849638636,0.11011107717907026,-0.32991086185822815,10.426377705634627,0.4909164893075848,0.27772432800000013,0.2956704975000002,0.34244821799999947
40592.0,1.4555029929999999,-1.9429915645,10.5526418655,0.389360266839659,0.1812559334781151,-0.3408348776464607,10.828294211179037,0.5482914778060582,0.1772061654999999,0.3651015794999999,0.4656197420000012
40602.0,1.558472818,-1.695177519,10.9584410425,0.39175834923189923,0.2121657145309347,-0.32378126552522407,11.197762920660374,0.5507478574814798,0.10296982500000018,0.24781404549999997,0.40579917700000045
40612.0,1.6637962389999998,-1.498848386,11.2349885725,0.36564473296356004,0.18152296885367022,-0.29420491602092813,11.455991124007166,0.5031929963506299,0.1053234209999998,0.1963291330000001,0.2765475300000002
40622.0,1.7583323449999997,-1.2917319379999999,11.534287530499999,0.3270066339829096,0.14554998764081511,-0.26142937799772664,11.738828428398218,0.44324198498264156,0.09453610599999984,0.20711644800000006,0.29929895799999784
40632.0,1.8361971459999997,-1.1792496625,11.7641554065,0.28517283714185754,0.1087776456305466,-0.22838854992822197,11.964848605551518,0.3812052635664638,0.07786480100000004,0.1124822754999999,0.22986787600000191
40642.0,1.93191005,-1.047546353,11.867027165,0.2313468830103524,0.03949854630188367,-0.1998768512676426,12.068801246926828,0.3082730463586381,0.09571290400000021,0.13170330949999998,0.10287175849999919
40652.0,1.9930054794999998,-0.929082021,11.825152769499999,0.17192540329695344,-0.056428240046228664,-0.17456259579671685,12.027863578586015,0.25142511892176334,0.06109542949999991,0.11846433199999995,-0.041874395500000716
40662.0,2.031349481,-0.8643581309999999,11.689919066,0.12263032390362559,-0.13929821826017144,-0.15271281889099986,11.89654165975201,0.24034016519259074,0.03834400150000006,0.06472389000000012,-0.13523370349999908
40672.0,2.043313594,-0.8045375659999999,11.412194738,0.07333524451029774,-0.20378289813360592,-0.12953135576601116,11.621557549509674,0.25235669158097973,0.011964112999999887,0.05982056499999999,-0.2777243279999997
40682.0,2.105487755,-0.8284657919999999,11.044641495999999,0.021907372771032826,-0.227763722056008,-0.12073664166521174,11.274020579639467,0.25871525410599433,0.06217416100000017,-0.023928225999999997,-0.3675532420000014
40692.0,2.1378497,-0.8536688825,10.7393604815,-0.032183871406775436,-0.20724563136956267,-0.12393408485486535,10.983306216815718,0.24361077703851586,0.03236194499999989,-0.025203090500000025,-0.30528101449999845
40702.0,2.1043109569999996,-0.8404299049999999,10.441336388,-0.08734151175755223,-0.14409438304465186,-0.12233536326003853,10.68437890550225,0.20822505133887967,-0.03353874300000026,0.013238977500000026,-0.2980240935000005
40712.0,2.066065022,-0.8093428245000001,10.2725639415,-0.13956874429423055,-0.06575527956888637,-0.11594047688073132,10.509482880470737,0.19299063540592354,-0.03824593499999951,0.031087080499999864,-0.16877244650000023
40722.0,1.9882002209999998,-0.8093428245000001,10.155178341,-0.17634108630449907,-0.005801474433629151,-0.10901326507956584,10.37957721026582,0.20739751152789304,-0.07786480100000026,0.0,-0.11738560050000046
40732.0,1.907981824,-0.815324881,10.125268058499998,-0.19499342002056247,0.008321729873508963,-0.10155198252729007,10.335676202299119,0.22001020475111188,-0.08021839699999989,-0.005982056499999944,-0.029910282500001273
40742.0,1.8792483395,-0.8679865915,10.1456658905,-0.18486701970049138,-0.010063568466999304,-0.08982686061239216,10.354685480795274,0.20578132877088237,-0.028733484500000017,-0.052661710500000014,0.020397832000002225
40752.0,1.8757179455,-0.9397712694999999,10.115755607999999,-0.14569659529798262,-0.05482951845140187,-0.07463900546153751,10.331021216260849,0.17264053727709544,-0.0035303939999999923,-0.07178467799999988,-0.029910282500001273
40762.0,1.892487317,-1.01400761,10.151647946999999,-0.08414406856789863,-0.10572331943955651,-0.055187310948060696,10.376207193284696,0.1459564450038287,0.01676937150000013,-0.07423634050000005,0.035892339000000106
40772.0,1.9702540515,-1.0751030395,10.1097735515,-0.012732176893298634,-0.1291735632693523,-0.03307049866678856,10.355929163315247,0.13394616701575926,0.07776673449999993,-0.06109542950000013,-0.04187439549999894
40782.0,2.0408619315,-1.1708159434999998,10.051031717999999,0.05015203605605706,-0.1033252370473163,-0.010688396339213275,10.3227499239903,0.11534978607590159,0.07060787999999985,-0.09571290399999977,-0.05874183350000095
40792.0,2.0408619315,-1.3025192529999998,10.0666242915,0.08266053870370345,-0.03244741612382658,0.006098180406468187,10.353675601162104,0.089010040311018,0.0,-0.13170330949999998,0.015592573500001095
40802.0,2.0337030769999997,-1.403135482,10.175576173,0.08505862109594364,0.05868320543980534,0.008496262798708397,10.471250538439616,0.10368642198946988,-0.007158854500000089,-0.10061622900000011,0.10895188149999946
40812.0,2.008598053,-1.4809022164999999,10.368276845499999,0.06560692658246685,0.15567638796088623,0.0007696902001294993,10.664366003578525,0.16893785545918868,-0.025105023999999698,-0.07776673449999993,0.19270067249999911
40822.0,2.0157569075,-1.520423016,10.521554785,0.035496506327060674,0.24067741319151406,-0.008822639368831335,10.82026234208177,0.24344087197391134,0.007158854500000089,-0.0395207995000002,0.15327793950000057
40832.0,1.9750593099999998,-1.5730847264999999,10.7034681425,0.01178271778021372,0.29610208891784595,-0.015484561123693692,10.997258072459593,0.2967407136423877,-0.04069759750000035,-0.05266171049999979,0.18191335750000093
40842.0,1.9546614779999998,-1.5946593565,10.801632709,0.008585274590560106,0.3070261047060785,-0.01735031809407563,11.092290527072793,0.30763577400677705,-0.020397832000000005,-0.02157463000000015,0.0981645664999995
40852.0,1.9295564539999999,-1.5179713535000001,10.909407792499998,0.029900980745166856,0.27878144142105427,-0.015217525748138559,11.182245012620648,0.2807930444655259,-0.02510502399999992,0.0766880029999999,0.1077750834999982
40862.0,2.000164334,-1.3755787955,11.0255185285,0.07440164068326628,0.23374845606109657,-0.009622000166244739,11.289594023167162,0.24549241889416354,0.07060788000000007,0.14239255800000006,0.11611073600000132
