timestamp,ax,ay,az,gx,gy,gz,acc_mag,gyro_mag,dax,day,daz
48262.0,2.8932559495,-5.929296723,4.419857155,0.34139687366560284,0.16073784279166978,0.018622663118779494,7.941198076442898,0.37780323322544856,0.0,0.0,0.0
48272.0,3.2200135274999995,-8.115199008,4.288251912,0.4538432013838415,0.13089445791181872,0.0194220239161929,9.726975198770624,0.4727411824321678,0.3267575779999996,-2.185902284999999,-0.1316052430000001
48282.0,3.3206297565,-8.657506753,4.5060576085,0.5913384945267027,0.19138233379818623,-0.010156070917355002,10.309391850594999,0.6216201079241452,0.10061622900000033,-0.5423077450000005,0.21780569650000015
48292.0,3.1397951305,-8.643189044,4.6174611525,0.724569948306942,0.23135037366885636,-0.06424731509516327,10.28999406251917,0.7633166596394849,-0.18083462599999978,0.014317709000000178,0.11140354399999985
48302.0,3.0033846289999997,-8.5785632205,4.8448773659999995,0.8279562718780781,0.24574061335154962,-0.11061198667439263,10.299752562533135,0.8707095088424713,-0.13641050150000034,0.06462582350000012,0.22741621349999974
48312.0,3.072815711,-8.626419672499999,5.3033382535,0.8817822260095831,0.26066143312684914,-0.14498624629242096,10.582188308232842,0.93086265820481,0.06943108200000037,-0.04785645199999955,0.45846088750000025
48322.0,3.175785536,-8.5473780735,5.759445545,0.895371359565611,0.30009889290491304,-0.18015812137861067,10.78491996668662,0.9613564197277695,0.10296982499999974,0.07904159899999996,0.4561072915000004
48332.0,3.1937317055,-8.331925973,6.0898315835,0.8692577432972719,0.353657811660863,-0.21133493780698537,10.803099617316414,0.9619487137934634,0.017946169500000053,0.21545210049999852,0.3303860384999995
48342.0,3.187749649,-8.104509759499999,6.288612379,0.8111696951323966,0.397357365472297,-0.22279302434632817,10.74204226019626,0.9303364347877887,-0.005982056499999722,0.22741621350000152,0.19878079550000027
48352.0,3.1613697604999995,-7.906905761999999,6.502887681499999,0.7488178076048991,0.4213381893946991,-0.2169304633888792,10.714521253418514,0.8861787656983917,-0.026379888500000614,0.1976039974999999,0.21427530249999904
48362.0,3.20089056,-7.763336406,6.7111809275,0.7120454655946306,0.4338626721070104,-0.20547237684953645,10.749653109354826,0.8587575099933085,0.039520799500000425,0.14356935599999954,0.2082932460000011
48372.0,3.2666931815,-7.637615152999999,6.909863656499999,0.7101797086242487,0.42613435417917955,-0.19694644345354415,10.805122179726304,0.8513128731214683,0.06580262150000005,0.12572125300000092,0.19868272899999884
48382.0,3.3025855205,-7.534645328,7.0606899335,0.7237705875095285,0.40588329886828933,-0.1881517293527447,10.84118506787873,0.8508737796539046,0.035892339000000106,0.10296982499999885,0.15082627700000106
48392.0,3.2894446095,-7.4700195045,7.1960217035000005,0.7370926856900013,0.397357365472297,-0.17509492121857512,10.881377008165009,0.8554862562480607,-0.013140911000000255,0.06462582350000012,0.13533177000000052
48402.0,3.2786572945,-7.4364807615,7.318114496,0.7509488546215842,0.40535097344643106,-0.15564322670509834,10.936436327593327,0.8674436050548837,-0.010787314999999964,0.03353874299999937,0.12209279249999927
48412.0,3.2379596969999995,-7.358714027,7.423437916999999,0.7698682237132027,0.42853243657141976,-0.13858961458386174,10.942690968775285,0.8919328519275782,-0.04069759750000035,0.07776673449999993,0.10532342099999958
48422.0,3.106354454,-7.2329927739999995,7.528761337999999,0.7893199182266796,0.45811053140496766,-0.12633216724710555,10.892560293484053,0.9213311070266025,-0.13160524299999965,0.12572125300000092,0.10532342099999958
48432.0,2.957881773,-7.1097231835,7.725090471,0.8204949893258022,0.4834247868758934,-0.11860559464852666,10.907531852540151,0.9596764241955107,-0.14847268099999988,0.12326959049999964,0.19632913300000077
48442.0,2.8261784635,-7.0677507214999995,8.029194687499999,0.8692577432972719,0.49141839485002736,-0.1220700732137354,11.063830814803396,1.0059831836833308,-0.1317033095000002,0.04197246200000038,0.30410421649999897
48452.0,2.706439267,-6.973214615499999,8.2710266765,0.9241500936017455,0.45890989220238104,-0.1415217677272122,11.151700222977523,1.0414797623602443,-0.11973919649999987,0.09453610600000051,0.24183198900000136
48462.0,2.6082747004999995,-6.8367060475,8.490009170999999,0.9707800552272781,0.3970903300967419,-0.1679006740418545,11.208206913545784,1.062207739675778,-0.09816456650000038,0.1365085679999991,0.21898249449999874
48472.0,2.6681933319999995,-6.6966670855,8.6923203605,1.0096834442542315,0.31635314422873617,-0.20147557286246942,11.292521373037607,1.0770944136540472,0.059918631499999986,0.1400389620000002,0.20231118950000138
48482.0,2.87530978,-6.5685922365,8.778520813999998,1.030468570316232,0.22655420888437597,-0.2331847147127024,11.33473590262265,1.0805403255540484,0.20711644800000029,0.12807484899999988,0.08620045349999828
48492.0,3.0668336545,-6.415314296999999,8.7617514425,1.0254053701561965,0.1703301723606306,-0.24544216204945857,11.284060197190426,1.0680404466466058,0.19152387450000008,0.15327793950000057,-0.016769371499998798
48502.0,3.1146901065,-6.141218429499999,8.660056482,0.9936962283059636,0.1578074349775713,-0.23531576172938748,11.064015389079573,1.0332999992267395,0.047856451999999994,0.2740958674999998,-0.10169496049999971
48512.0,3.0979207349999998,-5.9209610705,8.6324997955,0.9545258039034549,0.17139656853359914,-0.22039494195408796,10.916727788033691,0.9945200975654416,-0.01676937150000013,0.22025735899999965,-0.027556686500000538
48522.0,3.0416305639999996,-5.823973302,8.5881737375,0.9257488151965723,0.2052367574005172,-0.20307429445729624,10.813274696212636,0.9697278816737532,-0.05629017100000011,0.09698776850000002,-0.044326057999999335
48532.0,3.014171944,-5.813185987,8.614553626,0.9161564856276115,0.2294863620277264,-0.19348196488833538,10.820762357739849,0.9640757061825113,-0.027458619999999545,0.010787314999999964,0.026379888499999282
48542.0,3.1422467929999995,-5.888599125499999,8.728310766,0.9273475367913991,0.2569316645153372,-0.1964123727024339,10.987844347133318,0.9821227796840357,0.12807484899999944,-0.0754131384999992,0.11375714000000059
48552.0,3.2452166179999997,-5.8958560465,8.879137043,0.9502637098700847,0.27078783344692026,-0.20760342386622152,11.141437252310347,1.0096664551424452,0.10296982500000018,-0.007256921000000638,0.15082627700000018
48562.0,3.2978783284999995,-5.697075250999999,8.917382978,0.9598560394390455,0.25373422132568363,-0.21666342801332408,11.083879603346059,1.0161927536436413,0.05266171049999979,0.19878079550000027,0.038245934999999065
48572.0,3.326611813,-5.4588717225,8.9090473255,0.9465321959293208,0.22735356968178935,-0.21239958865070194,10.965251975449537,0.9963565771533912,0.02873348450000046,0.2382035284999997,-0.008335652499999568
48582.0,3.3792735234999998,-5.2182165314999995,8.833634187,0.9177552072224383,0.20497146735421407,-0.1990774904702292,10.801961223129025,0.9612074542080729,0.05266171049999979,0.2406551910000001,-0.07541313850000009
48592.0,3.3792735234999998,-5.072195513,8.622889278499999,0.8919068810004023,0.19644378862896977,-0.1780270743619256,10.559397538590716,0.9304739038106526,0.0,0.14602101849999993,-0.2107449085000006
48602.0,3.2774804965,-4.930979753,8.4134192345,0.8783177474443744,0.22415612649213573,-0.14498624629242096,10.28795718035842,0.9179918551565067,-0.10179302699999981,0.1412157599999997,-0.2094700439999997
48612.0,3.1015491954999996,-4.828009927999999,8.2996620945,0.8783177474443744,0.2998318575293578,-0.10315070412211687,10.090276416424546,0.9337993767539972,-0.17593130100000032,0.10296982500000063,-0.11375713999999881
48622.0,2.900414804,-4.796922847499999,8.256610901,0.9049636891345718,0.41334458142056507,-0.056253707121029235,9.979704324810525,0.9964825644268216,-0.20113439149999968,0.031087080499999864,-0.043051193500000196
48632.0,2.680157445,-4.862725469,8.4242065495,0.9505289999163878,0.5308541092988394,-0.02161241212744578,10.089430058506222,1.0889345992296686,-0.2202573590000001,-0.06580262150000049,0.16759564849999897
48642.0,2.4934388289999996,-5.0662134565,8.6432871105,0.9960943106982038,0.6059975149142032,-0.011220721761071546,10.32425145254231,1.1660029024339342,-0.18671861600000028,-0.20348798749999997,0.21908056100000017
48652.0,2.3605587215,-5.303240187,8.9437628665,1.0275364171728816,0.6281143271954753,-0.03014009085269008,10.66243350135633,1.2046854866401087,-0.13288010749999968,-0.23702673050000023,0.30047575600000087
48662.0,2.2180680969999997,-5.474464295999999,9.179612799,1.0475221824374688,0.5884098320418563,-0.07170859764743902,10.915808561470495,1.203607484240043,-0.14249062450000016,-0.17122410899999885,0.23584993249999897
48672.0,2.0420387294999998,-5.464853778999999,9.3627029545,1.0768332418954614,0.49221775564744086,-0.12633216724710555,11.031534599176652,1.190717416647226,-0.17602936749999998,0.009610516999999597,0.1830901555000004
48682.0,1.9726076474999998,-5.2482248805000005,9.515980894,1.1367870470307186,0.34299908591893363,-0.19108388249609518,11.044860239145073,1.2026829230465639,-0.06943108199999992,0.2166288984999989,0.15327793950000057
48692.0,2.128239183,-5.000410835,9.579429919499999,1.224453190029142,0.16713272917097702,-0.2627610642169983,11.013581984143654,1.2634327606173315,0.15563153549999997,0.2478140455000002,0.06344902549999887
48702.0,2.3976278585,-4.7274917655,9.602181347499998,1.3062567720701161,0.016582373223198124,-0.31738637914591683,10.968121278095099,1.3443644756345314,0.2693886755000001,0.27291906950000033,0.022751427999999407
48712.0,2.6526007584999998,-4.425741145,9.543537580499999,1.34809231424042,-0.07215016594819358,-0.3368380736593936,10.849082220029327,1.3914087904088484,0.25497289999999984,0.3017506205,-0.058643766999999514
48722.0,2.8417710369999996,-4.155273738,9.480088555,1.3408963217344474,-0.08787034652090651,-0.31125852814216476,10.73378039066789,1.3793498522057055,0.1891702784999998,0.27046740699999994,-0.06344902549999887
48732.0,2.92434303,-3.9649266615,9.4980347245,1.3046580504752894,-0.036177184735338465,-0.25130472300690754,10.699770521650963,1.3291333571808872,0.08257199300000062,0.19034707650000016,0.017946169500000053
48742.0,2.900414804,-3.857151578,9.599729685,1.2465700023104138,0.04695808352490744,-0.18761940393088644,10.744525785533787,1.2614843926897783,-0.02392822600000022,0.10777508349999998,0.10169496049999971
48752.0,2.81058589,-3.823612835,9.6727892275,1.1799542754202943,0.09918531606158576,-0.15191345809358645,10.774147743403367,1.1938205550897592,-0.08982891399999993,0.033538742999999815,0.07305954249999935
48762.0,2.7495885270000002,-3.8020382049999997,9.750555962,1.1221315173017223,0.08826130027335326,-0.16150578766254728,10.82077045076659,1.1371250233357406,-0.060997362999999805,0.021574630000000372,0.07776673450000082
48772.0,2.8417710369999996,-3.797331013,9.7565380185,1.0810953359288316,0.019779816412851738,-0.20813749461733178,10.84829108917435,1.1011265064332885,0.09218250999999933,0.004707191999999694,0.00598205650000061
48782.0,3.0572231375000003,-3.790074092,9.768600198,1.0675062023728037,-0.04870166744764977,-0.26222873879514,10.914981665751005,1.1003205241958711,0.21545210050000074,0.007256921000000194,0.012062179499999104
48792.0,3.2452166179999997,-3.670432962,9.7063279705,1.0736357987058078,-0.08520697408236316,-0.30326492016803075,10.872732485313437,1.1188939487276945,0.18799348049999942,0.11964112999999976,-0.06227222749999939
48802.0,3.3780967255,-3.4752806269999996,9.608163403999999,1.0770985319417645,-0.08653866030163485,-0.3131225397832947,10.761315761615778,1.1250226273983324,0.13288010750000012,0.1951523350000004,-0.09816456650000127
48812.0,3.4570402579999997,-3.2646337849999996,9.551873233,1.068038527794662,-0.05456248307584673,-0.285944272671239,10.669922368738117,1.1069993172927772,0.07894353249999986,0.21064684200000006,-0.05629017099999878
48822.0,3.5289230025,-3.0862508214999997,9.5674658065,1.048054507859327,0.012585569236131109,-0.22892087535008024,10.654325114681349,1.072838019072917,0.07188274450000032,0.17838296349999982,0.015592573499999318
48832.0,3.5995308825,-2.9628831645,9.541085918,1.0134149581949954,0.09358979047969194,-0.16523730160331115,10.619209938371435,1.0310539715342455,0.07060787999999985,0.12336765699999974,-0.026379888499999282
48842.0,3.6377768175,-2.8444188324999997,9.562660547999998,0.9721134867758017,0.18098889810255997,-0.10501646109249882,10.619256820742999,0.9943792382728925,0.03824593499999995,0.11846433200000028,0.02157462999999815
48852.0,3.59707922,-2.691140893,9.627286371499999,0.9486649882752579,0.27851440604549915,-0.05732010329399777,10.623834576074792,0.9903641393930855,-0.040697597499999905,0.15327793949999968,0.06462582350000012
48862.0,3.5085251704999996,-2.5559071894999996,9.857154247499999,0.9571909216712502,0.36751398059244594,-0.0178826435159339,10.770603524983041,1.0254758775319293,-0.08855404950000034,0.1352337035000004,0.22986787600000014
48872.0,3.399573289,-2.528350503,10.2162737705,0.9881007027240697,0.415210338390947,0.023685863278815045,11.059923352677853,1.0720558026286635,-0.10895188149999946,0.02755668649999965,0.35911952300000216
48882.0,3.2331544384999997,-2.5499251329999995,10.5047854135,1.0072853618619915,0.4125452206231517,0.06951646410693414,11.282992616800726,1.090710730699198,-0.16641885050000038,-0.021574629999999484,0.28851164299999965
48892.0,3.051241081,-2.547571537,10.7011145465,0.9862349457536879,0.34886164687638255,0.10442304914682073,11.415517745938136,1.0513172642357782,-0.1819133574999996,0.0023535959999994027,0.196329132999999
48902.0,2.935130345,-2.5319789634999994,10.728671233,0.9366728309848048,0.2675903902572666,0.126806896803648,11.407466591647248,0.9823647990131242,-0.11611073599999999,0.01559257350000065,0.027556686500000538
48912.0,2.8896274889999995,-2.5655177065,10.5502882695,0.8743209434573075,0.1991089063967651,0.13506579482408518,11.235675800640509,0.9068209512941648,-0.04550285600000059,-0.033538743000000704,-0.1783829635000007
48922.0,2.852558352,-2.6014100454999998,10.313261538999999,0.8204949893258022,0.1618042389646383,0.12707218684995117,11.01216540686753,0.845895962826696,-0.037069136999999586,-0.03589233899999966,-0.23702673050000023
48932.0,2.8369657784999998,-2.6528949579999996,10.022298233499999,0.7943831183867152,0.1634029605594651,0.1081545630875846,10.748613323018887,0.8181946442100841,-0.015592573500000206,-0.05148491249999987,-0.29096330550000005
48942.0,2.8130375525,-2.6170026189999995,9.831951156999999,0.8109026597568415,0.1841863412922136,0.08097455064627691,10.556000498922955,0.835490640146075,-0.023928225999999775,0.035892339000000106,-0.19034707650000016
48952.0,2.7495885270000002,-2.4733351965,9.849995393,0.879384143617343,0.19724314942638316,0.05113116576642588,10.521408332736495,0.9026825179175012,-0.06344902549999976,0.14366742249999964,0.01804423600000149
48962.0,2.6861395014999996,-2.2363084659999997,10.051031717999999,0.9865019811292429,0.15381063099050427,0.021020745511019703,10.64141248015807,0.9986419482073929,-0.06344902550000064,0.23702673050000023,0.20103632499999868
48972.0,2.6633880734999997,-2.0028121294999996,10.133701777499999,1.0994823795985917,0.013384930033544514,-0.015484561123693692,10.667558491587519,1.099672874555419,-0.02275142799999985,0.2334963365,0.08267005949999984
48982.0,2.81058589,-1.8184471095,10.113303945499998,1.2063331817349368,-0.1896596938264678,-0.05732010329399777,10.652936666909357,1.2224958646386987,0.1471978165000003,0.18436501999999955,-0.02039783200000045
48992.0,3.1135133085,-1.6473210669999998,10.0091573225,1.307855493664943,-0.3503364500943178,-0.08529773120346687,10.610884135007035,1.3566493001224447,0.30292741849999993,0.1711260425000003,-0.10414662299999833
49002.0,3.4175194585,-1.507282105,9.922956869,1.3971203582581928,-0.3748513447678301,-0.07277324849115556,10.602660591441833,1.4483627901288085,0.3040061500000002,0.14003896199999977,-0.08620045350000005
49012.0,3.4786148879999996,-1.209159945,9.964831264499999,1.4461501476052177,-0.23149523599677188,-0.0034941491624926476,10.62359126856659,1.4645656362164734,0.061095429499999465,0.29812216000000014,0.04187439549999894
49022.0,3.307390779,-0.9601691014999999,10.058288638999999,1.431227582500666,-0.0018029251173101424,0.09429839415600162,10.631553452526399,1.434331841168591,-0.17122410899999974,0.2489908435,0.0934573744999998
49032.0,3.0344717094999996,-0.806891162,10.258148166,1.3512897574300737,0.24280846020819913,0.1851619803440784,10.727939955959798,1.3853609334209784,-0.27291906950000033,0.1532779394999999,0.19985952700000098
49042.0,2.6932983559999997,-0.748247395,10.683168377,1.2596250651153316,0.4554454136371723,0.24325002850895372,11.042817428984751,1.3613436031507788,-0.3411733534999999,0.05864376699999996,0.42502021099999965
49052.0,2.48500511,-0.7243191689999999,11.124859893,1.2116634172705274,0.5716232552961749,0.23125961654775265,11.422013670723167,1.3595449212853916,-0.20829324599999977,0.023928226000000108,0.44169151600000056
49062.0,2.4335201975,-0.7435402029999999,11.554587296,1.2279159232650985,0.5628302865246274,0.16677493667431817,11.831456383979205,1.3610177535727064,-0.05148491249999987,-0.01922103399999997,0.42972740299999934
49072.0,2.4203792865,-0.7243191689999999,11.844373803499998,1.2897354853707377,0.4591769275779362,0.10602177074164755,12.110824288467574,1.3731357139465858,-0.013140911000000255,0.01922103399999997,0.2897865074999988
49082.0,2.4682357385,-0.4980797535,12.075320411,1.3680763341757554,0.33740356033703983,0.08443902921148566,12.335057119039558,1.4115962483352176,0.04785645200000044,0.22623941549999993,0.23094660750000173
49092.0,2.5353132245,-0.2083913125,12.3171524,1.4304282217032527,0.2699884726495068,0.11295072787206502,12.577101547267391,1.4600604575617997,0.06707748599999963,0.289688441,0.24183198899999958
49102.0,2.4647053445,0.063350959,12.458466226499999,1.433360374846603,0.2555982329668136,0.17690133699438926,12.70008529483382,1.4666787323427564,-0.07060787999999985,0.2717422715,0.14131382649999935
49112.0,2.3245683159999997,0.19740786449999997,12.533879364999999,1.3587492946530975,0.26865504110098315,0.24884555409084752,12.749145840294176,1.4072310707982687,-0.14013702850000032,0.1340569055,0.07541313850000009
49122.0,2.158247532,0.30753654399999997,12.557807591,1.2433725591207603,0.2849092924248064,0.29627662184304543,12.745632296118414,1.3095527718787203,-0.16632078399999983,0.11012867949999999,0.023928226000000663
49132.0,2.1187267325,0.33146476999999996,12.594876728,1.141316176439644,0.2947686573693223,0.28668429227408454,12.776141501027501,1.2131278001129207,-0.03952079949999998,0.023928225999999997,0.037069136999999586
49142.0,2.1617779259999996,0.3027312855,12.5206403875,1.0608442806179414,0.2998318575293578,0.22992793032848097,12.709499035983185,1.1261245862045821,0.04305119349999975,-0.02873348449999996,-0.07423634049999883
49152.0,2.1642295885,0.24653918099999997,12.5541791305,0.996626636120062,0.33766885038334293,0.18089814098145626,12.74174575637847,1.0677120593838705,0.0024516625000003955,-0.056192104500000034,0.03353874299999937
49162.0,2.0959753045,0.29557243099999997,12.609292503499999,0.9420030665203954,0.4280001111495615,0.17130581141249543,12.785723795619175,1.0487609610876822,-0.068254284,0.04903325,0.0551133729999993
49172.0,1.8817000019999999,0.35784465849999997,12.651166899,0.8697918140483821,0.516465614945398,0.2006168708704882,12.795345700820164,1.0312718652636508,-0.21427530250000015,0.0622722275,0.041874395500000716
49182.0,1.5213056145,0.34107528699999995,12.672741529,0.7807922395014353,0.5612315649298005,0.2632357937735408,12.768284183278213,0.996950587473023,-0.36039438749999997,-0.01676937150000002,0.021574629999999928
49192.0,1.212494206,0.2093719775,12.628415471,0.6923267357055987,0.5329869016447764,0.3226555281576877,12.688217216486247,0.9313956925756017,-0.3088114085,-0.13170330949999995,-0.044326057999999335
49202.0,1.0352880405,0.0250069575,12.618804953999998,0.641432934717444,0.4756964689480625,0.34104257182744796,12.661227631703833,0.8683509521550419,-0.1772061654999999,-0.18436502,-0.009610517000002261
49212.0,1.0545090744999999,-0.18328628849999998,12.621256616499998,0.6409006092955858,0.41973946779987226,0.2949449356237738,12.666558405158835,0.8209307686245444,0.01922103399999986,-0.208293246,0.0024516625000003955
49222.0,1.1933712385,-0.19642719949999998,12.676271923,0.6640820724205745,0.39202712993670635,0.20568007103052374,12.73383635922107,0.7981193902768794,0.13886216400000007,-0.013140911000000005,0.055015306500001415
49232.0,1.2879073445,-0.0791396655,12.678723585499998,0.6409006092955858,0.4149433030153919,0.11428241409133671,12.74421438034477,0.7720051851401778,0.09453610600000006,0.11728753399999998,0.002451662499998619
49242.0,1.3430207174999997,0.07413827399999999,12.6559721575,0.5460402191204419,0.4842241476733068,0.06605373087097739,12.727247635789961,0.7328001374515538,0.055113372999999743,0.1532779395,-0.02275142799999763
49252.0,1.3214460875,0.1830901555,12.5721253,0.4106759729942658,0.566027729714281,0.06099053071094185,12.642708425258812,0.701970078020917,-0.021574629999999706,0.1089518815,-0.08384685750000109
49262.0,1.1825839235,0.247715979,12.530250904499999,0.28384115092258577,0.6179879268754042,0.07964286442700524,12.588369857614433,0.6847027549053358,-0.13886216400000007,0.06462582350000001,-0.041874395500000716
49272.0,1.0257755899999998,0.19740786449999997,12.495535363499998,0.20017181191122965,0.5913419851852068,0.10229200213013566,12.539122355511383,0.6326276562294741,-0.15680833350000012,-0.05030811450000003,-0.03471554100000063
49282.0,0.8809313694999998,0.1399408955,12.312347141499998,0.18125244281961111,0.46423838240871973,0.11454944946689184,12.344614844733133,0.5113622005024512,-0.1448442205,-0.05746696899999998,-0.18318822200000007
49292.0,0.8115002875,0.135135637,11.9748022485,0.2169583886569111,0.2843769670029481,0.10255903750569079,12.00302808659884,0.37210154251829275,-0.06943108199999981,-0.0048052584999999925,-0.3375448929999987
49302.0,0.843764166,0.11483587149999999,11.5593925545,0.2766451584166132,0.13728934429112596,0.06338861310318206,11.590715313311723,0.3152761075666617,0.03226387850000001,-0.02029976550000001,-0.41540969399999916
49312.0,0.9658569584999999,0.09443803949999999,11.098578070999999,0.3123511042539132,0.08026594696996722,0.0066322511575784525,11.140926056915983,0.3225675453715729,0.12209279249999982,-0.020397832000000005,-0.46081448350000187
49322.0,1.1322758089999998,0.016671304999999997,10.742988942,0.300093656917157,0.13995446205892131,-0.05651899716733238,10.802506091087904,0.3359134582193981,0.16641885049999994,-0.07776673449999999,-0.3555891289999984
49332.0,1.260350658,0.050210048,10.626878205999999,0.26039090709279,0.3035616261408698,-0.11034495129883751,10.70147397488771,0.4148844340765727,0.1280748490000001,0.033538743,-0.11611073600000132
49342.0,1.3357637965,0.272821003,10.8268357995,0.18897901541819,0.4948828734152362,-0.14978241107690135,10.912335664240393,0.5505060375110876,0.07541313850000009,0.222610955,0.19995759350000064
49352.0,1.2292635774999998,0.482291047,11.1655574905,0.09598438221342816,0.6187872876728175,-0.14205409314907047,11.243369942799406,0.6420981812735342,-0.10650021900000017,0.20947004399999997,0.33872169099999994
49362.0,1.061667929,0.628410132,11.427689245,-0.00020943951023931956,0.5913419851852068,-0.10128494715173494,11.494090636747044,0.5999533547095303,-0.16759564849999986,0.14611908499999998,0.26213175450000037
49372.0,1.017341871,0.6295869299999999,11.6970779205,-0.06149493086476821,0.450916284228247,-0.06637836211184835,11.758103421180017,0.45990565212978574,-0.044326058,0.0011767979999999234,0.2693886755000001
49382.0,1.094029874,0.5661379044999999,11.873009221499998,-0.06122789548921308,0.27931376684291254,-0.06851115445778541,11.936739984850977,0.29403879645236175,0.07668800300000012,-0.06344902549999998,0.17593130099999854
49392.0,1.260350658,0.5218118465,11.980784305,-0.003939208121751202,0.13728934429112596,-0.10741454348473901,12.058190741035867,0.17436102078316895,0.16632078399999983,-0.04432605799999989,0.10777508350000176
49402.0,1.477077623,0.609189098,12.083754129999999,0.06933844052323072,0.06481105644355743,-0.1647032308522009,12.188928727980215,0.19009325770441457,0.2167269650000001,0.08737725149999997,0.10296982499999885
49412.0,1.7751017165,0.7373620135,12.2848885215,0.12076456693324364,0.06294704480242748,-0.2222589535952179,12.434354620508314,0.26066348714228066,0.29802409350000003,0.12817291549999998,0.20113439150000012
49422.0,2.0169337054999996,0.9204521689999999,12.5182867915,0.12342968470103899,0.09811891988861722,-0.2643597858118251,12.71309395709959,0.3078121275388298,0.24183198899999958,0.18309015549999996,0.23339827000000035
49432.0,2.1222571264999996,1.0652963895,12.837885514999998,0.07280117375918747,0.13862277583964963,-0.2731544999126245,13.055655334172565,0.3148486393566298,0.10532342100000003,0.14484422050000012,0.3195987234999986
49442.0,2.1318676434999997,1.2963410635,12.9923402525,-0.020460494821129525,0.16739976454653213,-0.24624152284687195,13.229749243241548,0.29845636296200223,0.00961051700000004,0.23104467399999984,0.15445473750000183
