timestamp,ax,ay,az,gx,gy,gz,acc_mag,gyro_mag,dax,day,daz
100372.0,0.2058415835,-1.2753548325,9.979050907,-0.1331808392319313,0.09580112264196874,0.022596777825570583,10.06232367352474,0.16560677946896155,0.0,0.0,0.0
100382.0,0.107677017,-1.2322055725,9.4631230505,-0.16595637725513282,0.1296430568381388,0.07668976733263085,9.543616860592973,0.22412086415931448,-0.09816456650000001,0.043149259999999856,-0.5159278564999994
100392.0,0.33146476999999996,-1.3938191645,9.361428089999999,-0.1915359227723617,0.20318599552942387,0.1307810115104391,9.47042431157758,0.30834109596879355,0.22378775299999998,-0.16161359199999992,-0.10169496050000149
100402.0,0.18544375149999998,-1.3710677365,9.404479283499999,-0.17794678921633386,0.2820591697562996,0.1843399302663891,9.505706008331115,0.381055960360985,-0.1460210185,0.022751428000000073,0.043051193500000196
100412.0,-0.0946341725,-1.2944778,9.4858744785,-0.13770996864085658,0.29218382474711874,0.22564140168558292,9.574259398154785,0.3940170872710412,-0.280077924,0.07658993650000001,0.0813951950000007
100422.0,-0.36402284799999995,-1.366262478,9.569721336,-0.08761552845011533,0.24129002375896405,0.24855757476426846,9.67361112725493,0.35732089830275715,-0.26938867549999995,-0.07178467799999999,0.08384685750000109
100432.0,-0.6644986039999999,-1.5781841844999998,9.6906373305,-0.039652135276059174,0.14563027278640683,0.23603309205195713,9.840766006069043,0.2801643958953418,-0.300475756,-0.21192170649999986,0.1209159944999989
100442.0,-0.8907380194999999,-1.871501086,9.837835147,0.0008499753457212385,0.023057544748097087,0.1790114400600504,10.053801813932402,0.18049229485014548,-0.22623941549999993,-0.29331690150000034,0.1471978165000003
100452.0,-0.9829205295,-2.034291476,9.939628174,0.030960395601127413,-0.10031454408762609,0.0910782616860721,10.193168438420576,0.13898490422719734,-0.0921825100000001,-0.16279038999999984,0.10179302699999937
100462.0,-0.9972382384999999,-1.9337733135,9.8881432615,0.034957199588194425,-0.19171220102681313,-0.004581489286485115,10.124689649183289,0.19492707320861372,-0.014317708999999956,0.10051816250000001,-0.051484912499999425
100472.0,-0.8823043004999999,-1.7673544629999998,9.743299040999998,0.016837191293989296,-0.23514471946269203,-0.07919082415073872,9.941522965769295,0.248692011796784,0.11493393800000007,0.16641885050000016,-0.14484422050000134
100482.0,-0.6847983695,-1.62005858,9.516961558999999,-0.015936601399960223,-0.20583366000469927,-0.1263548565273815,9.678124607845529,0.2420475585978229,0.1975059309999999,0.14729588299999974,-0.22633748199999992
100492.0,-0.389127872,-1.5985820164999998,9.31827883,-0.050577896393543674,-0.10431134807469311,-0.1428761432267598,9.462410122049807,0.183990687927703,0.29567049749999996,0.021476563500000267,-0.19868272899999795
100502.0,-0.17485256949999997,-1.5566095545,9.2560066025,-0.07002959090702049,0.032649874317057924,-0.13061869589000363,9.387612313668743,0.15176100161612527,0.21427530250000001,0.04197246199999971,-0.062272227500001165
100512.0,-0.1497475455,-1.411765334,9.2632635235,-0.07509279106705603,0.14403155119158004,-0.08931722447080981,9.371422346232883,0.18536877190093887,0.025105023999999976,0.1448442205,0.00725692099999975
100522.0,-0.21319657099999997,-1.3926423664999998,9.3577996295,-0.07269470867481581,0.19519238755528984,-0.03229382714965108,9.463261564847883,0.21077827236416555,-0.06344902549999998,0.0191229675000002,0.0945361060000014
100532.0,-0.3460766785,-1.4644270444999998,9.43203597,-0.0662980769662566,0.1840013363915022,0.02366317399853912,9.551314997184337,0.19700729074571724,-0.13288010750000004,-0.07178467799999999,0.07423634049999883
100542.0,-0.45375369549999994,-1.586519837,9.423602251,-0.06096958675991791,0.12378049588068984,0.063098888447351,9.5669857841656,0.15172465651118106,-0.10767701699999993,-0.12209279250000016,-0.008433718999999229
100552.0,-0.5040618099999999,-1.7349925179999999,9.361428089999999,-0.04951150022057514,0.03851243527450687,0.07802145355190251,9.53418130885172,0.1001096575721682,-0.0503081145,-0.14847268099999988,-0.062174161000001504
100562.0,-0.5160259229999999,-1.7864774305,9.2057965545,-0.03378957431861022,-0.04435754293943589,0.07642273195707572,9.391723727076831,0.09460317599340852,-0.011964112999999998,-0.05148491250000009,-0.15563153549999953
100572.0,-0.517202721,-1.7409745744999998,8.965141363499999,-0.025530676298173054,-0.10777582663990183,0.06629633163700462,9.147253729464591,0.12908387904258212,-0.0011767980000000344,0.04550285600000015,-0.2406551910000001
100582.0,-0.492097697,-1.6380047495,8.740078746,-0.02179916235740918,-0.12882624274820545,0.05190783728356335,8.905851794694216,0.14059099498744979,0.025105023999999976,0.10296982499999974,-0.225062617499999
100592.0,-0.470523067,-1.5231688780000001,8.578465154,-0.01913578991886583,-0.09232093611349206,0.041783182292744254,8.7253366574522,0.10312695100311628,0.021574629999999984,0.11483587149999996,-0.16161359200000014
100602.0,-0.4550285599999999,-1.384306714,8.4120463035,-0.018868754543310697,-0.016379915029966784,0.03298846819194482,8.537322711545416,0.04138321577711905,0.015494507000000102,0.13886216400000007,-0.1664188504999995
100612.0,-0.492097697,-1.2286751785,8.244450655,-0.03032684108265347,0.07661646350404708,0.02126509160629891,8.35001613413918,0.08509996410659514,-0.037069137000000085,0.15563153549999997,-0.16759564850000075
100622.0,-0.550741464,-1.0574510695,8.1415788965,-0.058571504367677704,0.1528245199631275,0.009539969691401005,8.228415755933199,0.16394195938674788,-0.05864376700000001,0.17122410900000018,-0.10287175849999919
100632.0,-0.597421118,-0.8994659379999999,8.0601837015,-0.09960594041131639,0.19545942293084495,0.005810201079889122,8.132189881439121,0.21945270063107078,-0.04667965399999996,0.15798513150000004,-0.0813951950000007
100642.0,-0.6082084329999999,-0.960463301,8.04341433,-0.15156613757243959,0.21171367425466817,0.011672762037338075,8.123356531298468,0.260636197214853,-0.010787314999999964,-0.06099736300000014,-0.016769371500000574
100652.0,-0.6525344909999999,-1.1556156359999998,8.058908836999999,-0.23177274334783898,0.23889194136672387,0.010873401239924673,8.16745127951119,0.3330258174128094,-0.044326058,-0.19515233499999984,0.015494506999999658
100662.0,-0.725495967,-1.3986244229999998,8.023016497999999,-0.37965798152782254,0.2700687577950986,-0.03922278428006857,8.17626371895657,0.46756362527622786,-0.07296147600000003,-0.24300878699999995,-0.035892339000000106
100672.0,-0.8344478485,-1.5087531024999998,7.924851931499999,-0.5653837032202952,0.26207340449171257,-0.1383470138178345,8.110235340134645,0.6383424609418393,-0.10895188150000001,-0.11012867950000005,-0.0981645664999995
100682.0,-0.9530102469999999,-1.317229228,7.888959592499999,-0.7220636555010781,0.19785750532308516,-0.24120101196711236,8.05475045063981,0.7865757707825822,-0.11856239849999994,0.19152387449999986,-0.035892339000000106
100692.0,-1.0666693205,-0.7473647965,7.7261692025,-0.8241182928529425,0.08780751466783471,-0.309947785873917,7.835178882706056,0.8848439129107087,-0.11365907350000004,0.5698644315,-0.16279038999999873
100702.0,-1.071474579,-0.138077632,7.4592321895,-0.8928650667597472,-0.056882025651747194,-0.335794366766701,7.537059643042166,0.9556157434002349,-0.00480525850000002,0.6092871645,-0.2669370130000006
100712.0,-0.839253107,0.312047603,6.9815502679999994,-0.9496214287053508,-0.18531556931825394,-0.31740906842619276,7.038733098275432,1.0182687439017875,0.23222147199999998,0.450125235,-0.47768192150000033
100722.0,-0.4753283255,0.5131819945,6.3877576105,-1.0109086653891317,-0.2737810731140905,-0.24359909435935256,6.4259427376068565,1.0752827184173637,0.3639247815,0.2011343915,-0.5937926574999999
100732.0,-0.0791396655,0.4461045085,5.843096269499999,-1.0759256706844245,-0.2969642815683312,-0.12555549572996808,5.860635318274316,1.1231954486522466,0.39618865999999997,-0.06707748600000002,-0.5446613410000003
100742.0,0.11248227549999999,0.2354576665,5.373848067,-1.1201575499177168,-0.2615253711065863,0.017001252243676764,5.380179887533029,1.1504075360271042,0.191621941,-0.210646842,-0.4692482024999993
100752.0,0.0669794195,-0.021966895999999996,5.124857223499999,-1.124688424655894,-0.2442047236097946,0.1571599178250814,5.125341973801998,1.161576187496575,-0.045502855999999994,-0.2574245625,-0.24899084350000056
100762.0,-0.2646814835,-0.26497568299999996,5.140449797,-1.0708624705243888,-0.26712089668848016,0.2666775830584736,5.154075330819915,1.1354368927999319,-0.33166090299999995,-0.24300878699999998,0.015592573500000206
100772.0,-0.805714364,-0.463658412,5.184677788499999,-0.9749356841762764,-0.3723729772299982,0.3223675488311087,5.267355933477396,1.0922829573836508,-0.5410328805,-0.19868272900000006,0.044227991499999675
100782.0,-1.2450522839999998,-0.6192899475,5.209880878999999,-0.8491655129483131,-0.5421097376449507,0.3146392309032778,5.392266128664086,1.0554444000768848,-0.4393379199999998,-0.15563153549999997,0.025203090499999803
100792.0,-1.4246120455,-1.0095946175,5.1021057955,-0.7116702198054519,-0.7171749882662419,0.26641054768291844,5.392613867165287,1.0448870969962913,-0.1795597615000002,-0.3903046699999999,-0.10777508349999909
100802.0,-1.29055514,-1.4967889894999997,4.881848436499999,-0.5797721975737363,-0.8456102772620007,0.17794504388708185,5.266721371539066,1.0406041421859575,0.13405690550000005,-0.4871943719999998,-0.22025735900000054
100812.0,-1.000866699,-1.7768669134999997,4.5131183964999995,-0.49103965840234465,-0.875987732892962,0.06416528462031953,4.952497131577655,1.0062761241593925,0.289688441,-0.280077924,-0.36873004
100822.0,-0.6441007719999999,-1.6846844035,4.0247472265,-0.44361033597939875,-0.7968475232905311,-0.05867447879354537,4.410398800687596,0.9138921161842369,0.356765927,0.09218250999999977,-0.48837116999999974
100832.0,-0.310086273,-1.4297115034999999,3.7170145494999995,-0.3916501388182756,-0.6641501402614022,-0.1482046334330985,3.9945494916370663,0.7851432056743877,0.3340144989999999,0.25497290000000006,-0.3077326770000002
100842.0,-0.1293497135,-1.166402951,3.6320889604999995,-0.2869303836986158,-0.4773597677252131,-0.19563570118529638,3.8169749029133015,0.5903174743393311,0.18073655950000003,0.26330855249999985,-0.08492558900000002
100852.0,-0.19397553699999998,-1.123253691,3.827143229,-0.1262536274307658,-0.3316038312326627,-0.19910017975050515,3.9932882012922764,0.40686848108976237,-0.06462582349999998,0.04314926000000008,0.1950542685000003
100862.0,-0.33528936349999994,-1.282513687,4.261773957,0.11489502465878672,-0.2332789624923101,-0.19483634038788297,4.463180208683267,0.3249325169455572,-0.14131382649999996,-0.15925999600000007,0.43463072800000013
100872.0,-0.5351488904999999,-1.6464384685,4.844681233,0.42639091757922265,-0.1370868860978946,-0.19004017560340258,5.144713812734621,0.486536018479044,-0.19985952699999998,-0.36392478149999996,0.5829072760000003
100882.0,-0.620172546,-2.0198757004999996,5.488782004999999,0.7083069703368587,-0.03796265656012866,-0.20842547394391084,5.881431775570834,0.7393112373754547,-0.08502365550000013,-0.3734372319999997,0.6441007719999989
100892.0,-0.435807526,-2.3383956925,5.997551007,0.8777784407055081,0.11418816631172901,-0.25905398488576237,6.452026092320731,0.9223030387991905,0.18436502000000005,-0.31851999200000014,0.5087690020000011
100902.0,-0.15210114149999998,-2.4244980794999997,6.393739666999999,0.9217432845632453,0.3473414650978955,-0.3200741861939881,6.839680739925955,1.035714372151674,0.2837063845,-0.08610238699999995,0.3961886599999991
100912.0,0.0550153065,-2.1552074704999997,6.733736222499999,0.9033579862227371,0.6524424716390242,-0.3672382185706309,7.070441955002308,1.173286298926979,0.20711644799999998,0.269290609,0.33999655549999996
100922.0,0.096889702,-1.7733365194999997,7.302325789499999,0.843671216463035,0.9658023762005902,-0.37443246574735145,7.51518941622517,1.3359472380182404,0.041874395499999995,0.381870951,0.5685895670000001
100932.0,-0.2083913125,-1.2908493394999998,8.0625372975,0.8146254470513453,1.1733761294695277,-0.32806779416812215,8.167877731087291,1.4656243167206362,-0.3052810145,0.4824871799999999,0.7602115080000011
100942.0,-0.7279476295,-1.1687565469999999,8.889728224999999,0.8865714094770556,1.173908454891386,-0.24413141978121083,8.995730516851406,1.491197530407023,-0.519556317,0.12209279249999994,0.8271909274999985
100952.0,-1.0774566355,-1.5770073865,9.550500302,1.0547094482971813,0.9711308664069289,-0.16046208076985466,9.73960579884836,1.4426556274387206,-0.3495090059999999,-0.4082508395000002,0.6607720770000007
100962.0,-0.9900793839999998,-2.345554547,9.9599279395,1.25642064060867,0.7073330766142459,-0.12608956648107836,10.280177424519819,1.4473463601348027,0.08737725150000009,-0.7685471604999998,0.40942763750000033
100972.0,-0.6130136915,-2.8267668625,10.138310902999999,1.387254011996669,0.5423924809837738,-0.15113678657644897,10.542852775543402,1.4971658643868564,0.3770656924999999,-0.4812123155000001,0.17838296349999894
100982.0,-0.25389416849999996,-2.6184736165,10.231670210999999,1.393648898375976,0.5482550419412228,-0.21881716431028508,10.564465989143496,1.513513063820507,0.359119523,0.20829324599999977,0.09335930800000014
100992.0,-0.0911037785,-1.8858187949999998,10.475855796,1.2862640254885211,0.7086647628335175,-0.2763746323825541,10.644630904104613,1.4943439452724439,0.16279038999999995,0.7326548215000004,0.24418558500000032
101002.0,-0.1856398845,-1.2981062604999998,10.844585835999998,1.1644906582476247,0.8943904845259901,-0.2896967305630268,10.923579266185524,1.4966285536683872,-0.094536106,0.5877125345,0.3687300399999991
101012.0,-0.31616639599999996,-1.119723297,11.372477805499999,1.125321979174368,1.0185619341591268,-0.2601203810587309,11.43184118540816,1.5399612278148556,-0.13052651149999997,0.17838296349999982,0.5278919695000006
101022.0,-0.6477292324999999,-1.1759154015,11.965093665,1.1647576936231796,1.0126993732016778,-0.20762611314649745,12.040174276244636,1.5573468169286449,-0.33156283649999996,-0.056192104500000006,0.5926158595000004
101032.0,-1.0128308119999998,-1.4991425855,12.5588863225,1.260684479971292,0.8317715616229375,-0.176983367469233,12.688533422223143,1.520688134078088,-0.3651015794999999,-0.32322718400000006,0.5937926574999999
101042.0,-1.0319537795,-1.997222339,12.983808467,1.3805920902418065,0.5394620731696753,-0.1951033757634381,13.176991613496831,1.495031496411047,-0.0191229675000002,-0.4980797534999999,0.4249221445
101052.0,-0.8775971085,-2.1324560425,13.155032575999998,1.4677259078183713,0.27140044401437025,-0.25425782010128195,13.355614082986357,1.5141085101719478,0.15435667100000006,-0.13523370349999997,0.17122410899999885
101062.0,-0.7913966549999999,-1.6680130985,13.271143312,1.4933054533356005,0.12111537811289451,-0.3238039548055,13.398948509862821,1.532801067629115,0.08620045350000005,0.46444294399999997,0.11611073600000132
101072.0,-0.6920552904999999,-1.0838309579999998,13.304682054999999,1.4781175981847456,0.07821518509887389,-0.3608415868620717,13.366682260578623,1.523534016703477,0.09934136449999997,0.5841821405000001,0.03353874299999937
101082.0,-0.481310382,-0.7162777159999999,13.36450262,1.4477401425537844,0.153890916136096,-0.3565794928287015,13.39233526052294,1.4989272394405382,0.21074490849999994,0.36755324199999995,0.05982056500000077
101092.0,-0.5004333495,-0.4804277835,13.5895652375,1.4197625146443154,0.3201631979858398,-0.3301988411848072,13.60726011130525,1.4924012014379577,-0.019122967499999977,0.23584993249999991,0.22506261750000078
101102.0,-0.7410885405,-0.3727507665,13.930738590999999,1.4304212403862446,0.455525698782764,-0.3014218524779247,13.955415903854798,1.5311641715867284,-0.240655191,0.10767701699999999,0.34117335349999856
101112.0,-0.966151158,-0.3619634515,14.225232290499997,1.4621303822364775,0.5224084610484387,-0.2825024833863062,14.262597916193611,1.5781455914944655,-0.2250626175,0.01078731500000002,0.2944936994999985
101122.0,-1.061864062,-0.46130481599999995,14.265929887999999,1.4562678212790288,0.5501207989116047,-0.29156248753340874,14.312830362606956,1.5837795126925278,-0.09571290399999999,-0.09934136449999997,0.04069759750000124
101132.0,-1.0595104659999999,-0.554664124,14.176100973999999,1.3880533727940823,0.5863590701707629,-0.3323316335307443,14.226456113279228,1.5430338426430452,0.002353596000000069,-0.09335930800000003,-0.08982891399999993
101142.0,-0.9649743599999999,-0.428942871,13.918774477999998,1.2598851191738787,0.6732258523717728,-0.3944164856826866,13.958776825763183,1.4819270987453328,0.09453610599999995,0.12572125299999998,-0.257326496000001
101152.0,-0.9482049884999999,-0.036284605,13.6709604325,1.0973426059356468,0.8424302873648669,-0.4623638987920778,13.703852320415486,1.4586397631963484,0.01676937150000002,0.392658266,-0.24781404549999841
101162.0,-1.1229594914999999,0.4916073645,13.731957795499998,0.9625124305605809,1.0643925349872458,-0.5316447434499927,13.7865652255293,1.5303619770362242,-0.17475450299999995,0.5278919695,0.06099736299999847
101172.0,-1.544351242,0.948891454,14.353307139499998,0.9225426453606587,1.2090820753068279,-0.5881340700200413,14.467302498771593,1.6306029810029317,-0.4213917505000002,0.4572840895,0.6213493440000004
101182.0,-2.1584436649999996,1.3236035505,15.209231551499999,1.0072783805449834,1.0761176569021438,-0.6273044944225499,15.418544996238065,1.6019206834711308,-0.6140924229999996,0.3747120964999999,0.8559244120000002
101192.0,-2.643284441,1.4385374884999997,15.990919622999998,1.184741713558515,0.5754333090532785,-0.6462238635141685,16.27162724287583,1.4670861265749706,-0.4848407760000004,0.11493393799999985,0.7816880714999996
101202.0,-2.655248554,1.2098464105,16.3752422365,1.3640725488716803,-0.1858496400693642,-0.639294906383751,16.63317863562381,1.5178708721849181,-0.011964112999999887,-0.22869107799999977,0.38432261350000196
101212.0,-2.0901893809999996,0.7214752404999999,16.251874579499997,1.445342060161544,-0.9703140523169955,-0.6355651377722391,16.40161106473684,1.8532312525282133,0.5650591730000003,-0.4883711700000001,-0.12336765700000285
101222.0,-1.3288991414999998,0.279685658,15.776644320499999,1.3574106271168178,-1.5879756026222769,-0.6185115256510024,15.834983517867494,2.1787121499859468,0.7612902394999999,-0.4417895824999999,-0.47523025899999816
101232.0,-0.8105196225,0.395796394,14.998486643,1.1231891868284307,-1.9125265583476303,-0.5905338977415333,15.025584794749598,2.2952215732201435,0.5183795189999998,0.11611073599999999,-0.7781576774999994
101242.0,-0.7949270489999999,0.960855567,14.164136861,0.8060995136553532,-1.9479654688093753,-0.5369732336563314,14.218928421333503,2.175478372048884,0.015592573500000095,0.565059173,-0.8343497820000003
101252.0,-0.8404299049999999,1.0937356745,13.363325821999998,0.4714221576099284,-1.7824925477570448,-0.45783476938315254,13.43432384512984,1.8997713571772592,-0.045502856000000036,0.1328801075,-0.800811039000001
101262.0,-0.7650167665,0.764526434,12.726481970999998,0.1529990528883269,-1.4576745566561362,-0.3925507287123046,12.772356661145151,1.51733974373571,0.07541313849999998,-0.3292092405,-0.6368438510000001
101272.0,-0.6620469415,0.254580634,12.2715514775,-0.1222568234436988,-1.0379961753800837,-0.3445873355382485,12.292033725827869,1.1005104373860226,0.10296982499999996,-0.5099458,-0.45493049349999914
101282.0,-0.5782981505,-0.19554460099999998,11.918414011,-0.3362254630919436,-0.6241803550614801,-0.3155433114558108,11.934037832161128,0.7760259396956819,0.08374879099999999,-0.45012523499999996,-0.3531374664999998
101292.0,-0.46218741449999995,-0.48886150249999993,11.598815287499999,-0.497701580157207,-0.2719170614729606,-0.30035545630495614,11.618309638165632,0.6417625350105979,0.11611073600000005,-0.29331690149999995,-0.3195987235000004
101302.0,-0.330484105,-0.6732265225,11.341390725,-0.6064181392639337,-0.01051735407251783,-0.2918277775797119,11.36616018149362,0.6730653951378961,0.13170330949999998,-0.1843650200000001,-0.2574245624999989
101312.0,-0.2993970245,-0.7737446849999999,11.1845823915,-0.6367955948948951,0.10592752296203986,-0.28383416960557784,11.215311082983701,0.7051887021458191,0.031087080499999975,-0.1005181624999999,-0.15680833350000078
101322.0,-0.33881975749999993,-0.7246133684999999,11.130743883,-0.5741766719918425,0.07182029871956666,-0.27291015381734535,11.159449930477003,0.6397788352426195,-0.03942273299999993,0.04913131650000002,-0.05383850850000016
101332.0,-0.4035436475,-0.5594693824999999,11.131920681,-0.43268457486191425,-0.0949860538812874,-0.25745526329093554,11.153273578347662,0.51236852396647,-0.06472389000000006,0.16514398600000002,0.0011767980000012557
101342.0,-0.529166834,-0.2840986505,11.203705358999999,-0.2520237986587292,-0.33639999601714304,-0.2398675804185887,11.219792482604426,0.4839601311539801,-0.12562318649999998,0.2753707319999999,0.07178467799999844
101352.0,-0.6704806605,-0.055505638999999996,11.250385012999999,-0.08308639904119007,-0.6060603467672749,-0.23027525084962785,11.270483047891084,0.653635360719691,-0.14131382650000002,0.2285930115,0.04667965400000007
101362.0,-0.605854837,0.092967042,11.204882156999998,0.03229208182039909,-0.846142602683859,-0.23320740399297835,11.22163477870633,0.8782857028906108,0.06462582350000001,0.148472681,-0.04550285600000059
101372.0,-0.2801759905,0.15641606749999998,11.052879082,0.07146250622290783,-0.9777753348692713,-0.24972694536310464,11.057535917786476,1.011689202529493,0.32567884649999995,0.06344902549999998,-0.15200307499999788
101382.0,0.11964113,0.29763182749999995,10.77750835,0.031492721022985684,-0.9687153307221688,-0.26971271062769175,10.782281063812443,1.00605473495617,0.3998171205,0.14121575999999997,-0.27537073200000073
101392.0,0.584084074,0.49043056649999994,10.523810314499999,-0.06123662213547305,-0.8453432418864456,-0.2803714363696211,10.551410326664133,0.892727989269751,0.46444294399999997,0.192798739,-0.25369803550000114
101402.0,0.9036827974999999,0.7621728379999999,10.311888608,-0.16036085167323902,-0.6598863008987801,-0.26997800067399486,10.379431424566693,0.7307897465832218,0.31959872349999996,0.27174227149999997,-0.2119217064999983
101412.0,1.024598792,1.06500219,10.093984845,-0.2256431470148349,-0.4800231401637564,-0.24040165116969894,10.201596071221518,0.5823486917410816,0.12091599450000001,0.30282935200000005,-0.2179037630000007
101422.0,1.0413681635,1.2625081209999998,9.940804971999999,-0.2458942023257251,-0.3505232003242812,-0.19190593257378452,10.074620484111657,0.4692103575796198,0.01676937150000013,0.1975059309999998,-0.1531798730000009
101432.0,0.9875296549999999,1.4169628585,9.7947839535,-0.23177274334783898,-0.24766920217500335,-0.12955229971703508,9.945893185511997,0.3631011382892629,-0.05383850850000016,0.15445473750000027,-0.14602101849999904
101442.0,0.8390569739999999,1.5450377075,9.720547612999999,-0.20406040548467302,-0.15040898427836735,-0.054942964852781495,9.878269282612965,0.25938820525427386,-0.148472681,0.12807484899999988,-0.07423634050000061
101452.0,0.6870538989999999,1.5066937059999999,9.663080643999999,-0.18887080500456638,-0.054483943259506985,0.03165678197267315,9.80394290662071,0.19910508004830885,-0.152003075,-0.03834400150000006,-0.057466969000000034
101462.0,0.689407495,1.3618494854999998,9.642682812,-0.20192761313873595,0.06222796915060583,0.12491845055299015,9.762748000852989,0.24546221782807143,0.002353596000000069,-0.1448442205,-0.020397831999998672
101472.0,0.6882306970000001,1.2002358935,9.542164649499998,-0.249625716266489,0.2229047254184558,0.21418331514624014,9.641946582018917,0.3973336221898022,-0.0011767979999999234,-0.16161359199999992,-0.100518162500002
101482.0,0.5936945909999999,1.099717731,9.4642998485,-0.3223692941603607,0.4030331761997826,0.2831971244285999,9.546456095199703,0.5886920368238067,-0.09453610600000018,-0.10051816250000001,-0.0778648009999987
101492.0,0.422470482,0.9776249385,9.527748873999998,-0.38631990328268484,0.5541176028986717,0.3255649920207623,9.58708664999679,0.7498546189388927,-0.1712241089999999,-0.12209279249999994,0.06344902549999887
101502.0,0.1399408955,0.8590625399999999,9.619931384,-0.41083479795619726,0.5991488429293774,0.34501668653423906,9.659226249277566,0.8042394426925271,-0.2825295865,-0.11856239850000005,0.09218251000000066
101512.0,-0.0934573745,0.7429518039999999,9.6570985875,-0.37646053833816895,0.5029567665349619,0.33782243935751843,9.686086144186916,0.713310624106099,-0.23339827,-0.11611073599999999,0.03716720350000102
101522.0,-0.26340661899999995,0.5718257615,9.685832072,-0.2922588739049545,0.3257587235677336,0.31304050930845095,9.706271718607093,0.5380783918954241,-0.16994924449999996,-0.17112604249999996,0.028733484500000017
101532.0,-0.3843226135,0.4557150254999999,9.6822036115,-0.1944680759157122,0.15788772012316304,0.28612927757195034,9.700538481458521,0.3802845358411195,-0.12091599450000007,-0.11611073600000005,-0.003628460499999875
101542.0,-0.4310022675,0.3635325155,9.612772529499999,-0.10014001116242664,0.01879370538547494,0.26028095134991436,9.629294602842188,0.27951278831807225,-0.04667965399999996,-0.09218250999999994,-0.06943108200000125
101552.0,-0.3376429595,0.368337774,9.526572075999999,-0.052708943410228755,-0.04728795075353436,0.2466918177938865,9.539667237544407,0.2566539225656672,0.09335930799999997,0.00480525850000002,-0.08620045350000005
101562.0,-0.23830159499999998,0.48797890399999994,9.420071857,-0.052708943410228755,-0.03183306022712458,0.24695885316944163,9.435712206928104,0.2545196487456563,0.09934136450000003,0.11964112999999993,-0.10650021899999906
101572.0,-0.240655191,0.5419154789999999,9.398497227,-0.07242767329926068,0.020127136933998608,0.25761757891137105,9.417183094389836,0.2683611120577288,-0.0023535960000000133,0.05393657499999999,-0.021574629999999928
101582.0,-0.27066354,0.5023946794999999,9.4140898005,-0.0801542458978396,0.06782349473249964,0.27093967709184374,9.4313703107106,0.2905736364431799,-0.03000834899999999,-0.03952079949999998,0.015592573499999318
101592.0,-0.42266661499999997,0.3898143375,9.533730930499999,-0.06283534373029985,0.05823116516353881,0.2693409554970169,9.55105375025858,0.2826370452117951,-0.152003075,-0.11258034199999994,0.11964112999999976
101602.0,-0.632136659,0.2737036015,9.653470127,-0.01780235837034216,-0.012116075667344637,0.2394975706171659,9.678016114370092,0.24046373860656678,-0.20947004400000008,-0.11611073599999999,0.1197391965000012
101612.0,-0.7758040814999999,0.19230840649999997,9.7743861215,0.035489525010052696,-0.10404605802838997,0.1928658636623814,9.80701170327916,0.22199623857832038,-0.14366742249999986,-0.08139519500000003,0.1209159944999989
101622.0,-0.8332710504999999,0.21143137399999998,9.7887038305,0.07572634558552997,-0.1679966671507142,0.14650293741240403,9.826381152324505,0.2354155268030334,-0.057466969000000034,0.019122967500000004,0.014317709000000178
101632.0,-0.7889449924999999,0.289296175,9.748006233,0.09198059690935316,-0.1898464440564312,0.12012228576850974,9.784158216048395,0.24275804016947425,0.044326058,0.07786480100000001,-0.04069759749999946
101642.0,-0.6345883215,0.3743198305,9.720547612999999,0.08025547499445526,-0.15920369837916676,0.1275835683207855,9.74842877441743,0.21923577661881485,0.15435667099999995,0.08502365550000002,-0.027458620000000877
101652.0,-0.5519182619999999,0.45090976699999996,9.745652637,0.05307720788239956,-0.09445198313017712,0.15289782379171127,9.77167737427767,0.18739293378901967,0.08267005950000006,0.07658993649999996,0.025105024000000142
101662.0,-0.5268132379999999,0.429335137,9.7408473785,0.023766148424406785,-0.025972244598927618,0.18940313042642465,9.764526025303285,0.1926471726129576,0.02510502400000003,-0.021574629999999984,-0.004805258499999354
101672.0,-0.5220079795,0.361080853,9.786350234499999,0.0013823007675795092,0.034780921333743,0.2115181973784448,9.806911982136022,0.2143631756306638,0.004805258499999909,-0.068254284,0.045502855999998815
101682.0,-0.6429239739999999,0.20907777799999996,9.873727485999998,-0.012739158210306611,0.07421838111180687,0.2029922639824525,9.896845922888222,0.21650984615828978,-0.1209159944999999,-0.15200307500000002,0.08737725149999953
101692.0,-0.8380763089999999,0.03667687099999999,10.0150413125,-0.020467476138137503,0.08727518924597645,0.15343014921356954,10.0501129139754,0.17769830310130832,-0.19515233499999995,-0.17240090699999996,0.14131382650000113
101702.0,-0.957717439,-0.112972608,10.0880027885,-0.030592131128956607,0.07634942812849195,0.0724259279700087,10.133991600741872,0.10959301394192936,-0.1196411300000001,-0.149649479,0.07296147600000147
101712.0,-0.930258819,-0.116503002,10.1119310145,-0.047645743250193204,0.05743180436612541,-0.01683893662324129,10.155299269928449,0.07649888096706885,0.02745861999999999,-0.0035303939999999923,0.023928225999998887
101722.0,-0.8488636239999999,0.0055897905,10.032987482,-0.06336766915215812,0.0558330827712986,-0.0901165852682232,10.06883501264555,0.1235062490966712,0.08139519500000003,0.12209279249999999,-0.0789435325000003
101732.0,-0.7063729994999999,0.15641606749999998,9.9120714875,-0.07375935951853235,0.06755645935694451,-0.12768828807590515,9.938440017120657,0.16219931328210346,0.14249062450000005,0.15082627699999998,-0.1209159944999989
101742.0,-0.5806517465,0.30243708599999997,9.8642150355,-0.0756251164889143,0.0931377502034254,-0.13781294306672426,9.885917403472776,0.18271892631479014,0.12572125299999992,0.1460210185,-0.047856452000001326
101752.0,-0.538777351,0.405406911,9.916876745999998,-0.06523342612254006,0.10779327993242178,-0.12928700967073195,9.939772642912546,0.18052679012233688,0.04187439549999994,0.10296982500000001,0.052661710499998904
101762.0,-0.5471130034999999,0.48680210599999996,10.082020732,-0.036189402040102424,0.059562851382810485,-0.11649549158286551,10.108583034702868,0.13575200051566247,-0.008335652499999902,0.08139519499999998,0.16514398600000213
101772.0,-0.6238010064999999,0.5178891865,10.3059065515,0.021633356078469716,-0.09338733228646058,-0.11036764057911343,10.33774863079262,0.14618553968775444,-0.076688003,0.031087080500000086,0.22388581949999953
101782.0,-0.6034031745,0.460520284,10.414858433,0.10610205588723928,-0.3129514975165993,-0.10850188360873149,10.442482966344897,0.34780590105405573,0.020397831999999894,-0.05736890250000004,0.10895188149999946
101792.0,-0.5076902704999999,0.4784664535,10.438786659,0.1887049987256269,-0.5338490942952615,-0.10637083659204641,10.462071805813684,0.5761242807773351,0.0957129040000001,0.017946169499999998,0.023928226000000663
101802.0,-0.3688281065,0.5286765015,10.310711809999999,0.24732711764161244,-0.7001213761450054,-0.08798553825153814,10.330842707362072,0.7477179276956631,0.13886216399999995,0.05021004800000001,-0.12807484900000077
101812.0,-0.2119217065,0.6675386655,10.17538004,0.26944392992288463,-0.7683358246299516,-0.0488151138490294,10.199454771606852,0.8156732716732661,0.15690639999999997,0.13886216399999995,-0.13533176999999874
101822.0,-0.099439431,0.73942141,10.044951594999999,0.23986583508933668,-0.7177090590173522,-0.004049163864626845,10.072620551172223,0.7567419031391618,0.1124822755,0.07188274449999998,-0.1304284450000015
101832.0,0.016671304999999997,0.7214752404999999,9.8569581145,0.1396769547078542,-0.5567652673739472,0.024195499420397393,9.883340919247514,0.5745281862734372,0.11611073599999999,-0.017946169500000053,-0.18799348049999942
101842.0,0.12199472599999998,0.5945771895,9.627188304999999,-0.017270032948483893,-0.30948701895139047,0.024462534795952524,9.646302888017475,0.3109322828946895,0.10532342099999999,-0.12689805099999985,-0.22976980950000048
101852.0,0.18544375149999998,0.5885951329999999,9.368586944499999,-0.17608103224595192,-0.03423288794861678,-0.001918116847941768,9.388889974444131,0.17938812587890224,0.06344902549999999,-0.005982056500000166,-0.25860136050000015
101862.0,0.15553346899999998,0.473661195,9.1973628355,-0.26721165380958384,0.17947046165332492,-0.022968532956245378,9.210864710517933,0.32270616362857496,-0.029910282499999996,-0.1149339379999999,-0.17122410899999885
101872.0,0.16867437999999998,0.383832281,9.144701125,-0.26161612822769004,0.3097715076194656,-0.027764697740725795,9.154307015388019,0.40641390714678755,0.013140911000000005,-0.08982891399999998,-0.05266171050000068
101882.0,0.12317152399999999,0.3396042895,9.192557576999999,-0.18007783623301896,0.36732723036248255,-0.014707889606556215,9.199653096950524,0.4093575982986232,-0.045502855999999994,-0.04422799150000001,0.04785645199999955
101892.0,0.06815621749999999,0.26419115099999996,9.412814936,-0.07216063792370556,0.3699923481302779,0.015402530648849957,9.416768408197969,0.3772780583215802,-0.0550153065,-0.07541313850000003,0.22025735900000143
101902.0,-0.039618866,0.197113665,9.7420241765,0.006977826349473329,0.34787553584900577,0.04311486851201592,9.744098650310523,0.3506065749377851,-0.1077750835,-0.06707748599999996,0.3292092404999991
101912.0,-0.1605348605,0.1911316085,10.1072238225,0.011508701087650609,0.29884574650198104,0.049242719515768016,10.110305442038587,0.30309416990163274,-0.12091599449999998,-0.005982056499999999,0.36519964600000066
