timestamp,ax,ay,az,gx,gy,gz,acc_mag,gyro_mag,dax,day,daz
44772.0,3.259926593,-5.4150359969999995,9.089489685499998,-0.2409427032378172,-0.1478695302167156,0.05712113575927042,11.071068556529005,0.2884122195061922,0.0,0.0,0.0
44782.0,3.629833431,-6.221927159,8.3484992115,-0.2595967822831326,-0.24566207353520986,0.08456818357613324,11.026581854460755,0.3672766279233428,0.36990683800000035,-0.8068911620000003,-0.7409904739999984
44792.0,3.9147166134999996,-6.467289542,8.095879907499999,-0.17459401172325276,-0.18410954680512584,0.13093110982611061,11.076737410480474,0.2855211895371431,0.28488318249999933,-0.2453623829999998,-0.2526193040000013
44802.0,3.7806597079999995,-6.244678587,7.951035686999999,0.022855086554865747,-0.040484657329260466,0.14238919636545339,10.793904158300577,0.14978666730419532,-0.13405690550000005,0.2226109549999995,-0.14484422049999957
44812.0,3.530394,-6.061490364999999,8.1078440205,0.25947286390624097,0.11353017718372715,0.16077624003521365,10.721123164155024,0.32567509514074877,-0.2502657079999997,0.18318822200000096,0.15680833350000078
44822.0,3.3305344729999997,-6.0064750584999995,8.438230059,0.45745428760621776,0.22357842250972562,0.19808090746734044,10.87997835626685,0.5463403537762287,-0.1998595270000001,0.05501530649999964,0.33038603850000037
44832.0,3.1438158569999994,-5.95852054,8.973378949499999,0.6034755141450714,0.24729395638582458,0.23671726111873895,11.220921305296471,0.6938098145379392,-0.18671861600000028,0.04795451849999921,0.5351488904999986
44842.0,2.9666096915,-5.8771253450000005,9.520491952999999,0.7148571910195936,0.20439376337180395,0.25936639882186935,11.57502235028861,0.7874443109804894,-0.17720616549999946,0.08139519499999981,0.5471130034999998
44852.0,2.8732503834999994,-5.8676128945,9.899911241499998,0.7678837843536852,0.09541016888952202,0.2670947167497002,11.86139500377437,0.8185891486676736,-0.09335930800000058,0.009512450500000824,0.3794192884999994
44862.0,2.773909019,-5.714334955,10.101045632999998,0.7561586624387873,-0.04021936728295732,0.2577676772270425,11.932280507244737,0.7998985533859165,-0.09934136449999942,0.15327793949999968,0.20113439150000012
44872.0,2.658975081,-5.4857419435,10.101045632999998,0.7060642222480461,-0.15106697340636918,0.23751662191615233,11.798077641378804,0.760106612311299,-0.11493393800000007,0.2285930115000001,0.0
44882.0,2.6170026189999995,-5.248715213,10.0268092925,0.6418465777501667,-0.2366020693881073,0.21619917043229359,11.616136133981678,0.7174187409762499,-0.04197246200000038,0.23702673050000023,-0.07423634049999883
44892.0,2.6649571374999996,-5.113383443,9.8544083855,0.5877553335723584,-0.26324801107830476,0.1975468367162302,11.417445047298079,0.6736323924634463,0.0479545185000001,0.13533176999999963,-0.1724009070000001
44902.0,2.696044218,-5.168496815999999,9.5623663485,0.5421900227905425,-0.23420398699586711,0.17729578140534,11.19914567926226,0.6166484593692743,0.031087080500000308,-0.0551133729999993,-0.29204203699999987
44912.0,2.740370276,-5.227140583000001,9.387611845499999,0.5091474493917858,-0.17744762505026349,0.1394587885513549,11.088727793836487,0.556926870030843,0.044326058000000224,-0.05864376700000129,-0.17475450300000084
44922.0,2.7691037604999997,-5.3743383995,9.346914248,0.5062170415776873,-0.09084613289555685,0.0811037050109245,11.131767821340008,0.5206597007760849,0.028733484499999573,-0.1471978164999994,-0.04069759749999946
44932.0,2.7307597589999997,-5.4437694814999995,9.3923190375,0.5184744889144435,-0.026096162975819216,0.010756464180041052,11.194075751542396,0.5192422429837642,-0.03834400150000006,-0.06943108199999948,0.04540478950000093
44942.0,2.7583164455,-5.393559433499999,9.527650807499999,0.5112802417377229,0.005878268920716902,-0.07211176870464972,11.290479302751853,0.51637403771162,0.027556686500000538,0.050210048000000285,0.13533176999999874
44952.0,2.8073496955,-5.35639223,9.617381654999999,0.4721098173352142,-0.005045746867515607,-0.1536500606993208,11.36072972710639,0.4965092953194787,0.04903324999999992,0.037167203499999246,0.08973084750000027
44962.0,2.9103195204999994,-5.32893361,9.642584745499999,0.4209489809715044,-0.03808657493702026,-0.22239683460612544,11.39503987291577,0.4776075625596872,0.1029698249999993,0.02745861999999999,0.025203090499999803
44972.0,2.9881843214999995,-5.188796581499999,9.5982586875,0.3655243052451725,-0.08205316412400941,-0.2695608669827682,11.31279918214823,0.4615233477043489,0.07786480100000004,0.14013702850000076,-0.044326057999999335
44982.0,3.1689208809999996,-5.021200933,9.405558014999999,0.31436346888146266,-0.1222899846994867,-0.2959415186266625,11.122906092075425,0.44873222903201665,0.18073655950000012,0.16759564849999897,-0.1927006725000009
44992.0,3.3592679575,-5.0020779655,9.088312887499999,0.2672011818340719,-0.16092633835088516,-0.2882132006988316,10.904260466639881,0.42468883550855596,0.1903470765000006,0.01912296750000042,-0.31724512749999967
45002.0,3.4669449745,-4.9446109965,8.723211308,0.23202756141863015,-0.17824698584767687,-0.25757045502156717,10.609585330583782,0.3898093335486918,0.10767701699999987,0.057466969000000034,-0.3651015794999992
45012.0,3.3820193855,-4.881161971,8.419107091499999,0.2400211693927642,-0.17531483270432643,-0.2282593955635744,10.302677396151934,0.37476366417498946,-0.08492558900000002,0.06344902549999976,-0.30410421650000075
45022.0,3.1617620264999995,-4.823695001999999,8.179726765,0.3055705001099152,-0.16971930712243258,-0.21999875221388523,10.008631401674982,0.4130101992968318,-0.22025735900000054,0.05746696900000092,-0.23938032649999919
45032.0,2.929442488,-4.6800275795,8.124613391999999,0.42041665554964613,-0.148668891014129,-0.245313007684811,9.823117336408336,0.5089509555529775,-0.23231953849999964,0.1436674224999992,-0.055113373000001076
45042.0,2.7332114215,-4.4394704549999995,8.3700738415,0.547253222950578,-0.07032978753836351,-0.30206936963041464,9.860906586495915,0.6290296281685803,-0.19623106649999977,0.24055712450000044,0.24546044950000123
45052.0,2.6350468549999997,-4.1785154985,8.7207596455,0.6604989114662301,0.06077061922519056,-0.3865380694391841,10.022729792518172,0.7677001754167179,-0.09816456650000038,0.2609549564999991,0.3506858039999994
45062.0,2.7151671855,-3.9222677339999996,9.059579402999999,0.7345759209086253,0.20546015954477248,-0.4702074084505403,10.238764377680312,0.8960528264007048,0.08012033050000023,0.25624776450000075,0.3388197574999996
45072.0,2.8720735855,-3.5751123239999996,9.393593902,0.763352909615508,0.3682679628293075,-0.5328263313535929,10.45322157066591,1.0011158057131246,0.1569064,0.34715541000000005,0.33401449900000024
45082.0,3.0779151689999997,-3.2746365679999996,9.893929185,0.7588237802065827,0.5252149504856456,-0.5533444220400382,10.866767741966232,1.07603639484149,0.20584158349999981,0.300475756,0.5003352830000001
45092.0,3.22638785,-3.019663668,10.393185736499998,0.7404384818660743,0.5849017202453477,-0.5184378370001517,11.293637898385702,1.0766322299687576,0.14847268100000033,0.2549728999999994,0.4992565514999985
45102.0,3.3269060125,-2.9251275619999997,10.767799766499998,0.7324431285626883,0.4924394124624441,-0.43503378803509857,11.643461112633911,0.983983693085014,0.10051816249999979,0.09453610600000051,0.37461403000000004
45112.0,3.3700552724999997,-2.9562146425,10.907936795,0.7641522704129213,0.2763379804682622,-0.3252525780846553,11.79319984889391,0.8752603106374782,0.043149259999999856,-0.031087080500000308,0.14013702850000165
45122.0,3.3161186975,-3.0221153304999997,10.773781822999998,0.8574139389932383,0.02399827721492203,-0.22506195237392077,11.670655468154195,0.8867849020453301,-0.05393657499999982,-0.06590068799999971,-0.13415497200000104
45132.0,3.259926593,-2.9777892724999995,10.5667634415,1.0098317972406512,-0.19956443733153564,-0.15684750388897442,11.452110721250714,1.0412431814143792,-0.056192104500000006,0.044326058000000224,-0.2070183814999993
45142.0,3.2730675039999997,-2.9263043599999996,10.481739786,1.2112776995058367,-0.3287973417954557,-0.1264717935872651,11.36411444128011,1.2614660010737861,0.01314091099999981,0.05148491249999987,-0.0850236554999988
45152.0,3.3783909249999997,-2.946702192,10.609814635,1.4092591232058136,-0.3245352477620856,-0.1325996445910172,11.518018303489542,1.4522110966125004,0.10532342100000003,-0.02039783200000045,0.128074848999999
45162.0,3.4406631524999995,-2.8605017385,11.046798959,1.5456880201757062,-0.20995612769790986,-0.16590750803607698,11.91857375550851,1.5686804430779828,0.06227222749999983,0.08620045350000005,0.43698432400000087
45172.0,3.4873428064999996,-2.7731244869999996,11.5519395005,1.5707352402710768,-0.07885572093435579,-0.2066766540334125,12.381400788830742,1.5862353731637564,0.04667965400000007,0.08737725150000042,0.5051405414999994
45182.0,3.5663844054999996,-2.786265398,12.046292726999999,1.4681465321681022,0.012007865253720986,-0.23785172513253525,12.868393103276677,1.4873371749182158,0.07904159899999996,-0.013140911000000255,0.49435322649999947
45192.0,3.561579147,-2.823334535,12.2593912315,1.2728302262359208,0.06290166624187564,-0.24824341549890946,13.074736604759883,1.2983367043160854,-0.004805258499999798,-0.03706913700000003,0.21309850450000134
45202.0,3.597471486,-2.7731244869999996,12.067867356999999,1.031681574146368,0.05224294049994627,-0.26609813374681146,12.894395800468054,1.0667260248295927,0.035892339000000106,0.050210048000000285,-0.1915238745000014
45212.0,3.5555970904999996,-2.7575319135,11.772196859500001,0.8518184134113445,0.03998549316319009,-0.28927959687180016,12.602812060122325,0.9004866097041281,-0.04187439550000027,0.015592573499999762,-0.29567049749999796
45222.0,3.514899493,-2.7706728245,11.5268344765,0.7929310044490558,0.0650344585878127,-0.3050015227737651,12.365235921523839,0.8520533947557007,-0.04069759749999946,-0.013140911000000255,-0.24536238300000157
45232.0,3.4562557259999998,-2.6749599205,11.411900538499998,0.8392956760282851,0.15536397402477922,-0.3161925739375527,12.220171362153875,0.9102378480582991,-0.0586437670000004,0.09571290399999999,-0.11493393800000185
45242.0,3.4394863544999996,-2.5660080389999997,11.4585801925,0.9354877524227007,0.295789674981739,-0.31565850318644245,12.235747777187859,1.0306644252095754,-0.01676937150000013,0.10895188150000035,0.04667965400000185
45252.0,3.4622377824999995,-2.4713738665,11.687173203999999,1.0215551738262971,0.4615296314096245,-0.2996712872381744,12.437234288654583,1.1603393702858507,0.02275142799999985,0.09463417249999972,0.22859301149999922
45262.0,3.4765554914999997,-2.278673194,12.069044154999998,1.0647224022158728,0.6147451051251986,-0.27409174172094547,12.76481948269824,1.2596315417356585,0.014317709000000178,0.1927006725,0.3818709509999998
45272.0,3.3257292144999995,-2.071556746,12.546726076499999,1.065254727637731,0.7024112481236219,-0.23545364274029504,13.144282308243456,1.2975313538118436,-0.15082627700000018,0.20711644799999984,0.47768192150000033
45282.0,3.1210644289999996,-1.9243589294999999,13.0698127875,1.0391428566986438,0.6770987379819481,-0.1856262379251089,13.574395263134708,1.2540883851670082,-0.2046647854999999,0.1471978165000003,0.5230867110000013
45292.0,2.8420652365,-1.7662757314999997,13.44099449,0.9999724322961351,0.52015175032561,-0.14459005655221824,13.851259785608601,1.1364017745378692,-0.2789991924999997,0.15808319800000015,0.3711817024999995
45302.0,2.6565234185,-1.6082906,13.460117457499999,0.9578716000795279,0.24782628180768285,-0.12007516187870589,13.81370613907736,0.9966714166131853,-0.18554181799999991,0.15798513149999982,0.019122967499999532
45312.0,2.6350468549999997,-1.4933566619999998,13.208674951499999,0.9338890308278739,-0.05327617541712691,-0.09769305955113061,13.551482576543744,0.9404950859266425,-0.021476563500000267,0.11493393800000007,-0.25144250600000007
45322.0,2.7953855825000002,-1.3689102734999998,12.680782982,0.9333567054060157,-0.2648467326731315,-0.07078008248537804,13.057195446508546,0.9727838153519219,0.16033872750000056,0.1244463885,-0.5278919694999988
45332.0,3.1581335659999996,-1.2802581574999998,12.021187702999999,0.9141720462680939,-0.28509778798402174,-0.050261991798932704,12.494871842532023,0.9589147755202087,0.36274798349999937,0.088652116,-0.6595952790000013
45342.0,3.4549808614999997,-1.3174253609999997,11.3544335695,0.8454235270320373,-0.09990613704265941,-0.02494948165725894,11.941342638888047,0.8516716814084184,0.2968472955000001,-0.03716720349999991,-0.6667541334999996
45352.0,3.6920075919999995,-1.4634463795,11.208314484499999,0.7788078001419176,0.2814011806282978,0.0011641346110802177,11.891127320338882,0.8280878994589195,0.23702673049999978,-0.14602101850000015,-0.14611908500000048
45362.0,3.7841901019999997,-1.6813501425,11.907430563,0.7705489021214805,0.7644978456048163,-0.026548203252085744,12.606900318572604,1.0857750105758277,0.09218251000000022,-0.21790376300000003,0.6991160785000012
45372.0,3.6369922854999994,-1.7328350549999998,13.264965122499998,0.8291692757082141,1.0845196719212444,-0.08303752982213422,13.863251058599666,1.3676987379981052,-0.1471978165000003,-0.05148491249999987,1.3575345594999977
45382.0,3.6620973094999996,-1.4885514035,14.736256822,0.8776667396333805,1.1284845157789816,-0.1387274955947693,15.257260799666842,1.43632222229053,0.025105024000000142,0.24428365149999975,1.4712916995000018
45392.0,3.7363336499999997,-1.0480366855,15.866277101499998,0.8720694687222347,0.9531522297821353,-0.19601792829148315,16.333931526116405,1.306685639175629,0.07423634050000016,0.44051471799999997,1.1300202794999983
45402.0,3.6154176555,-0.20407638649999998,16.124878461999998,0.7582914547847244,0.6432568037857781,-0.21786770519720017,16.526481700879334,1.0179644310996936,-0.12091599449999979,0.8439602990000001,0.25860136050000015
45412.0,3.263456987,0.2927285025,15.754971624,0.5405913011957156,0.315508404870771,-0.13393133081028888,16.09207793776864,0.6400953912075842,-0.35196066849999985,0.49680488899999997,-0.3699068379999986
45422.0,3.1270464854999998,0.544072942,14.831969725999999,0.27039862502372547,0.053042301297359665,0.03314031183686833,15.167786952672921,0.2775377134918533,-0.13641050150000034,0.2513444395,-0.9230018980000008
45432.0,3.0539869429999995,0.29027684,13.9484886275,0.03244741612382658,-0.03622256329589032,0.21033835480409663,14.281856737950836,0.21588685093476995,-0.07305954250000024,-0.253796102,-0.883481098499999
45442.0,2.8947269469999997,-0.33577969599999996,12.9417379385,-0.11783764977764916,0.018135716257473077,0.3560925459673951,13.265774495699224,0.37552166009809984,-0.15925999599999985,-0.6260565359999999,-1.0067506890000004
45452.0,2.6757444524999996,-0.7607999069999999,12.1397501015,-0.21029995756055275,0.18813951204798074,0.417379782651176,12.45439510375534,0.503813885387814,-0.21898249450000007,-0.4250202109999999,-0.8019878369999986
45462.0,2.280634524,-1.1905273099999998,11.49927779,-0.28784144556815683,0.35894092330664984,0.38113976606276573,11.78354949917485,0.5974602961581433,-0.3951099284999997,-0.4297274029999999,-0.6404723115
45472.0,1.8952331789999997,-1.664580771,11.265781453499999,-0.3387352465563115,0.43141921115421833,0.30732979199592547,11.54472042554474,0.6287413649989573,-0.38540134500000023,-0.47405346100000023,-0.2334963365000018
45482.0,1.5803416474999998,-1.826194363,11.432200303999998,-0.3171525050261496,0.4641947491774199,0.21406812341560852,11.684505525055549,0.6015709750901632,-0.3148915314999998,-0.16161359199999992,0.1664188504999995
45492.0,1.2846711499999999,-1.6489881974999998,11.504083048499998,-0.25506590754495534,0.3954462299413632,0.10934836829594874,11.69245349898479,0.4831080661876343,-0.29567049749999996,0.17720616550000012,0.07188274449999987
45502.0,1.3457665794999998,-1.4657999754999997,11.617742122,-0.1873837844818672,0.2182499323033869,0.013955652698946658,11.786924504210926,0.287993881670138,0.06109542949999991,0.18318822200000007,0.11365907350000093
