timestamp,ax,ay,az,gx,gy,gz,acc_mag,gyro_mag,dax,day,daz
89302.0,2.8537351499999994,-4.750145127,8.9233650345,-0.14303322285943929,0.19084826304707594,0.14119539115708926,10.504005263367137,0.2771600635619197,0.0,0.0,0.0
89312.0,2.7268370989999995,-4.768189362999999,9.123322628,-0.09053895494720585,0.2318844444199666,0.17370389380473567,10.649238758732285,0.30354693319125403,-0.12689805099999996,-0.018044235999999714,0.19995759350000064
89322.0,2.6070979024999996,-4.7549503855,9.2789541635,-0.018327702475192456,0.30276226534345635,0.20008280011937796,10.747348650254187,0.3633648591946277,-0.11973919649999987,0.013238977499999471,0.15563153549999953
89332.0,2.4790230535,-4.7082707315,9.403400551999999,0.03576354170261581,0.33234036017700425,0.2245976947928903,10.804504177528829,0.4027074253400053,-0.12807484899999944,0.04667965400000007,0.12444638849999912
89342.0,2.3640891155,-4.7418094745,9.561483749999999,0.05628163238906114,0.3286105915654924,0.2515106718586429,10.931406402654583,0.4176244258807023,-0.11493393800000007,-0.03353874300000026,0.15808319799999992
89352.0,2.2216965575,-4.756127183499999,9.65366626,0.054415875418679205,0.3286105915654924,0.27469213498363154,10.988628378405439,0.4317427213149861,-0.14239255800000006,-0.01431770899999929,0.09218251000000066
89362.0,2.0516492465,-4.748968329,9.663178710499999,0.036030577078170936,0.3184841912454213,0.289614700088183,10.960793201751846,0.4319803896764346,-0.17004731100000026,0.007158854499999201,0.009512450499999048
89372.0,1.8637538324999998,-4.802904903999999,9.610517,0.014713125594312197,0.29370400652560574,0.29574429642118716,10.904288645863822,0.4170649929922315,-0.18789541399999998,-0.05393657499999893,-0.052661710499998904
89382.0,1.5644548745,-4.839974041,9.5135292315,0.010983356982800315,0.2574639899371955,0.2885483039152145,10.787961170235349,0.3868700866406434,-0.29929895799999984,-0.037069137000000474,-0.09698776850000002
89392.0,1.328604942,-4.863902266999999,9.39869336,0.023773129741414763,0.19937594177232026,0.2571061974405367,10.665747663907235,0.32622005551105226,-0.23584993250000008,-0.023928225999999775,-0.11483587150000041
89402.0,1.1873891819999998,-4.869884323499999,9.256202735499999,0.038960984892269415,0.11730532435579089,0.2038143140601418,10.526298279760047,0.23836688545559148,-0.14121576000000013,-0.005982056499999722,-0.1424906245000006
89412.0,1.1610092934999998,-4.9022462685,9.068209255,0.03816162409485602,0.020312141834710005,0.14412579897118774,10.373638713059327,0.15046972648527573,-0.02637988849999995,-0.03236194500000078,-0.18799348049999942
89422.0,1.2316171735,-4.921369235999999,8.773715555499999,0.019242255003237483,-0.07854505232750082,0.08230623686554858,10.13483303601643,0.1153859014338721,0.07060788000000029,-0.019122967499999532,-0.29449369950000026
89432.0,1.3824434505,-4.908228325,8.3343776355,-0.012732176893298634,-0.16647823070147913,0.023418827903259914,9.770552991273584,0.16859878744018197,0.15082627699999995,0.01314091099999981,-0.4393379199999998
89442.0,1.570436931,-4.849584558,7.8807220065,-0.04497364416538988,-0.22643203583673632,-0.03067241627454835,9.38565511209389,0.23288386084656731,0.18799348049999987,0.058643766999999514,-0.4536556289999991
89452.0,1.7631376035,-4.7537735875,7.440207288499999,-0.0793479037834182,-0.2695992642263121,-0.06904347987964368,9.003538305907119,0.2893904891665968,0.1927006725,0.09581097050000054,-0.4405147180000011
89462.0,1.9822181644999999,-4.768189362999999,6.9924356495,-0.11638553583998987,-0.3055705001099152,-0.08849517439312049,8.69246656395632,0.33874816513311784,0.21908056099999995,-0.014415775499999839,-0.44777163899999906
89472.0,2.2109092425,-4.845956097499999,6.572318763499999,-0.14303322285943929,-0.3223588221848487,-0.08449837040605347,8.45971536793783,0.36264815963029445,0.22869107800000021,-0.07776673449999993,-0.42011688600000063
89482.0,2.383212083,-4.8436025014999995,6.265860950999999,-0.14916107386319138,-0.30663689628288376,-0.07330731924226583,8.27050170681083,0.348782418095448,0.1723028405,0.002353595999999847,-0.3064578125000006
89492.0,2.4921639645,-4.845956097499999,6.00363113,-0.13823705807495887,-0.2621379816740363,-0.05998347573254111,8.10788248989555,0.3023637263666283,0.1089518814999999,-0.002353595999999847,-0.26222982099999914
89502.0,2.5376668204999997,-4.757402047999999,5.84084074,-0.11931768898334034,-0.2229675572715276,-0.057585393340300904,7.949090997606262,0.2593594417523955,0.0455028559999997,0.0885540494999999,-0.16279038999999962
89512.0,2.498146021,-4.52871097,5.7773917145,-0.11105704563365118,-0.2221681964741142,-0.07783644865119112,7.7542383001046415,0.26029000681559983,-0.03952079949999954,0.22869107799999977,-0.06344902549999976
89522.0,2.451466367,-4.3012947565,5.662457776499999,-0.13557194030716352,-0.2562754207165874,-0.11727390842925497,7.521585737161539,0.31274592221224284,-0.04667965400000007,0.22741621349999974,-0.11493393800000096
89532.0,2.48500511,-4.124088591,5.5235956125,-0.20991423979586202,-0.31063370026995074,-0.17083282718520498,7.327582520420479,0.411996527481199,0.033538742999999815,0.17720616550000035,-0.13886216399999896
89542.0,2.6657416695,-4.1157529385,5.378751391999999,-0.3234269636870692,-0.33541388498976626,-0.20920214546104832,7.278500356269961,0.5107572933882301,0.18073655950000012,0.008335652499999568,-0.14484422050000134
89552.0,2.9339535469999998,-4.331205038999999,5.321284423,-0.44866480949317433,-0.2818549662338163,-0.2193285457811194,7.462136987235983,0.5734521290070103,0.26821187749999975,-0.2154521004999994,-0.057466968999999146
89562.0,3.1721570754999995,-4.629327199,5.365610480999999,-0.5549832862076609,-0.14329502224723845,-0.2044059806765679,7.764214490910393,0.6085406447453123,0.2382035284999997,-0.29812216000000014,0.044326057999999335
89572.0,3.3720166024999996,-4.874689582,5.5702752664999995,-0.6341234958100918,0.03630110311223006,-0.1812245175515792,8.133944985858745,0.6605094274780481,0.1998595270000001,-0.24536238300000068,0.20466478550000033
89582.0,3.349363241,-4.909405122999999,5.860061773999999,-0.6615687982977025,0.18578506288704041,-0.16417090543034263,8.346305576540837,0.7064994342975982,-0.022653361499999747,-0.03471554099999885,0.2897865074999997
89592.0,3.095567139,-4.908228325,5.977349307999999,-0.6503777471339149,0.2161625185180017,-0.13246176358010964,8.33078303355915,0.698042668602561,-0.2537961019999999,0.0011767979999994793,0.11728753399999992
89602.0,3.0583999354999998,-4.9285280904999995,6.185642553999999,-0.6026796440061619,0.14528295226525997,-0.08636412737643541,8.479762562134013,0.6259302293513208,-0.037167203500000134,-0.0202997654999999,0.2082932460000002
89612.0,3.1278310175,-4.9477491245000005,6.507692939999999,-0.5040894852195063,0.05388704065532492,-0.045327946003544735,8.752920408318097,0.5089839338803885,0.06943108200000037,-0.01922103400000097,0.3220503859999999
89622.0,3.0464358224999994,-4.9022462685,6.8296452594999995,-0.3729890784559522,-0.03218038074827145,-0.0069586277277013915,8.941859094631509,0.374439383682295,-0.0813951950000007,0.04550285600000059,0.32195231950000025
89632.0,2.9997561685,-4.814869017,7.114626508499999,-0.23496145989123265,-0.10865547258290699,0.029813714282567138,9.099418172431204,0.26057965560602914,-0.046679653999999626,0.08737725149999953,0.28498124899999944
89642.0,3.0128970795,-5.0446388265,7.320468092,-0.1243808891433759,-0.17980032888195185,0.07191454649917435,9.386968775248006,0.23015313564741352,0.013140911000000255,-0.2297698094999996,0.2058415835000007
89652.0,2.936307143,-5.154767506,7.5682821375,-0.044174283367976484,-0.20165010578766884,0.10575648069534441,9.616258221977395,0.23194517818725413,-0.07658993650000001,-0.11012867949999983,0.2478140455000002
89662.0,2.7471368645,-5.2829404215,7.5910335655,0.011515682404658587,-0.18592992521495594,0.11215136707465162,9.64779824840679,0.21744074403937577,-0.18917027850000023,-0.12817291550000043,0.022751428000000296
89672.0,2.5675771029999996,-5.4912336674999995,7.758629213999999,0.06960373056953387,-0.12144524534152144,0.09003455479337948,9.845934524019018,0.16643271307678864,-0.1795597615000002,-0.20829324599999932,0.16759564849999897
89682.0,2.4311666014999997,-5.582141312999999,8.050671250999999,0.15087498718864983,0.009121090670922365,0.024218188700673316,10.093769378890538,0.1530783352344278,-0.1364105014999999,-0.09090764549999975,0.29204203699999987
89692.0,2.2132628385,-5.431315036,8.231505877,0.23081455758849412,0.13249317950664555,-0.0738396446641241,10.107195675144036,0.276192135540961,-0.2179037629999998,0.1508262769999993,0.1808346260000011
89702.0,1.989377019,-5.1476086515,8.4338170665,0.300093656917157,0.20257338496197386,-0.17056579180964984,10.078926830963187,0.400231018978436,-0.22388581949999997,0.2837063845000003,0.2023111894999996
89712.0,1.8134457179999999,-4.782507072,8.6001378505,0.3669764191828317,0.21136635373352128,-0.23904727567015135,10.006164615549022,0.4863034317503618,-0.1759313010000001,0.3651015795000001,0.16632078399999983
89722.0,1.6985117799999998,-4.470067203,8.7917597915,0.4415857540470853,0.17326232550398107,-0.26995705672297093,10.00807090790084,0.545797237159469,-0.11493393800000007,0.3124398689999994,0.19162194100000107
89732.0,1.6171165849999998,-4.209112246499999,8.976026744999999,0.54417446215006,0.10078403765641256,-0.26249577417069514,10.044936439822484,0.6125253455654786,-0.08139519500000003,0.2609549565000009,0.1842669534999981
89742.0,1.5632780764999998,-4.143211558499999,9.110181717,0.6718103903484054,-0.018591247192243598,-0.2254563967848715,10.129434894391423,0.7088761682434086,-0.05383850849999994,0.06590068800000015,0.13415497200000104
89752.0,1.6530089239999999,-4.306100014999999,9.0826250305,0.8148994637439084,-0.18406416824457397,-0.17882643515933902,10.186707676510196,0.8543533507592006,0.08973084750000004,-0.16288845650000017,-0.027556686500000538
89762.0,1.8421792025,-4.4652619445,9.123322628,0.9686490082105929,-0.34021179510349864,-0.14391985011945244,10.3231392619542,1.036695659243018,0.1891702785,-0.15916192950000063,0.04069759750000124
89772.0,1.9930054794999998,-4.398282525,9.088607087,1.1245295996939626,-0.4342728244812291,-0.12633216724710555,10.291731574079456,1.2120724083783603,0.15082627699999995,0.06697941949999997,-0.03471554100000063
89782.0,2.2012987255,-4.3263997805,9.2118766775,1.2604244259127448,-0.4601194053740131,-0.13033071656342457,10.412594444280773,1.34809706487298,0.2082932460000002,0.07188274449999987,0.12326959049999964
89792.0,2.3605587215,-4.359938523499999,9.4872474095,1.375270581352476,-0.414287059216642,-0.14178705777351533,10.704632866913911,1.443297096622875,0.15925999599999985,-0.03353874299999937,0.27537073200000073
89802.0,2.1318676434999997,-4.383866749499999,9.945708297,1.4917154583870333,-0.3740519839704167,-0.19214853333981172,11.07611217240908,1.549855139801034,-0.22869107800000021,-0.023928225999999775,0.45846088749999936
89812.0,2.4107687694999997,-4.410246637999999,10.537049292,1.468799285308348,-0.40735984741547654,-0.2632951349681086,11.674394598865698,1.546815345769025,0.27890112600000005,-0.02637988850000017,0.5913409950000013
89822.0,2.6753521864999996,-4.264127553,10.7717224265,1.4544107909549067,-0.4811698214823167,-0.3181857399433302,11.889924185781302,1.5646332832503231,0.2645834169999999,0.1461190849999996,0.2346731344999995
89832.0,3.1087080499999997,-4.2187227635,10.9082309945,1.4890503406192381,-0.5272674576859909,-0.3506942425909766,12.1017019846292,1.6181064058396704,0.4333558635000001,0.04540478950000004,0.136508568
89842.0,3.5276481379999995,-4.228235214,11.100931667,1.530618847413987,-0.4779723782926631,-0.37041297248000854,12.39164873153883,1.6457391715126497,0.4189400879999998,-0.009512450499999936,0.19270067249999911
89852.0,3.723977271,-4.146840019,11.292455541499999,1.485053536632171,-0.36792238763741264,-0.37973826667341426,12.593007623870422,1.576373065351176,0.19632913300000032,0.08139519499999981,0.19152387449999964
89862.0,3.6928901905,-3.8044898675,11.5354643285,1.3608820869990348,-0.24961349896172502,-0.3725440194966936,12.69561020136871,1.4328628685402927,-0.031087080499999864,0.3423501514999998,0.24300878700000084
89872.0,3.607866535,-3.408203141,11.816817117,1.2036680639671415,-0.16114799516588846,-0.34882848562059465,12.816774803409762,1.263513671054156,-0.08502365550000013,0.3962867265000001,0.28135278849999956
89882.0,3.386432378,-3.177158467,12.112487614499999,1.0826940575236583,-0.10945483338032039,-0.3048636417628575,12.972070628338885,1.1301100047412502,-0.22143415700000002,0.23104467400000006,0.29567049749999974
89892.0,3.3277886109999995,-3.0909580135,12.7277568355,1.0325996173329173,-0.07161609519708333,-0.25929833098104155,13.513844476844408,1.0670644119531485,-0.0586437670000004,0.08620045350000005,0.6152692210000001
89902.0,3.099097533,-3.2502180094999997,13.139636135499998,1.0451241000452285,-0.07241545599449672,-0.2307866323204622,13.885905098396076,1.072749202945432,-0.22869107799999933,-0.15925999599999985,0.41187929999999895
89912.0,3.3301422069999997,-3.2861103485,13.4101035425,1.054184104192331,-0.13636781044607296,-0.23691448332421428,14.202790055546576,1.089049483571074,0.23104467399999962,-0.035892339000000106,0.2704674070000017
89922.0,3.6018844784999997,-3.3017029219999996,13.5034628505,1.0296692095188187,-0.27572711523006416,-0.2963359630376132,14.360303720201609,1.1063720559077908,0.27174227149999997,-0.015592573499999762,0.09335930800000014
89932.0,3.813806185,-3.1400893299999995,13.54298365,0.9697154043835615,-0.3876411175264446,-0.35415872115618535,14.415883072545068,1.1027429443287813,0.21192170650000008,0.16161359200000014,0.03952079949999998
89942.0,3.825770298,-2.8575597434999995,13.5609298195,0.8831139122288548,-0.4252128203341265,-0.3664161684929415,14.377099277327646,1.0464018984509267,0.011964113000000332,0.28252958649999993,0.017946169500000053
89952.0,3.674944021,-2.541491414,13.588486505999999,0.7733327022784116,-0.4078921728373348,-0.3123231789858813,14.304242646455052,0.9284208427254526,-0.15082627700000018,0.31606832949999975,0.02755668649999876
89962.0,3.261887923,-2.1512848105,13.456783196499998,0.609456757491656,-0.4649155701584935,-0.196679408077989,14.012599800026617,0.7913702143686913,-0.41305609799999976,0.3902066034999998,-0.13170330950000064
89972.0,3.4666507749999997,-1.9406379685,13.477181028499999,0.40161596884716316,-0.5483178737942945,-0.1018190179028452,14.050556992359846,0.6872517657758628,0.20476285199999955,0.21064684200000006,0.02039783200000045
89982.0,3.9023602344999997,-2.0614558965,13.272418176499999,0.20656669829053687,-0.5858895766019765,-0.07437371541523437,13.98696178821223,0.6256739137587273,0.43570945949999995,-0.12081792800000013,-0.204762852
89992.0,4.2267642164999994,-2.0232099614999997,12.981552937499998,0.030700341542580254,-0.5832244588341812,-0.09675581774280965,13.801435829627023,0.59199237209641,0.32440398199999976,0.0382459350000004,-0.2908652390000004
90002.0,4.4195629555,-1.8220755699999998,12.505145880499999,-0.14036810509164396,-0.5333970540189951,-0.1639038700547875,13.387724586090231,0.5753956037215597,0.19279873900000055,0.2011343914999999,-0.4764070569999994
90012.0,4.463790947,-1.7682370614999998,12.2297751485,-0.29171782183683626,-0.45185876202432396,-0.2529034446017343,13.13847373582828,0.5943364204613455,0.044227991499999675,0.05383850849999994,-0.27537073199999895
90022.0,4.4111292365,-2.0722432115,12.235757204999999,-0.3748548354263341,-0.36099517583624713,-0.3235159754789209,13.170649469499304,0.6127774889873361,-0.05266171049999979,-0.3040061500000002,0.0059820564999988335
90032.0,4.223233822499999,-2.364383315,12.4500325075,-0.3578012233050975,-0.26773350725593015,-0.3477638347768781,13.357743889503388,0.5662531510595815,-0.18789541400000065,-0.29214010349999997,0.21427530250000082
90042.0,4.0747611415,-2.285341716,12.549373871999999,-0.25787763296991817,-0.166211195325924,-0.3464304032283545,13.390789733932962,0.4627537782868991,-0.14847268099999944,0.07904159899999996,0.09934136449999897
90052.0,4.1322281105,-2.144125956,12.5206403875,-0.14249915210832903,-0.07881208770305595,-0.3448316816335277,13.358106938690657,0.38134792798429296,0.057466969000000034,0.14121576000000013,-0.02873348449999824
90062.0,4.2387283295,-2.0782252679999997,12.386583481999999,-0.05936388384808313,-0.010330603842554437,-0.33257423429677146,13.255688909763036,0.3379887770316706,0.10650021899999995,0.06590068800000015,-0.13405690550000138
90072.0,4.3021773549999995,-2.018404703,12.187900753,-0.0303181144363935,0.06640977803838424,-0.28754299426606583,13.081575299020574,0.29666550226404903,0.06344902549999976,0.05982056499999988,-0.19868272899999972
90082.0,4.3775904935,-2.0327224119999996,12.014323048,-0.040177479380909466,0.15887383115053982,-0.20707109844436325,12.947556419445819,0.26407113413777134,0.07541313850000009,-0.014317708999999734,-0.17357770499999958
90092.0,4.3405213565,-2.0614558965,11.8490809955,-0.0684238879951857,0.24014334244040378,-0.11221070826921943,12.78633827557235,0.27375517605537,-0.037069136999999586,-0.02873348450000046,-0.16524205250000001
90102.0,4.0423991965,-2.063907559,11.543898047499999,-0.09427046888796972,0.2646582371139162,-0.02241351825411118,12.404123822625904,0.2818390845449419,-0.29812216000000014,-0.0024516624999999515,-0.30518294800000056
90112.0,3.5910971634999997,-2.2913237724999997,11.291278743499998,-0.11452152419885993,0.27638335902881406,0.0644532639468986,12.068103377562535,0.3060345795597108,-0.45130203300000016,-0.22741621349999974,-0.2526193040000013
90122.0,3.318178094,-2.7055566685,11.0614108675,-0.11798425743481668,0.33020931316031915,0.14972132455308157,11.861077233102117,0.3812806715874593,-0.2729190694999999,-0.41423289600000013,-0.22986787599999836
90132.0,3.3397527239999993,-3.0945864739999998,11.110542184,-0.09373639813685947,0.450916284228247,0.2038143140601418,12.007271185618015,0.5036390397235774,0.021574629999999484,-0.3890298054999999,0.049131316500000466
90142.0,3.5468691719999996,-3.312490237,11.415725131999999,-0.032183871406775436,0.631311770385129,0.2123402474561341,12.404501311333748,0.6668423604535527,0.20711644800000029,-0.21790376300000025,0.3051829479999988
90152.0,3.9011834364999998,-3.3902569715,11.9975536765,0.0706701267425024,0.8005144600489712,0.18756006273631862,13.06347460511655,0.8252250872913093,0.35431426450000014,-0.07776673449999993,0.5818285445000022
90162.0,4.126246054,-3.2765978979999995,12.5781073565,0.19857309031640286,0.923354223462836,0.16571028583060163,13.637110579406768,0.9588921696491858,0.22506261750000034,0.11365907350000048,0.5805536799999995
90172.0,4.221958958,-3.092232878,12.9325196875,0.3323368695185002,0.9214884664924542,0.1816975017788697,13.951233174253654,0.9962945201458522,0.09571290399999999,0.18436501999999955,0.3544123309999989
90182.0,4.089176917,-2.8048980329999997,13.01146322,0.4485147111775028,0.8066440563819753,0.2395202598974418,13.924331077630468,0.9535250572168223,-0.13278204100000046,0.28733484500000017,0.0789435325000003
90192.0,3.9586504054999994,-2.782146605,12.755313522,0.512465320299827,0.6302453742121603,0.33251489310220367,13.642187354276967,0.8777221031514475,-0.13052651150000028,0.02275142799999985,-0.25614969799999976
90202.0,3.9262884605,-2.5630660439999997,12.502694218,0.5058033985449647,0.4876886262385155,0.43297255418849334,13.352992598281926,0.825313580902771,-0.03236194499999945,0.21908056100000017,-0.25261930399999954
90212.0,3.7850727004999998,-2.3715421694999996,12.3315681755,0.4378559854355734,0.47276606113396397,0.48839548458557325,13.115584671557402,0.8085516445505859,-0.14121576000000013,0.19152387450000008,-0.17112604250000096
90222.0,3.4678275729999997,-2.3727189675,12.0789488715,0.32594198313919304,0.5348509132859063,0.5368929485107397,12.788926038378063,0.8249592195836312,-0.3172451275000001,-0.0011767980000003675,-0.25261930399999954
90232.0,3.095567139,-2.1991412625,11.75817335,0.18604860760409156,0.5764194200806553,0.6144326911890917,12.35610775014272,0.8627867431986944,-0.37226043399999975,0.17357770500000003,-0.3207755214999999
90242.0,2.6741753884999997,-1.9920248145,11.440928222499998,0.03682993787558434,0.5708238944987615,0.7052962773771685,11.916971740439761,0.9080964716024087,-0.4213917505000002,0.20711644800000006,-0.31724512750000144
90252.0,2.2946580334999997,-1.7730423199999998,11.1751680075,-0.08521046474086716,0.5082049715957089,0.7988249813330407,11.545281051367636,0.9506074201570713,-0.37951735499999995,0.21898249450000007,-0.26576021499999847
90262.0,2.021738964,-1.750290892,10.804084371499998,-0.14596363067353776,0.4093477774334981,0.8723679200243257,11.130102683787984,0.97462647832732,-0.2729190694999999,0.02275142799999985,-0.3710836360000016
90272.0,2.0134033115,-2.0710664134999996,10.453300501000001,-0.148361713065778,0.2835776062055347,0.9211306739957953,10.845026525928546,0.9751457199931822,-0.008335652500000013,-0.32077552149999966,-0.35078387049999726
90282.0,2.184529354,-2.7294848945,10.04985492,-0.07774918218859139,0.20257338496197386,0.8998132225119366,10.640575181861154,0.9256050707689878,0.17112604250000008,-0.6584184810000004,-0.4034455810000015
90292.0,2.3353556309999997,-3.362700285,9.769776996,0.0450905812252735,0.2129650753283481,0.7881662555911113,10.592930740902315,0.817675565415376,0.15082627699999973,-0.6332153904999998,-0.2800779240000004
90302.0,2.288675977,-3.7362355834999996,9.585411976,0.1828511644144379,0.2801131276403259,0.6040410008227175,10.539336640071456,0.6904805886330705,-0.046679653999999626,-0.3735352984999998,-0.18436501999999955
90312.0,2.2024755235,-3.790074092,9.576978256999999,0.3043574962797792,0.3443307721382053,0.3844750902633269,10.532524511697893,0.5991813258238126,-0.08620045350000005,-0.05383850850000016,-0.008433719000001005
90322.0,2.1606011279999997,-3.535101192,9.772130592,0.3986855610330647,0.38376823191626913,0.1710387760369403,10.614126152401665,0.5792085076314086,-0.04187439550000027,0.25497289999999984,0.1951523350000013
90332.0,2.3030917525,-3.2394306944999998,10.051031717999999,0.4669000095180111,0.3936258515315331,-0.008822639368831335,10.808394026919276,0.6107493502634905,0.14249062450000016,0.2956704975000002,0.27890112599999917
90342.0,2.48500511,-2.9473886574999995,10.373082104,0.510334273283142,0.3914948045148481,-0.14205409314907047,11.066308446424708,0.6587022224267628,0.18191335750000004,0.2920420370000003,0.3220503860000008
90352.0,2.6047443064999998,-2.4864761074999997,10.556270326,0.5364461442222291,0.3645818274490955,-0.22439174594115496,11.153568914522412,0.6863279319709628,0.11973919649999987,0.46091254999999975,0.18318822200000007
90362.0,2.6896698955,-2.0830305264999995,10.76574037,0.558030631081643,0.31821715586986615,-0.2547674562428643,11.290460842469521,0.6910620813470691,0.08492558900000002,0.40344558100000016,0.2094700439999997
90372.0,2.7603758419999997,-1.8759140784999997,10.929707557999999,0.5812120942066317,0.27718271982622744,-0.2286538399745251,11.427914758275632,0.6833156936273446,0.07070594649999995,0.20711644799999984,0.1639671879999991
90382.0,2.796268181,-1.7383267789999999,11.114072578,0.6006637887201085,0.27398527663657385,-0.16949939563668132,11.59152729366209,0.6816120333550569,0.035892339000000106,0.13758729949999982,0.18436502000000132
90392.0,2.7866576640000003,-1.7850064329999997,11.267350517499999,0.6131882714324198,0.28704208477074344,-0.10368302954397514,11.743291556730966,0.6849402786135668,-0.009610516999999597,-0.04667965399999985,0.1532779394999988
90402.0,2.842947835,-1.9190633385,11.345117251999998,0.6163857146220734,0.282245919986263,-0.05811946409141117,11.852292687549271,0.6804204440236411,0.05629017099999967,-0.13405690550000027,0.07776673449999905
90412.0,2.8932559495,-2.1308869785,11.470838505,0.605726988880144,0.26385887631650273,-0.04399625978427306,12.02047192552142,0.6621649058533824,0.050308114499999945,-0.21182363999999998,0.1257212530000018
90422.0,2.9889688535,-2.247095781,11.506730844,0.5788140118143915,0.22335676569472232,-0.057585393340300904,12.099100337316079,0.6230810401387886,0.09571290399999999,-0.1162088025000001,0.035892339000000106
90432.0,3.0248611925,-2.248272579,11.621664781999998,0.5439074267745049,0.18258761969738677,-0.08529773120346687,12.217512313419409,0.5800424387195128,0.035892339000000106,-0.0011767979999999234,0.11493393799999829
90442.0,2.9399356035,-2.12019773,11.638434153499999,0.5055363631694095,0.1634029605594651,-0.10874622970401068,12.189815803053765,0.5423036828945463,-0.08492558900000002,0.12807484899999988,0.016769371500000574
90452.0,2.8357889805,-1.91425808,11.7449343725,0.4716961743024915,0.19298105539301302,-0.1188726300240818,12.233133962852792,0.5233255877186302,-0.1041466230000001,0.20593965000000014,0.10650021900000084
