timestamp,ax,ay,az,gx,gy,gz,acc_mag,gyro_mag,dax,day,daz
30842.0,-0.136508568,0.5341682255,10.5053738125,-0.046659632222816404,0.20766451039004133,0.2685468306873595,10.519831235463428,0.3426646617714313,0.0,0.0,0.0
30852.0,-0.262229821,0.7065691325,10.350919075,-0.04239579286019426,0.09548347271810577,0.26108729346433573,10.37832019718135,0.2812135694149305,-0.12572125299999998,0.172400907,-0.15445473750000005
30862.0,-0.1760293675,0.6849945024999999,10.2551081045,-0.0426610829064974,0.018741345507915112,0.2352389672422997,10.279467206118188,0.23980946131340575,0.08620045349999997,-0.02157463000000004,-0.09581097050000054
30872.0,-0.11375713999999998,0.6934282214999999,10.148607885499999,-0.028007298506753008,0.022738149494982124,0.19393749582310593,10.172906438128013,0.19726425043134338,0.06227222750000003,0.008433719000000006,-0.10650021900000084
30882.0,-0.112580342,0.6610662764999999,10.086335658000001,0.00290248254606657,0.09308539032586557,0.1486392204168451,10.108602769976311,0.17540505164668557,0.001176797999999979,-0.032361945,-0.06227222749999761
30892.0,-0.180834626,0.651553826,10.074371545,0.044738024716370645,0.14131407354622488,0.10254158421317086,10.097038455747382,0.1802385495134081,-0.068254284,-0.009512450499999936,-0.01196411300000122
30902.0,-0.2478140455,0.607227768,10.038479206,0.09376606873414335,0.13172174397726405,0.06390523056177239,10.059880820997419,0.17385790742851268,-0.0669794195,-0.044326058,-0.035892339000000106
30912.0,-0.36039438749999997,0.619191881,9.959437606999998,0.1382667286722428,0.0528485697503883,0.036458182744909556,9.985173015414588,0.15244624846629215,-0.11258034199999997,0.011964112999999998,-0.07904159900000174
30922.0,-0.377163759,0.6598894785,9.8469553315,0.18303093332739334,-0.06625967972271272,0.019139280577369817,9.876246044195856,0.19559391547968064,-0.01676937150000002,0.040697597500000016,-0.1124822754999979
30932.0,-0.30655587900000003,0.6670483329999999,9.799098879499999,0.2168728675235634,-0.16431751308751014,0.0018186330805780913,9.826559358988561,0.2720981315655051,0.07060787999999996,0.007158854499999867,-0.047856452000001326
30942.0,-0.147295883,0.585653138,9.842150072999999,0.2123419927853861,-0.1896317685584359,-0.026693065580001278,9.860659396544019,0.2859402897402313,0.15925999600000004,-0.08139519499999992,0.043051193500000196
30952.0,-0.024026292499999997,0.6084045659999999,9.783506306,0.13959841489151445,-0.16671559547975034,-0.059201568227647654,9.802434851515347,0.22535889797610384,0.1232695905,0.022751427999999962,-0.058643766999999514
30962.0,0.09453610599999998,0.5557428554999999,9.565602542999999,0.015426965258377879,-0.15046134415592716,-0.07252366640812039,9.582199079930712,0.16773875381547307,0.11856239849999997,-0.052661710500000014,-0.2179037630000007
30972.0,0.324403982,0.375006296,9.108318453499999,-0.13006193585861744,-0.13953732836769467,-0.07092494481329356,9.121805343019863,0.20351196761874643,0.229867876,-0.1807365594999999,-0.4572840894999999
30982.0,0.6260565359999999,0.20976424349999997,8.5061901435,-0.2822110134012231,-0.11022626890970189,-0.061866685995443,8.531776988499875,0.30922544086597725,0.3016525539999999,-0.16524205250000004,-0.6021283099999994
30992.0,0.9373196069999999,0.11287454149999998,7.663406642499999,-0.4463522482342819,-0.06652671509826787,-0.03868347754120232,7.721341209666788,0.45293768308702775,0.31126307100000006,-0.096889702,-0.8427835010000004
31002.0,1.2365204985,-0.05119071299999999,6.697353551,-0.605430282907305,-0.038015016437688495,0.034859461150082746,6.810737700088034,0.6076233627566103,0.29920089150000007,-0.16406525449999998,-0.9660530914999992
31012.0,1.4448137444999998,-0.21398110299999998,5.5756689239999995,-0.744257262269438,-0.01909564734606996,0.1566328283909791,5.763797239563213,0.7608004726064006,0.20829324599999977,-0.16279038999999998,-1.1216846270000005
31022.0,1.4304960354999998,-0.2762533305,4.448002240499999,-0.8428491663853456,-0.017763961126798285,0.2997236471157342,4.680529750112328,0.8947315464605814,-0.014317708999999956,-0.06227222750000003,-1.1276666835000002
31032.0,1.1803283939999998,-0.401876517,3.4329158989999997,-0.8748235982818817,-0.05053775382074781,0.4430797558867925,3.6523405402844964,0.9819318014754412,-0.25016764150000004,-0.12562318649999998,-1.0150863414999995
31042.0,0.9180985729999999,-0.7227501049999999,2.824707466,-0.8188665971336916,-0.11901923768124932,0.5440697423949403,3.0568357778098396,0.990313065363289,-0.2622298209999999,-0.32087358799999993,-0.6082084329999997
31052.0,0.47395539449999996,-0.7873759284999999,2.9181648405,-0.6744440921896648,-0.2277357967879761,0.5779099312618584,3.0594575671329842,0.9169069283625692,-0.4441431784999999,-0.06462582350000001,0.0934573744999998
31062.0,-0.3496070725,-0.1505320775,3.1994195624999997,-0.5476075247887329,-0.4771450922272178,0.5230193262866367,3.221982394180045,0.8950366785283663,-0.8235624669999999,0.636843851,0.2812547219999999
31072.0,-0.8332710504999999,0.17387190449999998,3.4329158989999997,-0.4857897080123457,-0.8368696683680131,0.4092395670198744,3.5368748426234715,1.0506281480427424,-0.48366397799999994,0.324403982,0.2334963365
31082.0,-0.733929686,0.1642613875,3.6447395389999997,-0.4234360751555963,-1.1552927730896145,0.28400172121376926,3.72152668868106,1.262797085421348,0.09934136449999997,-0.009610516999999985,0.21182363999999998
31092.0,-0.2227090215,0.178677163,3.7872301634999994,-0.32751103413673593,-1.3061101644129485,0.1672915541329085,3.7979780341860123,1.3568985603752173,0.5112206644999999,0.014415775500000005,0.14249062449999972
31102.0,0.592517793,0.2409493905,4.172729575,-0.23211657321048187,-1.1832704009990838,0.0942809408634817,4.221469655212933,1.2095023113866352,0.8152268144999999,0.0622722275,0.38549941150000056
31112.0,1.284475017,0.30076995549999996,4.774857884999999,-0.18548661158494936,-0.8182173346519497,0.08362221512155231,4.953746709045113,0.8431355553314317,0.6919572240000001,0.059820564999999964,0.6021283099999994
31122.0,1.6040737404999998,0.43482686099999995,5.743264572499999,-0.14471746558761384,-0.4241184988931261,0.1409126478182662,5.9788974664015075,0.4697616632555444,0.31959872349999974,0.1340569055,0.9684066874999999
31132.0,1.2376972964999997,0.48748857149999997,6.814641084999999,-0.060781091200702526,-0.2658398250175163,0.2514932185661229,6.943260964595561,0.37096360009796037,-0.36637644400000013,0.052661710500000014,1.0713765124999997
31142.0,0.5410328805,0.5641765744999999,7.8597357755,0.029283134189960862,-0.37242533710755804,0.31038237285766357,7.898509875012582,0.4856905918879006,-0.6966644159999997,0.07668800299999995,1.045094690500001
31152.0,-0.030008348999999997,0.5892815985,8.659370016499999,0.07884524895884384,-0.5056567908877971,0.2195187866695868,8.679449428736802,0.5568607197093498,-0.5710412295,0.02510502400000003,0.7996342409999988
31162.0,0.1113054775,0.5485840009999999,9.09272588,0.09509950028266703,-0.4731482882401508,0.016207127434019343,9.109939475336619,0.48288289325493855,0.1413138265,-0.040697597500000016,0.433355863500001
31172.0,0.7109821249999999,0.3127340685,9.296311934,0.1483913836630619,-0.15605686973782099,-0.2097519241754265,9.328703755286739,0.3006154005254873,0.5996766474999999,-0.23584993249999991,0.20358605400000052
31182.0,0.9564425745,0.202605389,9.511764034499999,0.2930809239826438,0.2060657887952145,-0.375491880603312,9.561876719032501,0.5189929572868268,0.24546044950000012,-0.11012867950000002,0.21545210049999852
31192.0,0.9875296549999999,0.23496733399999997,9.9307041225,0.5587444707457087,0.38725889042025785,-0.4834090789126254,9.982450041757783,0.8341757424988958,0.031087080499999864,0.032361944999999975,0.41894008800000115
31202.0,0.8235624669999999,0.238497728,10.4861527785,0.8878245558799875,0.3390302071998985,-0.5617499277176429,10.52114710463434,1.1039641772758209,-0.16396718799999999,0.00353039400000002,0.5554486559999994
31212.0,0.8199340065,0.4037397805,11.2906903445,1.21637406092166,0.24230406005437274,-0.6518141531083064,11.327620493323337,1.4011205529126256,-0.003628460499999875,0.1652420525,0.8045375660000005
31222.0,0.860631604,0.5281861689999999,12.134552577,1.4905635410807174,0.22764853032537638,-0.7709224025814073,12.17649512917834,1.6934948698358316,0.040697597500000016,0.12444638849999995,0.8438622324999994
31232.0,1.1096224474999998,0.989098719,13.304191722499999,1.7370406833766083,0.27161511951236555,-0.8937621659952721,13.386974850240094,1.9722819063758994,0.24899084349999978,0.4609125500000001,1.1696391454999997
31242.0,1.41608026,1.6331014245,14.7047774755,1.89478703183036,0.37793359622685213,-0.9920870347356248,14.862798665441101,2.17193194728564,0.30645781250000015,0.6440027054999999,1.4005857530000014
31252.0,1.644771338,2.1323579759999998,16.075452946,1.9320916992624868,0.4562726997026176,-1.004344482072381,16.299460442332965,2.224830544001533,0.228691078,0.4992565514999998,1.3706754704999984
31262.0,1.7656873324999998,2.6578963494999996,17.274904307499998,1.8745359765194698,0.4815869551735434,-0.9491850963923523,17.567139311627216,2.1556352822016263,0.12091599449999979,0.5255383734999999,1.1994513614999995
31272.0,1.6507533945,3.012210614,18.293717175999998,1.7671511036320147,0.4397531583324913,-0.8668491889295197,18.61339538257394,2.01683746982225,-0.11493393799999985,0.35431426450000014,1.0188128684999995
31282.0,1.4532474635,3.0409440985,19.1232616995,1.5907524214621998,0.27960872748649956,-0.7810488029014784,19.417991843337834,1.7940767930577286,-0.19750593100000002,0.028733484500000017,0.829544523500001
31292.0,1.3502776385,3.2623782555,19.670374702999997,1.3517365617185844,0.10827324547672022,-0.7357487821659655,19.984744245033873,1.5428030005258428,-0.10296982499999996,0.22143415700000002,0.547113003499998
31302.0,1.3263494125,3.2575729969999996,19.693126131,1.0263862451958174,0.001954768762233649,-0.7053730718642564,20.004754470032807,1.245401026159566,-0.023928225999999997,-0.004805258500000242,0.02275142800000296
31312.0,1.4100982035,3.1582316324999997,19.373429341,0.710094187490901,-0.08144753487356739,-0.6552786316735151,19.67975021230598,0.969668779106174,0.0837487910000001,-0.09934136449999986,-0.3196967899999983
31322.0,1.5082627699999998,3.0768364374999995,18.791698863,0.45295831945308035,-0.13154372039356063,-0.595857151960116,19.1015634230335,0.7599478502362901,0.09816456649999972,-0.08139519500000025,-0.5817304780000008
31332.0,1.574163458,2.9283637564999996,18.311663345499998,0.2464492170278593,-0.13420709283210397,-0.5297737504918548,18.611026821801463,0.599507286903417,0.06590068800000015,-0.14847268099999988,-0.48003551750000284
31342.0,1.554942424,2.9356206774999998,18.051885187,0.06658780162208766,-0.08544433886063439,-0.4687535491836291,18.3550067695098,0.4811076389337862,-0.01922103399999986,0.007256921000000194,-0.25977815849999786
31352.0,1.5681814015,2.875702046,17.847122334999998,-0.14391810479020042,0.01048070215822595,-0.4029371830909229,18.14520958285781,0.42799607418921554,0.013238977499999915,-0.059918631499999986,-0.20476285200000177
31362.0,1.4567778574999999,2.7703786249999998,17.5610623545,-0.3837333253312293,0.15410559163409132,-0.3192678440795667,17.837828076046595,0.5224287076777757,-0.11140354400000008,-0.10532342100000003,-0.28605998049999926
31372.0,1.2066102159999998,2.803917368,17.1336885475,-0.6379387855549514,0.3291708422553825,-0.2244074539044229,17.40348080306524,0.752115711093918,-0.25016764150000004,0.03353874300000026,-0.4273738069999986
31382.0,0.8893650885000001,2.563262177,16.432218873,-0.8950746535927719,0.5402090740895289,-0.15619300541947653,16.654702048936773,1.0570623132885097,-0.3172451274999998,-0.2406551910000001,-0.7014696745000002
31392.0,0.524263509,2.167073517,15.5846301135,-1.0893263086812368,0.7211368856682691,-0.12182049113070022,15.743308280966957,1.3120634309040642,-0.3651015795000001,-0.39618865999999997,-0.8475887595000007
31402.0,0.154356671,1.776768847,14.699972217,-1.1615375611532501,0.7840228439468767,-0.11222816156173938,14.807765418797118,1.405865031234477,-0.36990683799999996,-0.3903046699999999,-0.8846578965000003
