timestamp,ax,ay,az,gx,gy,gz,acc_mag,gyro_mag,dax,day,daz
116972.0,-0.23143693999999998,-1.7802011745,6.991749184,-0.04046196804898454,-0.20864538542966213,-0.04729318674129035,7.21853419544802,0.21773082747198633,0.0,0.0,0.0
116982.0,-0.3511761365,-1.5131660949999999,6.7272638334999995,-0.05005429761794538,-0.19718729889031936,-0.04942423375797542,6.904279469678333,0.20935858815976238,-0.11973919650000003,0.26703507950000005,-0.2644853505000002
116992.0,-0.2278084795,-1.638887348,6.5225009814999995,-0.021809634332921143,-0.18173240836390955,-0.014250613342533702,6.729105995333632,0.18359032757779184,0.12336765700000002,-0.12572125300000003,-0.204762852
117002.0,-0.172793173,-1.6795849455,6.4662108105,0.04187568474309995,-0.13963157614730234,0.019589575524384357,6.6830191766605545,0.14708603434489947,0.0550153065,-0.04069759750000013,-0.05629017099999967
117012.0,-0.30204482,-1.7646086009999997,6.480626586,0.11621798423179842,-0.13563477216023534,0.042238713227514775,6.723361922073065,0.1835416033845671,-0.129251647,-0.08502365549999968,0.014415775499999839
117022.0,-0.29488596549999996,-1.9345578454999999,6.566827039499999,0.20202011558909164,-0.1881272947432168,0.048633599606821995,6.852203233773994,0.28030203913055607,0.007158854500000034,-0.16994924450000015,0.08620045349999916
117032.0,-0.2840986505,-1.9908480164999998,6.7272638334999995,0.2878205016171329,-0.26486942195340746,0.03397806987782561,7.021414854111315,0.392620632506358,0.010787314999999964,-0.05629017099999989,0.16043679400000066
117042.0,-0.1464132845,-1.8519858524999997,6.827781996,0.34964006372277207,-0.3378800352228343,0.007332128187628178,7.0760084392713924,0.4862765185221343,0.137685366,0.13886216400000007,0.10051816250000023
117052.0,0.10738281749999999,-1.6915490585,6.930751821,0.36536024429548497,-0.35466661196851573,-0.01958084887812438,7.134997553685726,0.5095683697009363,0.25379610199999997,0.16043679399999977,0.10296982500000063
117062.0,0.3180296595,-1.511989297,6.990572386,0.34750727137683496,-0.3141645013467353,-0.03237062163673883,7.159284655778814,0.4695833203078714,0.210646842,0.17955976149999997,0.05982056499999988
117072.0,0.48444850999999994,-1.3791091895,7.060003468,0.2995456235320308,-0.25154557844368275,-0.033169982434152236,7.209735188172766,0.39255955770614226,0.16641885049999994,0.1328801074999999,0.06943108199999948
117082.0,0.5251461075,-1.2845730834999998,7.0910905484999995,0.2358603044560097,-0.20304985984776833,-0.021444860519254327,7.225612196077307,0.3119602712605729,0.04069759750000007,0.09453610600000029,0.031087080499999864
117092.0,0.41021216949999995,-1.1827800565,7.136593404499999,0.19349243686384734,-0.19585561267104767,0.011863002925805458,7.245564719689758,0.2755711795102657,-0.11493393800000007,0.10179302699999981,0.0455028559999997
117102.0,0.26056269049999997,-1.071474579,7.1785658665000005,0.1916266798934654,-0.23129452313279256,0.05796063912947969,7.262765216417416,0.30590419507832245,-0.14964947899999997,0.11130547749999997,0.041972462000001265
117112.0,0.138469898,-1.060687264,7.147380719499999,0.2241351825411118,-0.3237568309156961,0.10112786751905545,7.226982948239484,0.4065487808446408,-0.12209279249999996,0.010787314999999964,-0.0311851470000013
117122.0,0.055897905,-1.12776475,7.0420572985,0.2798268936429989,-0.44206746492063576,0.1325699739937333,7.132008756478294,0.5397235699429356,-0.08257199300000001,-0.06707748600000007,-0.10532342099999958
117132.0,-0.037461403,-1.2606448575,6.8301355919999995,0.3507064598957406,-0.5481189062595673,0.1466914329716194,6.945601559156781,0.6670440262224482,-0.093359308,-0.1328801074999999,-0.21192170650000008
117142.0,0.0510926465,-1.4317708999999998,6.704512405499999,0.42131899077292717,-0.6070063152218559,0.1381654995756271,6.855878132239266,0.751702111197059,0.0885540495,-0.17112604249999985,-0.12562318650000037
117152.0,0.16367298849999998,-1.5144409595000001,6.546429207499999,0.4623534268165658,-0.5814267697046269,0.11018612633690601,6.721313535000794,0.750978536481111,0.11258034199999997,-0.08267005950000028,-0.15808319799999992
117162.0,0.18279595599999998,-1.5611206135,6.4434593824999995,0.45915598362691223,-0.4825695755424162,0.06808529412029879,6.632396304907589,0.6695768961180132,0.019122967500000004,-0.04667965399999985,-0.10296982499999974
117172.0,0.15161080899999999,-1.5574921529999999,6.3980545929999995,0.4255810848062973,-0.3477394001673502,0.00493404579538797,6.586643319557435,0.5496055812867663,-0.031185146999999996,0.003628460500000097,-0.04540478950000004
117182.0,0.1109132115,-1.5287586684999999,6.4075670435,0.3848136841382138,-0.2099788169781858,-0.08299913257859033,6.588347305959703,0.4461631216140369,-0.04069759749999999,0.028733484500000017,0.009512450500000824
117192.0,0.12415218899999998,-1.4916895314999998,6.515342126999999,0.36802536206328035,-0.07461457085200958,-0.17093056562331665,6.685075501165343,0.41258606322747393,0.013238977499999985,0.03706913700000003,0.10777508349999909
117202.0,0.29047297299999997,-1.4342225624999998,6.6852913715,0.381349205573005,0.04422664324553631,-0.23861268868640476,6.843572870122731,0.4520168445601171,0.166320784,0.057466969000000034,0.1699492445000006
117212.0,0.47130759899999997,-1.2629984534999998,6.894859482,0.38987513896899734,0.1404204649692038,-0.2700547951610826,7.025409825977688,0.4946211917798879,0.180834626,0.17122410899999996,0.20956811050000024
117222.0,0.5334817599999999,-1.115800637,7.065985524499999,0.395205374504588,0.19531106994442546,-0.25806438319988156,7.173406811426899,0.5108139856704035,0.06217416099999995,0.14719781649999986,0.1711260424999992
117232.0,0.497589421,-1.0762798375,7.184547923,0.42984492416891945,0.1846523442024961,-0.2156965156077192,7.281737593348428,0.5151583580789234,-0.03589233899999994,0.03952079949999998,0.11856239850000083
117242.0,0.45090976699999996,-0.9781152709999998,7.422751451499999,0.49592832563718076,0.1481470375677827,-0.17812481280003728,7.50048453182091,0.5473763767687239,-0.046679654000000015,0.09816456650000016,0.23820352849999882
117252.0,0.331268637,-0.885932761,7.652619327499999,0.577731907678155,0.05568472978487909,-0.1525452672828084,7.710849391506715,0.600120825210256,-0.11964112999999998,0.09218250999999988,0.22986787600000014
117262.0,0.3192064575,-0.675285919,7.8632661695,0.6704612508366137,-0.10152754791776214,-0.12962909420412286,7.89866182889941,0.6903838308678524,-0.012062179499999992,0.21064684199999995,0.21064684200000094
117272.0,0.4665023405,-0.5327952945,7.971041252999999,0.7514654720801746,-0.2318285938839028,-0.11630699602365012,8.002436748676063,0.7949667728873405,0.14729588300000002,0.14249062450000005,0.10777508349999909
117282.0,0.5023946794999999,-0.3029274185,7.9913410185,0.8143496850295302,-0.2736623907249549,-0.1152405998506816,8.012845731001539,0.8667969251554472,0.03589233899999994,0.22986787599999997,0.020299765500000788
117292.0,0.48925376849999996,-0.143765489,8.1074517545,0.8799007610759333,-0.20198346367479977,-0.12882973340670945,8.123472885248278,0.9119318884377932,-0.013140910999999977,0.1591619295,0.11611073599999955
117302.0,0.5382870184999999,-0.18799348049999998,8.491774368,0.9198688009466034,-0.029316295445748753,-0.14988014951501305,8.510894569903796,0.9324602486713559,0.04903324999999997,-0.04422799149999998,0.3843226135000002
117312.0,0.44492771049999996,-0.203586054,9.0783101045,0.8982860594164416,0.15347727310337336,-0.17439504418852542,9.09148625376626,0.9278398295711842,-0.09335930799999997,-0.015592573500000012,0.5865357365000001
117322.0,0.30969400699999994,-0.23947839299999998,9.6888721335,0.8441948152386333,0.2323504473302491,-0.20530482524134497,9.696777995705503,0.8993340245524664,-0.13523370350000002,-0.035892338999999995,0.6105620290000005
117332.0,0.3180296595,-0.275370732,10.1282100535,0.8087541594476364,0.15560832012005843,-0.2364816416697197,10.136942872098194,0.8568668546286787,0.008335652500000068,-0.03589233900000002,0.4393379199999998
117342.0,0.437768856,-0.075511205,10.392695404,0.8244760853496013,-0.007733553915586874,-0.2703218305366378,10.402185408542131,0.8676949436491186,0.11973919649999998,0.199859527,0.2644853504999993
117352.0,0.659203013,0.1711260425,10.507629342,0.8748375609158977,-0.12950692115648324,-0.2911052112693862,10.52967744632424,0.9310505059581369,0.22143415699999996,0.2466372475,0.11493393800000007
117362.0,0.9106455189999999,0.4847427095,10.7087637335,0.8913588476152761,-0.12790819956165644,-0.28817480345528773,10.758339623548471,0.9454765042472664,0.25144250599999995,0.313616667,0.20113439150000012
117372.0,0.9884122535,0.74334407,10.9733471505,0.8537871448075941,-0.042640138955473465,-0.256997987026913,11.042819697643333,0.8926469825326981,0.07776673450000005,0.25860136050000004,0.26458341700000076
117382.0,0.8699479214999999,0.812775152,11.328838213,0.7956973513134669,0.061547290742328044,-0.20210738205169138,11.391224169954684,0.8232677193749162,-0.11846433200000006,0.06943108199999992,0.35549106249999873
117392.0,0.6855829015,0.677443382,11.626960372999998,0.7317467421911427,0.11377452327900635,-0.15547567509690685,11.6668402305833,0.7566839646784876,-0.18436501999999988,-0.13533176999999996,0.29812215999999836
117402.0,0.5168104549999999,0.561332646,11.846040933999998,0.6856491059874683,0.11057708008935276,-0.14295293771384757,11.870588578325265,0.7090680711917022,-0.16877244650000012,-0.11611073599999999,0.21908056100000017
117412.0,0.38991240399999993,0.49553002449999994,12.037564808499999,0.6776554980133344,0.09405579338997443,-0.16000654983508414,12.054067703759243,0.7026133803508477,-0.12689805099999996,-0.06580262150000005,0.1915238745000014
117422.0,0.4329635975,0.39971905399999996,12.178780568499999,0.6776554980133344,0.09005898940290741,-0.1906492955123486,12.19302788213674,0.7097004645900467,0.043051193500000084,-0.09581097049999998,0.1412157599999997
117432.0,0.3958944605,0.5350508239999999,12.3500046775,0.6699271800855034,0.1265642960376208,-0.2101009900258254,12.367927366474527,0.7134166900617374,-0.03706913700000003,0.13533176999999996,0.17122410900000062
117442.0,0.254580634,0.67273619,12.672055063499998,0.6696618900392003,0.15960512410712546,-0.20503778986578985,12.692453065224212,0.7183044882813783,-0.14131382650000002,0.13768536600000003,0.322050385999999
117452.0,0.146903617,0.6236048734999999,13.0574564085,0.6829839882196731,0.14548366512923933,-0.1919809817316203,13.073164558392829,0.7242163504992993,-0.10767701699999999,-0.04913131650000002,0.3854013450000018
117462.0,0.0163771055,0.605658704,13.4609019895,0.708830569112457,0.0698079340920172,-0.1791912089730058,13.474530531571057,0.7344545001180758,-0.1305265115,-0.017946169499999942,0.4034455809999997
117472.0,0.04873905049999999,0.6295869299999999,13.824826771,0.740274420916387,-0.07594800240053325,-0.173595683391112,13.83924096349322,0.7641398946683458,0.03236194499999999,0.023928225999999886,0.36392478149999974
117482.0,0.20074212549999998,0.649984762,13.869152828999999,0.7376093031485915,-0.21850475037417808,-0.1690665539821867,13.88582650712377,0.7876517693135998,0.152003075,0.020397832000000116,0.044326057999999335
117492.0,0.37196623449999994,0.8390569739999999,13.845224603,0.6984388787460829,-0.24621708823734406,-0.15973951445952903,13.875612411448463,0.7575991251076836,0.17122410899999996,0.1890722119999999,-0.023928225999998887
117502.0,0.5586848504999999,0.9707602834999999,13.7937396905,0.6254282654766561,-0.1292398857809281,-0.14615038090350116,13.839138663207125,0.6551514307181542,0.186718616,0.13170330949999998,-0.051484912499999425
117512.0,0.5969307855,1.0461734219999999,13.954078417999998,0.5279027575337168,0.07407177345463935,-0.11470827442882332,14.005966931535651,0.5452760193304451,0.038245935000000064,0.07541313849999998,0.16033872749999745
117522.0,0.35872725699999997,1.0533322765,14.265341488999999,0.4402366145352937,0.2510027810463125,-0.061948716470286734,14.308674359542051,0.5105372820302116,-0.23820352850000004,0.007158854500000089,0.31126307100000083
117532.0,0.0942419065,0.8917186844999999,14.564640446999999,0.3701581544092174,0.3064257114433924,-0.009454448558053283,14.592216935737197,0.48062788361347086,-0.2644853505,-0.16161359200000003,0.2992989579999996
117542.0,-0.1560238015,0.685877101,14.774110490999998,0.31526580410474375,0.26912104401126563,0.028916615047042054,14.790845534471208,0.4155175498018141,-0.25026570800000003,-0.20584158349999992,0.2094700439999997
117552.0,-0.4361017255,0.6475330995,14.795685120999998,0.2566436851887582,0.12763069221058934,0.03531150142634928,14.816267479689778,0.28879486988934494,-0.280077924,-0.03834400149999995,0.021574629999999928
117562.0,-0.34754767599999997,0.5111225979999999,14.539535423,0.17697289549372103,-0.02025629129864619,0.032646383658553935,14.55266731612975,0.1810953048606965,0.08855404950000001,-0.13641050150000011,-0.256149697999998
117572.0,-0.20623384949999998,0.556625454,14.024784364499999,0.0733177912177778,-0.10445970106111262,0.026518532654801846,14.03734094362048,0.1303478432080656,0.1413138265,0.045502856000000036,-0.5147510585000017
117582.0,-0.080610663,0.6332153905,13.511210104,-0.022341959754779414,-0.10845650504817964,0.03371277983152247,13.526280282627114,0.11575201154588506,0.12562318649999998,0.07658993650000001,-0.5135742604999987
117592.0,0.0020593965,0.6247816715,13.037156643,-0.09268745525641087,-0.05809502948188325,0.05263040359388901,13.052118974031584,0.12139174681528268,0.0826700595,-0.008433719000000006,-0.47405346100000045
117602.0,0.069038816,0.549368533,12.8036603065,-0.1022797848253717,-0.019456930501232785,0.07181680806106266,12.815626765297472,0.12648075129652597,0.0669794195,-0.07541313849999998,-0.2334963365
117612.0,0.365984178,0.21898249449999999,12.5379000915,-0.09748362004089128,-0.028783970023890482,0.05129871737461734,12.545151910434543,0.11385574869497786,0.296945362,-0.33038603850000003,-0.26576021500000024
117622.0,0.42815833899999994,0.07776673449999999,12.446992445999998,-0.04925493682053197,-0.03384717018392603,0.03557679147265242,12.454597070119572,0.06955133228158064,0.06217416099999995,-0.14121576,-0.09090764550000152
117632.0,0.2701732075,0.360296321,12.33088171,0.04107632394568655,-0.029848620867607024,0.06755296869844052,12.339102509785285,0.08450803592890804,-0.15798513149999993,0.2825295865,-0.11611073599999777
117642.0,0.4317867995,0.35303939999999995,12.198001602499998,0.1044946076461525,-0.004002039974822998,0.10592403230353586,12.210746076827874,0.14884569181042473,0.16161359199999997,-0.007256921000000027,-0.1328801075000019
117652.0,0.508376736,0.48954796799999994,12.045900460999999,0.09063843871456952,0.08739387163511206,0.13363637016670182,12.066558002802578,0.1836074475704103,0.07658993650000001,0.136508568,-0.15210114149999931
117662.0,0.498766219,0.547014937,11.91900241,-0.0002251474735072685,0.21929363919607953,0.1528210293046235,11.94196849485471,0.26729013801666857,-0.009610516999999985,0.05746696900000009,-0.1268980509999995
117672.0,0.4497329689999999,0.45600922499999996,11.765822537,-0.12519595790405724,0.3306735707413497,0.1645444058902694,11.783241664706186,0.389992179116621,-0.049033250000000084,-0.09100571200000007,-0.15317987299999913
117682.0,0.3372506935,0.442868314,11.558706089,-0.2461699643475402,0.373041438333512,0.1645444058902694,11.572102523988331,0.4762713801716269,-0.11248227549999995,-0.013140910999999977,-0.20711644800000073
117692.0,0.172008641,0.38059608649999993,11.2738229065,-0.3303716287807546,0.32854252372466464,0.1613469627006158,11.281556775585623,0.49307042638079046,-0.1652420525,-0.062272227500000055,-0.2848831824999998
117702.0,-0.037461403,0.395011862,10.896757213999999,-0.3532878018594402,0.19770915233666564,0.15948295105948587,10.903978884274146,0.43512755777932555,-0.209470044,0.014415775500000061,-0.37706569250000044
117712.0,-0.21829602899999997,0.4523807644999999,10.413093235999998,-0.32557546399627424,0.027173031124299717,0.14855718994200134,10.425200825595432,0.358896914253014,-0.18083462599999997,0.05736890249999993,-0.48366397800000094
117722.0,-0.29723956149999997,0.46199128149999996,9.934234516499998,-0.2765474199785015,-0.12630947796682962,0.13230293861817816,9.949412180120124,0.3315669273133618,-0.0789435325,0.00961051700000004,-0.4788587194999998
117732.0,-0.30204482,0.512299396,9.520099687,-0.2320485053696541,-0.21957114654714663,0.10885444011763434,9.538657127439286,0.337501535364867,-0.00480525850000002,0.0503081145,-0.41413482949999825
117742.0,-0.28890390899999996,0.605658704,9.187261986,-0.21392849707544895,-0.24461836664251724,0.08247553380299205,9.211735489785141,0.33526968374116656,0.013140911000000033,0.09335930800000003,-0.33283770100000076
117752.0,-0.246931447,0.7001948100000001,8.946606795,-0.21605954409213404,-0.21264218941672916,0.06142511769468843,8.97736158655808,0.3093080542065584,0.04197246199999996,0.09453610600000006,-0.2406551910000001
117762.0,-0.22545488349999998,0.7505029245,8.835301317499999,-0.22885106218000048,-0.15668518826853892,0.04916767035793226,8.869985000843815,0.2816744871160472,0.021476563500000018,0.050308114499999945,-0.1113054775000002
117772.0,-0.391873734,0.7241230359999999,8.8233372045,-0.2235208266444098,-0.13217029359502658,0.05822592917578283,8.86167019353456,0.26612178655867147,-0.1664188505,-0.02637988850000006,-0.011964112999999443
