timestamp,ax,ay,az,gx,gy,gz,acc_mag,gyro_mag,dax,day,daz
122272.0,2.7651811005,-4.7429862725,7.899844974,-0.354870815490999,0.04482703650822236,0.13773091259188053,9.62027525141141,0.38329174681011385,0.0,0.0,0.0
122282.0,2.6477955,-4.274914868,7.762257674499999,-0.37592123159930263,0.11836997519950743,0.1864936665633501,9.248695169795674,0.4360138886137809,-0.11738560050000002,0.46807140449999984,-0.1375872995000007
122292.0,2.774693551,-4.9944287785,7.8149193850000005,-0.3847142003708501,0.19830954559935168,0.23205897734516603,9.6807132030403,0.49110392058024566,0.12689805099999996,-0.7195139104999999,0.05266171050000157
122302.0,2.4766694575,-5.1607495624999995,7.872386354,-0.33728313261865217,0.28038016301588103,0.2533764288290248,9.733534535573533,0.5065299221645383,-0.29802409350000003,-0.16632078399999983,0.057466968999999146
122312.0,2.173742039,-5.2505784765,7.925048064499999,-0.2501510603713393,0.2649252724894713,0.24165130691412687,9.751928815092743,0.43721425770648376,-0.30292741849999993,-0.08982891400000081,0.05266171049999979
122322.0,2.0624365614999998,-5.481623150499999,7.9860454275,-0.1369036265264352,0.17406168630139449,0.20274791788717328,9.903472042895014,0.3002445533257159,-0.1113054775000002,-0.23104467399999873,0.06099736300000025
122332.0,2.078029135,-5.6528472595,7.970550920499999,-0.018062412428889316,0.03336894996887958,0.1385302733892939,9.990123582890698,0.14363277554266435,0.015592573500000206,-0.17122410900000062,-0.015494507000000546
122342.0,2.15942433,-5.600087482499999,7.871111489499999,0.08452629567408539,-0.09506633902687914,0.07164925645287122,9.898408424023936,0.14599972406345751,0.08139519499999981,0.05275977700000034,-0.09943943100000041
122352.0,2.263570953,-5.3798301235,7.6473237365,0.15806923436537043,-0.1576835166006797,0.02554987491994499,9.620181180612954,0.22472821444766583,0.1041466230000001,0.22025735899999965,-0.22378775299999898
122362.0,2.3725228345,-5.2050756205,7.489240538499999,0.20683198833684002,-0.1491575832046874,0.011161380566503737,9.423927029580563,0.2552489616883569,0.1089518814999999,0.17475450299999995,-0.1580831980000008
122372.0,2.390469004,-5.088964884499999,7.4677639749999996,0.25079857752382917,-0.09186889583722553,0.01995434933805117,9.34769514057164,0.2678394977740067,0.017946169500000053,0.11611073600000044,-0.02147656349999938
122382.0,2.4299898035,-5.080629232,7.5347433944999995,0.2976955745249168,-0.025253168947105956,0.026616271092913524,9.406912450912268,0.29994800136104066,0.03952079949999998,0.008335652499999568,0.06697941949999997
122392.0,2.3378072934999996,-5.037479972,7.6317311629999995,0.3451266422771147,0.002726204291615143,0.02821499268774033,9.438478052850906,0.3462887771956873,-0.09218251000000022,0.043149259999999856,0.09698776850000002
122402.0,2.2683762114999997,-4.9620668335,7.713126357999999,0.3776351449247611,-0.03404613771865339,0.02288650248140164,9.44774873244913,0.3798568601088231,-0.06943108199999992,0.07541313850000009,0.08139519499999981
122412.0,2.3605587215,-4.9489259225,7.6940033905,0.3949557924215528,-0.10918779800476526,0.010362019769090335,9.447845968106575,0.4099017256052494,0.09218251000000022,0.01314091099999981,-0.019122967499999532
122422.0,2.5185438529999997,-4.922546033999999,7.643695276,0.4066791690071987,-0.16967567389113275,-0.008822639368831335,9.43401293557932,0.4407443927949942,0.15798513149999982,0.02637988850000106,-0.050308114499999945
122432.0,2.6263189364999997,-4.8710611214999995,7.510815168499999,0.4117423691672343,-0.2005854549439523,-0.031206487025658612,9.329369330291142,0.4590644269979999,0.10777508349999998,0.051484912499999425,-0.132880107500001
122442.0,2.7436064705,-4.841150839,7.36479415,0.40561451816348215,-0.20005138419284205,-0.052256903133962224,9.230618114882345,0.45527406865273823,0.11728753400000036,0.029910282499999497,-0.14602101849999904
122452.0,2.8298069239999997,-4.760932442,7.2271087839999995,0.3962874786408245,-0.15608479500585287,-0.06984284067705708,9.105239498232672,0.43160659326910406,0.08620045349999961,0.08021839700000033,-0.13768536600000036
122462.0,2.8465762954999994,-4.6268755365,7.146890386999999,0.3898925922615173,-0.07321656212116213,-0.08689645279829368,8.977138521831868,0.4061131516931874,0.016769371499999686,0.1340569054999996,-0.08021839700000033
122472.0,2.820196407,-4.4066181775,7.0822645635,0.3818989842873832,0.019247490990993467,-0.09542413152353797,8.805127079363306,0.39411047307348335,-0.026379888499999282,0.22025735899999965,-0.06462582349999924
122482.0,2.7017320750000002,-4.167237850999999,7.182782725999999,0.3800332273170013,0.09678723366934554,-0.09195965295832924,8.73255948739056,0.402802184997247,-0.11846433199999984,0.23938032650000096,0.10051816249999934
122492.0,2.586798137,-3.946980492,7.3576352955,0.3944217216704426,0.14182021902930325,-0.07863580944860452,8.740994036572877,0.4264563982151433,-0.11493393800000007,0.22025735899999965,0.1748525695000005
122502.0,2.5257027075,-3.8990259734999997,7.6940033905,0.4221340595336085,0.13968742668336617,-0.063714989673305,8.98772862750795,0.44918742335556805,-0.06109542950000035,0.0479545185000001,0.3363680950000001
122512.0,2.562869911,-3.946980492,8.0531229135,0.4605051231387039,0.0901253119144832,-0.04612730680095813,9.327365428934176,0.47150320117405936,0.037167203500000134,-0.0479545185000001,0.3591195229999995
122522.0,2.6370081849999996,-4.001995798499999,8.347616613,0.48528530785851937,0.009653416092780637,-0.029873055477134945,9.62561611828574,0.4862997202437384,0.07413827399999962,-0.05501530649999964,0.29449369950000026
122532.0,2.7316423575,-4.1157529385,8.628871335,0.4743612920702868,-0.07268249137005185,-0.01281944335589835,9.942771883938816,0.48006845146739724,0.09463417250000061,-0.11375714000000059,0.2812547219999999
122542.0,2.7291906949999998,-4.0881962519999995,8.751062194,0.4162714985761596,-0.1366331004923761,-0.001895427567665842,10.037077262221183,0.4381257323219736,-0.0024516625000003955,0.027556686500000538,0.12219085899999982
122552.0,2.6681933319999995,-3.963651797,8.718700249,0.3296717517507049,-0.166211195325924,-0.005625196179177724,9.942108692661897,0.36924418504034034,-0.06099736300000025,0.12454445499999967,-0.03236194499999989
122562.0,2.5376668204999997,-3.6991664464999996,8.5642455115,0.24653473816120705,-0.1491575832046874,-0.01228711793404008,9.667982544048469,0.2884065446809472,-0.13052651149999983,0.2644853505000002,-0.15445473750000005
122572.0,2.3748764304999996,-3.429777771,8.4134192345,0.1975066941434343,-0.07987673854677249,-0.01281944335589835,9.390901811543165,0.2134327194229897,-0.16279039000000006,0.2693886754999997,-0.15082627700000018
122582.0,2.216891299,-3.256200066,8.397826661,0.19510861175119412,0.024043655775473884,-0.0010960667702524388,9.27582549046729,0.19658756096175703,-0.15798513149999982,0.17357770500000003,-0.015592573499999318
122592.0,2.1127446759999997,-3.2118740079999997,8.5511046005,0.22894880061811218,0.1383557404640945,0.00903033354981866,9.375564761545014,0.2676591323827023,-0.1041466230000001,0.044326058000000224,0.15327793950000057
122602.0,2.1546190715,-3.3794696565,8.855208817,0.2611902678902034,0.2396110170185455,0.010094984393535202,9.719975395809923,0.35459230706139644,0.04187439550000027,-0.1675956485000003,0.30410421649999897
122612.0,2.2803403244999996,-3.6691580974999995,9.229822847,0.27478114677548326,0.29743377513711766,0.007164576579436722,10.190795009565925,0.404997358476731,0.1257212529999996,-0.2896884409999996,0.37461403000000004
122622.0,2.4443075125,-3.9888548874999996,9.5602088855,0.2649217818309673,0.3142203518827991,-0.00722391777400453,10.643457918533324,0.41105980710092577,0.16396718800000043,-0.31969679000000006,0.33038603850000037
122632.0,2.5245259095,-4.08937305,9.727804533999999,0.22601839280401367,0.3054273831112517,-0.038933059624237515,10.850178987533525,0.3819502367738515,0.08021839699999989,-0.10051816250000023,0.16759564849999897
122642.0,2.5975854519999997,-4.0714268805,9.747025568,0.1578039443190673,0.2963673789641491,-0.09249197838018751,10.877889245940395,0.34826781967534115,0.0730595424999998,0.017946169500000053,0.01922103400000097
122652.0,2.6861395014999996,-3.961298201,9.645232540999999,0.05867971478130135,0.33020931316031915,-0.15191345809358645,10.767438861155878,0.36818364734813586,0.0885540494999999,0.11012867949999983,-0.10179302700000115
122662.0,2.728013897,-3.7637922699999997,9.505193579,-0.05749812687770119,0.40828138126052954,-0.19054981174498492,10.580968625234634,0.4542124520909783,0.04187439550000027,0.19750593100000025,-0.14003896199999843
122672.0,2.7291906949999998,-3.5902145649999997,9.4297804405,-0.15742171721288056,0.47329838655582224,-0.19081684712054003,10.45269733745549,0.5340449689975744,0.0011767979999999234,0.17357770500000003,-0.07541313850000009
122682.0,2.7471368645,-3.523137079,9.428603642499999,-0.20645150655990524,0.4948828734152362,-0.15111409729617306,10.433495218625627,0.5571056931698083,0.017946169500000053,0.06707748599999963,-0.0011767980000012557
122692.0,2.737624414,-3.519606685,9.5590320875,-0.18619870591976306,0.4527820411986289,-0.08636412737643541,10.547858223311506,0.4971320724070058,-0.009512450499999936,0.0035303940000002143,0.1304284450000015
122702.0,2.6406366455,-3.521960281,9.6823997445,-0.11212344180661972,0.3568552548505166,-0.010688396339213275,10.636072156900438,0.37420793809497643,-0.09698776850000002,-0.002353596000000291,0.1233676569999993
122712.0,2.4886335705,-3.4669449745,9.7985104805,-0.020193459445574394,0.220691647926927,0.05619436592646143,10.687554076630382,0.2286271769299525,-0.1520030750000001,0.05501530650000008,0.11611073599999955
122722.0,2.4024331169999997,-3.4836162794999996,9.864313102,0.07253588371288433,0.04722511890046257,0.09483071957785989,10.733682510617902,0.12839210122443906,-0.08620045350000005,-0.01667130499999958,0.06580262150000138
122732.0,2.4443075125,-3.5136246284999997,9.910992755999999,0.14901097554751985,-0.12810716709638378,0.09722880197010011,10.795738726699074,0.21924679479441725,0.04187439550000027,-0.030008349000000045,0.046679653999998294
122742.0,2.5461005395000003,-3.498032055,9.8679415625,0.18977837621560342,-0.26746647188037503,0.07271390729658776,10.774744864541558,0.3359188264648222,0.10179302700000026,0.015592573499999762,-0.04305119349999842
122752.0,2.7100677275,-3.4884215379999994,9.709858364499999,0.1828511644144379,-0.356731336473625,0.037274996834842894,10.667469304997784,0.40259311983566237,0.16396718799999954,0.009610517000000485,-0.1580831980000017
122762.0,2.949448054,-3.5207834829999998,9.542262716,0.14208201841710238,-0.3998985648632008,0.005565854984609917,10.590086774836818,0.42442566001460746,0.23938032650000007,-0.032361945000000336,-0.16759564849999897
122772.0,3.1864747844999997,-3.6739633559999993,9.3699598755,0.09225461360191627,-0.4137547337947837,-0.01228711793404008,10.55688289041633,0.4240929930281285,0.23702673049999978,-0.15317987299999958,-0.17230284050000044
122782.0,3.411537402,-3.846364263,9.219035532,0.0653416365361637,-0.40709281203992137,-0.02587625149006793,10.555743537487398,0.4131145936310797,0.22506261750000034,-0.17240090700000055,-0.15092434349999984
122792.0,3.5516744305,-3.8654872305,9.077819772,0.0823952486574003,-0.36712302683999926,-0.044795620581686464,10.486333706417138,0.37891284150946386,0.14013702849999987,-0.019122967499999977,-0.1412157599999997
122802.0,3.615123456,-3.7481996964999995,8.9880889245,0.15487179117571684,-0.3095673040969822,-0.06637836211184835,10.387678329717552,0.35245322303037596,0.0634490255000002,0.11728753400000036,-0.08973084750000027
122812.0,3.7563392159999998,-3.6679812994999996,9.099394402,0.2609249778439003,-0.25254565210507546,-0.08529773120346687,10.505386694562468,0.3730105272086521,0.1412157599999997,0.08021839699999989,0.1113054775000002
122822.0,3.8508753219999994,-3.5626578784999996,9.283759422,0.3709732231698987,-0.19792033717615698,-0.08529773120346687,10.663487277171596,0.4290329767342436,0.09453610599999962,0.10532342100000003,0.18436501999999955
122832.0,3.9167760099999995,-3.496855257,9.576978256999999,0.45117808361604617,-0.15022397937765594,-0.06984284067705708,10.92188827703208,0.48063180243232667,0.06590068800000015,0.0658026214999996,0.29321883499999934
122842.0,3.9119707514999997,-3.511172966,9.8092977955,0.49221426498893683,-0.12171228071707657,-0.038666024248682374,11.128979018695375,0.5085113797813687,-0.004805258499999798,-0.014317709000000178,0.23231953850000053
122852.0,3.8078241285,-3.535101192,9.921780071,0.5058033985449647,-0.1158497197596276,0.003167772592369708,11.199918964374671,0.5189106573690866,-0.10414662299999966,-0.023928225999999775,0.11248227550000145
122862.0,3.7132880224999996,-3.6872023334999997,9.9277621275,0.5196595674765476,-0.1134516373673874,0.04686732640380373,11.222496595964426,0.5339605663113095,-0.09453610600000051,-0.15210114149999976,0.0059820564999988335
122872.0,3.6545461889999995,-3.9169721429999997,9.876277215,0.54417446215006,-0.08573929950422143,0.0761783858617965,11.235623269053683,0.5561296784098925,-0.05874183350000006,-0.22976980950000003,-0.051484912499999425
122882.0,3.5408871155,-4.0271008225,9.910992755999999,0.5596293526764697,0.012585569236131109,0.07937582905145012,11.26868226585427,0.5653706139937652,-0.1136590734999996,-0.11012867949999983,0.03471554099999885
122892.0,3.3673094105,-4.0451450585,10.0534833805,0.5612280742712966,0.1703301723606306,0.0559273305509063,11.347885234365853,0.5891665174373205,-0.17357770500000003,-0.018044236000000602,0.1424906245000006
122902.0,3.0907618804999997,-4.031906081,10.3072794825,0.5716197646376708,0.3192835520428347,0.010362019769090335,11.49126128753159,0.6548270866291427,-0.2765475300000002,0.01323897750000036,0.2537961020000008
122912.0,2.7783220115,-3.937369975,10.7728992245,0.6289084520051327,0.39336056148523,-0.05465498552620243,11.801580962771455,0.7438047726240651,-0.31243986899999987,0.09453610599999962,0.46561974199999945
122922.0,2.5723823615,-3.9038312319999995,11.251757944,0.7285667522940089,0.35099269389306764,-0.12633216724710555,12.184379595698012,0.8185140195475598,-0.20593964999999992,0.033538743000000704,0.4788587194999998
122932.0,2.5341364264999995,-3.8643104325,11.6480446705,0.8346181936329403,0.22442316186769085,-0.18602068233605965,12.531228478996221,0.8840571129641892,-0.0382459350000004,0.03952079949999954,0.39628672649999963
122942.0,2.6250440719999997,-3.6955379859999997,11.803578139499999,0.9150900894546429,0.06960896655728985,-0.22359238514374158,12.644062412104487,0.944578654606141,0.09090764550000019,0.16877244650000023,0.15553346899999987
122952.0,2.8165679465,-3.4824394814999997,11.875460883999999,0.9510630706674981,-0.03591014935978333,-0.23025256156935195,12.692005788959255,0.9791969900504089,0.19152387450000052,0.2130985045,0.07188274449999987
122962.0,2.9291482885,-3.2550232679999995,11.7761195195,0.921217940458395,-0.04630358505540956,-0.20627173764694984,12.563919655457559,0.9451637665311142,0.11258034199999978,0.22741621350000019,-0.09934136449999897
122972.0,2.9770047405,-3.0203501334999996,11.631275298999999,0.8346181936329403,0.008854055295367234,-0.16150578766254728,12.380292291986505,0.8501470713275353,0.047856451999999994,0.23467313449999994,-0.14484422050000134
122982.0,2.8944327475000002,-2.8575597434999995,11.591754499499999,0.7456203644152455,0.10691363398941665,-0.10874622970401068,12.284631089053942,0.7610558425229937,-0.08257199299999973,0.16279039000000006,-0.03952079949999998
122992.0,2.7567473815000003,-2.7642004355,11.649221468499999,0.7187073873494929,0.17432872167694963,-0.07224092306929729,12.285960320430258,0.7430676704030109,-0.13768536599999992,0.0933593079999997,0.057466969000000034
123002.0,2.623867274,-2.7426258054999995,11.7545448895,0.7714669453080295,0.17326232550398107,-0.07250795844485243,12.352165856230773,0.7940015649731367,-0.13288010750000012,0.021574630000000372,0.10532342100000136
123012.0,2.4813766494999996,-2.6265150695,11.928122594499998,0.857799656757929,0.12636532850289345,-0.09142558220721896,12.463383172975778,0.8718641433523884,-0.1424906245000006,0.11611073599999955,0.1735777049999978
123022.0,2.4419539165,-2.4386196554999997,12.059825903999998,0.9278798622132575,0.06667681341393937,-0.11034495129883751,12.543899138198219,0.9367939177989328,-0.03942273299999943,0.1878954140000002,0.13170330950000064
123032.0,2.474217795,-2.1848235535,12.094541444999999,0.9465321959293208,0.04962320129270278,-0.12766559879562922,12.536871237348084,0.9563912197177287,0.03226387849999979,0.2537961019999999,0.03471554100000063
123042.0,2.4550948275,-1.9202401365,12.005889328999999,0.8860460653722053,0.09492147669896361,-0.1273985634200741,12.40387807800604,0.9001767107972617,-0.019122967499999977,0.2645834169999999,-0.08865211600000045
123052.0,2.3844869475,-1.763431803,11.759350148,0.7616075803635135,0.20736954974645425,-0.09862157471319158,12.127563054047474,0.7954712135760303,-0.07060787999999985,0.1568083334999999,-0.24653918099999927
123062.0,2.173742039,-1.6999827775,11.590577701499999,0.6142546676053884,0.35791990569423315,-0.05732010329399777,11.914553594256962,0.7132328159926529,-0.21074490850000016,0.06344902549999998,-0.16877244650000023
123072.0,1.8817000019999999,-1.7071416320000001,11.627646838499999,0.49674339439786214,0.5050075284060552,-0.029340730055276674,11.901987163919873,0.7089763621340837,-0.2920420370000001,-0.007158854500000089,0.037069136999999586
123082.0,1.5081647035,-1.8137399175,11.75817335,0.4165385339517147,0.5684258121065212,-0.036534977231997307,11.99244986605599,0.7056536393280661,-0.3735352984999998,-0.10659828549999983,0.13052651150000116
123092.0,1.017341871,-1.9166116759999998,11.750916429,0.3885609060422456,0.49141839485002736,-0.07597243701006116,11.949578307221199,0.6310653117440349,-0.49082283250000014,-0.10287175849999985,-0.00725692099999975
123102.0,0.7264766319999999,-1.9609377339999998,11.5690030715,0.4477153503800894,0.3192835520428347,-0.15244578351544472,11.756482346426738,0.5706406386533416,-0.29086523900000005,-0.044326058,-0.18191335750000093
123112.0,0.7455995995,-2.0471381875,11.371497140499999,0.5742848824054662,0.11783764977764916,-0.26702490357962044,11.57832633578338,0.6441980572745354,0.019122967500000088,-0.08620045350000005,-0.19750593100000025
123122.0,1.0329344445,-1.9632913299999997,11.160752231999998,0.7189744227250482,-0.024186772774137416,-0.3895976316179302,11.379097363024039,0.8181048435697862,0.28733484499999995,0.0838468575000002,-0.2107449085000006
123132.0,1.3310566044999999,-1.8496322564999998,10.811243226,0.8002439340149121,-0.09506633902687914,-0.4809952885571173,11.048793203802813,0.9385011616177047,0.2981221599999999,0.11365907349999982,-0.3495090059999981
123142.0,1.5309161315,-1.6592851799999997,10.608932036499999,0.7957148046059868,-0.08733802109904824,-0.5097722772639998,10.846491159141308,0.9490299019870585,0.1998595270000001,0.19034707650000016,-0.20231118950000138
123152.0,1.4925721299999999,-1.391171369,10.435354331499997,0.7488178076048991,-0.007932521450314228,-0.4948514574887003,10.632955815065435,0.8975906633100962,-0.03834400150000006,0.26811381099999965,-0.17357770500000136
123162.0,1.4375568234999998,-1.2833962854999998,10.365923249499998,0.6968576104437759,0.07040832735470325,-0.4836586609956606,10.543530739792587,0.8511718757985439,-0.05501530650000008,0.1077750835000002,-0.06943108199999948
123172.0,1.477077623,-1.242698688,10.419761757999998,0.6526239858812317,0.1260982931273383,-0.4977818653027988,10.59705116657476,0.8304249706634959,0.0395207995000002,0.040697597499999905,0.05383850850000016
123182.0,1.639868013,-1.1816032585,10.5167495265,0.6385025269033455,0.12716468930030683,-0.5369522897053075,10.709219110826725,0.8439040801457081,0.16279039000000006,0.06109542949999991,0.09698776850000179
123192.0,1.93191005,-1.0367590379999998,10.577746889499998,0.6883299317185317,0.04695808352490744,-0.5977054556379782,10.802586495950523,0.9128280058189351,0.29204203699999987,0.14484422050000023,0.06099736299999847
123202.0,2.228855412,-0.8548456804999999,10.630506666499999,0.7986452124200852,-0.04470486346058276,-0.6523307705668966,10.895238848761972,1.032166718300369,0.2969453620000002,0.18191335749999993,0.05275977700000034
123212.0,2.5005976834999997,-0.5447594075,10.656788488499998,0.9177552072224383,-0.0761469699352606,-0.6573922253976802,10.959785238562452,1.1314758147779989,0.2717422714999995,0.3100862729999999,0.02628182199999962
123222.0,2.6921215579999997,-0.23947839299999998,10.669929399499999,0.9870343065511012,-0.003935717463247213,-0.585715043676777,11.00691881382236,1.1477431439873873,0.19152387450000008,0.3052810145,0.013140911000000699
123232.0,2.7687114945,-0.09228057649999999,10.744165739999998,0.9896994243188965,0.18312169044849705,-0.450617832926156,11.095556610335747,1.1027669451706172,0.07658993650000046,0.1471978165,0.07423634049999883
123242.0,2.705262469,-0.0695291485,10.995608246,0.9369398663603599,0.4533143666204872,-0.2864765980930973,11.323722004189891,1.0795457699490543,-0.0634490255000002,0.02275142799999999,0.25144250600000184
123252.0,2.621513678,-0.31616639599999996,11.493589932999999,0.8514047703786218,0.7357644901292335,-0.14551857171427923,11.793002361649032,1.1346431697553063,-0.0837487910000001,-0.24663724749999996,0.49798168699999934
123262.0,2.5951337894999997,-0.7207887749999999,12.1148412105,0.7653373489750255,0.952930572967132,-0.06717772290926174,12.410625826250653,1.2240632259351885,-0.02637988850000017,-0.404622379,0.6212512775000008
123272.0,2.5341364264999995,-1.0631389265,12.764924039,0.7021861006501147,1.062181202824969,-0.05358858935323389,13.057388618195978,1.2744277007699498,-0.06099736300000025,-0.34235015150000003,0.6500828285000004
123282.0,2.565223507,-1.2402470255,13.3502829775,0.6683459117831966,1.0579173634623469,-0.08156796259195499,13.65095747207694,1.2540050790303197,0.031087080500000308,-0.17710809900000002,0.5853589384999989
123292.0,2.706439267,-1.3085013094999998,13.738135985,0.6547567782271687,0.9857061109903335,-0.12926432039045602,14.063192010538526,1.1903916332048525,0.14121576000000013,-0.06825428399999978,0.3878530075000004
123302.0,2.899238006,-1.1935673715,13.958393344,0.647295495674893,0.9076322975608712,-0.16683602319813795,14.306184985228162,1.1272187475965794,0.1927987390000001,0.11493393799999985,0.22025735899999965
123312.0,2.9542533125,-0.9900793839999998,14.087644990999998,0.6321076405240383,0.8663308261416773,-0.17243154878003178,14.428084114444522,1.086196026758922,0.05501530650000008,0.20348798750000008,0.12925164699999847
123322.0,2.8956095454999997,-0.7051962015,14.141581566,0.6046605927071755,0.8610023359353387,-0.13699089298903494,14.452203482875257,1.0609929121445798,-0.0586437670000004,0.2848831824999999,0.053936575000001596
123332.0,2.6825110409999997,-0.43345393,14.308000416499999,0.5511016739512256,0.8777889126810201,-0.056253707121029235,14.563743464957199,1.0379744263817046,-0.2130985045,0.27174227149999997,0.1664188504999995
123342.0,2.3868405435,-0.228691078,14.4001829265,0.4517121543671564,0.8780559480565753,0.04606796560639033,14.598444290605567,0.98850815665611,-0.29567049749999974,0.204762852,0.09218251000000066
123352.0,1.9475026234999997,-0.1150320045,14.234940874,0.29423284128896005,0.8103738249934871,0.1483896383338099,14.368004054734762,0.8748132291480212,-0.43933792000000027,0.11365907349999999,-0.16524205250000001
123362.0,1.5117931639999997,-0.097085835,13.9751627155,0.11303799433466476,0.6667506808468737,0.23285833814257945,14.05703087976889,0.7152321750421308,-0.43570945949999995,0.01794616950000001,-0.25977815849999963
123372.0,1.1658145519999998,-0.21917862749999997,13.349106179499998,-0.04497364416538988,0.4591769275779362,0.27389277418621816,13.40170879522357,0.5365476038906996,-0.3459786119999999,-0.12209279249999998,-0.6260565360000019
123382.0,0.957521306,-0.365199646,12.569771703999999,-0.14862874844133311,0.2462729387734079,0.2733604487643599,12.611478046746207,0.3968208666186545,-0.20829324599999988,-0.14602101850000002,-0.7793344754999989
123392.0,0.7839436009999999,-0.5028850119999999,11.740129114,-0.19339469842573567,0.07520449213918368,0.2403196206948552,11.777015433386913,0.3175070788313433,-0.17357770500000003,-0.13768536599999992,-0.8296425899999988
123402.0,0.6749917195,-0.6118368934999999,10.902248938,-0.19099661603349546,-0.04230678106834255,0.18995814512855885,10.940246346027287,0.2726786899654863,-0.1089518814999999,-0.10895188150000001,-0.8378801760000005
123412.0,0.624683605,-0.5985979159999999,10.167142453999999,-0.16514828981145946,-0.08680569567718997,0.1422617873300578,10.203888217308364,0.2346222550483933,-0.050308114500000056,0.013238977500000026,-0.735106484000001
123422.0,0.5791807489999999,-0.5351488904999999,9.684753340499999,-0.13477257950975013,-0.07108376977522506,0.11001857472871457,9.716804101212572,0.18793785488428583,-0.045502856000000036,0.06344902549999998,-0.4823891135
123432.0,0.5349527574999999,-0.4370823905,9.311218042,-0.10066535526727693,-0.029515262980476107,0.09616240579713156,9.336808710395022,0.14230907486378352,-0.04422799150000001,0.09806649999999995,-0.37353529849999845
123442.0,0.5110245314999999,-0.3831458155,9.108906852499999,-0.06522469947628008,0.021910863429536815,0.08577071543075733,9.131272136742579,0.10995891497965418,-0.023928225999999997,0.05393657499999999,-0.20231118950000138
123452.0,0.5720218945,-0.39628672649999996,9.0741913115,-0.025788985027468212,0.06880960575987644,0.0644532639468986,9.100835136133911,0.09774485575714549,0.06099736300000003,-0.013140910999999977,-0.03471554099999885
123462.0,0.6390993805,-0.4753283255,9.179612799,0.007518878417591572,0.10105107303196768,0.03834139300781143,9.21410202758482,0.10834166009135193,0.06707748600000007,-0.07904159900000002,0.10542148749999924
123472.0,0.701371608,-0.513672327,9.287289816,0.04642226744454518,0.1258312577517832,0.006098180406468187,9.327890089318775,0.13425989775937716,0.062272227499999944,-0.0383440015,0.10767701700000032
123482.0,0.809048625,-0.5806517465,9.4417445535,0.09198757822636114,0.13569062269629914,-0.03147177707196175,9.49411693323159,0.1669255294666684,0.10767701699999999,-0.06697941949999997,0.15445473750000005
123492.0,0.9083899894999999,-0.6441007719999999,9.576978256999999,0.13701881825706683,0.15274423481753574,-0.06797708370667514,9.641501476044358,0.21616161022675123,0.09934136449999997,-0.06344902549999998,0.13523370349999908
123502.0,0.9910600489999999,-0.6573397495000001,9.7433971075,0.17912139580292605,0.1921816945955996,-0.10501646109249882,9.815705922725883,0.28292531748222377,0.08267005949999995,-0.013238977500000138,0.16641885050000127
123512.0,1.0904014135,-0.6668522,10.036714008999999,0.2129615846698441,0.24440718180302595,-0.14285345394648388,10.117771256441038,0.35425219317095097,0.09934136450000008,-0.009512450499999936,0.293316901499999
123522.0,1.198176497,-0.633313457,10.380240958499998,0.23054752221293898,0.2843769670029481,-0.17882643515933902,10.468338703409508,0.40743258739590127,0.10777508349999998,0.03353874300000004,0.3435269494999993
123532.0,1.2759432314999999,-0.47895678599999997,10.7740760225,0.23587775774852965,0.29183824955522386,-0.20920214546104832,10.859933004925745,0.4296200858542775,0.07776673449999993,0.154356671,0.393835064000001
123542.0,1.3537099659999998,-0.2886097095,11.1655574905,0.22814943982069874,0.26066143312684914,-0.21906151040556426,11.251022189566868,0.4098591159793919,0.07776673449999993,0.1903470765,0.3914814680000003
123552.0,1.46511351,-0.112580342,11.461227988,0.20177053350605648,0.2020393142108636,-0.20733813381991836,11.555041277446994,0.3528743890027174,0.11140354400000008,0.17602936749999998,0.29567049749999974
123562.0,1.5368981879999999,-0.039618866,11.701883179,0.15833626974092557,0.1258312577517832,-0.17536195659413026,11.802444476877827,0.2676858150208719,0.07178467799999999,0.072961476,0.2406551910000001
123572.0,1.5656316724999997,-0.0671755525,11.749739630999999,0.10477735098497559,0.03177022837405278,-0.12473344565227876,11.85377983957357,0.1659700971701174,0.028733484499999795,-0.027556686499999997,0.04785645199999955
123582.0,1.5967187529999998,-0.1185623985,11.649221468499999,0.05708099318647455,-0.06175847558181935,-0.07943517024601793,11.758738394941917,0.11568187136002937,0.031087080500000086,-0.051386846,-0.10051816250000023
123592.0,1.6171165849999998,-0.22398388599999997,11.476820561499999,0.026171212133654972,-0.12331100231190337,-0.052256903133962224,11.592352868660395,0.1364599558876644,0.020397832000000005,-0.10542148749999997,-0.1724009070000001
123602.0,1.5883831005,-0.25144250599999995,11.293632339499998,0.008585274590560106,-0.1366331004923761,-0.04399625978427306,11.407555199409632,0.143798407379777,-0.028733484499999795,-0.02745861999999999,-0.18318822200000007
123612.0,1.5488623009999998,-0.29341496799999994,11.130841949499999,-0.014330898488125441,-0.1142509981648008,-0.0466613775520684,11.241917508844049,0.12424149624093773,-0.0395207995000002,-0.04197246199999999,-0.16279038999999962
123622.0,1.441185284,-0.2562477645,11.0829854975,-0.050570915076535695,-0.06841865200742972,-0.05705306791844264,11.179232776779662,0.1024381860103857,-0.10767701699999987,0.03716720349999997,-0.04785645199999955
123632.0,1.3453743135,-0.212019773,11.068569721999998,-0.09826727287503674,-0.022855086554865747,-0.06797708370667514,11.152050041061674,0.12165400038219729,-0.09581097049999987,0.04422799149999998,-0.014415775500001615
123642.0,1.257997062,-0.18328628849999998,11.090144352000001,-0.15022747003615994,0.003792600464583678,-0.07783644865119112,11.162770812829146,0.16923708018746603,-0.08737725149999997,0.028733484500000017,0.02157463000000348
123652.0,1.1825839235,-0.1724989735,11.170362748999999,-0.19232830225276715,0.005656612105713622,-0.08822813901756536,11.234111650514517,0.21167517006595057,-0.07541313850000009,0.010787314999999964,0.08021839699999767
123662.0,1.1310990109999999,-0.22633748199999998,11.2697041135,-0.21444511453403928,-0.018591247192243598,-0.09675581774280965,11.328585279472547,0.23599582599435975,-0.05148491250000009,-0.053838508499999965,0.09934136450000075
123672.0,1.1347274715,-0.2766455965,11.376302399,-0.2184419185211063,-0.057227600843642076,-0.12100367704076687,11.436100537076998,0.25619086619723014,0.003628460500000097,-0.0503081145,0.1065982855000005
123682.0,1.121488494,-0.332837701,11.5138896985,-0.21151296139068881,-0.09959546843580443,-0.1679006740418545,11.573166090858878,0.2878326362887214,-0.013238977499999915,-0.056192104500000006,0.13758729949999982
123692.0,1.1658145519999998,-0.3268556445,11.670698031999999,-0.19392702384759394,-0.14649246543689204,-0.2401119265138679,11.73333502189915,0.3416452403625219,0.04432605799999978,0.005982056499999999,0.156808333499999
