timestamp,ax,ay,az,gx,gy,gz,acc_mag,gyro_mag,dax,day,daz
143452.0,-0.536031489,-0.8158152135,9.1544097085,-0.0870133898581773,-0.13487555393561781,0.1630067708192624,9.206307692601667,0.22876615221001215,0.0,0.0,0.0
143462.0,0.38089028599999997,-1.2971255954999998,9.0490862875,-0.11019659831241797,-0.198826163057942,0.188053990914633,9.149512274383314,0.29502446829863554,0.9169217749999999,-0.48131038199999987,-0.10532342099999958
143472.0,0.693330155,-1.051665146,8.9149313155,-0.0699597777369407,-0.20282296704500904,0.21176952479073197,9.003483028429947,0.30145954636076033,0.312439869,0.2454604494999999,-0.13415497199999926
143482.0,0.6861713005,-0.7463841314999999,8.779697612,-0.032655110304813904,-0.18017382934187862,0.20537289308217274,8.838043362845838,0.27514903274712327,-0.007158854499999978,0.3052810145,-0.13523370350000086
143492.0,0.7903179234999999,-0.7416769395,8.82402367,-0.018533651326927785,-0.15912341323357504,0.19444887729394025,8.890336373361343,0.2519407127708522,0.10414662299999988,0.004707191999999916,0.04432605800000111
143502.0,0.8597490054999999,-0.7978690439999999,8.87305692,-0.024394466955124743,-0.14952933833536217,0.20457353228475936,8.950245944631442,0.254567168253291,0.06943108200000003,-0.056192104499999895,0.04903324999999903
143512.0,0.8118925535,-0.7189255115,8.839518176999999,-0.04837703620677882,-0.14233509115864157,0.219763132764866,8.905790532626941,0.26626199565450365,-0.04785645199999988,0.07894353249999997,-0.03353874300000115
143522.0,0.7401078754999999,-0.5776116849999999,8.771361959499998,-0.08035321343256695,-0.1380729971252714,0.2330852309453387,8.821461644795,0.28257656719717,-0.0717846780000001,0.14131382650000002,-0.06815621750000034
143532.0,0.7615844390000001,-0.5860454039999999,8.755769385999999,-0.11978892788137882,-0.1284789222270586,0.25573436864846916,8.808345906814246,0.3102519750261517,0.021476563500000156,-0.008433719000000006,-0.015592573499999318
143542.0,0.7675664955,-0.625468137,8.707912934,-0.15229743052902522,-0.1146227532954756,0.27811821630529643,8.764023983396033,0.3371685411772848,0.005982056499999944,-0.0394227330000001,-0.04785645199999955
143552.0,0.712551189,-0.5776116849999999,8.691143562499999,-0.17894337221922263,-0.11116002005951885,0.30129967943028513,8.739413074090217,0.3676394665234032,-0.05501530649999997,0.047856452000000105,-0.016769371500000574
143562.0,0.6238990729999999,-0.5500549985,8.712620126,-0.1989273921545577,-0.15006340908647248,0.32235009553858873,8.7522317162336,0.40743185711208746,-0.08865211600000011,0.027556686499999983,0.021476563500000267
143572.0,0.5077883369999999,-0.540542548,8.707912934,-0.1973286705597309,-0.24412443846420284,0.34366754702244745,8.739438363391324,0.46544895376051637,-0.11611073599999999,0.009512450499999936,-0.004707191999999694
143582.0,0.403641714,-0.5369140874999999,8.592978996,-0.17467953285660048,-0.38028630005854047,0.35779075132958554,8.619193198689421,0.5505858978835216,-0.10414662299999994,0.003628460500000097,-0.11493393800000007
143592.0,0.322246519,-0.49866815249999996,8.298485296499999,-0.14057230861412728,-0.5244435149562642,0.3673830808985464,8.319697768642325,0.6555699066150723,-0.08139519499999998,0.03824593499999995,-0.29449369950000026
143602.0,0.2695848085,-0.4088392385,7.8818988045000005,-0.09820618635121695,-0.6435517644293651,0.3663166847255778,7.8970978375786745,0.7469881137248018,-0.052661710500000014,0.08982891399999998,-0.41658649199999864
143612.0,0.306752012,-0.366964843,7.3850939155,-0.06036744816797987,-0.7093681305220713,0.3479313863850696,7.400565663084085,0.7924036995310715,0.03716720350000002,0.041874395499999995,-0.49680488900000075
143622.0,0.40128811799999997,-0.437572723,6.8559270815,-0.03665191429188092,-0.7133649345091383,0.32474817793082894,6.881586894634603,0.784661883665748,0.09453610599999995,-0.07060788000000001,-0.5291668339999998
143632.0,0.47307279599999996,-0.40050358599999997,6.348432944,-0.032122784882955634,-0.6448834506486368,0.3026331109788088,6.378620684535068,0.7130871882805366,0.07178467799999999,0.03706913700000003,-0.5074941375000002
143642.0,0.5281861689999999,-0.34774380899999996,5.886343596,-0.055571283383499454,-0.5108526360709843,0.28877694204722576,5.920215141022405,0.5894494936597279,0.055113372999999966,0.05275977700000001,-0.4620893480000001
143652.0,0.549760799,-0.285569648,5.4900568695,-0.10193595496272881,-0.323796973488492,0.2842460673090485,5.524899219924296,0.4427541594780684,0.02157463000000004,0.06217416099999995,-0.39628672649999963
143662.0,0.5951655885,-0.2329079375,5.239889228,-0.16935104265026177,-0.09304001176531372,0.28211502029236346,5.278722128204467,0.34194312993622367,0.04540478950000004,0.052661710500000014,-0.25016764150000004
143672.0,0.5688837664999999,-0.20652804899999996,5.108185918499999,-0.243161016717102,0.1449111971345852,0.2810486241193949,5.143913486128305,0.3988920458285403,-0.026281822000000066,0.02637988850000003,-0.13170330950000064
143682.0,0.4563034245,-0.135920169,5.2135093395,-0.2937895276589535,0.3258390087133254,0.2794499025245681,5.235204555755691,0.5201688131581363,-0.11258034199999994,0.07060787999999996,0.10532342100000047
143692.0,0.333033834,-0.060507030499999996,5.383556650499999,-0.2881940020770597,0.3983172965608939,0.27465373774008767,5.39418713472859,0.5631581724767671,-0.12326959050000003,0.0754131385,0.17004731099999937
143702.0,0.32469818149999996,-0.046091255,5.5942034925,-0.22344228682807007,0.3682068763054877,0.27065693375302063,5.603808171980558,0.508682548442729,-0.008335652500000013,0.014415775499999998,0.21064684200000094
143712.0,0.38216515049999994,-0.0987529655,5.7893558275,-0.1429703910063675,0.27760858016371404,0.2735873415671191,5.802796157703623,0.41515911401628935,0.05746696899999998,-0.0526617105,0.1951523349999995
143722.0,0.35813885799999995,-0.0963993695,5.785727366999999,-0.06223320513836181,0.1323867144222739,0.2866441497012887,5.797602732621673,0.321813738885233,-0.02402629249999999,0.0023535959999999995,-0.003628460500000763
143732.0,0.40011132,-0.06648908699999999,5.6073444035,0.028897416425270113,-0.034417892849328176,0.31728864070780516,5.621994408263406,0.32045550946496454,0.041972462000000044,0.02991028250000001,-0.17838296349999894
143742.0,0.47905485249999996,-0.012552512,5.329620075499999,0.12429013202227218,-0.15459253849539775,0.36551732392816444,5.351121496138349,0.41587234095112835,0.07894353249999997,0.05393657499999999,-0.2777243280000006
143752.0,0.45512662649999996,0.037657536,5.107009120499999,0.22101627916779792,-0.2188101829932771,0.4268045606119453,5.127387296961,0.5280986885023339,-0.023928225999999997,0.050210048,-0.2226109550000004
143762.0,0.45394982849999993,0.016082905999999998,5.0638598605,0.2998894533946737,-0.22174233613662758,0.4920868559535413,5.084191754196891,0.6174567366989582,-0.0011767980000000344,-0.02157463,-0.04314925999999897
143772.0,0.2815489215,-0.0640374245,5.018455070999999,0.33852580704607216,-0.18177255093670544,0.5341876881701485,5.026754607754392,0.6580254315015488,-0.17240090699999994,-0.08012033049999999,-0.04540478950000093
143782.0,0.1056176205,-0.181423025,5.1297605485,0.3451877288009345,-0.09810321192534927,0.5179334368463253,5.134054214819635,0.6301062238291762,-0.17593130099999998,-0.11738560049999999,0.11130547750000108
143792.0,0.0960071035,-0.43394426249999996,5.335602132,0.29722433562687833,0.04099080281233882,0.42786921145566187,5.354080228935879,0.5225845517385002,-0.009610516999999999,-0.2525212375,0.20584158349999981
143802.0,0.18818961349999996,-0.5345604915,5.5606647495,0.1850450432841948,0.20673075924022433,0.3111590443748011,5.5894689109104005,0.41689234312509094,0.09218250999999997,-0.100616229,0.2250626174999999
143812.0,0.2085874455,-0.30949787399999995,5.8479995945,0.053412311098782465,0.38046432364224386,0.23095418392865363,5.85989734668645,0.44826979779549453,0.020397832000000032,0.2250626175,0.28733484500000017
143822.0,0.214569502,-0.022163028999999997,6.244286321,-0.041182789030058196,0.5046357732753805,0.21709801499707068,6.248011117921501,0.5508945760281215,0.005982056499999999,0.28733484499999995,0.39628672649999963
143832.0,0.2109410415,0.1130706745,6.7374627495,-0.04198214982747161,0.5677870216002913,0.27198861997229234,6.7417123493457565,0.6309694225525496,-0.003628460499999986,0.1352337035,0.4931764285
143842.0,-0.0189268345,0.14180415899999999,7.306052316499999,0.04861614631430205,0.5595263782506021,0.3636515669577825,7.307452845965472,0.6690857641525039,-0.229867876,0.02873348449999999,0.5685895669999992
143852.0,-0.3097920735,-0.115522337,7.765788068499999,0.1981001060891124,0.4747906430662774,0.45984538868145003,7.772823223514498,0.6900199912085161,-0.290865239,-0.257326496,0.4597357520000003
143862.0,-0.5180853195,-0.552506661,8.121279131,0.3419902856112809,0.3578151859391135,0.5187327976437387,8.156521975226138,0.7169886875623825,-0.20829324600000004,-0.436984324,0.3554910625000005
143872.0,-0.628213999,-0.899662071,8.3714467725,0.445378354511669,0.2706813683625486,0.5277928017908413,8.443054289493599,0.7417516588915525,-0.11012867949999994,-0.34715540999999994,0.2501676415000009
143882.0,-0.5384831514999999,-1.095991204,8.626517738999999,0.47602110018893345,0.26348712118582795,0.5016791855225021,8.712517955503817,0.7400699669912291,0.08973084750000004,-0.196329133,0.25507096649999816
143892.0,-0.34087915399999996,-1.259958392,8.880215774499998,0.427525381593019,0.33063517349780575,0.4531834669265876,8.975629557244527,0.7053175345585718,0.19760399749999996,-0.16396718799999999,0.25369803549999936
143902.0,-0.282235387,-1.268392111,9.327987413499999,0.34225732098683603,0.4049774729865042,0.38870053238240515,9.41805842768755,0.657445762987325,0.05864376699999996,-0.008433719000000117,0.44777163900000083
143912.0,-0.43904372049999996,-1.2408354245,9.876277215,0.2692467077174092,0.4161702694795439,0.31035968357738764,9.963597922775323,0.5848201569761394,-0.15680833349999995,0.027556686500000094,0.5482898015000011
143922.0,-0.5647649735,-1.2971255954999998,10.4412383215,0.24206669527610156,0.3325009304681877,0.23628267413499235,10.536648042530121,0.4743233663024483,-0.12572125300000003,-0.05629017099999989,0.5649611065000002
143932.0,-0.604285773,-1.292320337,10.875869049499999,0.25192606022061753,0.18194882919115685,0.16913462182301447,10.969037365728408,0.35380593064776217,-0.03952079949999998,0.004805258499999798,0.43463072799999836
143942.0,-0.5408367475,-1.095991204,11.037482641499999,0.29882305722170516,0.009813986383964116,0.12650146418454902,11.10494143019699,0.3246446585066599,0.06344902549999998,0.1963291330000001,0.16161359200000014
143952.0,-0.236732531,-1.1007964625,11.236165370499998,0.3926187965531324,-0.09943489814462093,0.1171744246618913,11.292440275525461,0.42162384203304537,0.30410421649999997,-0.00480525850000002,0.19868272899999972
143962.0,0.2587974935,-1.3820511844999999,11.244501023,0.5071979166173082,-0.09144129017048692,0.11957250705413151,11.332071517399974,0.5290640987746111,0.49553002449999994,-0.2812547219999999,0.008335652500001345
143972.0,0.5916351945,-1.568867867,11.3175605655,0.5977944674298298,0.03939208121751202,0.0961240085535877,11.441090670964758,0.6067534807257154,0.33283770100000004,-0.18681668250000016,0.07305954249999935
143982.0,0.7520719884999999,-1.7256762004999997,11.659910716999999,0.6521527469831933,0.2264477438000043,0.04389677601690938,11.810888559006468,0.6917432421169837,0.16043679399999988,-0.15680833349999967,0.3423501514999998
143992.0,0.692153357,-1.7771611129999998,12.088461321999999,0.6849282850063947,0.37060495869772797,-0.02884680187696228,12.237984925005248,0.7792989984541713,-0.059918631499999875,-0.05148491250000009,0.42855060499999986
144002.0,0.44316251349999997,-1.6107422625,12.307541882999999,0.713439983666974,0.4161702694795439,-0.0911986894044597,12.420405422182258,0.8309702187458342,-0.24899084350000006,0.16641885049999972,0.21908056100000017
144012.0,0.6526325574999999,-1.5281702695,12.324311254499998,0.8019054874628107,0.42709428526777643,-0.15834848704568952,12.435830552298789,0.9222451857727529,0.20947004399999997,0.08257199300000018,0.016769371499998798
144022.0,1.1087398489999998,-1.464721244,12.538586557,0.9745726556918617,0.4974415260986599,-0.23242375115883288,12.672445116186797,1.1185976636898518,0.45610729149999985,0.06344902549999998,0.2142753025000026
144032.0,1.3912694355,-1.3102665065,13.017445276499998,1.1352494119597116,0.638666587853033,-0.3019716311923029,13.156987135620538,1.3371137213564324,0.28252958650000015,0.15445473749999983,0.47885871949999803
144042.0,1.2967333294999999,-1.016949605,13.483163085,1.2255806727259302,0.7132759227172866,-0.3587279931379065,13.583496994649519,1.4627017127043676,-0.09453610600000006,0.2933169015000001,0.4657178085000009
144052.0,1.0645118574999999,-0.551329863,13.891315857999999,1.2655504579258523,0.678102302301845,-0.391501785831856,13.942948267110365,1.4881916349223743,-0.23222147199999998,0.465619742,0.4081527729999994
144062.0,0.8489616904999999,-0.0975761675,14.1259889925,1.2647493517991868,0.5824425513292877,-0.40562499013899417,14.151813384744436,1.4502971699278366,-0.21555016699999996,0.4537536955,0.23467313450000127
144072.0,0.8358207795,0.2268278145,14.008603392,1.2415678886741983,0.4502774937220171,-0.38777201722034416,14.035348810315643,1.3764475220213166,-0.013140910999999922,0.324403982,-0.11738560050000046
144082.0,0.828661925,0.40158231749999995,13.625555643,1.2085270606046936,0.36181198992618047,-0.329949259101772,13.656636318074906,1.303960155008569,-0.007158854499999978,0.17475450299999995,-0.38304774899999927
144092.0,0.862200668,0.48778277099999995,13.26643612,1.1805476873659724,0.37620048427962177,-0.24548055929300244,13.303369849388716,1.2631232526987115,0.033538742999999926,0.0862004535,-0.3591195230000004
144102.0,0.7903179234999999,0.5524085944999999,12.965960363999999,1.1304532471752313,0.525686189383684,-0.1658080242687133,13.001764720079418,1.2576815235462662,-0.0718827445000001,0.06462582349999996,-0.30047575600000087
144112.0,0.645473703,0.4351210605,13.0545144135,1.0283986098233668,0.7281967424925861,-0.1122491055127633,13.077702902682658,1.2650984381271928,-0.1448442204999999,-0.11728753399999992,0.08855404950000079
144122.0,0.425216344,0.279489525,13.645953474999999,0.9292743802856008,0.8433099333078722,-0.09999165817600714,13.65543736303067,1.2588569613644367,-0.22025735899999993,-0.15563153549999997,0.5914390614999991
144132.0,0.054132707999999995,0.188483813,14.282797325999999,0.869852900572202,0.7969452617286428,-0.11411486248314524,14.284143514870998,1.185237537654438,-0.37108363600000005,-0.09100571200000002,0.6368438510000001
144142.0,-0.2642892175,0.207704847,14.5557163955,0.8682541789773751,0.581109119780764,-0.14422528273855142,14.559597174378883,1.0546819712999105,-0.3184219255,0.019221033999999998,0.27291906950000033
144152.0,-0.41158510049999997,0.36206151799999997,14.552087935,0.901562042422435,0.2951962630360609,-0.16847314203650862,14.562408938968257,0.9635030615597551,-0.14729588299999996,0.15435667099999997,-0.003628460499999875
144162.0,-0.375594695,0.5284803685,14.3150612045,0.9215460623577699,0.04125609285864196,-0.175135063791371,14.329736220998033,0.9389470170431765,0.03599040549999999,0.16641885050000005,-0.23702673050000023
144172.0,-0.17455837,0.614680822,13.9918340205,0.9042271601902302,-0.11329106707620393,-0.1650086634712999,14.006417186229063,0.9261152639523538,0.201036325,0.08620045349999994,-0.3232271839999985
144182.0,-0.0081395195,0.8696537219999999,13.7225434115,0.8392101548949374,-0.14926404828905904,-0.14662336513079163,13.75007496446722,0.8648999083088753,0.1664188505,0.25497289999999995,-0.26929060900000046
144192.0,-0.0177500365,1.133060341,13.552594166999999,0.7347556898215808,-0.12181874580144822,-0.10292381131935761,13.599887847167901,0.7518637120451602,-0.009610517,0.26340661900000006,-0.16994924450000148
144202.0,-0.063154826,1.2000397605,13.4675705115,0.6009919106194834,-0.06319662688546268,-0.020320868480969978,13.521077599106231,0.604647027591783,-0.0454047895,0.06697941949999997,-0.0850236554999988
144212.0,0.0002941995,1.191704108,13.392157373,0.4488428330768777,0.011946778729901186,0.07267551005304387,13.445074855528908,0.45484540680100227,0.06344902549999999,-0.008335652500000013,-0.07541313850000009
144222.0,-0.0201036325,1.068336451,13.3765647995,0.3030868965843273,0.07403163088184347,0.14541908794691552,13.419174071596116,0.34422239960737155,-0.020397832,-0.12336765699999996,-0.015592573499999318
144232.0,-0.144550021,0.880441037,13.357441832,0.18451097253308454,0.0990788509772141,0.18965271250945984,13.387207454262754,0.28254038482713495,-0.1244463885,-0.18789541399999998,-0.01912296750000131
144242.0,-0.34215401849999993,0.7032348715,13.168271553499999,0.09604546873724795,0.06577098753215432,0.20537289308217274,13.191473926881203,0.2360690154993959,-0.19760399749999993,-0.1772061655,-0.18917027850000068
144252.0,-0.4845465765,0.7224559054999999,13.0305861875,0.03316125578789226,-0.004042182547618867,0.19711399506173558,13.059590510810647,0.19992482380729065,-0.14239255800000006,0.01922103399999997,-0.1376853659999977
144262.0,-0.5217137799999999,0.7092169279999999,12.784047006499998,-0.02119702376547113,-0.0695915132647699,0.1816591045353258,12.814329158547677,0.19568424258373748,-0.03716720349999991,-0.013238977500000026,-0.24653918100000283
144272.0,-0.533677893,0.720004243,12.446404047,-0.08221722507369689,-0.10343170213168795,0.1670035748063294,12.478629408095783,0.21295065884558895,-0.01196411300000011,0.010787315000000075,-0.33764295949999834
