timestamp,ax,ay,az,gx,gy,gz,acc_mag,gyro_mag,dax,day,daz
58112.0,-1.0052796915,-2.335551764,9.147839252999999,0.13621247614264545,0.03908664859841301,0.014332643817377436,9.49464861378205,0.14243254345254944,0.0,0.0,0.0
58122.0,-0.9885103199999999,-2.373797699,9.098806003,0.14793759805754336,0.002846632010002751,0.009803514408452148,9.455175241567606,0.14828939654470363,0.01676937150000002,-0.03824593499999995,-0.04903324999999903
58132.0,-1.081869628,-2.536588089,9.156272971999998,0.1761822613425676,-0.01207418776529677,-0.023237313661052503,9.562533961404958,0.17811779239636497,-0.09335930800000003,-0.16279039000000006,0.05746696899999826
58142.0,-1.298596593,-2.651522027,9.2807193605,0.22787542312813566,-0.03685611781436426,-0.08825431895634528,9.739028391958662,0.24713236676044983,-0.2167269650000001,-0.11493393800000007,0.12444638850000089
58152.0,-1.2973217284999998,-2.6994765455,9.436350895999999,0.2793032948674006,-0.09174672278958593,-0.1687262147780478,9.900249265517653,0.3389636075152363,0.00127486450000025,-0.0479545185000001,0.15563153549999953
58162.0,-1.1572827665,-2.535411291,9.483030549999999,0.2814343418840856,-0.13358226495989,-0.23347618469778544,9.884102499893526,0.3893078975882419,0.14003896199999977,0.1640652545000001,0.04667965400000007
58172.0,-0.9944923765,-2.1930611394999997,9.4554738635,0.2374677526970965,-0.13171650798950807,-0.2654523619235736,9.757280268180947,0.37974350356360725,0.16279039000000006,0.34235015150000025,-0.02755668649999876
58182.0,-0.725103701,-1.9261241265,9.353778903,0.17484882979404393,-0.07016398125942405,-0.26598468734543185,9.57752104117225,0.32594930809677525,0.2693886755,0.2669370129999997,-0.10169496049999971
58192.0,-0.46532554249999997,-1.5765170539999998,9.240021763,0.10796781285762122,0.03775321704988934,-0.2238838551288246,9.385091159001567,0.2514087003232364,0.2597781585,0.3496070725000002,-0.11375714000000059
58202.0,-0.3337202995,-1.259369993,9.202952626,0.05707401186946657,0.13581279574393876,-0.14687643787233082,9.294714576250714,0.2080270326681739,0.13160524299999998,0.3171470609999998,-0.037069136999999586
58212.0,-0.3144992655,-1.1264898854999998,9.272383708,0.037088246604879506,0.21095445603005064,-0.03496243557595041,9.345854101071644,0.21702463559826893,0.01922103399999997,0.13288010750000012,0.06943108199999948
58222.0,-0.47258246349999994,-1.1803283939999998,9.4446865485,0.06746570223584081,0.21575062081453103,0.07028964496556764,9.529880025577825,0.23672892841690524,-0.15808319799999992,-0.05383850849999994,0.17230284050000044
58232.0,-0.6006573125,-1.310756839,9.5896288355,0.11462973461248357,0.1486025685025532,0.15156090158468358,9.69741480502397,0.2412330953912555,-0.12807484900000005,-0.13042844500000017,0.14494228699999923
58242.0,-0.737067814,-1.4544242614999998,9.607575005,0.12608782115182635,0.06253514709895683,0.2029887733239485,9.744953379651198,0.2470085532143866,-0.1364105015,-0.14366742249999986,0.017946169500000053
58252.0,-0.9106455189999999,-1.6280019664999998,9.469889639,0.10770077748206608,0.010574949937833642,0.21497918528514953,9.65186383239228,0.2406809862500481,-0.17357770499999992,-0.17357770500000003,-0.13768536599999948
58262.0,-1.0567646039999998,-1.7537232194999999,9.274737304,0.07918907882148672,-0.014739305533092113,0.2021894125265351,9.498054991264787,0.21764355232815621,-0.14611908499999993,-0.12572125300000003,-0.1951523349999995
58272.0,-1.195626768,-1.8782676745,9.042515832,0.05014505473904908,-0.03605675701695085,0.17447707466336915,9.312599282552664,0.1850861038123839,-0.13886216400000007,-0.12454445500000011,-0.23222147200000087
58282.0,-1.2578989955,-1.9728037804999998,8.730075962999999,0.030960395601127413,-0.04191931797439981,0.14330025823499443,9.038168562213551,0.1524819311440973,-0.062272227500000055,-0.09453610599999984,-0.3124398690000003
58292.0,-1.2961449305000001,-2.0565525715,8.464315747999999,0.02882760325519034,-0.03658908243880912,0.11718838729590728,8.806477232244735,0.12610673963023622,-0.038245935000000175,-0.08374879100000032,-0.26576021500000024
58302.0,-1.2853576155,-2.092542977,8.232094276,0.04375016835974186,-0.03499036084398232,0.0942722142172217,8.590591160058068,0.1096615381841582,0.010787315000000186,-0.03599040549999977,-0.2322214719999991
58312.0,-1.254270535,-2.1020554275,8.048906054,0.0743929140370063,-0.03605675701695085,0.0716230765140913,8.412890125359374,0.10938126199144084,0.031087080499999864,-0.009512450499999936,-0.18318822200000007
58322.0,-1.2231834544999998,-2.0422348625,7.942405834999999,0.11915886402140886,-0.04271867877181321,0.04923922885726403,8.291484272723128,0.1358242321875592,0.031087080500000308,0.05982056499999988,-0.10650021900000084
58332.0,-1.1884679135,-1.9500523525,7.839436009999999,0.15779696300205934,-0.062170373285290015,0.030853930516755758,8.165287325856607,0.17238619978246048,0.03471554099999974,0.09218251,-0.10296982499999974
58342.0,-1.084223224,-1.8590466404999997,7.7520587585,0.1887049987256269,-0.08002334620394001,0.01593136541220424,8.045247628647104,0.20558969061120666,0.10424468949999999,0.0910057120000003,-0.08737725149999953
58352.0,-1.0280311195,-1.758528478,7.6706635635,0.20895605403651712,-0.10027440151483022,0.0018099064343181197,7.93652001163003,0.23177761729504906,0.056192104500000006,0.10051816249999979,-0.08139519499999981
58362.0,-0.9634052959999999,-1.7058667674999999,7.5976040209999995,0.21481861499396607,-0.12025842145016528,-0.009382890058721515,7.846127583256412,0.24636794414749952,0.06462582350000012,0.052661710500000014,-0.07305954250000024
58372.0,-0.8747531799999999,-1.620843112,7.538960253999999,0.1972326774508712,-0.13331522958433487,-0.018441148876572087,7.760686002605033,0.238775533640805,0.088652116,0.0850236554999999,-0.0586437670000004
58382.0,-0.8257199299999999,-1.527483804,7.379700257999999,0.14926928427681505,-0.14317459452885084,-0.02430370983402104,7.581226554602281,0.2082569424021916,0.04903325000000003,0.09335930799999992,-0.1592599960000003
58392.0,-0.7071575314999999,-1.4808041499999998,7.319879692999999,0.09864077333496352,-0.14557267692109105,-0.02830051382108805,7.501565931524441,0.17810762339840933,0.11856239849999994,0.04667965400000029,-0.05982056499999988
58402.0,-0.723926903,-1.368223808,7.112763244999999,0.05201081170943102,-0.15489797111449674,-0.026436502179958108,7.279251852291423,0.16552158360036398,-0.01676937150000002,0.11258034199999978,-0.20711644799999984
58412.0,-0.7083343295,-1.3239958164999999,6.9499728549999995,0.023766148424406785,-0.20525944668079313,-0.021373302019922557,7.110332279837178,0.20773321424815802,0.015592573499999984,0.04422799150000012,-0.16279038999999962
58422.0,-0.5707470299999999,-1.4161783265,6.759625778499999,0.017903587466957832,-0.25562092224708954,-0.01071457627799319,6.929924522681606,0.256471044134531,0.13758729950000004,-0.09218251000000022,-0.19034707650000016
58432.0,-0.4617951485,-1.4532474635,6.584871275499999,0.01577079512102076,-0.2838655855321137,0.00793775743807021,6.759120702003502,0.28441412873024546,0.10895188149999996,-0.03706913699999981,-0.17475450299999995
58442.0,-0.34686121049999996,-1.4113730679999998,6.4807246525,0.005113814708343385,-0.27533965213612144,0.04097858550757486,6.641692454333195,0.27841932334073594,0.11493393800000001,0.04187439550000005,-0.10414662299999922
58452.0,-0.234378935,-1.4113730679999998,6.497494024,-0.023931954703346248,-0.226843933540207,0.0902754102301547,6.65314482137306,0.24531726056708603,0.11248227549999995,0.0,0.016769371499999686
58462.0,-0.20917584449999996,-1.375480729,6.638709784,-0.08681616765270193,-0.15516500649005188,0.1454330505809315,6.782932210036451,0.2297041540900723,0.025203090500000053,0.035892338999999884,0.1412157599999997
58472.0,-0.203193788,-1.4424601485,6.758448980499999,-0.18913784038012152,-0.10133905235854676,0.19632685156908614,6.913653998972896,0.2908383723713475,0.0059820564999999715,-0.06697941949999997,0.11973919649999942
58482.0,-0.0834545915,-1.559845749,6.7812004085,-0.3205035371899787,-0.07282735369796739,0.23602960139345316,6.9587902978719205,0.40464343999611474,0.11973919649999999,-0.11738560050000002,0.022751428000001184
58492.0,-0.015298373999999998,-1.6854689354999999,6.697353551,-0.44600841837163896,-0.06856525966459724,0.2637419392566191,6.906198966137223,0.522670560309347,0.06815621749999999,-0.12562318649999993,-0.0838468575000002
58502.0,-0.07747253500000001,-1.8171722449999999,6.6315509294999995,-0.5158215884514121,-0.10880033491082251,0.28585875153789125,6.876451460763027,0.5996871266085733,-0.06217416100000001,-0.13170330949999998,-0.06580262150000049
58512.0,-0.308517209,-1.933282981,6.6566559535,-0.5123571098862033,-0.208990960621557,0.2805285160023006,6.938575821891722,0.6203896178716382,-0.231044674,-0.11611073600000021,0.025105024000000142
58522.0,-0.5420135454999999,-2.0661630884999997,6.642338244499999,-0.4388141711949183,-0.3662032383241982,0.22483855022966553,6.977353792529993,0.6141783635638676,-0.2334963364999999,-0.13288010749999968,-0.014317709000000178
58532.0,-0.7287321615,-2.150009946,6.5250507104999995,-0.3266331335229828,-0.5172876650230874,0.14223560739127789,6.90868150269644,0.6280976837324322,-0.18671861600000006,-0.0838468575000002,-0.11728753399999992
58542.0,-0.8328787845,-2.0685166845,6.193389807499999,-0.2232450646225947,-0.6036221218022388,0.05190434662505937,6.582592623835228,0.6456718098275297,-0.104146623,0.08149326149999991,-0.3316609030000004
58552.0,-0.7670761629999999,-1.9236724639999998,5.9623451334999995,-0.1478363689609277,-0.5633853012267617,-0.034430110154092135,6.311773211987719,0.5834758110762976,0.06580262150000005,0.14484422050000023,-0.23104467399999962
58562.0,-0.7011754749999999,-1.887780125,5.8319166885,-0.08548448143343026,-0.4064383135704235,-0.10530793107758185,6.169814673771919,0.42847340600293166,0.06590068800000004,0.035892338999999884,-0.13042844499999973
58572.0,-0.6772472489999999,-1.7980492775,5.992255416,-0.03378957431861022,-0.21218840381121062,-0.1484751594671576,6.29275535923475,0.261171451394252,0.023928225999999997,0.08973084749999982,0.1603387275000001
58582.0,-0.8172862109999999,-1.7417591064999998,6.3191110605,0.002981022362406315,-0.007278022980816354,-0.1756551719084653,6.605516340960777,0.1758311563148777,-0.140038962,0.05629017100000033,0.32685564450000015
58592.0,-1.0950105389999998,-1.699884711,6.736874350499999,0.048014007722364006,0.10596766553483572,-0.2134921647624504,7.033785049718068,0.2431324649063208,-0.2777243279999999,0.04187439549999983,0.417763289999999
58602.0,-1.2853576155,-1.6831153395,7.1977869005,0.14820288810384652,0.13101488563020633,-0.2763781230410581,7.502876629053248,0.339873304622054,-0.19034707650000016,0.016769371499999908,0.46091255000000064
58612.0,-1.3368425279999998,-1.59456129,7.656247787999999,0.28223370268149905,0.10383661851815064,-0.3512527479516148,7.933971505084371,0.4624028538170514,-0.05148491249999987,0.08855404950000012,0.45846088749999936
58622.0,-1.232695905,-1.4424601485,8.095585708,0.40773858386315925,0.03775321704988934,-0.4253297573940101,8.31497074136694,0.5904078765507774,0.10414662299999988,0.15210114149999998,0.4393379200000007
58632.0,-1.1561059685,-1.2222027895,8.557675055999999,0.4959370522834407,-0.007812093731926619,-0.4895474018918895,8.721477113032373,0.6969011747264915,0.07658993650000001,0.22025735899999987,0.46208934799999923
58642.0,-1.0651002564999998,-1.0594123995,8.983872065,0.5287125903066422,-0.03205995302988384,-0.5537650463897689,9.10860859126673,0.7663031843468358,0.09100571200000007,0.16279039000000006,0.4261970090000009
58652.0,-0.8891689555,-0.8726937834999999,9.392024838,0.5159210722187758,-0.02699675286984829,-0.6179826908876482,9.474299257928969,0.8054849369551398,0.17593130099999987,0.18671861600000006,0.4081527729999994
58662.0,-0.744324735,-0.7421672719999999,9.656608255,0.46875703984213307,-0.004612905213021013,-0.6648796878887359,9.713645791426352,0.81352285810731,0.1448442205,0.13052651150000005,0.26458341700000076
58672.0,-0.5528008605,-0.6715593919999999,9.6745544245,0.42319347438956906,-0.01100953692158023,-0.686996500170008,9.713577308127293,0.806956081775819,0.19152387449999997,0.07060787999999996,0.017946169500000053
58682.0,-0.40315138149999996,-0.6524364245000001,9.66739557,0.4397130157596954,-0.03738844323622253,-0.6774041706010471,9.697769920516539,0.8084688257835344,0.14964947900000003,0.019122967499999866,-0.007158854500000089
58692.0,-0.350489671,-0.717062248,9.759578079999999,0.5332417197155676,-0.06323502412900656,-0.6408988639663337,9.792159392932744,0.8361200594144055,0.05266171049999996,-0.0646258234999999,0.09218250999999889
58702.0,-0.401876517,-0.912214583,9.7439855065,0.6443563612145345,-0.09601056215220807,-0.6041265219560652,9.794840158534287,0.8884717231365052,-0.051386845999999986,-0.19515233500000007,-0.015592573499999318
58712.0,-0.48690017249999995,-1.053430343,9.818221846999998,0.748543790912336,-0.12079074687202355,-0.5796116272825529,9.886570057529642,0.9543887310338703,-0.08502365549999996,-0.14121576000000002,0.07423634049999883
58722.0,-0.5659417714999999,-1.168364281,10.0181794405,0.8519301144834721,-0.10507056629931064,-0.5881393060077972,10.101944589231428,1.0405443705761004,-0.07904159899999996,-0.11493393799999985,0.19995759350000242
58732.0,-0.5742774239999999,-1.2784929605000002,10.234808338999999,0.9142837473402216,-0.033391639249155516,-0.6307724636462626,10.330326255536562,1.1112621981857385,-0.008335652500000013,-0.11012867950000027,0.216628898499998
58742.0,-0.45218463149999993,-1.2102386765,10.488604440999998,0.9241413669554854,0.0793217238446383,-0.6806016137907008,10.567874512636216,1.1504554570632208,0.12209279249999999,0.06825428400000022,0.253796101999999
58752.0,-0.303810017,-0.951637316,10.893226819999999,0.9153483981839381,0.22560998575904703,-0.712843081062792,10.938935261697114,1.1819085472028674,0.14837461449999995,0.25860136049999993,0.404622379000001
58762.0,-0.10149882749999999,-0.7816880715,11.278726231499999,0.8863043741015004,0.34818271379735677,-0.7011179591478942,11.306237378466605,1.182511326955667,0.2023111895,0.16994924450000004,0.38549941149999967
58772.0,-0.04158019599999999,-0.465619742,11.586360842,0.8359428985352041,0.4473069433351227,-0.6422305501856055,11.595787520383015,1.1451393411978101,0.05991863149999999,0.31606832949999997,0.30763461050000096
58782.0,-0.3109688715,-0.050210048,11.943126769,0.8031691058412546,0.49953243054254903,-0.5654901683046667,11.947280012972262,1.101994733286338,-0.2693886755,0.415409694,0.35676592699999965
58792.0,-0.617426684,0.137685366,12.407569713,0.8282163259366252,0.46169543768856397,-0.47595826833586163,12.423685409454018,1.0609624088193081,-0.3064578125,0.187895414,0.46444294399999997
58802.0,-0.7598192419999998,0.076688003,12.886428432499999,0.9094875825557411,0.31940397976122226,-0.39548637251415913,12.909037302458382,1.0419193999320684,-0.14239255799999984,-0.060997363,0.4788587194999998
58812.0,-0.8448428975,0.04314926,13.2837938905,1.0088771021398102,0.15100065089479342,-0.33633192817631524,13.310702517349709,1.0741291215228599,-0.08502365550000013,-0.033538743,0.3973654580000012
58822.0,-0.8460196954999999,0.053936574999999994,13.5819160505,1.0941451627459933,0.008709192967451705,-0.2968944683982514,13.608346779904096,1.1337441565750541,-0.0011767979999999234,0.010787314999999992,0.29812216000000014
58832.0,-0.7299089594999999,0.197505931,13.844047804999999,1.1250549437988127,-0.06989694588386891,-0.2729136444758493,13.864683022307574,1.15979138941067,0.11611073599999999,0.143569356,0.2621317544999986
58842.0,-0.6940166204999999,0.4645410105,14.038023342,1.0792225976414416,-0.061636302534179746,-0.2521302637431008,14.062843125431765,1.1099955490654867,0.035892338999999995,0.26703507950000005,0.1939755370000018
58852.0,-0.6652831359999999,0.6081103664999999,14.163744594999999,0.9630465013116911,-0.01100953692158023,-0.22654897289661996,14.192394471028575,0.989395881693688,0.028733484500000017,0.14356935599999993,0.12572125299999826
58862.0,-0.631744393,0.6308617944999999,14.184044360499998,0.8319460945481371,0.03775321704988934,-0.1972379134386272,14.212114621071647,0.8558401744070777,0.033538742999999926,0.022751427999999962,0.020299765499999012
58872.0,-0.6149750214999999,0.5793768819999999,14.129029054,0.7378850651704068,0.05027769976220065,-0.163130689196154,14.154269103604083,0.7573729848974847,0.01676937150000002,-0.05148491249999998,-0.05501530649999786
58882.0,-0.620957078,0.4788587195,14.0320412855,0.7019120839575516,0.017502161738999135,-0.12182921777696018,14.053934538197337,0.7126213984826143,-0.005982056500000055,-0.10051816249999995,-0.09698776850000002
58892.0,-0.6018341105,0.45130203299999994,13.930248258499999,0.6840591110389015,-0.026197392072434884,-0.07866198938738443,13.950544590265768,0.6890652213840937,0.019122967499999977,-0.02755668650000004,-0.10179302700000115
58902.0,-0.5682953675,0.5004333495,13.8153143205,0.6446233965900896,-0.05923822014193954,-0.039491564984875695,13.83605084322207,0.6485430393288355,0.03353874300000004,0.04913131650000002,-0.11493393799999829
58912.0,-0.5694721654999999,0.5399541489999999,13.754316957499999,0.5753425519321748,-0.07549247146576274,0.004207988826558329,13.77668624879269,0.580289473006189,-0.0011767979999999234,0.03952079949999998,-0.060997363000002025
58922.0,-0.617426684,0.5267151715,13.561518218499998,0.4690240752176882,-0.09254608358699933,0.04337666789981507,13.58578010173545,0.48003114069734093,-0.0479545185000001,-0.013238977499999915,-0.19279873900000055
58932.0,-0.666459934,0.4333558635,13.334102004999998,0.3789598498270248,-0.09947504071741681,0.06682691172961089,13.357778349254119,0.3974565229531025,-0.04903325000000003,-0.09335930800000003,-0.22741621349999974
58942.0,-0.6772472489999999,0.1795597615,13.038431507499999,0.3259332564929331,-0.09094736199217252,0.07775092751784339,13.057243266478446,0.3472018390955156,-0.010787314999999853,-0.253796102,-0.29567049749999974
58952.0,-0.631744393,-0.058643767,12.676860322,0.3128764483587635,-0.07149566747869572,0.07641924129857172,12.692727354394437,0.3299139324831062,0.045502855999999925,-0.23820352849999998,-0.361571185499999
58962.0,-0.595852054,-0.2752726655,12.321369259499999,0.3389900646271026,-0.03685611781436426,0.07428644895263466,12.338839294665403,0.3489858361513056,0.035892338999999995,-0.2166288985,-0.3554910625000005
58972.0,-0.501315948,-0.4249221445,12.239974064499998,0.4016089875301552,0.03775321704988934,0.06949028416815423,12.25760342025464,0.40932136989947554,0.09453610599999995,-0.14964947899999997,-0.0813951950000007
58982.0,-0.38991240399999993,-0.44885037049999993,12.4278694785,0.48101448717888917,0.15526449025741557,0.0606973153966068,12.442083350971528,0.5090836502061523,0.11140354400000008,-0.02392822599999994,0.18789541400000154
58992.0,-0.401876517,-0.268113811,12.846907632999999,0.5279132295092288,0.2730393081819929,0.05936562917733513,12.855987923197446,0.5972998573840328,-0.011964113000000054,0.18073655949999995,0.41903815449999904
59002.0,-0.5886931995,0.0036284604999999998,13.402356288999998,0.49433833068861394,0.35937376496114437,0.07055668034112277,13.41527960745362,0.6152220194946803,-0.1868166825,0.27174227149999997,0.5554486559999994
59012.0,-0.8891689555,0.16877244649999998,13.805801869999998,0.3581764690942763,0.36337056894821146,0.07455348432818978,13.83543533264559,0.5156421001199025,-0.300475756,0.16514398599999996,0.4034455809999997
59022.0,-1.0041028934999998,0.1652420525,13.888373863,0.16099440619171293,0.2781025083420285,0.05936562917733513,13.925604335723136,0.3267789495955502,-0.11493393799999985,-0.0035303939999999923,0.08257199300000195
59032.0,-0.9621304315,0.069431082,13.5460237115,-0.03165852730192514,0.15446512946000213,0.02072753019668466,13.580326727840031,0.15903260382096632,0.04197246199999982,-0.09581097049999998,-0.3423501514999998
59042.0,-0.7873759284999999,-0.138862164,13.006069562499999,-0.16142550251695556,0.010574949937833642,-0.027235862977371513,13.030621206142127,0.16404820834486877,0.17475450300000006,-0.20829324600000002,-0.5399541490000015
