timestamp,ax,ay,az,gx,gy,gz,acc_mag,gyro_mag,dax,day,daz
64182.0,2.192963073,-5.614503258,7.263001122999999,0.032566098512962195,0.006190682856823887,-0.009622000166244739,9.43837481700814,0.03451750590336656,0.0,0.0,0.0
64192.0,2.2396427269999997,-6.657146286,7.3264501485,0.040559706487096225,-0.04497015350688589,-0.04026649117276118,10.149407273149661,0.07272410060027096,0.046679653999999626,-1.0426430279999996,0.06344902550000153
64202.0,2.366540778,-6.807972562999999,7.1385547344999996,0.06320884419022664,-0.037508870954610134,-0.07064220147447049,10.144356528136715,0.10194407296804275,0.1268980510000004,-0.1508262769999993,-0.18789541400000065
64212.0,2.4311666014999997,-6.758939313,6.956543310499999,0.09491798604045962,-0.01992293341151527,-0.11327710444218798,9.999366305517977,0.14912427616086835,0.06462582349999968,0.04903324999999903,-0.1820114240000006
64222.0,2.5664003049999997,-6.7205953114999994,6.785417268,0.13169032805072814,0.0021938788697568722,-0.15271281889099986,9.889120252445737,0.2016639795804865,0.13523370349999997,0.0383440015000005,-0.1711260424999992
64232.0,2.7232086384999996,-6.6715620614999995,6.651262295999999,0.18045308202219773,0.025907667416603827,-0.18255620377085088,9.806370162268927,0.2579947471897515,0.1568083334999999,0.04903324999999992,-0.13415497200000104
64242.0,2.8824686345,-6.483568580999999,6.569867101,0.2401398517818998,0.055485762250151734,-0.20147557286246942,9.669976251170878,0.3183366530680584,0.1592599960000003,0.1879934805000003,-0.08139519499999892
64252.0,2.9387588054999996,-6.2334009395,6.5017108834999995,0.30915366106425957,0.09811891988861722,-0.20040917668950087,9.474377816093552,0.38127043773535285,0.05629017099999967,0.25016764149999915,-0.06815621750000034
64262.0,2.910025321,-5.936553644,6.4585616235,0.38429706667962343,0.13409190110147234,-0.1777600389863705,9.242506953283714,0.4441435633441128,-0.028733484499999573,0.2968472955000001,-0.043149259999999856
64272.0,2.8848222304999998,-5.6420599445,6.4836666475,0.4661006487205977,0.15354359561494915,-0.13699089298903494,9.066034023475877,0.5095016734556053,-0.025203090500000247,0.29449369950000026,0.025105024000000142
64282.0,2.8417710369999996,-5.361883954,6.550744133499999,0.5444414975256151,0.15381063099050427,-0.09382540992871116,8.929597463798656,0.5734783884174904,-0.043051193500000196,0.2801759905000001,0.06707748599999963
64292.0,2.7698882924999997,-5.082982828,6.5627082465,0.6099908282427662,0.12183445376471616,-0.05891882488882458,8.75089338932606,0.6248230730300559,-0.07188274449999987,0.27890112600000005,0.011964113000000332
64302.0,2.7531189209999996,-4.9752077445,6.591441730999999,0.6558214290708853,0.0661444879920811,-0.032271137869375154,8.705139860293414,0.6599380777464632,-0.01676937150000013,0.10777508349999998,0.02873348449999913
64312.0,2.912378917,-5.0411084325,6.6788189825,0.6883299317185317,0.011519173063162575,-0.011487757136626676,8.86009865551231,0.6885221527385504,0.1592599960000003,-0.06590068800000015,0.08737725150000131
64322.0,3.1362647365,-5.068665118999999,6.659696015,0.7069822654345951,-0.011929325437381242,-0.00669159235214626,8.937509362131465,0.7071145662851464,0.22388581949999997,-0.02755668649999965,-0.01912296750000042
64332.0,3.3038603849999997,-4.988446722,6.647731902,0.7005873790552879,-0.010330603842554437,-0.019214329735205572,8.943848924410197,0.7009269487860219,0.16759564849999986,0.08021839699999944,-0.011964112999999443
64342.0,3.3696630065,-4.8255582655,6.475330994999999,0.6662131194372595,0.003525565089028546,-0.036534977231997307,8.750460150524523,0.6672234668241696,0.06580262150000049,0.16288845650000017,-0.172400907000001
64352.0,3.328965409,-4.5431267454999995,6.192801408499999,0.6182514715924554,0.0373657539559466,-0.045862016754655,8.37094980304598,0.6210752017877845,-0.04069759750000035,0.28243152000000027,-0.28252958649999993
64362.0,3.2308008425,-4.250986641999999,6.00363113,0.599599137876392,0.1189040459506177,-0.036534977231997307,8.034460047785801,0.6123659876633267,-0.09816456649999994,0.2921401035000004,-0.1891702784999998
64372.0,3.1517592435,-4.113301276,6.0300110185,0.6358374091355502,0.22975165207402956,-0.00669159235214626,7.950714848324163,0.6761063598984721,-0.07904159899999996,0.13768536599999948,0.02637988850000017
64382.0,3.0332949114999996,-4.0367113395,6.320876257499999,0.724569948306942,0.35871926649164654,0.04766668720121713,8.090079920569814,0.8099093993840102,-0.11846433200000028,0.07658993649999957,0.2908652389999995
64392.0,2.9315018844999994,-4.030729282999999,6.7351091535,0.8311537150677316,0.4391911623133491,0.10335839830310418,8.378673950048434,0.9457210654441539,-0.10179302700000026,0.00598205650000061,0.41423289600000057
64402.0,2.8680528589999996,-4.1539988735,7.171995410999999,0.9193539288172651,0.44292267625411297,0.14572452056601454,8.770345034174106,1.0308383866863133,-0.06344902549999976,-0.12326959050000053,0.43688625749999943
64412.0,2.8812918365,-4.38749521,7.5347433944999995,0.9614547610338723,0.3882973613251945,0.1771683723699444,9.182827172816435,1.0519309532925745,0.01323897750000036,-0.2334963365,0.36274798350000026
64422.0,2.852558352,-4.563426510999999,7.8352191504999995,0.9454657997563523,0.31875122662097644,0.19049047055041712,9.505398982116665,1.0157728793149654,-0.028733484500000017,-0.17593130099999943,0.300475756
64432.0,2.7567473815000003,-4.770542959,7.908278693,0.8767190258495476,0.26332655089464446,0.18995814512855885,9.638392404090496,0.9349124127924134,-0.09581097049999965,-0.20711644800000073,0.07305954250000024
64442.0,2.6657416695,-4.944120664000001,7.9836918315,0.7829250318473723,0.2532001505745734,0.18782709811187376,9.76165165579372,0.8440147750657704,-0.0910057120000003,-0.17357770500000047,0.07541313850000009
64452.0,2.4994208854999997,-5.0901416825,8.126084389499999,0.7115131401727723,0.31075587331759036,0.18835942353373203,9.909081421406986,0.7989364391951699,-0.16632078400000028,-0.14602101849999904,0.14239255799999917
64462.0,2.274358268,-5.166731618999999,8.288972846,0.6859318493262915,0.39602393392377333,0.1787670939647712,10.028703405511585,0.8119699083372837,-0.2250626174999999,-0.07658993649999957,0.16288845650000106
64472.0,2.0815595289999997,-5.254206937,8.555909859,0.7013867398527013,0.45811053140496766,0.15558388551053054,10.253934568004762,0.8520651167932511,-0.1927987390000001,-0.08747531800000097,0.2669370129999997
64482.0,1.9355385104999998,-5.3092222435,8.8168648155,0.7440216428204187,0.4719667003365506,0.12893794382033308,10.472404467518698,0.8904750218666335,-0.14602101849999993,-0.05501530649999964,0.2609549565000009
64492.0,1.8780715415,-5.3786533255,9.089783885,0.7967812007789553,0.44825116646045166,0.09829519814306864,10.727592245555854,0.9194842772586677,-0.05746696899999981,-0.06943108200000037,0.27291906949999856
64502.0,1.8684610245,-5.3786533255,9.366331415,0.835949879852212,0.42373627178693934,0.05006476959345734,10.961260072254635,0.938547340738478,-0.00961051700000004,0.0,0.2765475300000002
64512.0,1.6734067559999997,-5.135644538499999,9.627286371499999,0.8346181936329403,0.4144109775935336,-0.013086478731453483,11.039011634911928,0.9319309220209024,-0.1950542685000003,0.24300878700000084,0.2609549564999991
64522.0,1.583577842,-4.9190156400000005,10.007980524499999,0.778394157109195,0.38962904754446614,-0.07517307621264777,11.263396815659531,0.8737043263595611,-0.0898289139999997,0.2166288984999989,0.3806941530000003
64532.0,1.6254522375,-4.824381467499999,10.386223014999999,0.6774059159302992,0.36671461979503256,-0.13113007736083798,11.566779155740239,0.7813792193918662,0.04187439550000005,0.09463417250000106,0.3782424904999999
64542.0,1.5046343095,-4.596965254,10.558623922,0.5447067875719183,0.331808034755146,-0.18788643930644158,11.61380872401636,0.6649085429066498,-0.12081792799999991,0.22741621349999974,0.17240090700000188
64552.0,1.4842364775,-4.444962179,10.690327231499998,0.42106766336063994,0.26838975105468,-0.24544216204945857,11.672349506865892,0.5563927484346781,-0.020397832000000005,0.15200307499999965,0.1317033094999971
64562.0,1.631434294,-4.4784028555,10.828012597499999,0.34459431685525643,0.19298105539301302,-0.2838114803253019,11.830618191937754,0.4863495525997544,0.14719781649999986,-0.03344067649999971,0.13768536600000125
64572.0,1.8601253719999997,-4.5431267454999995,10.892638421,0.32993878712626007,0.1221014891402713,-0.3027308494169204,11.947788029417032,0.464127508438478,0.22869107799999977,-0.06472388999999978,0.06462582350000012
64582.0,2.069595416,-4.5227289135,10.9009740735,0.36004920738166624,0.042161918740427025,-0.3053959671847158,11.982050649286052,0.474003961904042,0.20947004400000013,0.02039783199999956,0.008335652500001345
64592.0,2.171388443,-4.306100014999999,10.902248938,0.41707085937357297,-0.06095911478440595,-0.2912727628775777,11.921260714190385,0.5123513811909232,0.10179302700000026,0.21662889850000067,0.0012748644999991399
64602.0,2.20845758,-4.072603678499999,10.845958766999999,0.4794244922303224,-0.2027165019606374,-0.26249577417069514,11.793990299311565,0.5829629965743385,0.03706913700000003,0.2334963365,-0.056290171000000555
64612.0,2.2132628385,-3.799684609,10.812420024,0.5388442266144693,-0.35886412881956203,-0.2169304633888792,11.672384601937717,0.6827850243343674,0.004805258499999798,0.27291906949999944,-0.03353874299999937
64622.0,2.2096343779999996,-3.5016605155,10.800455910999998,0.6147869930272466,-0.48489959009382855,-0.16123875228699217,11.566933834673128,0.799430168624948,-0.003628460500000319,0.29802409350000003,-0.01196411300000122
64632.0,2.2504300419999996,-3.4022210845,10.726219570499998,0.6955241788952523,-0.5688359644807399,-0.10288366874656174,11.475684291419386,0.9043855854719273,0.04079566400000001,0.09943943099999997,-0.07423634050000061
64642.0,2.4107687694999997,-3.4692985704999995,10.705919804999999,0.7770624708899233,-0.6159999968573826,-0.0466613775520684,11.509324806536702,0.9927030593026824,0.1603387275000001,-0.06707748599999963,-0.020299765499999012
64652.0,2.6610344774999994,-3.6955379859999997,10.7154322555,0.8623305314961063,-0.626658722599312,-0.010156070917355002,11.642963279106501,1.0660291956305123,0.2502657079999997,-0.22623941550000026,0.009512450500000824
64662.0,2.863345667,-3.894220715,10.804084371499998,0.9489302783215611,-0.6029431887232132,0.003167772592369708,11.836044207941828,1.1242860831329136,0.2023111895000005,-0.19868272900000017,0.08865211599999867
64672.0,3.0153487419999996,-3.973262314,10.867533396999999,1.0259376955780548,-0.5563114817684286,-0.00669159235214626,11.95752581375612,1.167079859034334,0.15200307499999965,-0.07904159899999996,0.06344902550000064
64682.0,3.109884848,-3.9109900864999996,10.951282187999999,1.072037077110981,-0.513411288754408,-0.033337534042343686,12.03735057168841,1.1891030389739747,0.09453610600000051,0.06227222750000028,0.08374879099999966
64692.0,3.0895850824999997,-3.7278999309999996,10.9680515595,1.077897892739178,-0.45985236999845797,-0.060782836529954525,11.9892005108517,1.1734660721901535,-0.020299765500000344,0.18309015549999996,0.016769371500000574
64702.0,3.0942922744999994,-3.509996168,10.995608246,1.047787472483772,-0.3753836701896884,-0.07650476243191943,11.949816671351417,1.1156273867263102,0.004707191999999694,0.2179037629999998,0.027556686500000538
64712.0,3.1457771869999998,-3.3424005195,11.0961264085,0.9857026203318294,-0.24908117353986675,-0.06851115445778541,12.007979705862873,1.0189920829065213,0.05148491250000031,0.16759564849999986,0.10051816250000023
64722.0,3.1457771869999998,-3.172451275,11.251757944,0.8967047911141347,-0.09106953503981212,-0.045862016754655,12.106296627493721,0.9024834996830777,0.0,0.16994924450000015,0.15563153549999953
64732.0,3.018879136,-3.1484249825,11.455245931499999,0.778128867062892,0.04562639730563576,-0.01735031809407563,12.257604597120658,0.7796584735803473,-0.12689805099999996,0.02402629249999988,0.20348798749999908
64742.0,2.9160073774999997,-3.2370770985,11.709042033500001,0.6664801548128146,0.12503189695436978,0.0068975412038815905,12.493335523771762,0.6781418347882548,-0.10287175850000008,-0.088652116,0.2537961020000026
64752.0,2.8190196089999997,-3.4154600619999997,11.9030175705,0.5913384945267027,0.12663061854919658,0.010362019769090335,12.700160088545156,0.6048337789152937,-0.09698776850000002,-0.17838296349999982,0.19397553699999825
64762.0,2.7543937855,-3.5603042824999998,12.037074476,0.5636261566635368,0.06640977803838424,-0.00669159235214626,12.85121059084939,0.5675645165993242,-0.06462582349999968,-0.1448442205,0.13405690550000138
64772.0,2.7124213234999996,-3.5950198235,12.092089782499999,0.5801456980336631,-0.01166229006182611,-0.04159817739203285,12.903489151217059,0.5817520505497092,-0.04197246200000038,-0.03471554100000018,0.05501530649999786
64782.0,2.5963105874999997,-3.5028373134999997,11.936458247,0.6051946634582858,-0.09266825663463893,-0.085564766579022,12.707861086508098,0.618198443661753,-0.11611073599999999,0.09218251000000022,-0.15563153549999953
64792.0,2.5305079659999996,-3.323277552,11.792888890999999,0.6110554790864827,-0.1369001358679312,-0.12340175943300707,12.510790248784756,0.6382463787233192,-0.06580262150000005,0.17955976149999975,-0.14356935600000043
64802.0,2.544825675,-3.1568587014999996,11.6839370095,0.5942689023408013,-0.1366331004923761,-0.15670962287806686,12.36754941851211,0.6295887851146068,0.014317709000000178,0.16641885050000038,-0.10895188149999946
64812.0,2.59876225,-3.0886044175,11.692272661999999,0.5588299918790564,-0.11531739433776934,-0.1852213215386462,12.369409140390584,0.5999133264171762,0.053936575000000264,0.06825428399999955,0.008335652499999568
64822.0,2.737624414,-3.0766403044999997,11.703059977,0.5319170148133039,-0.09772971146542248,-0.20866982003919005,12.406527145847944,0.5796808612902441,0.13886216399999984,0.011964113000000332,0.01078731500000174
64832.0,2.935130345,-3.1125326435,11.676778155000001,0.5207259636495162,-0.10279291162545803,-0.22972023614749368,12.435835222456035,0.5783539563233027,0.19750593100000025,-0.035892339000000106,-0.02628182199999962
64842.0,3.1243006234999995,-3.106550587,11.618036321499998,0.5220576498687879,-0.11025419417773379,-0.2409112873112813,12.425404577046404,0.5854386607273918,0.18917027849999934,0.005982056499999722,-0.05874183350000273
64852.0,3.2140314709999998,-2.9821041985,11.549880103999998,0.524188696885473,-0.08414057790939464,-0.22412471056559985,12.3540549684735,0.5762684380386722,0.08973084750000027,0.1244463885,-0.06815621750000034
64862.0,3.1841211885,-2.8216674045,11.518694957,0.5180608458817209,-0.0015376350710070044,-0.16603666240072454,12.27928207172918,0.5440198320084185,-0.02991028249999994,0.16043679400000022,-0.031185146999998636
64872.0,3.084779824,-2.7941107179999998,11.5474284415,0.49914147679010235,0.12796405009772027,-0.06851115445778541,12.274608950128027,0.5198180357151477,-0.09934136449999986,0.027556686500000094,0.028733484500000017
64882.0,2.842947835,-2.8527544849999997,11.654026727,0.4770264098380822,0.2510691035578883,0.03674267141298462,12.330324387373153,0.5403146438390636,-0.24183198900000002,-0.05864376699999996,0.1065982855000005
64892.0,2.5975854519999997,-3.0670297874999997,11.8359400845,0.47116384888063323,0.319815877464693,0.10202496675458053,12.499743980647294,0.5785210988475675,-0.24536238300000024,-0.21427530249999993,0.18191335750000093
64902.0,2.461076884,-3.3160206309999998,11.998730474499999,0.4844859470611059,0.325945473797697,0.10389072372496246,12.689461188477301,0.5930938941390296,-0.13650856799999955,-0.24899084350000011,0.16279038999999784
64912.0,2.3652659134999996,-3.3986906904999996,11.990394821999999,0.49967554754121263,0.2814465591888496,0.04366988321415012,12.685233511398232,0.5751477003255693,-0.09581097050000054,-0.08267005949999984,-0.008335652499999568
64922.0,2.346142946,-3.3279847439999997,11.925768998499999,0.5159297988650358,0.21669484393985997,-0.045862016754655,12.601739379345455,0.5614655263930642,-0.019122967499999532,0.07070594649999995,-0.06462582350000012
64932.0,2.2778886619999996,-3.0897812155,11.8143654545,0.5279202108262367,0.17539337252066617,-0.11833855927297153,12.422349045515016,0.5687412405776409,-0.06825428400000044,0.2382035284999997,-0.11140354399999808
64942.0,2.2348374685,-2.8048980329999997,11.631275298999999,0.5217906144932327,0.1703301723606306,-0.14871601490393282,12.171627523353903,0.5686776468954396,-0.04305119349999975,0.2848831825000002,-0.18309015550000218
64952.0,2.148637015,-2.595427989,11.489961472500001,0.4770264098380822,0.21429676154761976,-0.13805728916200347,11.973809005819623,0.5408670010118647,-0.08620045350000005,0.2094700439999997,-0.14131382649999757
64962.0,2.012128447,-2.4050809125,11.5138896985,0.3845623567259266,0.2907718533822553,-0.10821390428215241,11.933261543774313,0.4941120581507169,-0.136508568,0.19034707650000016,0.023928225999998887
64972.0,1.7883406939999997,-2.3572244605,11.638434153499999,0.26705282884765236,0.3387352465563115,-0.09009389598794729,12.00865600891087,0.44065370842577245,-0.2237877530000001,0.047856451999999994,0.12454445499999878
64982.0,1.5297393334999998,-2.366736911,11.765332204499998,0.1657975522932013,0.3022299399215981,-0.12340175943300707,12.09812332209387,0.36614172005193746,-0.25860136049999993,-0.009512450499999936,0.1268980509999995
64992.0,1.3693025395,-2.4505837685,11.8239759715,0.11996520613583024,0.15887383115053982,-0.22172662817335964,12.15264407549757,0.29798530592764094,-0.16043679399999977,-0.0838468575000002,0.05864376700000129
65002.0,1.423141048,-2.5152095919999997,11.6982547185,0.127426488688106,-0.0745482483404338,-0.35442575653174047,12.049928348048333,0.38394344406839864,0.05383850849999994,-0.06462582349999968,-0.12572125300000003
65012.0,1.7141043535,-2.4433268475,11.5031023835,0.17565691723771729,-0.28958328416164714,-0.48046121780600703,11.883996140342918,0.5878408057075784,0.29096330550000005,0.07188274449999987,-0.1951523349999995
65022.0,2.1390264979999998,-2.2518029729999998,11.297260799999998,0.22548432205290342,-0.38257791736640906,-0.561732474425123,11.716405275150496,0.7160673258652763,0.42492214449999977,0.19152387450000008,-0.2058415835000016
65032.0,2.5137385945,-1.9705482509999999,11.146434522999998,0.23641008317038792,-0.3412764459472152,-0.5825176004871234,11.59503965954943,0.7153223712846315,0.37471209650000015,0.2812547219999999,-0.15082627700000018
65042.0,2.817842811,-1.6988059795,11.1439828605,0.20656669829053687,-0.20404818817990908,-0.5452111877257446,11.619575459482462,0.6177060005888516,0.30410421649999986,0.27174227149999997,-0.002451662499998619
65052.0,2.8776633759999997,-1.4820790144999998,11.124859893,0.14581353235786626,-0.047635271274681236,-0.45514696233508123,11.586199219315754,0.4803014289078712,0.05982056499999988,0.2167269650000001,-0.019122967499999532
65062.0,2.8896274889999995,-1.415099595,11.087790756,0.08186117790629004,0.06587745261652597,-0.3413689483975709,11.54519630572788,0.3571748173395086,0.011964112999999887,0.06697941949999975,-0.037069136999999586
65072.0,2.9818099989999998,-1.4785486204999998,11.122506297,0.044556510474163244,0.1570080741801579,-0.23878024029459624,11.609799447885543,0.28922797433606123,0.09218251000000022,-0.06344902549999976,0.03471554099999885
65082.0,3.1590161645,-1.705964834,11.147611321,0.038428659470411144,0.2516014289797466,-0.16710131324444108,11.711487407947136,0.3044714926251062,0.17720616550000035,-0.22741621350000019,0.025105024000000142
65092.0,3.3206297565,-1.9202401365,11.207431886,0.06454227573875031,0.33953460735372487,-0.12766559879562922,11.84569261972082,0.36843990020657585,0.1616135919999997,-0.21427530249999993,0.05982056500000077
65102.0,3.408007008,-2.075871672,11.272155776,0.12422904549845239,0.4176084207831872,-0.11034495129883751,11.957644032316706,0.44945039451715574,0.08737725149999997,-0.15563153549999997,0.06472388999999978
65112.0,3.4510582015,-2.0901893809999996,11.446910278999999,0.1999047765356745,0.4842241476733068,-0.10714750810918389,12.137151613704981,0.5347107006276628,0.043051193500000196,-0.014317708999999734,0.17475450299999906
65122.0,3.480968484,-1.9896712184999998,11.753368091499999,0.2976955745249168,0.55403731775308,-0.11061198667439263,12.418437689122527,0.6386039587653709,0.02991028249999994,0.10051816249999979,0.3064578124999997
65132.0,3.489402203,-1.8651267635,12.056197443499999,0.3763034587054894,0.5881445419955531,-0.121270712416322,12.688834555422384,0.708678263390966,0.008433719000000117,0.12454445499999989,0.30282935199999983
65142.0,3.4535098639999995,-1.6664440344999998,12.374619369,0.4221340595336085,0.563896682697596,-0.1265992026226607,12.95511368643656,0.7156842817055373,-0.03589233900000055,0.19868272900000017,0.3184219255000009
65152.0,3.3553452975,-1.3744019975,12.641556382,0.4378559854355734,0.5159332895235398,-0.11540815145887305,13.15128399341571,0.6864576204278688,-0.0981645664999995,0.29204203699999987,0.2669370129999997
65162.0,3.1972620994999996,-1.0799082979999999,12.781693410499999,0.42080237331433684,0.4762305396991728,-0.08050156641898645,13.219696415009215,0.6405861897707867,-0.15808319800000037,0.29449369950000004,0.14013702849999987
65172.0,2.9399356035,-0.8763222439999999,12.784047006499998,0.36884217615321363,0.4391911623133491,-0.02028072590817411,13.14697759534326,0.573885646977646,-0.2573264959999997,0.20358605399999996,0.0023535959999989586
65182.0,2.6514239605,-0.806891162,12.6906876985,0.2793102761844085,0.38536695351109596,0.04420220863600839,12.989791246455288,0.4779913749106096,-0.2885116430000001,0.06943108199999992,-0.09335930799999836
65192.0,2.4346969955,-0.9266303585,12.463271484999998,0.1639317953228194,0.2777150452480857,0.09110095096634802,12.732616753440928,0.33510992695215996,-0.21672696499999988,-0.11973919649999998,-0.22741621350000152
65202.0,2.331825237,-1.161303493,12.1483799535,0.04482354584971837,0.13489126189888576,0.11241665712095476,12.424539035045314,0.18122446743601126,-0.10287175850000008,-0.23467313449999994,-0.31489153149999893
65212.0,2.2719066055,-1.4018606175,11.712670494000001,-0.04310963252425994,0.011252137687607444,0.11161729632354137,12.013052189848766,0.12018099624106486,-0.059918631499999986,-0.2405571245,-0.4357094594999982
65222.0,2.220421693,-1.568279468,11.217042403,-0.0886749433060759,-0.07268249137005185,0.09962688436234031,11.541742210567492,0.1518930749239101,-0.05148491249999987,-0.16641885050000016,-0.4956280910000004
65232.0,2.1546190715,-1.6556567195,10.7932970565,-0.09906663367245014,-0.11158588039700545,0.07724478203476504,11.13008732517174,0.16802488792665388,-0.06580262150000005,-0.08737725149999997,-0.4237453465000005
65242.0,2.1222571264999996,-1.7454856335,10.4269206125,-0.08174598617565841,-0.10838843720735186,0.04553564018453206,10.78292023837292,0.14319201829396136,-0.032361945000000336,-0.08982891399999993,-0.36637644400000013
65252.0,2.1247087889999996,-1.7705906574999999,10.219902231,-0.052169636671362506,-0.08440761328494976,0.013027137536885674,10.58752947224606,0.10008008035212869,0.0024516624999999515,-0.02510502399999992,-0.2070183814999993
65262.0,2.0959753045,-1.7670602635,10.034262346499998,-0.01672898088036565,-0.06042504403329568,-0.012020082558484947,10.40202073110327,0.06383985536037935,-0.028733484499999573,0.0035303939999999923,-0.18563988450000224
65272.0,2.100780563,-1.7777495119999998,9.950513555499999,0.022174408146587957,-0.0542971930295436,-0.028009043836005002,10.324068593315529,0.06499535432741509,0.004805258499999798,-0.01068924849999986,-0.08374879099999966
65282.0,2.1402032959999997,-1.6976291815,9.9971932095,0.0706701267425024,-0.056428240046228664,-0.03760137340496583,10.363700451776989,0.09794016729848806,0.03942273299999988,0.08012033049999978,0.04667965400000185
65292.0,2.2024755235,-1.6556567195,10.084570461,0.11783415911914517,-0.05456248307584673,-0.042929863611304526,10.454217282384935,0.136765956306397,0.06227222750000028,0.04197246199999993,0.08737725149999953
65302.0,2.2838707185,-1.6640904385,10.1803814315,0.14714521857713794,-0.0465688751017127,-0.03973242042165091,10.565293584996057,0.15937076491915148,0.08139519499999981,-0.008433718999999895,0.09581097050000054
65312.0,2.331825237,-1.614959122,10.253342907499999,0.15300777953458689,-0.0388423025031338,-0.02667561228748133,10.638446441112615,0.1600990110923916,0.0479545185000001,0.04913131650000002,0.07296147599999792
65322.0,2.3844869475,-1.604171807,10.278545997999998,0.14501417156045285,-0.02152165500634208,-0.007490953149559663,10.672752832431438,0.14679375315954477,0.052661710500000236,0.010787314999999964,0.025203090499999803
65332.0,2.380858487,-1.5814203789999999,10.296492167499999,0.13568713203779517,0.01684940859875326,0.011693705988362009,10.685837754038063,0.1372284341181231,-0.003628460500000319,0.022751428000000073,0.017946169500000053
65342.0,2.383212083,-1.5981897505,10.328756045999999,0.13009160645590134,0.07920129612625067,0.01888969849433463,10.719939914427785,0.15347146994657354,0.002353596000000291,-0.01676937150000013,0.03226387850000023
65352.0,2.3533018004999997,-1.6078002675,10.467618209999998,0.127426488688106,0.14741574461119708,0.014358823756157348,10.84869033822669,0.19538446099501894,-0.029910282500000385,-0.00961051700000004,0.13886216399999896
65362.0,2.289852775,-1.5491565004999999,10.636488723,0.12076456693324364,0.1919146592200445,0.008496262798708397,10.98991373709197,0.22690857967839032,-0.06344902549999976,0.05864376700000018,0.16887051300000167
65372.0,2.2012987255,-1.4712916994999998,10.802809507,0.10371095481200704,0.19324634543931615,0.010629055144645466,11.122549554325891,0.21957479132846192,-0.0885540494999999,0.07786480100000004,0.16632078399999983
65382.0,2.1330444415,-1.4521687319999999,10.847135565,0.07759908387291989,0.15301127019309088,0.020488420089161432,11.149844060842305,0.1727826437515339,-0.068254284,0.019122967499999977,0.04432605800000111
65392.0,2.08881645,-1.42588691,10.799279113,0.049886746009753916,0.1034491554242079,0.036475636037429496,11.091471363276291,0.1205026439948877,-0.04422799150000012,0.026281821999999844,-0.04785645199999955
65402.0,2.0767542705,-1.437851023,10.7166090535,0.032033773091103925,0.06880960575987644,0.05006476959345734,11.010269454919815,0.09092527491147841,-0.012062179499999992,-0.011964112999999887,-0.08267005950000161
65412.0,2.0672418199999996,-1.462956047,10.602949979999998,0.027237608306623508,0.049357911246399634,0.059124773740559904,10.90120531942192,0.081693510016065,-0.00951245050000038,-0.025105024000000142,-0.11365907350000093
65422.0,2.0672418199999996,-1.520423016,10.5143959305,0.03229906313740706,0.056018087672010004,0.059657099162418174,10.82301698572327,0.08797854912680592,0.0,-0.057466969000000034,-0.08855404949999901
65432.0,2.0468439879999996,-1.5574921529999999,10.394656734,0.03656290250002921,0.06321233484873062,0.051398201141981015,10.70813899496826,0.08929960916424116,-0.020397832000000005,-0.03706913699999981,-0.11973919649999942
65442.0,2.019385368,-1.5874024355,10.327579248,0.03976034568968282,0.06214768400501409,0.03754203221039803,10.642211089827342,0.08278057682232424,-0.027458619999999545,-0.029910282500000163,-0.06707748600000052
65452.0,2.0265442225,-1.5730847264999999,10.2988457635,0.05255011844829727,0.0730716997932466,0.021820106308433108,10.613562130729607,0.09261266273526397,0.007158854500000089,0.014317709000000178,-0.028733484500000017
65462.0,2.068418618,-1.5719079284999997,10.2976689655,0.07866373471663643,0.09465618665266047,0.007164576579436722,10.620321851902231,0.12328466242300891,0.04187439549999983,0.0011767980000001454,-0.0011767979999994793
65472.0,2.0767542705,-1.5347407249999998,10.3767105645,0.12129863768435392,0.11597189280726722,-0.0008290313946973066,10.693196880840613,0.16781992348476935,0.008335652500000013,0.03716720349999991,0.07904159899999996
65482.0,2.103134159,-1.511989297,10.450946905,0.17459052106474876,0.12423253615695638,-0.0010960667702524388,10.76715264757235,0.21428199748932436,0.02637988850000017,0.02275142799999985,0.07423634050000061
