timestamp,ax,ay,az,gx,gy,gz,acc_mag,gyro_mag,dax,day,daz
37412.0,-0.17720616549999998,-0.979684335,10.4243708835,-0.1664887026769911,0.29005277773043364,-0.023233823002548514,10.471804607521007,0.3352445562861859,0.0,0.0,0.0
37422.0,-0.4610106165,-1.4057832774999999,9.497838591499999,-0.20352633473356274,0.29724702490715427,-0.0496144746464428,9.612371992490253,0.3636486750157013,-0.28380445100000007,-0.4260989424999999,-0.926532292000001
37432.0,-0.1736757715,-1.4069600754999998,9.664257442,-0.1768803930433653,0.31749808021804443,-0.0674674475650928,9.767679961634158,0.36965329819476483,0.28733484500000006,-0.0011767979999999234,0.16641885050000127
37442.0,-0.228691078,-1.4190222549999998,9.663080643999999,-0.09401041482942257,0.3153670332013594,-0.09038362064377836,9.769393599491707,0.34126752351682377,-0.0550153065,-0.012062179499999992,-0.0011767980000012557
37452.0,-0.3711817025,-1.166402951,9.793509088999999,0.023766148424406785,0.23542746280151514,-0.11356508376876703,9.869705769509945,0.262465137310647,-0.1424906245,0.25261930399999977,0.13042844499999973
37462.0,-0.40472044549999997,-0.7509932569999999,9.837835147,0.12768654274665317,0.11791793492324089,-0.11569613078545211,9.874755181300127,0.20879197123902776,-0.03353874299999998,0.41540969400000016,0.04432605800000111
37472.0,-0.30773267699999995,-0.5930081255,9.873727485999998,0.17671458676442586,0.01266585438172285,-0.09571211085011704,9.896304992531023,0.20136851095920108,0.09698776850000002,0.15798513149999982,0.03589233899999833
37482.0,-0.097085835,-0.5977153175,9.860586575,0.16818865336843355,-0.02916968778858123,-0.057341047245021703,9.879162761246622,0.18007301160009018,0.21064684199999995,-0.004707191999999916,-0.013140910999998923
37492.0,0.0897308475,-0.5810440124999999,9.731334927999999,0.11143229142282997,-0.004921828490624009,-0.010976375665792338,9.749079097554185,0.11207970730774694,0.1868166825,0.016671305000000025,-0.12925164700000025
37502.0,0.1591619295,-0.6312540604999999,9.733688524,0.03255911719595422,0.06702413393508624,0.04044975074422058,9.755434715631548,0.08478509879452777,0.06943108199999999,-0.05021004799999995,0.002353596000000735
37512.0,0.040599530999999994,-0.6599875449999999,9.9263891965,-0.034323645069720486,0.128044335243312,0.08868017929383189,9.948388530906122,0.15949181357787612,-0.1185623985,-0.028733484500000017,0.1927006725000009
37522.0,-0.2227090215,-0.7473647965,10.058092506000001,-0.07056191632887876,0.10086432280200429,0.11958996034665147,10.088279253993635,0.171622709062712,-0.26330855249999996,-0.08737725150000009,0.13170330950000064
37532.0,-0.4310022675,-0.9760558744999999,10.194601074,-0.07375935951853235,-0.0006579891280018622,0.1254507759748484,10.250284829346844,0.14552928660227907,-0.208293246,-0.22869107799999988,0.13650856799999822
37542.0,-0.5985979159999999,-1.1185464989999998,10.1909726135,-0.062035982932886445,-0.11896687780368949,0.1105299561995489,10.269634294587695,0.1738345547072893,-0.16759564849999992,-0.14249062449999994,-0.003628460499999875
37552.0,-0.6226242085,-1.1843491204999999,10.030535819499999,-0.051110221815401945,-0.21222854638400648,0.07908784972487104,10.119386966141372,0.23218117634380217,-0.0240262925000001,-0.06580262150000005,-0.16043679400000066
37562.0,-0.5831034089999999,-1.1759154015,9.73604212,-0.05484173575616582,-0.2356770448845503,0.045779986279811266,9.82411842250929,0.24626630425221221,0.03952079950000009,0.008433718999999895,-0.2944936994999985
37572.0,-0.48248717999999996,-1.201118492,9.526572075999999,-0.06017022596250451,-0.18558260469380908,0.012205087459196347,9.614107084379269,0.19547461067157568,0.10061622899999995,-0.025203090500000025,-0.20947004400000147
37582.0,-0.39030467,-1.1376694665,9.379374259499999,-0.0577721435702643,-0.08112988494970441,-0.013908528809142813,9.456177401582595,0.10056403919040971,0.09218250999999994,0.06344902549999998,-0.1471978165000003
37592.0,-0.3592175895,-1.0107714154999998,9.3566228315,-0.05430766500505556,0.02598795256219557,-0.03282789790076134,9.417913088468438,0.06857380722447219,0.03108708050000003,0.12689805100000018,-0.022751427999999407
37602.0,-0.3245020485,-0.936535075,9.440371622499999,-0.04951150022057514,0.08674111849486618,-0.04455127448640726,9.49226084223823,0.10936281977983024,0.034715541000000016,0.07423634049999983,0.08374879099999966
37612.0,-0.24310685349999997,-0.9688970199999999,9.566092875499999,-0.04311661384126792,0.1133888055143156,-0.04428423911085212,9.61810767668336,0.12914006906737904,0.081395195,-0.03236194499999989,0.12572125300000003
37622.0,-0.1724989735,-0.982037931,9.696619387,-0.03938684522975603,0.11125601316837855,-0.03469190954189129,9.747747531103048,0.12301525365147992,0.07060787999999996,-0.013140911000000144,0.13052651150000116
37632.0,-0.17485256949999997,-0.9856663915,9.731334927999999,-0.03539004124268902,0.07501774190922027,-0.016573646576938154,9.7826883389642,0.08458606493492214,-0.002353595999999958,-0.003628460499999986,0.03471554099999885
37642.0,-0.12101406099999999,-1.027540787,9.6714162965,-0.034323645069720486,0.026787313359608968,0.005010840282475721,9.726601546897768,0.043826718885110645,0.05383850849999998,-0.04187439549999994,-0.059918631499998654
37652.0,-0.0946341725,-1.0898130145,9.550500302,-0.027394687939302997,0.00040840704496667313,0.027659977985606134,9.612944608790816,0.03893212177329136,0.02637988849999999,-0.062272227500000055,-0.12091599450000068
37662.0,-0.1424906245,-1.0694151824999998,9.3913383725,-0.005544911033585984,-0.005721189288037412,0.04977679026687828,9.453104719478297,0.050410384788381904,-0.047856451999999994,0.020397832000000227,-0.15916192949999974
37672.0,-0.21319657099999997,-1.0239123264999999,9.3207304925,0.02083399528105631,0.0030735248127620146,0.06283359840104785,9.379225242207593,0.06626886902739404,-0.07070594649999998,0.045502855999999925,-0.07060788000000073
37682.0,-0.3580407915,-0.994002044,9.3219072905,0.04135208596750165,0.009468411192069237,0.059636155211394246,9.381587754987489,0.07318549605463677,-0.14484422050000004,0.02991028249999983,0.0011767980000012557
37692.0,-0.45022330149999995,-1.064609924,9.415266598499999,0.05467592947722636,-0.00838456172658076,0.04258254309015765,9.485954903557289,0.06980709932070381,-0.09218250999999994,-0.07060787999999996,0.09335930799999836
37702.0,-0.47895678599999997,-1.1747386034999998,9.516961558999999,0.06320186287321866,-0.030768409383408035,0.011405726661782942,9.601144083123232,0.07121278738620918,-0.028733484500000017,-0.11012867949999983,0.10169496049999971
37712.0,-0.48013358399999995,-1.1615976925,9.519413221499999,0.06932971387697076,-0.04409050756388075,-0.027764697740725795,9.602034447937323,0.0867263542652239,-0.001176797999999979,0.01314091099999981,0.0024516625000003955
37722.0,-0.4250202109999999,-1.0945202065,9.503820648,0.07039611004993929,-0.03796265656012866,-0.06293657282691552,9.576075583011363,0.10177321751061565,0.05511337300000002,0.06707748600000007,-0.015592573499999318
37732.0,-0.3256788465,-0.9461455919999999,9.4536106,0.06559994526545887,-0.0035883969421003415,-0.08185594191853406,9.506419492571899,0.10496010975039849,0.09934136449999992,0.1483746145,-0.050210048000000285
37742.0,-0.3029274185,-0.7701162245,9.451158937499999,0.0541418587261161,0.06569070238656258,-0.07546105553922683,9.487320447945422,0.11375842891607166,0.022751428000000018,0.17602936749999998,-0.0024516625000003955
37752.0,-0.3256788465,-0.609777497,9.4858744785,0.03282440724225736,0.13470451166892236,-0.05041383544385621,9.511030960351397,0.14752729231884049,-0.022751428000000018,0.1603387275,0.03471554100000063
37762.0,-0.377163759,-0.566628237,9.470281905,0.010442304914682074,0.17334261064957285,-0.017638297420654692,9.494712182064244,0.17455031347620112,-0.05148491249999998,0.04314925999999997,-0.015592573499999318
37772.0,-0.423843413,-0.6995083445,9.440371622499999,-0.00607898178469625,0.17920517160702176,0.010074040442511272,9.475735936256976,0.17959101826393808,-0.046679654000000015,-0.1328801075,-0.029910282500001273
37782.0,-0.48493884249999997,-0.8156190804999999,9.4248771155,-0.004745550236172582,0.14403155119158004,0.024729570171507655,9.472523887946469,0.1462161401028091,-0.061095429499999965,-0.11611073599999988,-0.015494506999999658
37792.0,-0.5723160939999999,-0.8395473065,9.3948687665,0.00884358331985527,0.06302732994801923,0.02499486021781079,9.449653143425957,0.06837686979980587,-0.08737725149999997,-0.023928226000000108,-0.030008348999999157
37802.0,-0.6082084329999999,-0.9054479944999999,9.317102032,0.025097834643678457,-0.03876201735754206,0.016201891446263363,9.380732585646758,0.04893768057299324,-0.035892338999999995,-0.06590068799999993,-0.07776673450000082
37812.0,-0.629783063,-0.9616400989999999,9.2512994105,0.0456159253301238,-0.11550239923848074,0.0010140362954087054,9.322441695669866,0.12418794282528893,-0.02157463000000004,-0.056192104500000006,-0.0658026214999996
37822.0,-0.628606265,-0.9736042119999999,9.166275755,0.0650676198436006,-0.15707090603322968,-0.02136981136141857,9.23924576005651,0.17135265831563165,0.0011767979999999234,-0.011964112999999998,-0.08502365550000057
37832.0,-0.6238010064999999,-0.845529363,8.991521252,0.06666634143842741,-0.15334113742171782,-0.042420227469722176,9.052706889354877,0.1725032788243577,0.004805258500000131,0.12807484899999988,-0.17475450299999906
37842.0,-0.562705577,-0.752170055,8.845402167,0.04321784293788359,-0.09764942631983074,-0.059473839590958776,8.89514119359518,0.122230642657587,0.06109542949999991,0.09335930800000003,-0.14611908500000048
37852.0,-0.47895678599999997,-0.6408645775,8.664665607499998,-0.002881538595042638,0.0022741640153486112,-0.0674674475650928,8.701524986997567,0.06756723738315763,0.08374879100000004,0.11130547749999997,-0.18073655950000145
37862.0,-0.41668455849999997,-0.5199485829999999,8.5462012755,-0.07029662628257562,0.11898433109620943,-0.06533465521915573,8.572136769301682,0.15286433163341423,0.0622722275,0.12091599450000012,-0.1184643319999985
37872.0,-0.3005738225,-0.4109967015,8.364189851499999,-0.1582280593273019,0.23009897259517642,-0.06160488660764385,8.379673906743133,0.28596646307177453,0.11611073599999999,0.1089518814999999,-0.1820114240000006
37882.0,-0.19397553699999998,-0.322442652,8.171489179,-0.259483335881753,0.31137022921429236,-0.06160488660764385,8.180148603497209,0.4099733933991622,0.1065982855,0.08855404950000001,-0.19270067249999911
37892.0,-0.1617116585,-0.10571568699999999,8.013405981,-0.3500816320235266,0.3436116964863836,-0.06160488660764385,8.015734644017307,0.4943898351467667,0.03226387849999998,0.216726965,-0.15808319799999992
37902.0,-0.3005738225,0.091790244,7.9009237054999994,-0.4023088645602049,0.33668448468521817,-0.04774871767606086,7.907171774522018,0.5267720614945143,-0.13886216399999998,0.19750593099999997,-0.11248227550000056
37912.0,-0.5123974625,0.1911316085,7.723717539999999,-0.40150950376279154,0.28685533454078005,-0.029895744757410872,7.743054635545837,0.4943577855368986,-0.21182363999999998,0.0993413645,-0.17720616550000035
37922.0,-0.629783063,0.0665871535,7.605253208,-0.3660688479717947,0.22850025100034962,-0.017373007374351556,7.631574995585589,0.43188029307650627,-0.11738560050000002,-0.124544455,-0.1184643319999994
37932.0,-0.6884268299999999,-0.032754211,7.501106585,-0.3298305767126364,0.21544344286618003,-0.008045967851693859,7.532702326398703,0.3940416526298886,-0.05864376699999996,-0.0993413645,-0.1041466230000001
37942.0,-0.6884268299999999,-0.1189546645,7.423241783999999,-0.33569313767008535,0.2639391614620945,-0.012575097260619145,7.456044547626687,0.4272141110768867,0.0,-0.0862004535,-0.07786480100000048
37952.0,-0.7638399684999999,0.006766588499999999,7.2317179094999995,-0.41643032353809106,0.3489401866927223,-0.025631905394788723,7.271948927679639,0.5439029902706534,-0.07541313849999998,0.125721253,-0.19152387449999964
37962.0,-0.8081660264999999,0.197113665,6.949188323,-0.5619192246550864,0.43980551821005115,-0.04108679592119851,6.998800216596989,0.7147518686117968,-0.044326058,0.1903470765,-0.28252958649999993
37972.0,-0.9050557284999999,0.32283491799999997,6.450029837999999,-0.7777536212737131,0.521075029499915,-0.07173128692771494,6.521214086890647,0.9389170673158614,-0.09688970200000002,0.12572125299999998,-0.4991584850000006
37982.0,-0.875145446,0.138469898,5.7173750165,-1.0282275675566714,0.5453246341271243,-0.11569613078545211,5.785622744666735,1.1696223672400061,0.02991028249999994,-0.18436501999999996,-0.7326548214999988
37992.0,-0.6955856845,-0.23143693999999998,4.881848436499999,-1.2608502862502315,0.5285363120521909,-0.18284592842668196,4.936582487777894,1.3793211051228198,0.17955976149999997,-0.369906838,-0.8355265800000007
38002.0,-0.5866338029999999,-0.4804277835,4.0953551065,-1.4153991915143296,0.5053548489272022,-0.26198439269986085,4.164959006078762,1.5255734058680912,0.10895188150000013,-0.2489908435,-0.7864933299999999
38012.0,-0.6273314004999999,-0.5330894939999999,3.5686399349999998,-1.4447085056430702,0.4978935663749264,-0.32540267640032683,3.6623653668555884,1.5623596165811098,-0.040697597500000016,-0.05266171049999996,-0.5267151714999998
38022.0,-0.8548456804999999,-0.2960627635,3.3638770829999998,-1.3301311309081465,0.48536908366261505,-0.3504498964956974,3.483401114849301,1.4586456398797882,-0.22751427999999996,0.23702673049999995,-0.204762852
38032.0,-1.1564982344999999,-0.093751574,3.2872871464999998,-1.1084341733320708,0.4091610272035347,-0.33606140214225616,3.4860485234105973,1.2284039762237917,-0.301652554,0.2023111895,-0.07658993650000001
38042.0,-1.3803840539999999,-0.128467115,3.3998674885,-0.809462763123946,0.2647385222595079,-0.2790380048210974,3.671656693583047,0.8962023533705658,-0.22388581949999997,-0.03471554099999999,0.11258034200000022
38052.0,-1.4342225624999998,-0.358334991,3.4716521664999997,-0.4939718115456951,0.09606815801752387,-0.19057250102526085,3.7732965812036534,0.538103261218178,-0.05383850849999994,-0.229867876,0.07178467799999977
38062.0,-1.3396864565,-0.8383705085,3.3387720589999996,-0.2426967591360715,-0.07340156702187352,-0.10264106798053452,3.6939171313405463,0.2735410312413909,0.09453610599999984,-0.48003551749999995,-0.13288010750000012
38072.0,-1.0128308119999998,-1.6152533214999998,3.35191297,-0.12252211349000193,-0.17678963592226163,-0.05893976883984851,3.8561885463249306,0.22302497621225634,0.32685564450000015,-0.7768828129999998,0.013140911000000255
38082.0,-1.162480291,-1.9384805055,3.2477663469999998,-0.12092339189517512,-0.10644414042063016,-0.08505338510818766,3.9568994606728007,0.1821727203938137,-0.14964947900000025,-0.3232271840000003,-0.1041466230000001
38092.0,-1.461779249,-1.3087955089999999,3.2417842904999996,-0.19180295814791684,-0.004122467693210606,-0.20469570533239895,3.789315194506543,0.28054536402461083,-0.29929895799999984,0.6296849965000002,-0.005982056500000166
38102.0,-1.9477968229999998,-0.727065031,3.8367537459999994,-0.2171172136188426,0.07475070653366514,-0.3432556493189768,4.363853266373304,0.41297941034182883,-0.4860175739999999,0.5817304779999999,0.5949694554999998
38112.0,-2.4170450254999998,-0.6396877794999999,4.9261744945000006,-0.09081297163976895,0.07901454589628729,-0.41759969413692727,5.52435537061097,0.4346030359126558,-0.4692482025,0.08737725150000009,1.0894207485000011
38122.0,-2.588171068,-0.9185889054999999,5.9341019815,0.17991202995407946,-0.06300987665549929,-0.47115861289287725,6.538807336310052,0.5082607810774691,-0.17112604250000008,-0.27890112600000005,1.007927486999999
38132.0,-2.469706736,-1.187977581,6.669110399,0.5071281034472284,-0.3425295923501471,-0.5428357946137804,7.210254892086155,0.8180318666503861,0.11846433199999984,-0.2693886755,0.7350084175000005
38142.0,-1.9705482509999999,-1.40823494,7.155127973,0.7879795053611479,-0.6209829118718265,-0.6203772826213845,7.553942173842943,1.1795759621570394,0.49915848500000015,-0.2202573590000001,0.4860175739999999
38152.0,-1.1661087515,-1.560238015,7.4843372135,0.9774349956651324,-0.7893862407382553,-0.6979170252997364,7.733657337195447,1.437218835814854,0.8044394994999999,-0.15200307499999988,0.3292092405
38162.0,-0.34244821799999997,-1.5877947014999998,7.8506155909999995,1.1029381315175406,-0.8139011354117677,-0.7735927563369587,8.016890167251583,1.573961032820375,0.8236605335,-0.027556686499999872,0.3662783774999996
38172.0,0.19387747049999998,-1.5578844189999999,8.509034072,1.232439816686268,-0.6740077598766663,-0.8252859181225267,8.652644288018973,1.6291995607595118,0.5363256885,0.02991028249999994,0.6584184810000009
38182.0,0.35784465849999997,-1.34351105,9.4488053415,1.3720661568458143,-0.45444359464652756,-0.841807204821905,9.550549571760152,1.6726397967186386,0.16396718799999999,0.2143733689999998,0.9397712694999996
38192.0,0.3231291175,-1.0227355285,10.4543792325,1.4821144021718127,-0.21036453474287656,-0.806101258984605,10.509255231687913,1.7002104511910465,-0.03471554099999996,0.3207755215000001,1.0055738909999992
38202.0,0.410506369,-0.90417313,11.530561003499999,1.510093775410534,0.09127199323304346,-0.7376197751241036,11.573239891380394,1.6830914175815006,0.08737725149999997,0.11856239849999994,1.076181771
38212.0,0.6332153905,-0.9102532529999999,12.498967690999999,1.4125682674675948,0.45099656937383875,-0.6579472400998144,12.548056266052724,1.6222335179000393,0.2227090215,-0.006080122999999937,0.9684066874999999
38222.0,0.7804132069999999,-0.8216011369999999,13.363325821999998,1.2025946864771648,0.8029928275868031,-0.57614365805884,13.411284436134805,1.5565901759359722,0.14719781649999997,0.088652116,0.8643581309999995
38232.0,0.8067930954999999,-0.6324308585,13.922304872,0.9449264930174861,1.0404117110648436,-0.4900762366552438,13.959994872443342,1.488461394682901,0.02637988849999995,0.1891702784999999,0.5589790500000014
38242.0,0.861808402,-0.5917332609999999,14.276717202999999,0.7099056919316855,1.1110242419420302,-0.4096043408335412,14.314940309633414,1.3806218431017045,0.05501530650000008,0.04069759750000013,0.3544123309999989
38252.0,0.7385388115,-0.7378523459999999,14.4574537625,0.5881323246907891,1.03907827951632,-0.3424562885215634,14.495096928113828,1.2421190006826044,-0.12326959049999997,-0.14611908500000004,0.18073655950000145
38262.0,0.5302455655,-0.9664453574999999,14.4358791325,0.591596803255998,0.7678192071713614,-0.2976903385371608,14.477906731185785,1.0139786241249582,-0.208293246,-0.2285930115,-0.021574629999999928
38272.0,0.22133609049999997,-1.187977581,14.410774108499998,0.7155012175135793,0.4171546351776687,-0.25878694951020725,14.461351624385959,0.8677157755569659,-0.30890947500000004,-0.22153222350000001,-0.02510502400000192
38282.0,-0.24310685349999997,-1.2190646615,14.554441531,0.9326690456807298,0.12404753125624499,-0.18657569703819382,14.607429201280915,0.9592027051187149,-0.46444294399999997,-0.031087080500000086,0.14366742250000186
38292.0,-0.6644986039999999,-0.9652685595,14.877668714999999,1.103472202268651,-0.0654079590477395,-0.10637083659204641,14.92375047298657,1.1105151314429305,-0.4213917505,0.253796102,0.3232271839999985
38302.0,-0.6932320885,-0.9377118729999999,14.95906391,1.1088006924749896,-0.1237630425881699,-0.03895574890451344,15.00444825206031,1.1163663452094965,-0.028733484500000017,0.027556686500000094,0.0813951950000007
38312.0,-0.470523067,-1.1017771275,14.947099797,0.9473245754097263,-0.033433527151203374,-0.02616597614589899,14.995035749765275,0.9482754400598258,0.22270902149999994,-0.16406525449999998,-0.011964112999999443
38322.0,-0.26585828149999996,-1.2537802024999998,14.780680946499999,0.7264269786310639,0.1600187671398481,-0.06959849458177787,14.836144198013551,0.7470917691743517,0.20466478550000006,-0.15200307499999988,-0.16641885050000127
38332.0,0.045404789499999994,-1.296831396,14.410774108499998,0.5417676531115598,0.34600977887862383,-0.14394253939972831,14.469078881213372,0.6587521625668366,0.31126307099999995,-0.043051193500000196,-0.36990683800000035
38342.0,0.457186023,-1.099325465,13.91759768,0.42559155678180927,0.45792378117500426,-0.22201460749993868,13.968430861051122,0.6634100153848516,0.4117812335,0.19750593100000002,-0.4931764284999982
38352.0,0.755308183,-0.6923494899999999,13.504541582,0.3874875285522691,0.47657611489106766,-0.2715767222688217,13.543355625825422,0.6715841675817606,0.29812216,0.40697597500000005,-0.4130560980000002
38362.0,0.7696258919999999,-0.2613472225,13.189748117,0.4333181293803882,0.3945054974745383,-0.2593210202613175,13.21476756414014,0.6408171192600292,0.014317708999999845,0.4310022674999999,-0.3147934649999993
38372.0,0.6440027055,0.035500073,13.1166885745,0.5431010846600836,0.27113340863881513,-0.16099615152096491,13.132536651397292,0.6280062692709552,-0.12562318649999982,0.2968472955,-0.07305954250000113
38382.0,0.26330855249999996,0.22584714949999998,13.320176561999999,0.6696706166854604,0.20531704254610894,0.008208283472129332,13.324692940987834,0.7004864015306252,-0.3806941530000001,0.1903470765,0.20348798749999908
38392.0,-0.30175062049999996,0.18877801249999998,13.528469808,0.7352199474026113,0.18693174420560066,0.18167481249859377,13.533151366956004,0.7800625523295205,-0.5650591729999999,-0.037069137,0.20829324600000199
38402.0,-0.7422653384999999,-0.148864947,13.688906602,0.6656738126983933,0.18666470883004554,0.2871939284156669,13.709824308263874,0.7486292079219488,-0.4405147179999999,-0.3376429595,0.16043679399999888
38412.0,-1.034405442,-0.5702566975,13.7068527715,0.48661001276078303,0.2330293804092749,0.299184340376868,13.757652423980627,0.6169305197343714,-0.2921401035000001,-0.4213917505,0.017946169500000053
38422.0,-1.2953603985,-0.8599451385,13.431482039499999,0.2793032948674006,0.28712236991633516,0.2325703588160004,13.521175022188084,0.4631830713982994,-0.2609549565,-0.289688441,-0.27537073200000073
38432.0,-1.3744019975,-0.8958374775,13.044903896499997,0.12155694641364906,0.27140044401437025,0.1291822899156123,13.147662275315197,0.32422577975918165,-0.07904159899999996,-0.035892338999999995,-0.38657814300000126
38442.0,-1.3049709154999998,-0.7162777159999999,12.658227687,0.05307720788239956,0.18586534803263213,0.026860617188192732,12.745459231925402,0.19515278719919313,0.06943108200000014,0.17955976150000008,-0.38667620949999737
38452.0,-1.338411592,-0.474445727,12.324213188,0.050944415536462485,0.0262549879377507,-0.05281191783609642,12.405751691886374,0.07793430907815757,-0.033440676500000155,0.24183198899999991,-0.33401449900000024
38462.0,-1.4413814169999999,-0.24222425499999997,12.138671369999999,0.09464396934789651,-0.18718132628863587,-0.10237403260497939,12.226348416753094,0.2333983127550491,-0.10296982499999996,0.232221472,-0.1855418180000008
38472.0,-1.580243581,-0.16798791449999997,12.141024966,0.17511586516959907,-0.39715316194981365,-0.10450507962166447,12.244585617314499,0.4464498985861264,-0.13886216400000007,0.0742363405,0.002353596000000735
38482.0,-1.6868418664999998,-0.3284247085,12.076399142499998,0.24839351381458097,-0.5786150442796641,-0.09544507547456191,12.198061916579421,0.6368708421683763,-0.10659828549999983,-0.16043679400000002,-0.0646258235000019
38492.0,-1.6747796869999998,-0.6576339489999999,12.022560634,0.28010265566481396,-0.6931941643438398,-0.11702956233397578,12.156452344704503,0.7567506628017697,0.012062179499999992,-0.32920924049999994,-0.05383850849999838
38502.0,-2.00644059,-1.350767971,12.4152189,0.30408347958721604,-0.7816596681396765,-0.18071313608074488,12.648637803637046,0.857971932469959,-0.3316609030000002,-0.6931340220000001,0.39265826599999976
38512.0,-3.1161611039999997,-2.170800044,13.166996689,0.5204519469569531,-1.2279839911059263,-0.3096807504983619,13.703745278764117,1.3692030816255678,-1.1097205139999997,-0.8200320729999999,0.7517777890000001
38522.0,-3.533924394,-2.0522376455,12.8509283595,0.6563467731757355,-1.5853104848544814,-0.46103221257280613,13.48505323226857,1.7766685456430888,-0.41776329000000034,0.11856239849999994,-0.3160683295000002
38532.0,-3.6164963869999998,-1.330370139,12.409236843499999,0.5718780733669659,-1.6191506737213994,-0.6134483254909671,12.993771194768852,1.823461620944638,-0.08257199299999973,0.7218675065,-0.44169151600000056
38542.0,-3.2155024685,-0.29851442599999994,12.324213188,0.43838132954042375,-1.6119564265446789,-0.7522753048531,12.740282480806021,1.8320752837861618,0.40099391849999977,1.0318557130000001,-0.0850236554999988
38552.0,-2.12019773,0.338329425,12.131512515499999,0.3131434837343186,-1.510966440036531,-0.8135625415368808,12.320036571692922,1.7444089065680335,1.0953047384999999,0.636843851,-0.1927006725000009
38562.0,-1.162480291,0.371868168,11.990198689,0.1708520258069769,-1.2930009964012192,-0.7909134038337504,12.052157938022237,1.5253150506635613,0.9577174390000001,0.03353874299999998,-0.14131382649999935
38572.0,-0.44659484099999996,0.185149552,11.9483242935,0.04055272517008825,-1.0739691565929388,-0.7208331983784221,11.958101050386551,1.2940845307460151,0.71588545,-0.186718616,-0.04187439549999894
38582.0,0.20466478549999997,0.1013026945,11.809462129499998,-0.06043726133805965,-0.867992379589576,-0.6358321731477943,11.811669894575928,1.0776576385816907,0.6512596264999999,-0.0838468575,-0.1388621640000025
38592.0,0.676266584,0.21986509299999998,11.5795942535,-0.13824403939196686,-0.7107801018869347,-0.5377743397829968,11.60140854497613,0.9019539945001891,0.47160179849999995,0.11856239849999999,-0.22986787599999836
38602.0,1.0461734219999999,0.3180296595,11.168989817999998,-0.1899372011775349,-0.6271107628755785,-0.42639266290847466,11.22238634372425,0.7817638724626034,0.3699068379999999,0.09816456650000002,-0.4106044355000016
38612.0,1.3993108885,0.206724182,10.492625167499998,-0.23230506876969725,-0.5298522903081946,-0.31740906842619276,10.587539315428897,0.6598921209107718,0.3531374665000002,-0.1113054775,-0.6763646505
38622.0,1.57887065,0.0761976705,9.836658349,-0.26960973620182405,-0.306556611137292,-0.22467972526773405,9.962855318098947,0.4659907130331918,0.17955976149999997,-0.1305265115,-0.6559668184999978
38632.0,1.4507958009999997,0.06541035549999999,9.408107743999999,-0.24775995929610706,-0.020909044438892067,-0.14527422561900002,9.519536663804526,0.2879701133780315,-0.12807484900000032,-0.010787315000000006,-0.42855060500000164
38642.0,1.314287233,0.13003617899999997,9.248847748,-0.19420104054015705,0.282858530553713,-0.07466169474181343,9.342667981061961,0.35113723971633265,-0.13650856799999977,0.06462582349999998,-0.1592599959999994
38652.0,1.218574329,0.20074212549999998,9.509802704499998,-0.14517125119313234,0.5514524851308764,-0.013374458058032546,9.589659445192178,0.5703975908595206,-0.09571290399999999,0.0707059465,0.2609549564999991
38662.0,0.8810294359999999,0.369514572,9.937176511499999,-0.1238555450385256,0.7507655950501249,0.045245915528701,9.982997090389544,0.762257415588585,-0.337544893,0.1687724465,0.4273738070000004
38672.0,0.585260872,0.426981541,10.358568262,-0.13717764321899834,0.7544971089908887,0.09880483428465099,10.383871145346644,0.7732050106878157,-0.29576856399999996,0.057466969000000034,0.42139175050000155
38682.0,0.4129580315,0.301260288,10.741616011,-0.13211444305896278,0.6068771608572083,0.15049974139947103,10.753771739472516,0.6390651661577194,-0.1723028405,-0.12572125300000003,0.38304774899999927
38692.0,0.315970263,0.1911316085,10.8756729165,-0.0942774502049777,0.38278212088889235,0.19339993441349165,10.88194053859695,0.4391058236012061,-0.09698776850000002,-0.11012867949999999,0.1340569054999996
38702.0,0.213000438,0.20074212549999998,10.711705728499998,-0.04391597463868132,0.16028580251540325,0.22830651945337824,10.715703719379242,0.28238983363674397,-0.10296982499999999,0.009610516999999985,-0.16396718800000087
38712.0,0.1603387275,0.28811937699999995,10.466343345499999,-0.011674507366590071,0.0262549879377507,0.24855757476426846,10.47153590973317,0.2502128823353404,-0.052661710499999986,0.08737725149999997,-0.2453623829999998
38722.0,0.12444638849999999,0.265367949,10.186167354999998,-0.019935150716279233,0.02652202331330583,0.24562542162091797,10.190383331162513,0.24785615929640728,-0.03589233900000001,-0.022751427999999962,-0.2801759905000001
38732.0,0.062174161,0.2030957215,9.9611047375,-0.063100633776603,0.10725920918131153,0.21977884072813395,9.963368962847486,0.2525647773720868,-0.06227222749999999,-0.0622722275,-0.225062617499999
38742.0,0.046581587499999993,0.11571846999999999,9.7516346935,-0.10813361913656068,0.2010549485127388,0.17714568308966847,9.75243250702439,0.2889577217281727,-0.015592573500000005,-0.0873772515,-0.2094700439999997
38752.0,-0.016867438,0.083356525,9.696619387,-0.11319681929659622,0.2594100320531692,0.13317909390267932,9.696992335619795,0.31279986521965,-0.06344902549999999,-0.03236194499999999,-0.05501530649999964
38762.0,-0.08267005949999999,0.05707470299999999,9.750457895499999,-0.05537406117802409,0.24208938455637746,0.10493443061765508,9.750975388768989,0.2696011711682363,-0.06580262149999999,-0.02628182200000001,0.05383850849999838
38772.0,-0.1042446895,0.0989490985,9.92040714,0.04055272517008825,0.1701451674599192,0.09560739109499738,9.921448266394675,0.19933558327773906,-0.02157463000000001,0.04187439550000001,0.16994924450000148
38782.0,-0.0911037785,0.19476006899999998,10.1335056445,0.11676078162916864,0.09047263243563006,0.09853954423834785,10.135786502785425,0.17756243725852702,0.013140911000000005,0.09581097049999998,0.21309850449999956
38792.0,-0.08267005949999999,0.303613884,10.339445294499999,0.11942589939696399,0.02892010570554604,0.10599908146137162,10.344232437800954,0.16227976839843042,0.008433719000000006,0.10885381500000002,0.20593964999999947
38802.0,-0.0383440015,0.4317867995,10.3884785445,0.04614825075198207,-0.010250318696962699,0.11319507396734424,10.39751876998596,0.12266969817901098,0.04432605799999999,0.12817291549999998,0.049033250000000805
38812.0,-0.0479545185,0.510730332,10.278349865,-0.05564109655357923,-0.03529753879233333,0.11719187795441124,10.291142844952395,0.13444621277285063,-0.009610516999999999,0.07894353249999997,-0.11012867950000071
38822.0,-0.065900688,0.43414039549999994,10.031810684,-0.1315821176371045,-0.0592801080439874,0.1113293169969623,10.041416552623454,0.1822695852702303,-0.017946169499999998,-0.07658993650000001,-0.24653918099999927
38832.0,-0.11738560049999999,0.2593858925,9.725352871499998,-0.15769573390544364,-0.07366860239742866,0.09694082264352104,9.729519458617986,0.19922984356257853,-0.051484912499999994,-0.17475450299999995,-0.3064578125000015
38842.0,-0.15572960199999997,-0.0399130655,9.536182593,-0.12785234902559262,-0.04595626453426269,0.0724259279700087,9.5375375862312,0.15396011315799288,-0.038344001499999975,-0.299298958,-0.1891702784999989
38852.0,-0.20123245799999998,-0.20633191599999998,9.597179956,-0.07189534787740241,0.017727309212506405,0.047643997920941206,9.601506677056529,0.08805196804285056,-0.04550285600000001,-0.1664188505,0.06099736300000025
38862.0,-0.12699611749999998,-0.1297419795,9.804296403999999,-0.02473131550075965,0.0984662404097641,0.03112445655081488,9.805977206407935,0.10618837159696506,0.0742363405,0.07658993649999998,0.20711644799999895
38872.0,-0.012062179499999999,0.082179727,10.013766448,-0.022066197732964307,0.18266790484297854,0.036185911381598435,10.014110918039336,0.18752040082249888,0.11493393799999999,0.21192170649999997,0.20947004400000147
38882.0,0.0550153065,0.32999377249999995,10.159885532999999,-0.06017022596250451,0.24875130631123982,0.0740246495648355,10.165392103480354,0.2664156850245943,0.06707748599999999,0.24781404549999997,0.1461190849999987
38892.0,0.026281822,0.5490743334999999,10.189795815499998,-0.12358850966297047,0.2703340478414017,0.12411908975557676,10.204612296381347,0.32211824782955767,-0.0287334845,0.21908056099999995,0.029910282499999497
38902.0,-0.122190859,0.660379811,10.102418563999999,-0.18274295400081428,0.2314306588144481,0.17128312213221952,10.1247169315024,0.3410176608382534,-0.148472681,0.11130547750000008,-0.08737725149999953
38912.0,-0.23830159499999998,0.602912842,9.973068850499999,-0.21365273505363386,0.1341721862470641,0.19792906382241696,9.994117962183628,0.32066428092918847,-0.11611073599999998,-0.057466969000000034,-0.1293497134999999
38922.0,-0.3233252505,0.4245298785,9.821065775500001,-0.20565912707949982,-0.01158200491623437,0.19233353824052313,9.835552745120507,0.2818191074450068,-0.08502365550000002,-0.17838296349999994,-0.15200307499999788
38932.0,-0.41550776049999993,0.18995481049999996,9.673867958999999,-0.15982678092212874,-0.15733794140878482,0.16275718873622722,9.684650268194233,0.2771095996027641,-0.09218250999999994,-0.23457506800000005,-0.14719781650000208
38942.0,-0.4070740415,-0.055505638999999996,9.502643849999998,-0.09880657961390299,-0.2609913003554761,0.11692484257885612,9.511520924182774,0.3025733263992898,0.00843371899999995,-0.24546044949999996,-0.17122410900000062
