timestamp,ax,ay,az,gx,gy,gz,acc_mag,gyro_mag,dax,day,daz
163002.0,-0.7854145985,-1.827175028,9.234530039,0.09011483993897122,-0.47869145394448476,-0.08958425984636494,9.446268560425171,0.4952691511379769,0.0,0.0,0.0
163012.0,0.038245934999999995,-1.6871360659999999,9.5792337865,0.09038187531452635,-0.4328591077871136,-0.0767927417584985,9.726747184602111,0.4488128961676726,0.8236605334999999,0.1400389620000002,0.34470374750000055
163022.0,0.40334751449999995,-1.757743946,9.805473202,0.12075758561623566,-0.2868378812482601,-0.02456725455107218,9.96993769851613,0.31218890851378855,0.36510157949999994,-0.07060788000000007,0.22623941550000026
163032.0,0.43325779699999994,-1.5793609825,9.840188742999999,0.14793759805754336,-0.147745611839824,0.03751934293012211,9.97554048308003,0.21241939607970664,0.029910282499999996,0.17838296350000005,0.03471554099999885
163042.0,0.2668389465,-1.2908493394999998,9.879709542499999,0.13861055853488566,-0.06354220207735756,0.08574802615048141,9.967254169771248,0.17493776713704892,-0.16641885049999994,0.2885116430000001,0.03952079949999998
163052.0,-0.010885381500000001,-1.189154379,9.928840859,0.10130589110275887,-0.017978636624793588,0.08521570072862314,9.999804369685096,0.13359577312804724,-0.277724328,0.10169496049999971,0.049131316500000466
163062.0,-0.1652420525,-1.1735618054999999,9.8893200595,0.06373418829507693,0.023856905545510492,0.04977679026687828,9.960080495983549,0.08431445634713254,-0.15435667099999997,0.015592573500000206,-0.03952079949999998
163072.0,-0.13415497199999998,-1.1687565469999999,9.861763372999999,0.05147674095832075,0.08274431450779916,-0.0003193952531149623,9.931684965186522,0.09745038971899164,0.031087080500000003,0.00480525850000002,-0.027556686500000538
163082.0,-0.07786480099999998,-1.306441913,9.816260517,0.06666634143842741,0.14243282959675324,-0.03522598029300155,9.90312192881068,0.1611594915458772,0.056290171,-0.13768536600000014,-0.045502855999998815
163092.0,0.016671304999999997,-1.43569356,9.734865322,0.09784141253755012,0.15015940219533214,-0.03362725869817475,9.840177679702437,0.18235015931596155,0.09453610599999998,-0.12925164700000003,-0.0813951950000007
163102.0,0.15553346899999998,-1.387837108,9.702601443499999,0.11383037381507018,0.0976668796123507,-0.010444050243934069,9.80258931454997,0.15035042920321126,0.13886216399999998,0.047856451999999994,-0.03226387850000023
163112.0,0.1160126695,-1.410588536,9.713290692,0.09917484408607379,0.0017400932642383465,0.016468926821818494,9.815866493828905,0.10054801427540827,-0.03952079949999998,-0.02275142799999985,0.010689248500000303
163122.0,0.0693330155,-1.3949959624999997,9.793509088999999,0.04987801936349395,-0.12083263477407141,0.04311486851201592,9.89260537364931,0.137648953242942,-0.046679654,0.015592573500000206,0.08021839699999944
163132.0,-0.0263798885,-1.3291933409999999,9.965909996,-0.012739158210306611,-0.2015698206420771,0.05883679441398085,10.054193795856968,0.21036740983930804,-0.095712904,0.06580262149999982,0.17240090700000188
163142.0,-0.097085835,-1.3087955089999999,10.0640745625,-0.05244365336392561,-0.20236918143949054,0.05244016270542162,10.149284119744395,0.21553095610425924,-0.07070594649999999,0.020397832000000005,0.0981645664999995
163152.0,-0.05511337299999999,-1.387837108,10.078490338,-0.047113417828334926,-0.1221643209933431,0.024462534795952524,10.173745466414255,0.13319989141089802,0.041972462,-0.07904159900000018,0.014415775499999839
163162.0,0.107677017,-1.3818550515,10.0880027885,-0.0050125856117277144,-0.0014573499254152652,0.0026127578902355115,10.182775554048606,0.005837498360855916,0.16279039,0.005982056499999944,0.009512450500000824
163172.0,0.226141349,-1.4225526489999998,10.077215473499999,0.04081976054564338,0.11924962114251256,-0.0008517206749732328,10.179639858474967,0.1260454299915099,0.11846433199999999,-0.04069759749999968,-0.01078731500000174
163182.0,0.201036325,-1.4836480785,9.92040714,0.06080378048097845,0.19279430516304963,0.014070844429578285,10.032751618981168,0.2026443497535609,-0.025105024000000004,-0.06109542950000013,-0.156808333499999
163192.0,0.11483587149999999,-1.4740375614999999,9.7073086355,0.050944415536462485,0.1917279089900811,0.033255503567499956,9.819257352516479,0.20114883314995535,-0.0862004535,0.00961051700000004,-0.21309850449999956
163202.0,-9.80665e-05,-1.4381452225,9.556482358499998,0.02083399528105631,0.11711857412582749,0.0460452763261144,9.6640890289224,0.12755776431321716,-0.11493393799999999,0.035892338999999884,-0.15082627700000195
163212.0,-0.039618866,-1.4094117379999997,9.618754586,-0.00607898178469625,0.01852667000991981,0.05697103744359891,9.721545704642413,0.060215368707623805,-0.0395207995,0.02873348450000024,0.062272227500001165
163222.0,-0.0599186315,-1.3411574539999997,9.738493782499999,-0.00847706417693646,-0.042491785969053945,0.06256656302549272,9.830592795483481,0.0761051069293168,-0.020299765499999997,0.068254284,0.11973919649999942
163232.0,-0.10542148749999998,-1.3339985995,9.877355946499998,0.015505505074717624,-0.04275882134460908,0.06070080605511079,9.96758879806714,0.0758506779544024,-0.04550285599999998,0.007158854499999645,0.13886216399999896
163242.0,-0.1377834325,-1.3902887705,9.944335366,0.04375016835974186,-0.024905848425959082,0.05430591967580356,10.041996465401104,0.07405073550720097,-0.03236194500000002,-0.05629017099999989,0.06697941950000263
163252.0,-0.15808319799999998,-1.366262478,9.8881432615,0.04934569394163568,-0.026771605396341023,0.04737870787463807,9.983338149949066,0.07346059029132061,-0.020299765499999983,0.0240262925000001,-0.056192104500000895
163262.0,-0.189268345,-1.3687141404999998,9.879709542499999,0.028562313208887205,-0.06834011219108997,0.04151614691718911,9.97586395000399,0.0849103475730901,-0.031185147000000024,-0.0024516624999999515,-0.008433719000001005
163272.0,-0.15808319799999998,-1.412942132,9.931194454999998,-0.004480260189869444,-0.1075087912643467,0.03831870372753551,10.032448308807442,0.11422143400364243,0.031185147000000024,-0.04422799150000012,0.051484912499999425
163282.0,-0.08267005949999999,-1.3914655684999997,10.048481988999999,-0.02579596634447619,-0.08272860654453122,0.04471359010684273,10.144703103113276,0.09751286766723634,0.07541313849999999,0.021476563500000267,0.1172875340000008
163292.0,-0.0479545185,-1.326839745,10.077215473499999,-0.01513724060254682,0.002806489437206882,0.05377359425394529,10.164303962598916,0.055933995700365294,0.03471554099999999,0.06462582349999968,0.028733484500000017
163302.0,-0.09581097049999998,-1.27290317,10.0030771995,0.016837191293989296,0.10379473061610278,0.05830272366287058,10.084196332946961,0.12023329281379921,-0.04785645199999998,0.05393657500000004,-0.07413827399999917
163312.0,-0.235947999,-1.1986668295,9.9359997135,0.04081976054564338,0.17067749288177747,0.05244016270542162,10.010822340499693,0.18315848353812048,-0.1401370285,0.07423634049999994,-0.06707748600000052
163322.0,-0.3711817025,-1.1615976925,9.824694236000001,0.04401720373529699,0.18453366181336048,0.03645294675715357,9.900085953484634,0.19318127211042535,-0.1352337035,0.03706913700000003,-0.11130547749999842
163332.0,-0.47169986499999994,-1.2526034045,9.7635988065,0.027228881660363535,0.1576206847476079,0.004211479485062317,9.854916423080118,0.1600107146919605,-0.10051816249999995,-0.09100571200000007,-0.061095429500001686
163342.0,-0.436984324,-1.2944778,9.7073086355,-0.0007487462491055673,0.12004898193992597,-0.02669830156775726,9.80298265932198,0.12298421846871709,0.03471554099999996,-0.04187439549999983,-0.05629017099999878
163352.0,-0.318519992,-1.331546937,9.581685449,-0.030859166504511742,0.06329261999432237,-0.03495894491744642,9.679006574763553,0.07861534031497878,0.118464332,-0.03706913700000003,-0.12562318650000037
163362.0,-0.214373369,-1.331546937,9.544518245499999,-0.05031086101798855,0.003872885610175417,-0.018437658218068097,9.639336166222904,0.05372270674386351,0.10414662299999997,0.0,-0.03716720350000102
163372.0,-0.17485256949999997,-1.3914655684999997,9.642682812,-0.04791277862574834,-0.01664520507626992,0.007141887299160796,9.744130626290989,0.05122210227884993,0.03952079950000004,-0.059918631499999764,0.09816456650000127
163382.0,-0.192798739,-1.396270827,9.7373169845,-0.027928758690413263,0.01319817980358112,0.023130848576680848,9.838805091713294,0.0385907199724536,-0.017946169500000025,-0.004805258500000242,0.09463417249999928
163392.0,-0.167693715,-1.4261811094999999,9.825871033999999,0.00404741853537485,0.05769709441242855,0.03138974659711802,9.930249509249268,0.065807693257464,0.025105024000000004,-0.02991028249999994,0.08855404949999901
163402.0,-0.25742456249999995,-1.4512861335,9.919230341999999,0.03415783879078103,0.09340304024972855,0.027927013361161268,10.028141872965355,0.10329958351331275,-0.08973084749999996,-0.025105024000000142,0.09335930800000014
163412.0,-0.308909475,-1.4094117379999997,10.03416428,0.04401720373529699,0.10326240519424451,0.0026127578902355115,10.137372406545243,0.11228296867721287,-0.051484912500000035,0.04187439550000027,0.11493393800000185
163422.0,-0.2550709665,-1.3495911729999999,10.1658675895,0.042950807562328455,0.11125601316837855,-0.03282789790076134,10.258231883684306,0.12369455613308697,0.05383850849999999,0.05982056499999988,0.13170330949999887
163432.0,-0.15327793950000002,-1.3459627125,10.217352501999999,0.029626964052603743,0.12937602146258367,-0.06427000437543919,10.306764861017417,0.14746709935060145,0.10179302699999998,0.003628460499999875,0.051484912499999425
163442.0,-0.0263798885,-1.3986244229999998,10.1238951275,0.004846779332788253,0.14776131980309196,-0.07306297314698663,10.220083107673226,0.16490935978570062,0.126898051,-0.05266171049999979,-0.09345737449999802
163452.0,0.04903325,-1.4668787069999998,9.9718920525,-0.028728119487826664,0.14642963358382025,-0.05307895321165155,10.079323812010815,0.15838029459135186,0.0754131385,-0.068254284,-0.15200307500000143
163462.0,0.008335652499999999,-1.5278760699999998,9.813906921,-0.05537406117802409,0.11498752710914242,-0.009112364024662395,9.932131887084108,0.1279509797545188,-0.0406975975,-0.06099736300000003,-0.15798513150000026
163472.0,-0.111403544,-1.5111066985,9.7265296695,-0.07269470867481581,0.07102093792215326,0.0359206213352953,9.843842421307398,0.10779046956838235,-0.11973919649999999,0.016769371499999908,-0.08737725149999953
163482.0,-0.22398388599999997,-1.477666022,9.6247366425,-0.0780231988811545,0.037180749055235204,0.05990144525769739,9.740083217880798,0.10515802778636293,-0.11258034199999997,0.03344067649999993,-0.10179302699999937
163492.0,-0.317343194,-1.3687141404999998,9.550500302,-0.07056191632887876,0.015329226820266197,0.06656336701255974,9.653296904150668,0.09820718435511519,-0.09335930800000003,0.10895188150000013,-0.07423634050000061
163502.0,-0.377163759,-1.2178878635,9.526572075999999,-0.05590638659988236,-0.008119271680277622,0.05723807281915404,9.611507627234477,0.080421661356406,-0.05982056499999999,0.15082627699999995,-0.023928226000000663
163512.0,-0.39873838899999997,-1.156792434,9.527748873999998,-0.03938684522975603,-0.037163295762715265,0.03751934293012211,9.605996025620154,0.06587970266332346,-0.021574629999999984,0.06109542949999991,0.0011767979999994793
163522.0,-0.3831458155,-1.1160948364999999,9.5541287625,-0.02579596634447619,-0.057414351073605464,0.012737412881054616,9.626725549761295,0.06421901023646366,0.015592573499999984,0.04069759750000013,0.02637988850000106
163532.0,-0.3580407915,-1.1484567815,9.562464414999999,-0.023931954703346248,-0.06567499442329462,-0.007778932476138726,9.637835435173841,0.0703310396545588,0.025105023999999976,-0.032361945000000114,0.008335652499999568
163542.0,-0.33646616149999997,-1.190331177,9.5792337865,-0.03459068044527562,-0.058480747246574,-0.015507250403969617,9.658768954954656,0.06969209271700959,0.02157463000000004,-0.04187439550000005,0.016769371500000574
163552.0,-0.310086273,-1.2286751785,9.514607963,-0.05537406117802409,-0.035032248746030184,-0.013908528809142813,9.598622863752281,0.06698501531824892,0.02637988849999995,-0.03834400150000006,-0.06462582350000012
163562.0,-0.35441233099999997,-1.222693122,9.3003326605,-0.08708320302825706,-0.018777997422206993,-0.0056478854594536505,9.387053540217718,0.08926363227548026,-0.044326057999999946,0.005982056500000166,-0.21427530249999904
163572.0,-0.3341125655,-1.190331177,9.060952334,-0.1291840352448643,-0.030768409383408035,0.011938052083641215,9.144909880167395,0.13333314316284253,0.020299765499999955,0.03236194499999989,-0.23938032650000096
163582.0,-0.355589129,-1.190331177,8.817943546999999,-0.1752816714485385,-0.06274284127994416,0.039650389946807175,8.905024443407221,0.19034831730437635,-0.02147656349999999,0.0,-0.24300878700000084
163592.0,-0.45973575199999994,-1.135217804,8.5042288135,-0.2264425078122483,-0.11390367764365394,0.07615569658152058,8.591972074940026,0.264669505698836,-0.10414662299999994,0.055113372999999966,-0.31371473349999945
163602.0,-0.6273314004999999,-1.11011278,8.291130309,-0.28213421891413537,-0.15893666300361164,0.11106228162140717,8.388607564500264,0.34233815260348305,-0.16759564849999997,0.025105024000000142,-0.21309850449999956
163612.0,-0.7183371124999999,-1.0634331259999998,8.128339919,-0.33089697288560493,-0.15840433758175337,0.13557717629491953,8.229022302769502,0.39110856748692496,-0.09100571199999996,0.04667965400000007,-0.16279038999999962
163622.0,-0.8919148175,-1.0933434085,7.9009237054999994,-0.37432949132148385,-0.08725773595345651,0.16755335352070763,8.025927189472771,0.4192977543855431,-0.17357770500000014,-0.029910282500000163,-0.22741621350000063
163632.0,-1.058333668,-1.1257053535,7.5406273845,-0.4052392723743034,0.0627602945724641,0.2016605777631808,7.697294592750897,0.45697342490899534,-0.16641885049999994,-0.03236194499999989,-0.36029632099999986
163642.0,-1.277414229,-1.0335228435,6.9312421534999995,-0.4241586414659219,0.23915897674227898,0.2272401232804097,7.123347132559475,0.5373505772911445,-0.21908056099999995,0.09218251,-0.6093852310000001
163652.0,-1.661638776,-0.9544812444999999,6.0872818545,-0.4473401045909106,0.3500065828656908,0.23789884902233907,6.381777044376746,0.6158032474669797,-0.3842245470000001,0.07904159899999996,-0.8439602989999999
163662.0,-1.9956532749999998,-0.869457589,5.418174124999999,-0.46466075208770236,0.36732723036248255,0.23390204503527207,5.839109464799185,0.636827351303447,-0.3340144989999998,0.0850236554999999,-0.6691077295000003
163672.0,-2.1871771495,-0.7940444504999999,4.8961661455,-0.4673241245262457,0.38358148168630574,0.21045354653472825,5.420949492201999,0.6401697319507763,-0.1915238745000003,0.07541313850000009,-0.5220079794999997
163682.0,-2.297305829,-0.6312540604999999,4.448492573,-0.45400202634577297,0.4246159177299445,0.18567161648566075,5.046303789199703,0.6487607160456844,-0.11012867949999983,0.16279039000000006,-0.4476735724999994
163692.0,-2.352419202,-0.7665858305,4.035436474999999,-0.43614905342712296,0.5290703828033011,0.16701928276959735,4.733526960018513,0.7057173000443433,-0.05511337300000019,-0.13533177000000007,-0.4130560980000011
163702.0,-2.4301859365,-0.7413827399999999,3.5781523855,-0.41243351955102403,0.638052231956331,0.16861800436442417,4.3884651698505746,0.7782313859961839,-0.07776673449999993,0.025203090500000025,-0.457284089499999
163712.0,-2.470883534,-0.6719516579999999,2.992793447,-0.4111018333317524,0.7131956375716949,0.21498267594365356,3.938730390073357,0.8508056686317494,-0.040697597499999905,0.06943108200000003,-0.5853589385000002
163722.0,-2.5786586175,-0.41217349949999993,2.4014524519999996,-0.4209611982762683,0.7363771006966835,0.28133136745821796,3.5477233740123957,0.8936480868891042,-0.10777508349999998,0.25977815849999997,-0.5913409950000004
163732.0,-2.806074831,-0.035107807,1.7657853989999999,-0.43241753948635914,0.7033362726271789,0.3327592391974829,3.315612551340343,0.8901660250311836,-0.22741621350000019,0.37706569249999994,-0.6356670529999997
163742.0,-3.174804871,0.357550459,1.2773161625,-0.4316181786889457,0.5970177959126923,0.3527450044620699,3.4407506272091513,0.8167946736996744,-0.36873004,0.392658266,-0.48846923649999985
163752.0,-3.4046727469999998,0.7621728379999999,1.0894207484999998,-0.4012424683872364,0.473378671701414,0.337023078560105,3.6550706581968835,0.7061638908507063,-0.2298678759999997,0.4046223789999999,-0.1878954140000002
163762.0,-3.5028373134999997,1.031463447,0.9995918345,-0.32156993336294726,0.40862870178167643,0.2682763046533004,3.785890902144975,0.5851126503514166,-0.09816456649999994,0.269290609,-0.08982891399999982
163772.0,-3.559029418,1.030286649,0.760211508,-0.16435765566030602,0.38784532104892794,0.14970038060205762,3.782340877577364,0.4470432148977307,-0.05619210450000045,-0.0011767979999999234,-0.23938032649999996
163782.0,-3.5506937654999997,0.8291522575,0.7542294515,0.04827929776866714,0.372123395146963,0.027392942610051,3.7234099623850048,0.3762407276114269,0.008335652500000457,-0.2011343915,-0.005982056500000055
163792.0,-3.2764998315,0.7621728379999999,0.9409480674999999,0.29315946379898356,0.3881106110952311,-0.06480232979729746,3.493099175021586,0.49068488830081064,0.2741939339999999,-0.06697941950000008,0.18671861599999995
163802.0,-2.795287516,0.7980651769999999,1.085792288,0.5588230105620484,0.49309740159044596,-0.13168509206297216,3.1031411854000077,0.756815147879926,0.48121231549999965,0.035892338999999995,0.1448442205
163812.0,-2.4673531399999997,0.9955711079999999,0.9744868105,0.8476680204501019,0.6388515927537444,-0.18470994006781188,2.8334815849746877,1.0773997365962389,0.3279343760000004,0.19750593100000002,-0.11130547749999997
163822.0,-2.1404974955,1.2038643539999998,0.9181966395,1.165290019045038,0.7177247669806202,-0.2121569878846747,2.6218512505217952,1.3849333042178127,0.3268556444999997,0.20829324599999988,-0.056290171
163832.0,-1.8292344244999998,1.1488490475,1.3528273674999998,1.5082280184401518,0.7054673196438639,-0.21162291713356446,2.548743729756776,1.6784576711223682,0.31126307100000017,-0.05501530649999986,0.4346307279999998
163842.0,-1.7047880359999998,0.9525199144999998,2.1584436649999996,1.8311802525706784,0.646045839930465,-0.21402099952580464,2.9107517053480283,1.9535611925236174,0.1244463885,-0.1963291330000001,0.8056162974999999
163852.0,-1.6340820895,0.8711247195,3.236979032,2.0861850735918144,0.5141478176987496,-0.22574612144070258,3.7292245582367785,2.1604345514426466,0.07070594649999995,-0.08139519499999981,1.0785353670000002
163862.0,-1.392348167,1.0661789879999999,4.311984004999999,2.2322063001306676,0.296714699485296,-0.256388867117967,4.654951891478235,2.266389161290648,0.24173392249999992,0.19505426849999985,1.0750049729999995
163872.0,-1.1109953785,1.4696245689999998,5.3367789299999995,2.2780386462880386,0.017462019166203265,-0.3080820289035351,5.645822920757322,2.298843085690826,0.2813527885,0.40344558099999994,1.0247949250000001
163882.0,-0.8332710504999999,1.8478670594999997,6.815131417499999,2.224212692156534,-0.2428730373905229,-0.381359677548517,7.110201793970555,2.269701437612759,0.277724328,0.3782424904999999,1.4783524874999996
163892.0,-0.559175183,2.0059502575,8.3271207145,2.0992418817259835,-0.49494570526830794,-0.4253262667355061,8.583557113149675,2.1983380455087325,0.2740958674999999,0.15808319800000015,1.5119892970000004
163902.0,0.0095124505,1.9592706034999998,9.9001073745,2.040352727434443,-0.6673475834510558,-0.4202630665754706,10.092123553102342,2.18746727852431,0.5686876335000001,-0.04667965400000007,1.5729866599999998
163912.0,0.733733553,1.7892232925,11.712474360999998,2.11389741145498,-0.6529573437683627,-0.40267712903237574,11.87104631337545,2.248791770970104,0.7242211024999999,-0.1700473109999998,1.812366986499999
163922.0,1.2413257569999998,1.679094613,13.59790089,2.2604509634156917,-0.48481930494823683,-0.3789615951562768,13.757294682046323,2.3427121477170028,0.5075922039999998,-0.11012867950000005,1.8854265290000018
163932.0,1.6135861909999998,1.573771192,15.3492705135,2.352380945776737,-0.3084223681076739,-0.33339628437446084,15.513881572873874,2.395824190886572,0.372260434,-0.10532342100000003,1.7513696235000005
163942.0,2.109214282,1.5594534829999998,16.8277210675,2.2881633012788583,-0.1773219613441199,-0.24839525914383298,17.03093879909786,2.308426861752267,0.49562809100000016,-0.014317709000000178,1.4784505540000001
163952.0,2.2409175914999997,1.5079685704999999,17.7626870785,2.030495107819179,-0.13282304673527245,-0.10503915037277474,17.96687878041762,2.0375440038764054,0.13170330949999975,-0.05148491249999987,0.9349660110000002
163962.0,2.1163731365,1.3738135984999997,18.254686708999998,1.6430581938152178,-0.19464260884091164,0.10546675603951335,18.428238817099793,1.6579050666637158,-0.12454445499999967,-0.13415497200000015,0.49199963049999695
163972.0,1.6411428774999999,1.1308048114999998,18.4366000665,1.250558079651221,-0.2823087518393348,0.307179693680254,18.54400958471895,1.3183144944039442,-0.47523025900000015,-0.24300878699999995,0.18191335750000093
163982.0,0.7648206335,1.1870949825,18.385115153999998,0.9129503157916978,-0.4147408448221605,0.42868602554559526,18.439267998614923,1.0905319600846364,-0.8763222439999999,0.05629017100000011,-0.0514849125000012
163992.0,-0.025203090499999997,1.3068341789999998,18.314507274,0.6137136155372701,-0.6289765198459605,0.4095013664076736,18.3610900399887,0.9695087588583797,-0.790023724,0.11973919649999987,-0.07060787999999718
164002.0,-0.49445129299999996,1.2984004599999999,18.539569891499998,0.3429868686141697,-0.8669277287458594,0.23363500965971695,18.59155662115173,0.9611394262274876,-0.4692482025,-0.008433718999999895,0.22506261749999723
164012.0,-0.2909633055,1.0937356745,18.789737533,0.07172954159846295,-1.0182774454910517,-0.031494466352237675,18.823792230309238,1.0212864360915206,0.20348798749999997,-0.2046647854999999,0.2501676415000027
164022.0,0.292042037,0.8567089439999999,18.9538027875,-0.17181719288332978,-1.0273374496381542,-0.23960229037228553,18.975401942344924,1.0688089823495026,0.5830053424999999,-0.23702673050000012,0.16406525449999876
164032.0,1.25328987,0.49994301699999993,19.0267642635,-0.35114802819649515,-0.830422422111146,-0.3472524533060438,19.074549453585853,0.9661731745284048,0.9612478329999999,-0.3567659269999999,0.07296147599999969
164042.0,2.0170317719999997,0.183972754,18.5623213195,-0.44600841837163896,-0.45844039863359454,-0.3176761038017479,18.672494099927736,0.714149294814718,0.7637419019999998,-0.315970263,-0.4644429439999982
164052.0,2.1858042185,-0.2111371745,17.5698883395,-0.45693243415987145,-0.11097326982955545,-0.13781294306672426,17.706589034892247,0.4899946155629067,0.16877244650000023,-0.3951099285,-0.9924329800000002
164062.0,2.178645364,-0.080610663,16.500865423,-0.39564694280534257,0.07821518509887389,0.09454274025128084,16.64426488040325,0.41423718841442314,-0.007158854500000089,0.1305265115,-1.0690229164999998
164072.0,1.5657297389999998,0.183972754,15.672497697499999,-0.30611504283653745,0.10033199738014602,0.28959201080790714,15.751588480783331,0.4331702458305185,-0.6129156250000001,0.264583417,-0.8283677255000015
164082.0,0.7828648694999999,0.24977537549999998,15.168533953999999,-0.2325721041452524,-0.017711601249238453,0.3679328596129246,15.190776394106862,0.4356352529677852,-0.7828648694999999,0.06580262149999999,-0.5039637435
164092.0,0.16632078399999997,0.38863753949999996,15.155393043,-0.20032889154390915,-0.1743915535300214,0.3412869179227272,15.161287545195883,0.4324590605768596,-0.6165440855,0.13886216399999998,-0.013140910999998923
164102.0,0.12317152399999999,0.532304962,15.294255206999999,-0.19286935432088537,-0.2791113086496812,0.2538860649706071,15.304011308599485,0.42374502290711585,-0.04314925999999998,0.14366742250000003,0.13886216399999896
164112.0,0.39971905399999996,0.5299513659999999,15.4163479995,-0.19420104054015705,-0.20663302080211265,0.16488823575291228,15.430632178045835,0.32802344386094423,0.27654753,-0.002353596000000069,0.12209279250000016
164122.0,0.779236409,0.4665023405,15.2211956645,-0.17048550666405812,0.012131783630612585,0.1299816507130257,15.248266500550047,0.2147270771901942,0.37951735500000006,-0.06344902549999992,-0.1951523349999995
164132.0,0.8810294359999999,0.081002929,14.899145278499999,-0.06523342612254006,0.27113340863881513,0.16861800436442417,14.925391263596874,0.3258845755165908,0.10179302699999992,-0.3854994115,-0.3220503860000008
164142.0,0.5266171049999999,-0.887501825,15.224824125,0.30435051496277116,0.4099603880009481,0.24988926098354014,15.259759326471665,0.5684552739159799,-0.354412331,-0.968504754,0.3256788465000007
164152.0,0.39971905399999996,-2.1000940975,16.316500403,0.955051148008305,0.5479880065656676,0.33222691377562463,16.455951991349032,1.150125329209244,-0.12689805099999996,-1.2125922725,1.0916762779999996
164162.0,0.7134337874999999,-1.708710696,17.816525587,1.5058299360479115,0.784872819292598,0.3807226323715391,17.912489051050308,1.7402582743840875,0.3137147334999999,0.39138340149999995,1.5000251840000018
164172.0,0.5781020175,-0.428942871,18.580267489,1.5260809913588018,0.949548124876767,0.4017730484798427,18.594206998202687,1.8417346215262484,-0.13533176999999985,1.279767825,0.7637419019999996
164182.0,0.202213123,0.752562321,18.523977317999996,0.9457258538148995,0.9183713084483923,0.41562921741142567,18.5403607265846,1.3822267893226374,-0.3758888945,1.181505192,-0.05629017100000411
164192.0,0.014317708999999998,1.3008521224999998,17.2203793335,0.11835950322399547,0.8181806827376579,0.374594781367787,17.269449488360582,0.9076066614103662,-0.18789541399999998,0.5482898014999998,-1.3035979844999979
164202.0,-0.423843413,1.3846009135,15.064387330999999,-0.634397512502655,0.6508437500441974,0.2466918177938865,15.133820687017598,0.9417614580176883,-0.438161122,0.0837487910000001,-2.1559920024999997
164212.0,-0.61781895,1.5007116495,12.730012365,-1.1747828648466354,0.3369497747315213,0.09054593626421382,12.833045255237629,1.2254992847010782,-0.19397553699999998,0.11611073599999999,-2.3343749659999986
164222.0,-0.5806517465,1.7737287855,10.878124578999998,-1.5430333743834228,-0.053949872508396716,-0.046949356878647465,11.037067754230227,1.5446898799811188,0.03716720350000002,0.273017136,-1.8518877860000025
164232.0,-0.585457005,1.7245974689999999,9.548146705999999,-1.7620652141917033,-0.4253995705640899,-0.16152847694282318,9.72029330082603,1.8198708917294197,-0.00480525850000002,-0.04913131650000002,-1.329977872999999
164242.0,-0.6070316349999999,1.410980802,8.623968009999999,-1.852930545709032,-0.7294324356029981,-0.22867652925480103,8.759690546303943,2.004424166777909,-0.021574629999999928,-0.3136166669999998,-0.9241786960000002
164252.0,-0.45620535799999995,1.3247803484999998,8.245725519499999,-1.8241518116728974,-0.8882451802297181,-0.2529243885527583,8.363919873084225,2.0446222337037288,0.15082627699999995,-0.08620045350000027,-0.3782424904999999
164262.0,-0.34127141999999994,1.075789505,8.197771001,-1.6967829188501073,-0.8544032460335481,-0.24972694536310464,8.275097499486849,1.916100396058239,0.11493393800000001,-0.2489908434999999,-0.04795451849999921
