timestamp,ax,ay,az,gx,gy,gz,acc_mag,gyro_mag,dax,day,daz
86342.0,-1.6673266329999998,-2.1900210779999996,7.4123564024999995,0.26926939699768515,0.16277289669949516,-0.10475466170469966,7.906908236528241,0.33162412941206126,0.0,0.0,0.0
86352.0,-1.5356233235,-2.571892029,7.8840562675,0.3214948842051115,0.17689610100663328,-0.0770423238415337,8.433926181181393,0.3749489442368265,0.13170330949999975,-0.38187095100000024,0.4716998650000006
86362.0,-1.379991788,-2.5587511179999995,8.2814217255,0.384113807108164,0.17050121462732606,-0.0749112768248486,8.776874752119747,0.4268791168422864,0.15563153549999997,0.013140911000000255,0.39736545799999945
86372.0,-1.517677154,-2.4066499765,8.549633603,0.43820679661522427,0.10761525634871837,-0.06425255108291925,9.010634983102342,0.45577914642888173,-0.13768536599999992,0.15210114149999976,0.26821187750000064
86382.0,-1.4949257259999997,-2.1720749085,8.7160524535,0.4685825069169336,-0.000301941960595019,-0.03414213082751307,9.106167289620549,0.4698247993187979,0.022751428000000296,0.23457506799999983,0.1664188504999995
86392.0,-1.4350070944999997,-2.063123027,8.690849363,0.4563250595801774,-0.12740379940783006,0.004494222823885399,9.046910225936836,0.473797938095127,0.059918631499999986,0.1089518814999999,-0.025203090499999803
86402.0,-1.3440994489999998,-2.0104613165,8.5448283445,0.4246159177299445,-0.24944420202428155,0.04020016866118539,8.880464485088359,0.49410235890305293,0.09090764549999997,0.052661710500000236,-0.14602101849999904
86412.0,-1.2614293895,-1.9673120565,8.2671040165,0.4030331761997826,-0.3349792980060197,0.05592209456315031,8.591072671789886,0.5270428368459443,0.08267005949999984,0.043149259999999856,-0.27772432800000146
86422.0,-1.2494652764999998,-1.9529943474999998,8.0707748835,0.40889573715723154,-0.3754814086278001,0.0409995294585988,8.39718748264445,0.5566533692580143,0.01196411300000011,0.014317709000000178,-0.196329132999999
86432.0,-1.244660018,-1.9171020085,7.9893796885,0.455525698782764,-0.381343969585249,0.016751670160641576,8.30991254336764,0.5943126314017999,0.004805258499999798,0.035892338999999884,-0.0813951950000007
86442.0,-1.2207317919999998,-1.7243032694999998,7.9175950104999995,0.5194763079050883,-0.35816076113100836,-0.012292353921796064,8.19461522119876,0.6310989361847982,0.02392822600000022,0.1927987390000001,-0.07178467800000021
86452.0,-1.232695905,-1.6178030505,7.839730209499999,0.5479880065656676,-0.32698569003188566,-0.03867300556569036,8.099271304392623,0.6393012577689227,-0.01196411300000011,0.10650021899999973,-0.07786480100000048
86462.0,-1.1896447115,-1.6536953895,7.717637417,0.5224084610484387,-0.31392888189771606,-0.06478662183402951,7.981972831395249,0.6129104742400915,0.04305119349999997,-0.035892338999999884,-0.12209279249999927
86472.0,-1.0137134105,-1.742249439,7.4782570905,0.46085593431835475,-0.30007271296613314,-0.10608809325322333,7.745151844730797,0.5600772346680444,0.17593130099999987,-0.08855404950000012,-0.23938032650000007
86482.0,-0.7790402759999999,-1.8141321834999997,7.296245666499999,0.39503956822564856,-0.2489118766024233,-0.1655078276373703,7.558649360617322,0.4953849248684182,0.23467313450000016,-0.07188274449999965,-0.1820114240000006
86492.0,-0.6449833704999999,-1.772257788,7.137083736999999,0.3513400144142145,-0.16284445519882693,-0.22306529570963926,7.382063768642078,0.4468962390394576,0.13405690550000005,0.04187439549999983,-0.15916192949999974
86502.0,-0.5383850849999999,-1.6860573344999998,7.0783419035,0.34787553584900577,-0.06638534342885631,-0.26170164936103774,7.296271098157997,0.44035457933657013,0.10659828549999995,0.08620045350000005,-0.058741833499999174
86512.0,-0.558782917,-1.611820994,7.1346320745,0.3846461325300223,0.034871678454846705,-0.27182630435185684,7.335746731145668,0.4722903989773135,-0.020397832000000116,0.07423634049999994,0.05629017099999967
86522.0,-0.6569474834999999,-1.5507255644999998,7.43147937,0.4557927341583191,0.11640822512026579,-0.2534410060113486,7.6199222698926805,0.5343502923319225,-0.09816456649999983,0.06109542950000013,0.2968472955000001
86532.0,-0.8054201644999999,-1.531602597,7.892391919999999,0.5570480107127702,0.14545224920270344,-0.21347122081142644,8.079873660856439,0.6140267137119529,-0.148472681,0.019122967499999755,0.46091254999999887
86542.0,-0.871222786,-1.542389912,8.487361375499999,0.6924105115096943,0.12759927628405343,-0.15751421966323625,8.670253681514412,0.7214739227120056,-0.06580262150000016,-0.010787314999999964,0.5949694555000002
86552.0,-0.9071151249999999,-1.5578844189999999,8.9961303775,0.8192470789106263,0.08176867545593433,-0.10182425389060118,9.174978118880995,0.8295903032640808,-0.035892338999999884,-0.01549450699999988,0.5087690020000011
86562.0,-0.9634052959999999,-1.5387614514999999,9.339657327,0.8874615273955727,0.019149752552881785,-0.05892406087658056,9.51446979893089,0.8896216727240329,-0.056290171,0.019122967499999977,0.3435269494999993
86572.0,-1.0531361435,-1.475312426,9.694069657999998,0.9023840925001243,-0.05705830390619862,-0.020285961895930096,9.862080359904407,0.904413744196741,-0.08973084750000004,0.06344902549999998,0.3544123309999989
86582.0,-1.2363243654999998,-1.379599522,9.917857410999998,0.9029164179219825,-0.1663071884347837,0.021280799569566862,10.089384936791697,0.9183512460428563,-0.18318822199999985,0.09571290399999999,0.22378775299999987
86592.0,-1.417060925,-1.2299500429999999,10.122620262999998,0.9367566067889005,-0.3133948111466058,0.06311634173987093,10.295060940195338,0.9898044860531273,-0.18073655950000012,0.14964947900000003,0.204762852
86602.0,-1.533171661,-1.1329622744999999,10.357195331,1.026820832179564,-0.4511571396650222,0.09962164837458434,10.531178185845205,1.1259788003748232,-0.11611073599999999,0.09698776850000002,0.2345750680000016
86612.0,-1.505713041,-1.0623543944999998,10.610991432999999,1.1445973954333934,-0.5550775339872686,0.11827398209064774,10.769814660083538,1.277577004023583,0.02745861999999999,0.07060788000000007,0.253796101999999
86622.0,-1.3608688205,-0.953402513,10.899503075999998,1.2493171505530531,-0.5961119700309072,0.11907334288806114,11.025430041596437,1.3893600269428608,0.1448442205,0.10895188149999979,0.28851164299999965
86632.0,-1.278198761,-0.7414808064999999,11.237146035499999,1.2980799045245226,-0.5484156122324062,0.11800694671509261,11.333888868441544,1.414106347395293,0.08267005949999984,0.21192170650000008,0.3376429595000001
86642.0,-1.3057554474999997,-0.5069057385,11.559098355,1.255179711510502,-0.44609393950498666,0.12280311149957303,11.643655160513982,1.3377430677243825,-0.02755668649999965,0.23457506799999994,0.32195231950000114
86652.0,-1.3955843614999999,-0.37883088949999993,11.793771489500001,1.1190178499161643,-0.3261863292344722,0.11960566830991941,11.882096384874421,1.1717098555966476,-0.08982891400000015,0.12807484900000005,0.23467313450000127
86662.0,-1.4961025239999999,-0.33685842749999995,11.913510685999999,0.9234345086084279,-0.22226593491222588,0.08389972247261941,12.011808074887524,0.9535054278515026,-0.10051816250000001,0.04197246199999999,0.11973919649999765
86672.0,-1.6122132599999999,-0.341663686,11.8200533115,0.7081324374116593,-0.15991230205547646,0.009290387608365817,11.934388377992105,0.7260232810076914,-0.11611073599999999,-0.004805258500000076,-0.09345737449999802
86682.0,-1.575144123,-0.257914895,11.531639734999999,0.5042884527542336,-0.13726316435234603,-0.11061722266214861,11.641576958432871,0.5342136181517328,0.03706913699999981,0.08374879100000004,-0.28841357650000177
86692.0,-1.3381173924999998,-0.061585761999999995,11.2059608885,0.3611976340294785,-0.11967722680925118,-0.25610612377914393,11.28573924901616,0.4586684162686856,0.23702673050000023,0.196329133,-0.3256788464999989
86702.0,-1.0399952325,0.12993811249999998,10.917449245499999,0.29005277773043364,-0.060255747095852234,-0.3864054244160326,10.967642044886917,0.4868988816431538,0.2981221599999999,0.19152387449999997,-0.2885116430000014
86712.0,-0.708432396,0.4531652965,10.7523052595,0.27406556178216557,0.06924419274362303,-0.46154883003139646,10.785142726877822,0.5412337876436032,0.33156283649999996,0.323227184,-0.16514398599999858
86722.0,-0.547995602,0.6136020904999999,10.776233485499999,0.2831255659292682,0.2485732827275364,-0.4551539436520892,10.80759061212483,0.5908585917042768,0.160436794,0.16043679399999994,0.023928225999998887
86732.0,-0.557606119,0.6375303164999999,10.962952101499999,0.29911278187753615,0.4332326082470404,-0.38240862042896556,10.995621322516799,0.6506883294707512,-0.00961051700000004,0.023928225999999997,0.18671861600000028
86742.0,-0.8209146715,0.5418174124999999,11.2036072925,0.2985804564556779,0.5693944698413781,-0.27982165765524286,11.246700999445629,0.7011850763929256,-0.26330855249999996,-0.09571290399999999,0.2406551910000001
86752.0,-1.2172013979999998,0.341859819,11.423864651499999,0.2913844639497053,0.6080325688220285,-0.16897230620257903,11.493612615489136,0.6950972240219278,-0.39628672649999985,-0.19995759349999992,0.22025735899999965
86762.0,-1.6206469789999998,0.1407254275,11.607052873499999,0.3132342408554223,0.5416821319782121,-0.07650999841967543,11.720493875460686,0.6303879770481926,-0.40344558099999994,-0.2011343915,0.18318822200000007
86772.0,-2.0012430654999998,-0.053152043,11.695606923,0.3817157247159238,0.3929975330008152,-0.022418754241867164,11.865707743081002,0.5483215808099176,-0.3805960865,-0.1938774705,0.08855404950000079
86782.0,-2.142556892,-0.272232604,11.720711946999998,0.48057291887813464,0.19661308556641321,-0.010426596951414126,11.91804300926481,0.5193416502640464,-0.14131382650000024,-0.21908056099999998,0.025105023999998366
86792.0,-2.0910719795,-0.43149259999999995,11.671678696999999,0.5778331367747707,0.019416787928436915,-0.03813893481458009,11.86536352132999,0.5794158471747382,0.05148491249999987,-0.15925999599999996,-0.04903324999999903
86802.0,-1.9007249029999997,-0.4182536225,11.632157897499999,0.6782890525318084,-0.12207530920149139,-0.09303128511905376,11.79384536959809,0.6954374450028131,0.19034707650000038,0.013238977499999971,-0.03952079949999998
86812.0,-1.6648749704999999,-0.158475464,11.52085242,0.7441054186245144,-0.1516534040350393,-0.14579084307759033,11.64160485601136,0.7732700685446536,0.23584993249999986,0.25977815849999997,-0.11130547749999842
86822.0,-1.5308180649999998,0.17906942899999997,11.49927779,0.7542300736153336,-0.07437895140299035,-0.16577486301292543,11.602105821794595,0.7758070234050181,0.13405690550000005,0.337544893,-0.021574629999999928
86832.0,-1.533171661,0.44002438549999995,11.5986191545,0.7219886063432424,0.06338337711542608,-0.1476548547187203,11.707783867712216,0.7396532676234319,-0.002353596000000069,0.2609549565,0.09934136449999897
86842.0,-1.6756622854999998,0.5669224365,11.848786795999999,0.6769556209832847,0.20087692492903536,-0.09542936751129395,11.98010824997496,0.7125497989147253,-0.14249062449999994,0.126898051,0.25016764149999915
86852.0,-1.935440444,0.6327250579999999,12.213986441999998,0.6508437500441974,0.30159987606162814,-0.03147875838896973,12.382557713035371,0.7180187911480411,-0.2597781585000001,0.06580262149999994,0.3651996459999989
86862.0,-2.2634728865,0.5345604915,12.601839449499998,0.635921184939646,0.34849687306271576,0.013554226970987963,12.814656528286966,0.7252789401728932,-0.32803244249999985,-0.09816456649999994,0.3878530075000004
86872.0,-2.6129818925,0.37177010149999995,12.869953260499999,0.6268611807925434,0.31572308036876623,0.037269760847086914,13.137792215831272,0.7028691475201932,-0.34950900600000034,-0.16279039,0.268113811000001
