timestamp,ax,ay,az,gx,gy,gz,acc_mag,gyro_mag,dax,day,daz
41712.0,2.7232086384999996,-6.248993512999999,7.6161385895,-0.3543367447398888,-0.24375093800427605,0.07244861725028462,10.22112284579283,0.4361397145322858,0.0,0.0,0.0
41722.0,2.6394598475,-5.276958365,6.951738051999999,-0.3311552816149001,-0.23335924763790183,0.07431262889141456,9.118097379175818,0.4118770760947063,-0.08374879099999966,0.9720351479999998,-0.6644005375000015
41732.0,2.4826515139999996,-5.8611405055,6.7482500645,-0.3154333557129352,-0.21577331009480696,0.06605373087097739,9.276605278775396,0.3878394237407646,-0.15680833350000034,-0.5841821405000003,-0.20348798749999908
41742.0,2.544825675,-6.129254316499999,6.569867101,-0.28265956301898565,-0.1446284537957621,0.08657007622817074,9.33847149790988,0.3291021062095898,0.06217416100000017,-0.2681138109999992,-0.17838296349999982
41752.0,2.6082747004999995,-6.387855676999999,6.527992705499999,-0.22910064426303567,-0.03697654553275186,0.10175967670827739,9.498551775218719,0.2533957417263495,0.06344902549999976,-0.25860136050000015,-0.041874395500000716
41762.0,2.5257027075,-6.5554513255,6.5291695034999995,-0.14010106971608882,0.0669438487894945,0.10682113153906095,9.590785716150004,0.18846894378021128,-0.08257199299999973,-0.16759564850000075,0.0011767980000003675
41772.0,2.3245683159999997,-6.621253947,6.545938874999999,-0.026588345824881617,0.09918531606158576,0.09776112739195839,9.596558624926459,0.14178118734474923,-0.20113439150000012,-0.0658026214999996,0.016769371499999686
41782.0,2.171388443,-6.598502519,6.453756364999999,0.08719141344188072,0.06268000942687235,0.08870286857410781,9.481884542770036,0.13928145983231663,-0.15317987299999958,0.022751427999999407,-0.09218250999999977
41792.0,2.1426549584999997,-6.5805563495,6.2861607164999995,0.17565691723771729,0.014451326206513048,0.08417199383593053,9.34935873168835,0.19531799187197588,-0.02873348450000046,0.017946169500000053,-0.16759564849999986
41802.0,2.1976702649999997,-6.573397495,6.1341576415,0.24440369114452193,0.0008604473212332044,0.08497135463334393,9.255657685529986,0.25875477913052153,0.05501530650000008,0.007158854500000089,-0.15200307499999965
41812.0,2.228855412,-6.5219125825,5.93302325,0.2976955745249168,0.019512781037296607,0.08763647240113928,9.09416873971525,0.31093979322442056,0.031185147000000413,0.05148491250000031,-0.20113439150000012
41822.0,2.263570953,-6.5326998975,5.7067838344999995,0.3411298382900477,0.055485762250151734,0.08683711160372587,8.964781265807456,0.35635504814153035,0.03471554099999974,-0.010787314999999964,-0.22623941550000026
41832.0,2.2575888964999997,-6.490727435499999,5.5104547015,0.38109962348996984,0.09145874346300685,0.07697774665920991,8.808595874759833,0.39940856057520646,-0.005982056500000166,0.04197246200000038,-0.19632913299999988
41842.0,2.196493467,-6.404625048499999,5.2458712845,0.42080237331433684,0.10984404180351512,0.05166349118828415,8.565218683488997,0.43796057725378984,-0.06109542949999991,0.08610238700000039,-0.2645834169999999
41852.0,2.147460217,-6.2800805935,5.0196318689999995,0.4605051231387039,0.1221014891402713,0.02075371013546457,8.321520398625088,0.47686943556035494,-0.04903324999999992,0.12454445499999878,-0.22623941550000026
41862.0,2.091170046,-6.1483772839999995,4.8173206795,0.5140640418946538,0.13116149328737386,-0.009889035541799871,8.085920721651505,0.5306250743362861,-0.05629017100000011,0.13170330950000064,-0.2023111894999996
41872.0,2.0840111915,-6.0466823235,4.6616891439999995,0.5902720983537342,0.13009509711440534,-0.045327946003544735,7.914342388531852,0.606135716714522,-0.007158854499999645,0.10169496049999971,-0.15563153550000042
41882.0,2.1079394175,-5.964012264,4.528809036499999,0.6819350453392244,0.12316788531323984,-0.085564766579022,7.7796505167055345,0.6982313823612256,0.023928225999999775,0.08267005949999984,-0.13288010750000012
41892.0,2.1869810165,-5.961658668,4.463006415,0.7826579964718172,0.11570660276096408,-0.12420112023042049,7.761616217038952,0.8008542162155694,0.07904159899999996,0.002353595999999847,-0.0658026214999996
41902.0,2.3449661479999997,-5.925766329,4.5133145295,0.8879100770133352,0.1338248657259172,-0.16177282303810242,7.809198477652614,0.9123945669621799,0.15798513149999982,0.035892339000000106,0.050308114499999945
41912.0,2.4084151735,-5.731790792,4.613832692,0.9705147651809749,0.17059720773618572,-0.20920214546104832,7.7421793728231965,1.0073568654588956,0.0634490255000002,0.19397553700000003,0.10051816250000023
41922.0,2.3820352849999997,-5.4457308115,4.789763993,1.0019568716556526,0.19484506703414298,-0.26142937799772664,7.6336043438826975,1.0536733329100627,-0.02637988850000017,0.28605998050000014,0.17593130100000032
41932.0,2.30064009,-5.084159626,4.993350046999999,0.9817058163447625,0.20736954974645425,-0.3093927711717828,7.48833550385121,1.0499868222318502,-0.08139519499999981,0.3615711854999999,0.20358605399999874
41942.0,2.206103984,-4.691501359999999,5.274604769,0.9278798622132575,0.210834028311663,-0.34056958760015754,7.3958458115525945,1.0106431962830196,-0.09453610600000006,0.39265826600000064,0.2812547220000008
41952.0,2.125885587,-4.3036483525,5.447005676,0.8412801153878027,0.18445337666776873,-0.3565568035484256,7.260210017993041,0.9321523667661457,-0.08021839699999989,0.3878530074999995,0.1724009070000001
41962.0,2.123531991,-4.0918247125,5.551152299,0.7394907680822415,0.1463493484382285,-0.3464304032283545,7.215795828688553,0.8296256698946325,-0.002353595999999847,0.21182363999999954,0.1041466230000001
41972.0,2.158247532,-4.0151367095,5.6959965194999995,0.6656807940154013,0.14022149743447643,-0.3147212613781215,7.29545965347727,0.7495615119702838,0.03471554099999974,0.07668800300000012,0.14484422049999957
41982.0,2.135496104,-3.9516876839999995,5.7881790295,0.6339716521651683,0.1306274225362636,-0.281947468684172,7.326608740721728,0.7060297120978074,-0.02275142799999985,0.06344902550000064,0.09218251000000066
41992.0,2.009774851,-3.762615472,5.9054665635,0.6398342131226171,0.08506385708369964,-0.26249577417069514,7.284984933029193,0.696798185647514,-0.12572125300000003,0.18907221199999968,0.11728753399999992
42002.0,1.9463258255,-3.547065305,5.9964722754999995,0.66914527258061,-0.037243580908307,-0.27768362932154983,7.2337774535703785,0.7254313738245958,-0.06344902549999998,0.21555016699999996,0.0910057119999994
42012.0,1.906805026,-3.2610053244999997,6.0168701075,0.7005873790552879,-0.21177650610773996,-0.32458062632263746,7.104420245461502,0.8006400859404648,-0.03952079949999998,0.28605998050000014,0.02039783200000045
42022.0,1.8481612589999998,-2.95572431,6.033639479,0.7253693091043554,-0.3937707138594487,-0.38826594539865855,6.968271779899291,0.912121951298303,-0.05864376700000018,0.3052810144999998,0.016769371499999686
42032.0,1.8672842264999998,-2.6648590709999995,5.949792621499999,0.7589424625957183,-0.5283338538589595,-0.4452893427198173,6.781464184796858,1.0263590606625737,0.019122967499999977,0.2908652390000004,-0.0838468575000002
42042.0,2.0840111915,-2.633673924,6.0300110185,0.8236941778447079,-0.5688359644807399,-0.48046121780600703,6.902200653957128,1.110355544371997,0.21672696500000033,0.031185146999999525,0.08021839700000033
42052.0,2.6526007584999998,-2.9748472775,6.3256815159999995,0.944933474334494,-0.5062170415776873,-0.48605674338790084,7.476647226552019,1.1770327616062246,0.5685895669999996,-0.3411733534999999,0.29567049749999974
42062.0,3.3050371829999996,-3.3986906904999996,6.798558179,1.117600642563545,-0.36046285041438886,-0.48205993940083386,8.288230360212712,1.2693882179863063,0.6524364244999998,-0.4238434129999997,0.4728766630000001
42072.0,3.5875667694999995,-3.5243138769999995,7.440207288499999,1.3014606072856356,-0.1771352111141565,-0.4988482614757673,8.980429172655612,1.405000421106751,0.28252958649999993,-0.12562318649999993,0.6416491094999994
42082.0,3.5456923739999997,-3.277774696,8.1356949065,1.4576082341445602,-0.005534439058074019,-0.5406820583168194,9.460722645782916,1.554667000501208,-0.04187439549999983,0.24653918099999972,0.6954876180000005
42092.0,3.3050371829999996,-2.8324547194999994,8.983283665999998,1.5836436954188267,0.15647574875829964,-0.5750563179348478,9.982257056540508,1.6920702653217605,-0.2406551910000001,0.44531997650000044,0.8475887594999989
42102.0,2.8668760609999997,-2.248272579,10.0689778875,1.6833019957077031,0.36964502760913104,-0.56572927841219,10.707848693252167,1.8138888256016321,-0.4381611219999999,0.5841821404999994,1.0856942215000007
42112.0,2.5412952809999996,-1.7825547704999998,11.243422291499998,1.7301989927087906,0.5905426243877934,-0.5276252501826497,11.664057100343099,1.9028183177118199,-0.3255807800000001,0.4657178085000002,1.174444403999999
42122.0,2.370071172,-1.672426091,12.465625080999999,1.6979575254366994,0.7317676861421665,-0.48046121780600703,12.79867395671361,1.910336799227982,-0.17122410899999974,0.11012867949999983,1.2222027895000007
42132.0,2.1450085545,-1.7131236885,13.514250165499998,1.6028300998860006,0.7389619333188872,-0.4298344521934075,13.790243362852403,1.8165590340771645,-0.2250626174999999,-0.04069759750000013,1.0486250844999994
42142.0,2.0636133595,-1.9873176224999998,14.248081785,1.5015730780022976,0.5817496556162459,-0.39839060038947766,14.533264120019794,1.6588759570473024,-0.08139519499999981,-0.2741939339999997,0.7338316195000019
42152.0,2.150990611,-2.40262925,14.769991697999998,1.4277631039354572,0.3445978075137604,-0.4055848475661983,15.117937778697021,1.5237303562238296,0.08737725149999997,-0.41531162750000017,0.5219099129999982
42162.0,2.4335201975,-2.7618468394999995,14.952003121999999,1.3755376167280309,0.07920129612625067,-0.43009974223971065,15.398448489273012,1.443385731056177,0.28252958649999993,-0.3592175894999996,0.1820114240000006
42172.0,2.670546928,-2.7545899185,14.950826323999998,1.383531224702165,-0.11371867274294253,-0.47220057445631786,15.435245196761967,1.4663096428698699,0.23702673049999978,0.00725692099999975,-0.0011767980000012557
42182.0,2.8118607544999996,-2.6409308449999997,14.7855842715,1.381665467731783,-0.2290954082752797,-0.5135037912047636,15.280529404454477,1.4917004774407525,0.1413138264999998,0.11365907350000004,-0.16524205249999824
42192.0,2.948271256,-2.3738957655,14.574937429499998,1.3155838115927736,-0.24828181274245337,-0.5316220541697169,15.058435694927102,1.4404952732804361,0.13641050150000034,0.26703507949999983,-0.21064684200000094
42202.0,3.095567139,-2.226697949,14.420482691999998,1.189014279567397,-0.19072608999943633,-0.5324214149671302,14.916133572022241,1.316663951635819,0.14729588299999996,0.14719781649999986,-0.15445473750000005
42212.0,3.296603464,-2.2075749815,14.211012647999999,1.0472551470619136,-0.126508445501557,-0.5196316422085158,14.754452283274276,1.1759101893491737,0.20103632500000002,0.019122967499999977,-0.2094700439999997
42222.0,3.4690043709999996,-2.1404974955,14.122360532,0.9444011489126357,-0.06175847558181935,-0.5073741948717596,14.698870291626163,1.0738418007301926,0.17240090699999966,0.06707748600000007,-0.08865211599999867
42232.0,3.5289230025,-2.1285333824999997,14.075680877999998,0.9068294461049539,-0.024186772774137416,-0.49165226896979464,14.666585972791532,1.0318171339357534,0.05991863150000043,0.011964113000000332,-0.04667965400000185
42242.0,3.696518651,-2.1728594405,13.9404471745,0.9126920070624027,-0.024719098195995687,-0.46447400185773896,14.584979798079456,1.024379730360262,0.16759564849999986,-0.044326058000000224,-0.13523370349999908
42252.0,3.8209650394999994,-2.1142156735,13.831495293,0.927080501415844,0.003525565089028546,-0.41464485171330084,14.504480128134047,1.0155890107553325,0.12444638849999956,0.05864376699999996,-0.10895188149999946
42262.0,3.8724499519999998,-1.9130812819999998,13.516701827999999,0.9049636891345718,0.07546978218548679,-0.3408348776464607,14.190030899520341,0.9699605046059642,0.05148491250000031,0.20113439150000012,-0.31479346500000105
42272.0,3.801842072,-1.672426091,13.168271553499999,0.8180969069335621,0.1991089063967651,-0.2393125657164545,13.8077654918167,0.8753270302295991,-0.07060787999999985,0.24065519099999988,-0.3484302745000001
42282.0,3.6414052779999997,-1.4043122799999999,12.9456605985,0.7176409911765245,0.35765461564793,-0.1188726300240818,13.521170574693615,0.8105899817293175,-0.16043679400000022,0.2681138110000001,-0.2226109549999986
42292.0,3.6114949954999997,-1.243875486,12.871424257999998,0.6787376021495709,0.5249932936706423,-0.0042935099599060505,13.426231219393776,0.858091559915767,-0.02991028249999994,0.16043679399999977,-0.07423634050000238
42302.0,3.560010083,-1.152869774,12.953996251,0.7040518576204966,0.6931295871615161,0.10575648069534441,13.48364933457506,0.9936307543683571,-0.05148491249999987,0.09100571200000007,0.08257199300000195
42312.0,3.4678275729999997,-0.955363843,13.153953844499998,0.7568114155790331,0.8364874412618263,0.20754408267165372,13.636900303654311,1.1469739772076417,-0.09218251000000022,0.19750593100000002,0.19995759349999886
42322.0,3.258357529,-0.6680289979999999,13.460411656999998,0.7730656669028564,0.917224627129832,0.31199854774501035,13.865274555697097,1.2394654637191038,-0.2094700439999997,0.28733484500000006,0.3064578124999997
42332.0,3.0703640484999997,-0.5279900359999999,13.7992314145,0.7117784302190755,0.9542640045156556,0.4297733656695877,14.146543623774686,1.265683005289378,-0.1879934805000003,0.140038962,0.3388197575000014
42342.0,2.8273552614999997,-0.5351488904999999,13.660369250499999,0.5377795757707527,0.8937761286292882,0.5675356941880042,13.960157956475314,1.187492907095107,-0.24300878699999995,-0.007158854499999978,-0.13886216400000073
42352.0,2.4251845449999996,-0.745893799,13.163564361499999,0.2865045233611292,0.7392289686944423,0.7060956381745819,13.405868279826056,1.0616568938751383,-0.40217071650000014,-0.21074490850000005,-0.49680488899999986
42362.0,1.8517897195,-1.1960190339999999,12.6895109005,0.06507460116060858,0.5620309257272139,0.8228058052554428,12.879568066858628,0.9985603929417884,-0.5733948254999996,-0.4501252349999999,-0.4740534609999987
42372.0,1.5513139635,-1.9225937325,12.347062682499999,-0.01113345529847183,0.38376823191626913,0.8595781472657112,12.591779006922827,0.94142264733316,-0.300475756,-0.7265746985000001,-0.34244821800000125
42382.0,1.583577842,-2.536784222,12.01314625,0.08985478588042406,0.16713272917097702,0.7684475257020793,12.379768810222208,0.79152942551961,0.03226387850000001,-0.6141904895000001,-0.3339164324999988
42392.0,1.72008641,-2.861188204,11.8347632865,0.3075549394694328,-0.0753476091378472,0.5491486505182438,12.296614056075098,0.6339018404775653,0.136508568,-0.32440398199999976,-0.1783829635000007
42402.0,2.103134159,-2.9533707139999996,11.7557216875,0.5665565644776354,-0.26453606406627656,0.26936364477729285,12.302136572930058,0.6808248255403777,0.38304774900000016,-0.09218250999999977,-0.07904159899999996
42412.0,2.599939048,-2.8683470585,11.782101576,0.7837243926447858,-0.3356809203653214,0.01995434933805117,12.401815006219953,0.852821071492287,0.49680488899999986,0.08502365549999968,0.02637988850000106
42422.0,2.9411124015,-2.4793172529999996,11.857514714499999,0.9073617715268121,-0.2765264760274776,-0.14258641857092877,12.46586585054823,0.9592200806558075,0.3411733534999999,0.3890298055000003,0.07541313849999831
42432.0,3.1901032449999995,-2.005263792,12.033446015500001,0.9158894502520563,-0.10359227242287143,-0.20573941222509157,12.609586218318926,0.9444117479846778,0.24899084349999967,0.47405346099999957,0.1759313010000021
42442.0,3.1852979864999997,-1.580243581,12.3674605145,0.8383479622444523,0.15807447035312644,-0.18388963531937455,12.868464267961786,0.8727142957203919,-0.004805258499999798,0.4250202110000001,0.33401449899999847
42452.0,2.9434659974999997,-1.1672855494999999,12.61527456,0.6933931318785671,0.4184077815806006,-0.10634814731177049,13.006602164158531,0.8168041597961004,-0.24183198900000002,0.4129580315000001,0.2478140455000002
42462.0,2.7029088729999997,-0.967327956,12.718244384999998,0.5129976457216854,0.5628302865246274,-0.00669159235214626,13.038219970026018,0.7615702812962132,-0.2405571245,0.19995759349999986,0.10296982499999885
42472.0,2.461076884,-1.0403874985,12.847496031999999,0.3472576892937998,0.5993355931593407,0.08710414697928101,13.1224029761416,0.6981247656560511,-0.24183198899999958,-0.07305954249999991,0.12925164700000025
42482.0,2.1881578145,-1.3659682784999998,12.896529282,0.2262836828503168,0.6110607150742388,0.1702394152395269,13.151972151753862,0.6734841951615782,-0.27291906950000033,-0.3255807799999999,0.049033250000000805
42492.0,1.90445143,-1.6784081475,12.800816378,0.15460650112941368,0.58974326359038,0.22912856953106758,13.050091536157762,0.6513065242395972,-0.28370638449999985,-0.3124398690000001,-0.0957129039999991
42502.0,1.594365157,-1.844826998,12.762472376499998,0.13142329267517303,0.5617638903516589,0.24165130691412687,12.993309357793757,0.6254966862373615,-0.310086273,-0.16641885050000016,-0.03834400150000228
42512.0,1.3944075635,-1.9680965885,12.706280271999999,0.13968393602486218,0.5305888192525362,0.2123402474561341,12.933187348269092,0.5883234465741872,-0.19995759349999997,-0.12326959049999986,-0.05619210449999912
42522.0,1.1945480364999999,-1.9573092734999997,12.6463616405,0.1538071403320003,0.46477245315983,0.144659869722298,12.85256656648566,0.5104865791981081,-0.1998595270000001,0.010787315000000186,-0.059918631499998654
42532.0,0.9874315885,-1.7011595755,12.487199710999999,0.16126842288427606,0.3286105915654924,0.055395005129048026,12.641167733468352,0.37021754645323307,-0.20711644799999984,0.25614969799999976,-0.15916192950000152
42542.0,0.7803151405,-1.3337044,12.19751127,0.16872796010729982,0.12742997934661,-0.031206487025658612,12.294996556601792,0.21373200272942425,-0.20711644800000006,0.36745517549999995,-0.28968844099999913
42552.0,0.7276534299999999,-0.9960614404999999,11.795242487,0.18231883899257964,-0.11265227656997401,-0.08956157056608902,11.859568425308387,0.23227563236436283,-0.052661710500000014,0.3376429595000001,-0.40226878300000024
42562.0,0.8377821095,-0.8045375659999999,11.274509371999999,0.20683198833684002,-0.34021179510349864,-0.11833855927297153,11.334183743764669,0.4153643599753333,0.11012867950000005,0.19152387449999997,-0.5207331150000005
42572.0,1.1347274715,-0.7638399684999999,10.6197193515,0.23827584014076986,-0.5003544806202384,-0.12500048102783387,10.707450538605277,0.5681153954336461,0.296945362,0.040697597500000016,-0.6547900204999983
42582.0,1.44353888,-0.7949270489999999,10.077411606499998,0.27158370358582967,-0.5376591480523651,-0.12073664166521174,10.211265259414446,0.6143389977678323,0.3088114085,-0.031087080499999975,-0.5423077450000022
42592.0,1.7488198944999997,-0.8571992764999999,9.6608251145,0.30355813548236577,-0.4273438673508116,-0.121270712416322,9.855186630195547,0.5380305830246461,0.3052810144999998,-0.062272227500000055,-0.41658649199999864
42602.0,1.9451490274999998,-0.8907380194999999,9.33396947,0.3256749477636379,-0.1981873725517121,-0.1436528147438973,9.576011958297622,0.40740463598693116,0.1963291330000001,-0.033538742999999926,-0.32685564450000015
42612.0,2.0612597635,-0.9050557284999999,9.198735766499999,0.3262072731854962,0.0653451271946677,-0.18761940393088644,9.470198381565249,0.3819452990397779,0.11611073599999999,-0.014317709000000067,-0.13523370350000086
42622.0,2.1199035305,-0.8643581309999999,9.1736307425,0.3086213356424013,0.31128994406870064,-0.23878024029459624,9.454977892993366,0.4991638621205862,0.05864376699999996,0.040697597500000016,-0.025105023999998366
42632.0,2.127062385,-0.6345883215,9.3375979305,0.28197539395220383,0.53618434483443,-0.28940875123644777,9.597803490337983,0.671387518302409,0.007158854500000089,0.22976980949999992,0.1639671879999991
42642.0,2.1426549584999997,-0.3915795345,9.824792302499999,0.25453009146459304,0.7456238550737495,-0.3248476616981926,10.063341820205011,0.8522127105522408,0.015592573499999762,0.243008787,0.4871943719999994
42652.0,2.1821757579999996,-0.1617116585,10.4916445025,0.22468496125549,0.9169593370835288,-0.32831214026340133,10.71739922117937,0.99954320523096,0.03952079949999998,0.229867876,0.666852200000001
42662.0,2.128239183,0.065704555,11.2206708635,0.19350989015636733,0.9902352403992588,-0.29287148447240446,11.420909496865917,1.0506120194124837,-0.05393657499999982,0.2274162135,0.7290263610000007
42672.0,2.0420387294999998,0.28243152,11.9532276185,0.17565691723771729,0.9793112246110263,-0.22838854992822197,12.129688381650151,1.0208169066786277,-0.08620045350000005,0.216726965,0.7325567549999992
42682.0,1.9726076474999998,0.42727574049999995,12.6128228975,0.17592220728402042,0.9065676467171546,-0.14871601490393282,12.773294286639432,0.9353769155687285,-0.06943108199999992,0.14484422049999995,0.6595952789999995
42692.0,1.9223975995,0.48954796799999994,13.138361270999999,0.18604860760409156,0.8050453347871485,-0.0653137112681318,13.287279880805137,0.82884133363002,-0.05021004799999984,0.0622722275,0.5255383734999999
42702.0,1.7619608054999998,0.46434487750000003,13.491498737499999,0.19777372951898944,0.6811391752003151,0.02075371013546457,13.613987668179472,0.7095743375889539,-0.16043679400000022,-0.025203090499999914,0.3531374664999998
42712.0,1.5632780764999998,0.44757550599999996,13.636342957999998,0.20736605908795028,0.526324979889914,0.10175967670827739,13.732953485912375,0.5747814356097096,-0.19868272899999995,-0.016769371500000074,0.14484422049999957
