timestamp,ax,ay,az,gx,gy,gz,acc_mag,gyro_mag,dax,day,daz
22182.0,0.05138684599999999,0.16788984799999998,9.4458633465,-0.04212875748463913,-0.07265456610201995,0.11719711394216724,9.44749501030593,0.14418280653061813,0.0,0.0,0.0
22192.0,-0.274193934,0.4612067495,9.586000375,-0.05465324019695044,0.0014224433403753787,0.09348158006606828,9.601005008264858,0.10829499443986722,-0.32558077999999996,0.2933169015,0.14013702849999987
22202.0,-0.11493393799999999,0.36059052049999996,9.684164941499999,-0.050389400834328295,0.01048070215822595,0.09481326628533997,9.691557457279833,0.1078818441530679,0.159259996,-0.10061622900000006,0.0981645664999995
22212.0,-0.19162194099999996,0.4145270955,9.751144361,-0.04159643206278086,0.004085815778918725,0.0913505330493832,9.761832206621786,0.100458334344838,-0.07668800299999998,0.05393657500000004,0.06697941950000086
22222.0,-0.228691078,0.582122744,9.881670872499999,-0.04186172210908399,0.018476055461611973,0.10120989799389916,9.90144361851613,0.11107300236913652,-0.03706913700000003,0.16759564849999997,0.1305265114999994
22232.0,-0.2334963365,0.5341682255,9.965419663499999,-0.060248765778844256,0.07416602123424704,0.0913505330493832,9.9824568770401,0.1321946760350025,-0.00480525850000002,-0.04795451849999999,0.08374879099999966
22242.0,-0.283804451,0.503081145,10.018081374,-0.0900921506586953,0.12239644978385834,0.07536157177186316,10.034719229801482,0.16963741636186072,-0.0503081145,-0.031087080499999975,0.05266171050000068
22252.0,-0.4094276375,0.4647371435,10.006117261,-0.11593873155147932,0.10241068451927128,0.07855901496151677,10.025267789130599,0.17349713717867368,-0.12562318649999998,-0.0383440015,-0.011964112999999443
22262.0,-0.45375369549999994,0.36059052049999996,9.9391378415,-0.12686449266896382,-0.019627972767928232,0.09881181560165897,9.956022246459257,0.1619988633220257,-0.044326057999999946,-0.10414662300000005,-0.06697941950000086
22272.0,-0.4130560979999999,0.4025629825,9.809788128000001,-0.11620576692703445,-0.18536792919581374,0.11906287091254916,9.826729639672807,0.2490803418003573,0.040697597500000016,0.041972462000000044,-0.12934971349999813
22282.0,-0.3029274185,0.36902423949999996,9.5931592295,-0.0978204685865262,-0.3156689751619544,0.13265200446857703,9.605032426429316,0.3561071471394776,0.11012867949999994,-0.03353874300000004,-0.21662889850000155
22292.0,-0.17720616549999998,0.3127340685,9.377707129,-0.08556302124977001,-0.3609672505682152,0.13371840064154555,9.38459352449477,0.3943336116263717,0.125721253,-0.056290170999999944,-0.2154521005000003
22302.0,-0.122190859,0.2444797845,9.091549082,-0.10155023719803806,-0.3388504382869431,0.11080222756286,9.095656418393746,0.3706874746132152,0.055015306499999986,-0.06825428400000003,-0.2861580469999989
22312.0,-0.04314926,0.21819796249999998,8.74557047,-0.14258467324167673,-0.312736822018604,0.07083244236293787,8.748398428010336,0.3509301123882512,0.07904159899999999,-0.02628182200000001,-0.3459786119999997
22322.0,0.08492558899999998,0.239674526,8.3553638665,-0.21106615710217824,-0.31007344958006056,0.036725218120464684,8.359232116390483,0.3768862009338568,0.128074849,0.021476563500000018,-0.39020660350000114
22332.0,0.27164420499999997,0.25644389749999996,7.868169494499999,-0.29233741372129424,-0.3151349044108442,0.030063296365602326,7.877032768806757,0.4309001894031298,0.186718616,0.016769371499999963,-0.48719437200000026
22342.0,0.48356591149999995,0.16190779149999998,7.339002660499999,-0.36961186635334314,-0.297016641445891,0.038323939715291494,7.356698320207191,0.4757105647347974,0.21192170649999997,-0.09453610599999998,-0.5291668339999998
22352.0,0.6128175585,0.1020872265,6.800323375999999,-0.44048968727683285,-0.28236111171689465,0.05537755183652808,6.828642996964505,0.5261422196085864,0.12925164700000003,-0.05982056499999998,-0.5386792845000006
22362.0,0.6212512775,0.13082071099999998,6.083261127999999,-0.5196298968792638,-0.2959502452729225,0.06923372076811106,6.1163006106353,0.6019925958840806,0.008433719000000006,0.028733484499999976,-0.7170622479999995
22372.0,0.6140924229999999,0.20976424349999997,5.270387909499999,-0.6179547656196163,-0.32233089691681677,0.06390523056177239,5.310188250753537,0.6998922616748579,-0.007158854500000089,0.0789435325,-0.8128732185
22382.0,0.74334407,0.238497728,4.341502021499999,-0.7130821911703152,-0.31646833595936785,0.04365242992163018,4.411131530044633,0.7813731206454521,0.12925164700000014,0.028733484500000017,-0.9288858879999999
22392.0,0.953990912,0.26487761649999997,3.411341269,-0.7906219338486674,-0.2407926049221457,0.018072884404401284,3.5521131830902912,0.8266745127427686,0.21064684199999995,0.026379888499999976,-0.9301607524999995
22402.0,1.2281848459999998,0.25291350349999997,2.5924859939999996,-0.829792358251176,-0.0838456172658076,0.014608405839192538,2.8798241066570114,0.8341455813393096,0.2741939339999998,-0.011964112999999998,-0.8188552750000002
22412.0,1.4556010595,0.214569502,1.966429458,-0.8220640403233451,0.1250598222224017,0.034327135728224475,2.455943673803661,0.8322304955806084,0.22741621350000019,-0.038344001499999975,-0.6260565359999997
22422.0,1.6231967079999998,0.20976424349999997,1.61809725,-0.7591798273739895,0.345957419001064,0.08069180730745384,2.301522822213746,0.8381835800229097,0.16759564849999986,-0.00480525850000002,-0.348332208
22432.0,1.6950794525,0.1056176205,1.4420678824999997,-0.6246166873744786,0.5452722742495645,0.16462643636511312,2.2280056574851455,0.8453222597106006,0.0718827445000001,-0.10414662299999998,-0.1760293675000002
22442.0,1.5992684819999998,0.06374322499999999,1.5066937059999999,-0.4490173660020772,0.7299298544398165,0.2965262039260806,2.1981466738941693,0.9068307322696924,-0.09581097050000009,-0.04187439550000001,0.06462582350000012
22452.0,1.2162207329999999,-0.0140235095,1.8694416895,-0.15883892456549994,0.8525025824781263,0.3876568254897125,2.2302918554840234,0.9498780297689595,-0.38304774899999994,-0.07776673449999999,0.36274798350000004
22462.0,0.7996342409999999,-0.18642441649999997,2.335159498,0.16224755259464485,0.8847440497502176,0.5009025140053646,2.475305812126377,1.0295628346187822,-0.416586492,-0.17240090699999996,0.4657178085
22472.0,0.4045243125,-0.1493552795,3.101254996,0.5219721287354402,0.8988672540573557,0.5896350531767564,3.1310907794462115,1.1950258321592777,-0.39510992849999993,0.037069136999999974,0.7660954980000003
22482.0,-0.25144250599999995,0.14876688049999998,4.033867410999999,0.8862258342851608,0.8533019432755397,0.5994944181212724,4.0444333605692036,1.3685444797706812,-0.6559668184999999,0.29812215999999997,0.932612414999999
22492.0,-0.8284657919999999,0.28282378599999997,5.192621174999999,1.2432852926581606,0.6766379710594217,0.5696492879121693,5.265895890491943,1.5258104646509474,-0.577023286,0.1340569055,1.158753764
22502.0,-1.12776475,0.42531441049999996,6.5704555000000004,1.5681032837590692,0.4858507945361655,0.491842509858262,6.680092151804628,1.7137409248748987,-0.29929895800000017,0.1424906245,1.3778343250000011
22512.0,-1.3121297699999999,0.5042579429999999,8.1458938225,1.819378336168693,0.32757212066055574,0.37060321336847596,8.26628978283743,1.885414481251551,-0.18436501999999977,0.07894353249999997,1.5754383224999993
22522.0,-1.398232157,0.408545039,9.9379610435,2.004035916358945,0.0730996250612785,0.24803048533016617,10.044154116494031,2.0206490617853103,-0.08610238700000017,-0.09571290399999993,1.792067221
22532.0,-1.5993665485,-1.3775401255,13.914655685,2.279558828066526,-0.6391535347143394,0.1558334675935657,14.073849259741493,2.372591359921911,-0.2011343914999999,-1.7860851645,3.9766946415
22542.0,-5.517515489499999,0.9819398644999999,17.4245537865,2.613436823314537,-2.5821989203623423,0.07376285017703635,18.303613242554,3.674676074410242,-3.918148940999999,2.3594799899999996,3.5098981014999993
22552.0,-6.142395227499999,6.4634649484999995,16.940987874999998,1.5465205422289074,-4.586795087411177,-0.23959705438452958,19.14425418897795,4.846423599924489,-0.6248797379999997,5.481525083999999,-0.4835659115000013
22562.0,-1.4377529564999998,4.1147722735,15.230315849,0.19102628663077936,-4.372294122341075,-0.5753390612736707,15.841748807722885,4.414120747087638,4.704642270999999,-2.3486926749999997,-1.7106720259999975
22572.0,0.8546495475,4.0118024485,13.2957580035,-1.008589122813231,-2.469750847314852,-0.7695907163621356,13.914099526109005,2.7765430191481597,2.292402504,-0.10296982499999974,-1.9345578455000005
22582.0,2.0434116605,2.9751414769999998,11.242735825999999,-1.7253731573270263,-0.3916099962454797,-0.8100928269839162,11.807883251271457,1.9458985866470042,1.188762113,-1.0366609715000004,-2.053022177500001
22592.0,3.3913357029999998,0.25046184099999996,9.9881710915,-1.8372871596234068,0.7046155989688907,-0.6358251918307863,10.551182433135914,2.0679412283220215,1.3479240424999999,-2.724679636,-1.2545647344999988
22602.0,3.728880596,-0.9154507774999999,9.3944765005,-1.3443311297023723,0.8127998326537593,-0.24012937980638785,10.148831920161916,1.5891922077882952,0.33754489300000046,-1.1659126185,-0.5936945910000002
22612.0,3.7708530579999997,-1.219554994,9.2950370695,-0.6435343111368452,0.6284075425098103,0.15929794615877446,10.104670271305116,0.9134595145620832,0.04197246199999949,-0.30410421649999997,-0.09943943100000041
22622.0,3.3302402735,-0.9238844964999999,9.705641505,0.02875080876810259,0.6785037280298035,0.3935176411179095,10.30259869478051,0.7848885601320517,-0.44061278449999985,0.29567049749999996,0.4106044354999998
22632.0,2.157070734,-0.4378669225,10.745930936999999,0.5821929692462525,0.905529175812218,0.4766546547074074,10.96903429186328,1.177340817920266,-1.1731695395,0.48601757399999995,1.0402894319999998
22642.0,0.6750897859999999,0.12836904849999997,12.2866537185,1.0253198490228488,0.9340408744727973,0.4454778382790327,12.30585569678534,1.4567647896568292,-1.481980948,0.566235971,1.5407227815000013
22652.0,-0.37951735499999995,0.7844339335,13.961335338999998,1.3285533532643437,0.7059490305174144,0.29545980775311204,13.988504368472801,1.5332040125684236,-1.054607141,0.656064885,1.6746816204999977
22662.0,-1.167187483,1.5146370925,15.2841543575,1.414355484621637,0.4274957109957351,0.06550395215659918,15.403305702554078,1.4790012804413621,-0.787670128,0.7302031589999999,1.3228190185000024
22672.0,-1.4963967235,2.1910017429999997,15.740261648999999,1.312833172691631,0.16529664279787898,-0.23560025039746257,15.96231588996129,1.3440094484143965,-0.3292092405,0.6763646504999998,0.4561072914999986
22682.0,-1.128941548,2.3574205934999997,15.656512858,1.1518893810482256,-0.02602460447648745,-0.5470943979886466,15.873195511496034,1.275475874534827,0.36745517549999995,0.16641885049999994,-0.08374879099999966
22692.0,-0.19995759349999997,2.13588837,15.373983271499998,1.0213230450357818,-0.11528946906973743,-0.7850456068885454,15.52293025819099,1.2933247963657653,0.9289839545,-0.22153222349999968,-0.2825295865000008
22702.0,0.8666136605,1.9682927215,15.2362979055,0.9296600980502916,-0.06972415828792147,-0.9049532171590599,15.387331456078368,1.299257357647964,1.0665712539999999,-0.16759564850000008,-0.1376853659999977
22712.0,1.7321485895,1.936028843,15.290136414000001,0.8603792533923768,0.0792292213942826,-0.9094823465679851,15.509249433024268,1.2544671649387944,0.865534929,-0.03226387849999979,0.05383850850000016
22722.0,2.2983845604999997,2.0114419814999995,15.808515932999999,0.8062880092145684,0.23963894228657742,-0.823948995915499,16.100858562101596,1.1774630033820936,0.5662359709999998,0.07541313849999942,0.518379518999998
22732.0,2.711342592,2.1119601439999998,16.5902040045,0.7372741999322087,0.4461480447117985,-0.6843226557559526,16.94245033081005,1.100417566593118,0.4129580315000001,0.10051816250000023,0.7816880714999996
22742.0,2.8598152729999997,2.3334923675,17.4437748205,0.5848563416847958,0.7232679326849542,-0.5073916481642795,17.83000308505791,1.0595375064084112,0.14847268099999988,0.22153222350000012,0.8535708160000013
22752.0,2.6131780255,2.536980355,18.327157852499997,0.35783089390238143,1.0270355076775592,-0.32699616200739756,18.685547454250955,1.1356810171122205,-0.24663724749999982,0.20348798749999997,0.8833830319999976
22762.0,1.9728037804999998,2.6374985175,19.0155846825,0.08417373916518253,1.1949065111221298,-0.1519309113861064,19.298725709318177,1.2074641984430519,-0.6403742450000001,0.10051816250000023,0.6884268300000009
22772.0,1.030678915,2.6494626305,19.451294142,-0.19427958035649678,1.157601843690003,0.0007522369076095561,19.657944832938284,1.1737917829488993,-0.9421248654999999,0.011964112999999887,0.43570945949999995
23252.0,2.0756755389999997,0.689799761,5.1542771735,0.21900391454024848,-0.4267836166609214,0.16409411094325485,5.599180818185973,0.5069850562693007,1.0449966239999997,-1.9596628695,-14.2970169685
23262.0,1.9882982875,0.8646523304999999,5.102792261,0.10602351607089953,-0.1973600864862668,0.22564663767333887,5.544316242029851,0.3179754625614783,-0.08737725149999975,0.17485256949999994,-0.051484912499999425
23272.0,2.2289534785,0.9783114039999999,4.858606676,0.027152087173275788,0.10400940611409808,0.267482179843643,5.434278760294274,0.28827401709481126,0.24065519099999988,0.11365907350000004,-0.24418558500000032
23282.0,2.329471641,0.755700449,4.8190858765,-0.011486011807374684,0.3795323178216789,0.3484864010872038,5.4056553700660395,0.5153828484544732,0.10051816250000023,-0.22261095499999994,-0.03952079949999998
23292.0,2.1355941704999997,0.6479253655,4.7640705699999994,0.002637192499763432,0.5348788385539383,0.46013336800802906,5.260887580653288,0.7055671782838988,-0.19387747050000037,-0.10777508349999998,-0.05501530650000053
23302.0,1.7464662985,0.734125819,4.750929659,0.013561208287995941,0.5532658822236984,0.5432703815975269,5.114725591337678,0.7755190199628378,-0.38912787199999976,0.08620045349999994,-0.01314091099999981
23312.0,1.3849931795,0.7808054729999999,4.602456978,0.018357373072476358,0.4901146338987876,0.5701833586632795,4.8693401532722245,0.7521026592190742,-0.361473119,0.04667965399999996,-0.14847268099999944
23322.0,1.3251726145,0.858670274,4.3056096825,0.04340459316784698,0.4072446556848449,0.5517980603227712,4.586030073572322,0.687177755510106,-0.05982056499999988,0.07786480100000004,-0.2968472955000001
23332.0,1.519050085,0.9364370085,3.8601916394999995,0.11028735543352168,0.38965697281249806,0.5350097382478378,4.252705835734777,0.6709927549906479,0.19387747049999993,0.07776673450000005,-0.44541804300000054
23342.0,1.774022985,0.9603652345,3.5106826334999996,0.22113670688618553,0.4842520729413387,0.5611233545161769,4.048993885905861,0.7734732912414866,0.25497290000000006,0.023928225999999997,-0.3495090059999999
23352.0,1.9069030925,0.9148623785,3.5598139499999997,0.3770172983695551,0.6758386102620083,0.6256080343896115,4.14071587221284,0.9951307869238064,0.1328801074999999,-0.045502856000000036,0.04913131650000002
23362.0,1.7213612744999998,1.082458027,3.9056944954999997,0.5379593446837082,0.9095259797992851,0.6999503338783098,4.403322553452562,1.2675047275488687,-0.18554181800000014,0.16759564849999997,0.3458805455
23372.0,1.4663883745,1.313502701,4.568918235,0.682381849627735,1.1035105995121948,0.7489801232253347,4.974997291307661,1.4981161026181415,-0.25497289999999984,0.23104467400000006,0.6632237395000002
23382.0,1.250936274,1.2943797334999998,5.3266780805,0.8310681939343839,1.1861135423505824,0.7758913549618353,5.622611477719556,1.643029845444482,-0.21545210049999985,-0.0191229675000002,0.7577598454999999
23392.0,1.0845174235,1.3039902505,6.0593329019999995,0.9952094287674426,1.0907208267535802,0.809199218406895,6.292224076789849,1.6837212073535104,-0.16641885050000016,0.009610517000000263,0.7326548214999997
23402.0,1.06892485,1.222496989,6.8900542235,1.1814674758817736,0.8423779274873071,0.8598277293487464,7.07883792905529,1.6866445071328104,-0.015592573499999984,-0.08149326150000014,0.8307213215000004
23412.0,0.9684066875,0.922021233,7.992615882999999,1.3738533739998564,0.46693142544454697,0.9245776992684842,8.103693190125192,1.7205644339294792,-0.1005181624999999,-0.30047575599999987,1.1025616594999992
23422.0,0.549368533,-0.270271274,10.815362018999998,1.636851802995126,-0.16271879149268334,0.9951902301456708,10.832677782922737,1.9225412412353153,-0.41903815450000004,-1.1922925070000001,2.8227461359999992
23432.0,-2.2805364575,1.719301878,12.800227979,1.7687498252268414,-1.4428043514291444,0.9704100454258552,13.11497929072156,2.480293530412533,-2.8299049904999998,1.989573152,1.9848659600000023
23442.0,-3.523137079,4.6127539605,12.091501383499999,1.1827991621010452,-2.833205192067159,0.6711715998421754,13.412471796231875,3.142695790982313,-1.2426006215000003,2.8934520825,-0.7087265955000017
23452.0,-0.797280645,2.6351449215,10.683756776,0.50172107342455,-2.8678464870607425,0.3332985459363491,11.032783149909399,2.930418985330973,2.725856434,-1.9776090390000003,-1.4077446074999997
23462.0,0.8031646349999999,2.1958070015,9.7871347665,0.02475225945178358,-1.6197353590208177,0.05431115566355955,10.062536894659523,1.6208346643750489,1.6004452799999997,-0.4393379199999998,-0.8966220094999997
23472.0,1.9176904074999999,2.3466332784999997,9.29866553,-0.355488662046205,-0.06972415828792147,-0.1402057894712085,9.780051374179552,0.3884473072291851,1.1145257725,0.15082627699999973,-0.4884692365000003
23482.0,2.9603334355,1.590050231,9.552461631999998,-0.5228273400689174,1.074466575429757,-0.13354386771634613,10.126270637173118,1.202356358923564,1.042643028,-0.7565830474999997,0.253796101999999
23492.0,3.3865304445,0.6587126804999999,10.261090161,-0.37627378810820555,1.4208673080608276,0.14517474185163634,10.82554673626916,1.4769974869325306,0.426197009,-0.9313375505000001,0.7086285290000021
23502.0,3.0046594934999997,0.677835648,10.9566758455,-0.05465324019695044,1.2175556488252604,0.5395406129860151,11.38139646181181,1.3328663877942348,-0.38187095100000024,0.019122967500000088,0.6955856844999992
23512.0,2.167858049,0.802380103,11.436711362999999,0.27016475090395825,0.8778168379490521,0.8313160306881671,11.667981365723792,1.2388049630579463,-0.8368014444999998,0.124544455,0.4800355174999993
23522.0,1.1072688515,1.0070448885,12.121411666,0.5150431716050227,0.679036053451662,0.9328383426181732,12.2134681599289,1.2635453311863367,-1.0605891975,0.2046647855000001,0.6847003030000014
23532.0,0.1267999845,1.1806225934999999,12.9474257955,0.6147014718938989,0.6761039003083115,0.8374456270211712,13.001760752849233,1.2394714848585746,-0.980468867,0.1735777049999998,0.826014129499999
23542.0,-0.4561072915,1.4822751475,13.877586547999998,0.5973808243971072,0.7539124236914706,0.6221435558244027,13.963974429634499,1.1455611707837983,-0.582907276,0.30165255400000013,0.9301607524999991
23552.0,-0.6967624825,1.9288699885,14.601807650499998,0.46228361364648607,0.7762945260190459,0.39165362947677956,14.745128146332124,0.9847496616173692,-0.24065519099999994,0.446594841,0.7242211024999996
23562.0,-0.7769808794999999,2.331040705,15.018394142499998,0.2509800917660366,0.6550534842000078,0.20059941757796826,15.2180686249916,0.7296068804212841,-0.080218397,0.4021707164999999,0.4165864920000004
23572.0,-0.702744539,2.4603904185,14.988483859999999,0.05299866806605981,0.4152382636589789,0.07056540698738274,15.205328648865876,0.42451283971936005,0.07423634049999994,0.1293497134999999,-0.029910282499999497
23582.0,-0.5268132379999999,2.1599146625,14.398319663,-0.08023278571417934,-0.022827161286833837,-0.021896900795520858,14.568952352689847,0.08624299078952113,0.1759313010000001,-0.300475756,-0.5901641969999982
23592.0,-0.159259996,2.050962781,13.519643823,-0.10101791177617979,-0.45955915468412295,-0.09250943167270743,13.675254336799561,0.479538559557011,0.36755324199999995,-0.1089518814999999,-0.8786758400000014
23602.0,0.547014937,1.7696099925,12.5188751905,-0.0738378993348721,-0.6524773782240642,-0.17751045690333528,12.655156297026654,0.6802122659746486,0.706274933,-0.2813527885,-1.0007686324999998
23612.0,1.440008486,1.2943797334999998,11.683250544,-0.012285372604788085,-0.5261731362449905,-0.23506617964635226,11.84260894432151,0.576424503729204,0.8929935489999999,-0.47523025900000015,-0.8356246464999995
23622.0,2.167858049,0.7999284405,11.254699938999998,0.1377326579211325,-0.15978838367858486,-0.2467913015612502,11.489463205366098,0.32466684330699724,0.7278495629999999,-0.4944512929999998,-0.42855060500000164
23632.0,2.293579302,0.594086857,11.293043940499999,0.3541011252908695,0.27001639791753873,-0.21987832449549763,11.538903182291058,0.49663159349720193,0.12572125300000003,-0.20584158350000004,0.0383440015000005
23642.0,1.9524059484999998,0.609581364,11.9622497365,0.6173648443324422,0.6409320252221217,-0.20522279476650124,12.135851728884488,0.9132631644081154,-0.3411733535000001,0.01549450699999999,0.6692057960000017
23652.0,1.273687702,0.9699757514999999,13.2023986955,0.8737030969021014,0.849837464710331,-0.23613257581932084,13.299115182434662,1.241506911509023,-0.6787182464999999,0.36039438749999997,1.240148958999999
23662.0,0.47395539449999996,1.5289548014999998,14.570720569999999,1.011996005513124,0.7992106990977315,-0.313939353873228,14.658384441336864,1.3271893514631377,-0.7997323075,0.5589790499999999,1.3683218744999994
23672.0,0.047856451999999994,1.982708497,15.622974114999998,1.0082662369016122,0.5732499021590335,-0.41359590883285224,15.748356848320208,1.2313723362997695,-0.42609894249999997,0.4537536955000001,1.0522535449999992
23682.0,-0.06472388999999999,2.2760253985,16.088593857,0.8683728613665107,0.3467567797984774,-0.5057929265694527,16.248917905265323,1.0630795714629093,-0.11258034199999999,0.2933169014999999,0.4656197420000012
23692.0,0.0693330155,2.4076306415,16.119779004,0.6578687002834747,0.25109702882592017,-0.587596508610427,16.298735150640596,0.9171208217181839,0.1340569055,0.1316052430000001,0.03118514700000219
23702.0,0.318323859,2.3669330439999996,15.984447234,0.43643703275370205,0.29346489641808254,-0.6568773532683418,16.16187660794742,0.8414789279746427,0.2489908435,-0.04069759750000035,-0.1353317700000023
23712.0,0.5051405415,2.3167229959999998,15.7809592465,0.23392647964479998,0.3973852907403289,-0.6997775462823624,15.958102868027765,0.8380484958859772,0.1868166825,-0.05021004799999984,-0.20348798749999908
23722.0,0.5433864764999999,2.2915199055,15.607381541499999,0.032480577379614475,0.4943767279321578,-0.7146983660576619,15.784064461414896,0.8696304338472243,0.03824593499999995,-0.025203090499999803,-0.17357770500000136
23732.0,0.5913409949999999,2.3190765919999996,15.534321999,-0.15910595994105506,0.5929686320480655,-0.7160317976061856,15.717600337855181,0.9432009543383977,0.04795451849999999,0.02755668649999965,-0.07305954249999935
23742.0,0.499158485,2.411259102,15.508040177,-0.3408331323172087,0.6769050064349768,-0.7109685974461502,15.702313198429444,1.0391554062682067,-0.09218250999999994,0.09218251000000022,-0.02628182199999962
23752.0,0.43570945949999995,2.4244000129999996,15.4589088605,-0.5143014066729251,0.7142096738671035,-0.6907175421352599,15.653926705890045,1.1187904710733276,-0.06344902550000003,0.01314091099999981,-0.049131316500000466
23762.0,0.2621317545,2.5992525825,15.347603383,-0.6763098491600467,0.6697090139290042,-0.6440858351804754,15.568357544912153,1.1492396349277094,-0.17357770499999997,0.1748525695000005,-0.1113054775000002
