timestamp,ax,ay,az,gx,gy,gz,acc_mag,gyro_mag,dax,day,daz
129082.0,2.1067626195,-5.337955728,8.666038538499999,-0.6415847783623676,0.003258529713473413,-0.13166240278269625,10.393865692790998,0.6549630784622098,0.0,0.0,0.0
129092.0,2.184529354,-5.328345211,7.561123283,-0.7193915564162747,0.011252137687607444,-0.13192943815825137,9.50442089171134,0.7314753575468711,0.07776673449999993,0.009610516999999597,-1.104915255499999
129102.0,2.1809989599999997,-6.004709861499999,7.3395910595,-0.7156600424755108,0.07094065277656153,-0.15191345809358645,9.73051354785598,0.7350371224382932,-0.0035303940000002143,-0.6763646504999992,-0.22153222349999968
129112.0,2.1247087889999996,-6.2465418505,6.890740688999999,-0.6274615740552294,0.1703301723606306,-0.19348196488833538,9.540229544992195,0.6783477465646358,-0.05629017100000011,-0.24183198900000047,-0.44885037050000065
129122.0,1.8613021699999999,-6.332742304,6.5004360189999995,-0.4928984340557186,0.2489380565412032,-0.23531576172938748,9.26411028075716,0.600243725504376,-0.26340661899999973,-0.08620045350000005,-0.3903046699999999
129132.0,1.6458500695,-6.393837733499999,6.2394810624999995,-0.33621848177493563,0.2873073748170466,-0.26995705672297093,9.084112908969026,0.5181362828309121,-0.21545210049999985,-0.06109542949999902,-0.2609549565
129142.0,1.5787725835,-6.465622411499999,6.1472985525,-0.1734089331611486,0.29796610055897593,-0.3133895751588498,9.060136617737667,0.46590501285203384,-0.06707748600000007,-0.07178467800000021,-0.09218250999999977
129152.0,1.5046343095,-6.3854040145,6.210747577999999,-0.007668976733263084,0.28038016301588103,-0.3760084980619024,9.033863753198302,0.46909939206069645,-0.07413827399999984,0.08021839699999944,0.06344902549999976
129162.0,1.375284596,-6.154359340499999,6.234675803999999,0.1570045835216539,0.21243274990648983,-0.44635399356353384,8.867848047467746,0.5186617395275619,-0.12934971350000013,0.2310446740000005,0.023928225999999775
129172.0,1.3596920225,-5.929296723,6.304106886,0.29982836687085385,0.10584723781644811,-0.5095052418884446,8.76054140196491,0.6005799520843311,-0.015592573499999984,0.225062617499999,0.06943108200000037
129182.0,1.5189520184999998,-5.7521886239999995,6.3077353464999995,0.41147533379167917,-0.020189968787070404,-0.5739899217618791,8.670779342254402,0.7065295573737909,0.15925999599999985,0.17710809900000068,0.003628460499999875
129192.0,1.8601253719999997,-5.6563776535,6.264684153,0.4823549000444209,-0.11291931194552914,-0.6390069270571719,8.642970675376704,0.8085461479929051,0.3411733534999999,0.09581097049999965,-0.04305119349999931
129202.0,2.2036523215,-5.503197780499999,6.1090526175,0.5031382807771694,-0.12837420247193893,-0.6875026456530863,8.512449309613306,0.86156134617548,0.3435269495000002,0.1531798730000009,-0.15563153550000042
129212.0,2.510110134,-5.2960813325,5.907918226,0.47755873525994047,-0.04923399286950804,-0.7173460305329374,8.321816396098118,0.8631753351424672,0.30645781250000015,0.20711644799999895,-0.20113439150000012
129222.0,2.633477791,-5.0363031739999995,5.7426761735000005,0.4173378947491281,0.1229008499376847,-0.7221439406466698,8.079473037879223,0.843070227396117,0.12336765699999974,0.2597781585000005,-0.16524205249999913
129232.0,2.6921215579999997,-4.781330273999999,5.6564757199999995,0.3539196110486621,0.3403339681511383,-0.704556257774323,7.880631652543263,0.8587699466861276,0.05864376699999996,0.2549729000000003,-0.08620045350000094
129242.0,2.6992804125,-4.5825494785,5.722376408,0.32221046919842916,0.5359173094588748,-0.6723147905022318,7.812263834705134,0.9181688987145944,0.007158854500000089,0.19878079549999939,0.06590068800000015
129252.0,2.6454419039999997,-4.4569262919999995,5.9174306764999995,0.33473495191074043,0.6901991793474176,-0.6376752408379002,7.866291416604349,0.9975229861914002,-0.05383850850000016,0.12562318650000037,0.19505426849999985
129262.0,2.5281543699999998,-4.3263997805,6.1557322715,0.37150729392100895,0.7879917226659119,-0.6104952283965925,7.937401298765679,1.0637918256508225,-0.11728753399999992,0.1305265114999994,0.23830159500000025
129272.0,2.4192024885,-4.1767503015,6.420217622,0.4221340595336085,0.8210325507354165,-0.5947733024946277,8.032246141353257,1.0982016640607473,-0.1089518814999999,0.1496494789999998,0.2644853505000002
129282.0,2.4072383755,-4.055834307,6.7254986365,0.4954117081785905,0.7791970085651124,-0.5894448122882889,8.214433664707594,1.0954569482598688,-0.011964112999999887,0.12091599450000068,0.3052810145000002
129292.0,2.4886335705,-4.021118766,7.0140102795,0.587874015961494,0.6784758027617718,-0.5819835297360132,8.459257259324167,1.0698738722204195,0.08139519499999981,0.03471554099999974,0.28851164299999965
129302.0,2.657406017,-3.9996422024999996,7.215144670999999,0.683001441512193,0.5686928474820764,-0.5582679958599143,8.66702123631104,1.0495549909778197,0.16877244650000023,0.021476563500000267,0.20113439149999923
129312.0,2.8417710369999996,-3.973262314,7.391075971999999,0.7597418233931317,0.5028764813893701,-0.5095052418884446,8.859485316115176,1.0438812122358925,0.18436501999999955,0.026379888499999726,0.17593130100000032
129322.0,2.9207145695,-3.8535231175,7.611333331,0.8114367305079517,0.4900867086307557,-0.43303189538306114,9.017350447287054,1.0421761712939939,0.0789435325000003,0.11973919649999987,0.22025735900000054
129332.0,2.8740349155,-3.7362355834999996,7.8149193850000005,0.8332865074136687,0.504475202984197,-0.3445663915872245,9.126472375730586,1.0332413232517645,-0.04667965400000007,0.11728753400000036,0.20358605400000052
129342.0,2.659759613,-3.5399064504999997,7.9860454275,0.8338188328355269,0.5159332895235398,-0.26089705257586837,9.131384366421724,1.0146468731891685,-0.21427530249999993,0.19632913299999988,0.1711260424999992
129352.0,2.4227328824999996,-3.360346689,8.3069190155,0.8346181936329403,0.5177973011646697,-0.19054981174498492,9.282589510491968,1.000505274844954,-0.23702673050000023,0.17955976149999975,0.32087358800000043
129362.0,2.1761937015,-3.1592122975,8.613376828,0.8535375627245589,0.48715455548740527,-0.1452515363387241,9.429035038022228,0.9934505225337956,-0.24653918099999972,0.20113439150000012,0.3064578124999997
129372.0,1.9606435345,-3.0730118440000003,8.9090473255,0.8988358381308197,0.4000224832400923,-0.13432752055049157,9.625936271903093,0.9929590796116151,-0.21555016699999996,0.08620045349999961,0.29567049749999974
129382.0,1.9235743974999997,-3.1711764104999998,9.056245142,0.9713141259783883,0.24840398579009296,-0.1593747406458622,9.786320777556178,1.0151630309647317,-0.03706913700000025,-0.0981645664999995,0.1471978165000003
129392.0,2.11627507,-3.3400469234999997,9.2214871945,1.0731017279546975,0.0941221159015502,-0.20547237684953645,10.033461999799112,1.0966426897077008,0.19270067250000023,-0.1688705129999999,0.16524205250000001
129402.0,2.3629123174999997,-3.397415826,9.250220679,1.177289157652499,-0.00606676447993229,-0.2566332132132462,10.133724464635286,1.2049511079216209,0.24663724749999982,-0.057368902500000374,0.028733484500000017
129412.0,2.59876225,-3.3053313825,9.323182155,1.2500327355463707,-0.05083271446433485,-0.29660299841316834,10.227438891309733,1.2857445871809212,0.2358499325000003,0.09208444350000011,0.07296147599999969
129422.0,2.7339959534999996,-2.9988735699999998,9.3483852455,1.2814765873503005,-0.04816759669653951,-0.32751277946598795,10.191186548232793,1.3235433434580182,0.13523370349999952,0.30645781250000015,0.025203090499999803
129432.0,2.784304068,-2.6600538124999997,9.3711366735,1.284674030539954,-0.030848694528999777,-0.3445663915872245,10.13145784089801,1.330437899681663,0.05030811450000039,0.33881975750000004,0.022751428000001184
129442.0,2.833337318,-2.298482627,9.496857926499999,1.3006612464882223,0.008321729873508963,-0.33790446983236216,10.173550669275604,1.3438632222205777,0.04903324999999992,0.3615711854999999,0.12572125299999826
129452.0,2.880016972,-1.982512364,9.693088993,1.3446278356752115,0.06960896655728985,-0.31711934377036166,10.304408146935886,1.3832693529790654,0.04667965400000007,0.31597026299999986,0.1962310665000011
129462.0,3.0081898875,-1.824429166,9.976893444,1.399251405274878,0.11570660276096408,-0.28967404128275087,10.579043008417107,1.4335981177719523,0.12817291549999998,0.15808319799999992,0.28380445099999996
129472.0,3.1530341079999995,-1.7598033425,10.274917537499999,1.442952704415564,0.13569062269629914,-0.25530152699397457,10.8909348677196,1.4716328760779145,0.14484422049999957,0.06462582350000012,0.2980240934999987
129482.0,3.2392345614999996,-1.7562729485,10.534695696,1.4552084064230681,0.11091043797648366,-0.22092726737594623,11.160508439196214,1.4760560588428555,0.08620045350000005,0.0035303939999999923,0.2597781585000014
129492.0,3.4163426605,-1.8160935134999998,10.678363118499998,1.446682473027076,0.05495343682829346,-0.19454661573205193,11.357686019355791,1.4607390060088667,0.17710809900000024,-0.05982056499999988,0.1436674224999983
129502.0,3.5995308825,-1.925045395,10.7597583135,1.4397552612259104,-0.01112996463996784,-0.17696067818895705,11.508032903664045,1.4506323345236973,0.18318822200000007,-0.10895188150000013,0.08139519500000247
129512.0,3.6784744149999997,-1.8484554584999997,10.8423303065,1.4389559004284969,-0.05109974983988998,-0.15724194829992513,11.597589753009736,1.4484233835853526,0.07894353249999986,0.07658993650000023,0.0825719929999984
129522.0,3.6845545379999995,-1.6880186645,10.903425735999999,1.442685669040009,-0.04816759669653951,-0.1228694340111488,11.632284467621306,1.44870941007476,0.006080122999999826,0.16043679399999977,0.06109542949999991
129532.0,3.677297617,-1.544351242,11.005120696499999,1.4437520652129774,-0.014060372454066319,-0.07410668003967924,11.705563637313388,1.4457211072356895,-0.00725692099999975,0.14366742249999986,0.10169496049999971
129542.0,3.6306179629999997,-1.4606024509999997,11.080533834999999,1.4397552612259104,0.027506389011430633,-0.020013690532618977,11.75129679574579,1.4401570613904837,-0.04667965400000007,0.08374879100000032,0.07541313850000009
129552.0,3.574327792,-1.3971534255,11.1990962335,1.4288295001084257,0.07200704894953006,0.02501754949808672,11.838395723502568,1.430861500377099,-0.05629017099999967,0.06344902549999976,0.11856239850000172
129562.0,3.3947680304999994,-1.337234794,11.336781599499998,1.4045816408104688,0.11863701057506255,0.06285454235207179,11.909461109132975,1.410983706310709,-0.17955976150000064,0.059918631499999986,0.1376853659999977
129572.0,3.1841211885,-1.3324295354999998,11.489961472500001,1.3688756949731686,0.15434295641236254,0.08976751941782435,11.997216795976549,1.3804711601568551,-0.2106468419999996,0.004805258500000242,0.1531798730000027
129582.0,3.0332949114999996,-1.4461866755,11.606072208499999,1.3307716667436285,0.16606807832726048,0.09669647654824184,12.08276648907201,1.344575042243373,-0.15082627700000018,-0.11375714000000015,0.11611073599999777
129592.0,2.9626870315,-1.5874024355,11.654026727,1.2886708345270212,0.16660040374911875,0.0761783858617965,12.129043651190308,1.301626429035016,-0.07060787999999985,-0.14121576000000013,0.04795451850000099
129602.0,2.9171841755,-1.6448694044999999,11.5582157565,1.2353772058173742,0.18072360805625684,0.034344589020744415,12.033615846679362,1.2489985644335297,-0.0455028559999997,-0.05746696899999981,-0.09581097050000054
129612.0,2.8130375525,-1.568279468,11.4636796505,1.1714265966950501,0.23987805239410065,-0.0093567101199416,11.907503176183214,1.1957714244324469,-0.1041466230000001,0.07658993649999979,-0.09453610599999962
129622.0,2.670546928,-1.349198907,11.377479197,1.1072089521971709,0.3443307721382053,-0.048792424568753476,11.764318571998464,1.1605412724940665,-0.14249062450000016,0.21908056100000017,-0.08620045350000005
129632.0,2.4454843105,-1.0523516115,11.34629405,1.0669738769509454,0.4594422176242393,-0.07330731924226583,11.654450913543448,1.1639992991774941,-0.2250626174999999,0.2968472954999999,-0.031185147000000413
129642.0,2.1989451295,-0.7183371124999999,11.4779973595,1.0616436414153547,0.5721573260472852,-0.07330731924226583,11.7087911961242,1.208232258368283,-0.24653918099999972,0.33401449900000013,0.13170330950000064
129652.0,1.9534846799999999,-0.45022330149999995,11.7329702595,1.0683055631702172,0.6659513200494603,-0.049324749990611746,11.902999392023835,1.259841604304958,-0.24546044950000034,0.2681138109999999,0.2549729000000003
129662.0,1.7272452645,-0.2874329115,12.0071641935,1.0613783513690516,0.7376302470996156,-0.005359906132874586,12.134166055070267,1.2925366976549946,-0.22623941549999982,0.16279038999999995,0.2741939339999995
129672.0,1.5237572769999999,-0.15572960199999997,12.3554964015,1.034465374303299,0.7919885266529789,0.04446924401156352,12.450075472688066,1.3035881062073944,-0.2034879875000002,0.13170330950000003,0.3483322080000004
129682.0,1.318994425,-0.0479545185,12.684705641999999,0.9710470906028331,0.8117055112127588,0.0940313587804465,12.753187960396893,1.2691099974137348,-0.20476285199999977,0.10777508349999997,0.3292092404999991
129692.0,1.017341871,0.063350959,12.895352483999998,0.8708564648920987,0.7879917226659119,0.14412579897118774,12.935575499880201,1.1832557556857426,-0.30165255400000013,0.1113054775,0.21064684199999917
129702.0,0.6881326305,0.21898249449999999,12.949289058999998,0.7648050235531672,0.7232400074169223,0.19981751007307483,12.96940889106336,1.071414891492737,-0.3292092405,0.15563153549999997,0.05393657499999982
129712.0,0.411683167,0.21182364,12.9229091705,0.6835337669340513,0.6243828132547115,0.26057067600574546,12.93120001057315,0.9617532870861493,-0.27644946349999994,-0.007158854499999978,-0.026379888499997506
129722.0,0.22486648449999996,0.12317152399999999,12.912121855499999,0.6467614249237827,0.5122017755827759,0.321323841938416,12.914667125847906,0.885381280058289,-0.18681668250000005,-0.08865211600000002,-0.01078731500000174
129732.0,0.20329185449999998,-0.052759777,12.987534993999999,0.6587535822142357,0.3997554478645372,0.35702978777571603,12.989233094857822,0.849253183412719,-0.021574629999999984,-0.17593130099999998,0.07541313850000009
129742.0,0.21407916949999997,-0.247912112,13.139636135499998,0.6963235396926657,0.272386555041747,0.34930321517713714,13.14371819841811,0.8252718603167803,0.010787314999999992,-0.19515233499999998,0.15210114149999931
129752.0,0.1650459195,-0.25389416849999996,13.2473131525,0.7264339599480719,0.1221014891402713,0.3048025552390377,13.250773870410036,0.7971948754829996,-0.04903324999999997,-0.0059820564999999715,0.1076770170000021
129762.0,0.1411176935,-0.038442067999999996,13.2700645805,0.7376267564411115,-0.04603654967985443,0.24618218165230418,13.270870580585568,0.7789854056959916,-0.023928225999999997,0.21545210049999997,0.022751427999999407
129772.0,0.23330020349999997,0.22378775299999998,13.170723215999999,0.724835238353245,-0.18699457605867248,0.2006168708704882,13.174690128265912,0.7749840147460039,0.09218250999999997,0.262229821,-0.09934136450000075
129782.0,0.44757550599999996,0.40932957099999995,12.9780225435,0.6835337669340513,-0.26426902869072144,0.18409558417110988,12.992187793857523,0.7556108219020514,0.2142753025,0.18554181799999997,-0.19270067249999911
129792.0,0.5959501205,0.585260872,12.6655826745,0.5982657063278684,-0.27812519762230437,0.19981751007307483,12.693095419125026,0.6893493441298341,0.1483746145,0.17593130100000004,-0.3124398690000003
129802.0,0.6653812024999999,0.7146105855,12.386583481999999,0.47835809605735385,-0.21630563551666523,0.24884555409084752,12.425009086117573,0.5809808136338634,0.06943108199999992,0.12934971350000002,-0.2789991925000006
129812.0,0.689407495,0.6224280754999999,12.236934002999998,0.3533872856268038,-0.08360825248753637,0.32958448528810524,12.272133196682246,0.49040681731530317,0.0240262925000001,-0.0921825100000001,-0.1496494790000007
129822.0,0.6294888634999999,0.435611393,12.123274929499999,0.2292158359936673,0.07706850378031362,0.42631063243363093,12.14741983020366,0.49012264696826074,-0.0599186315000001,-0.1868166824999999,-0.11365907349999915
129832.0,0.426000876,0.27762626149999997,12.155538808,0.12396201012289726,0.22975165207402956,0.5163748578242943,12.166169356055393,0.5786150666699886,-0.2034879874999999,-0.15798513150000004,0.03226387850000023
129842.0,0.242812654,0.088455983,12.315975602,0.06640628737988026,0.3408662935729966,0.5728641843943427,12.318686515815324,0.669905216325091,-0.18318822199999998,-0.18917027849999996,0.16043679400000066
129852.0,0.0967916355,-0.159259996,12.524268848,0.05175075765088387,0.36165141963499703,0.5835229101362721,12.525655373832219,0.6884539758730086,-0.1460210185,-0.24771597899999998,0.2082932460000002
129862.0,0.06325289249999999,-0.3448998805,12.640379584,0.07013780132064414,0.2873073748170466,0.541422077919665,12.645242302288342,0.6169300651266761,-0.03353874300000001,-0.1856398845,0.11611073599999955
129872.0,0.1877973475,-0.42864867149999997,12.600858784499998,0.12129863768435392,0.16073784279166978,0.4524242487019701,12.609545972564497,0.4952148164412509,0.124544455,-0.08374879099999999,-0.03952079950000176
129882.0,0.46307001299999995,-0.338917824,12.456014563999998,0.18604860760409156,0.04775744432232084,0.3466380974093418,12.469226036404375,0.3962989130128787,0.27527266549999996,0.08973084749999999,-0.14484422049999957
129892.0,0.7635457689999999,-0.1377834325,12.3171524,0.2542630560890379,-0.03271270617012972,0.2581725936135052,12.341565121995469,0.3638308823201167,0.300475756,0.20113439149999998,-0.13886216399999896
129902.0,0.9635033625,0.0550153065,12.221439495999999,0.3158155828191219,-0.1273078062989704,0.21500536522392946,12.259484033510008,0.4027084143286717,0.19995759350000009,0.192798739,-0.09571290400000088
129912.0,1.0867729529999999,0.280077924,12.2513497785,0.38376299592851315,-0.24828181274245337,0.22912856953106758,12.302645670344104,0.5112903255079837,0.12326959049999986,0.22506261749999998,0.029910282500001273
129922.0,1.1621860915,0.40815277299999997,12.162795728999999,0.44691598958267603,-0.38337727816382244,0.27762428812698203,12.225009821786003,0.6509894657480849,0.07541313850000009,0.128074849,-0.08855404950000079
129932.0,1.23759923,0.410506369,11.8706556255,0.45490959755681004,-0.5179421634925853,0.33944385023262114,11.942053102892356,0.7683937494106943,0.07541313850000009,0.0023535960000000133,-0.2921401034999995
129942.0,1.304676716,0.40687790849999994,11.407389479499999,0.3880268352911353,-0.569102999856295,0.3764814822891928,11.48896277749672,0.7849722006913084,0.06707748599999985,-0.0036284605000000414,-0.4632661460000005
129952.0,1.4603082514999999,0.24889277699999998,10.856746082,0.2635883502824436,-0.5067493669995456,0.37275171367768095,10.95734380645529,0.6820686031541903,0.15563153549999997,-0.15798513149999996,-0.5506433974999982
129962.0,1.6003472134999999,0.09443803949999999,10.3694536435,0.11170630811539307,-0.3340821987704946,0.34184193262486134,10.492644976923467,0.4908616115656221,0.140038962,-0.1544547375,-0.4872924385000008
129972.0,1.5812242459999999,-0.0132389775,10.013962581,-0.03724707156681099,-0.09133482508611526,0.3016051120493841,10.138041820802066,0.31732481502103793,-0.019122967499999977,-0.10767701699999999,-0.3554910625000005
129982.0,1.4255927105,-0.056388237499999994,9.8236155045,-0.15822107801029395,0.149279756252327,0.27495917035918666,9.926676976199632,0.3506007708464228,-0.15563153549999997,-0.043149259999999995,-0.19034707650000016
129992.0,1.257997062,-0.111403544,9.7661485355,-0.2386929738319965,0.3568552548505166,0.2650998054146707,9.847467927089948,0.5045769668762988,-0.16759564849999986,-0.0550153065,-0.057466969000000034
130002.0,1.003024162,-0.1389602305,9.757812883,-0.2869216570523558,0.5071403207519923,0.2773572527514269,9.810213029025272,0.6453234753764365,-0.25497290000000006,-0.02755668650000001,-0.008335652499999568
130012.0,0.7301050925,-0.1413138265,9.757812883,-0.3053087007221161,0.5913419851852068,0.3002734258301124,9.786109303665848,0.7301115506819215,-0.2729190695,-0.0023535959999999856,0.0
130022.0,0.46434487750000003,-0.10542148749999998,9.713486825,-0.30610806151952946,0.6131917620909237,0.3149289555591088,9.725150700875323,0.7542456691774685,-0.26576021499999997,0.03589233900000001,-0.044326057999999335
130032.0,0.2788030595,-0.1856398845,9.7422203095,-0.2967810219968718,0.5961381499696872,0.3130631985887269,9.747976706554956,0.7358452521946401,-0.18554181800000003,-0.08021839700000001,0.028733484500000017
130042.0,0.21054877549999998,-0.26585828149999996,9.799687278499999,-0.2621414723325403,0.5479077214200759,0.28242045291146245,9.805553639091542,0.6698375436858754,-0.06825428400000003,-0.08021839699999997,0.05746696899999826
130052.0,0.218884428,-0.2789991925,9.884710934,-0.19046254528238518,0.45890989220238104,0.21154088665872073,9.891069769796172,0.5400220523691633,0.008335652500000013,-0.013140911000000033,0.08502365550000057
130062.0,0.3146953985,-0.294591766,10.034262346499998,-0.06735749182221716,0.32914291698735065,0.10841985313388774,10.043517229577482,0.35302543259812863,0.09581097050000001,-0.015592573499999984,0.14955141249999926
130072.0,0.5145549255,-0.214373369,10.260599828499998,0.09731606843269983,0.188984251405946,-0.010955431714768408,10.275730219955511,0.2128508537420526,0.19985952700000004,0.08021839699999997,0.22633748199999992
130082.0,0.7875720615,-0.049131316499999994,10.4137797015,0.256394103105723,0.06880960575987644,-0.12713327337377095,10.44363400879645,0.29433920423713134,0.273017136,0.16524205250000001,0.1531798730000009
130092.0,1.0844193569999998,0.14356935599999998,10.565782776499999,0.3603144974279694,-0.005801474433629151,-0.21026854163401684,10.622256972131797,0.417220629599341,0.2968472954999998,0.19270067249999998,0.15200307499999965
130102.0,1.3657721455,0.42364728,10.624524609999998,0.3970868394382379,-0.006866125277345693,-0.24890664061466733,10.720323398096285,0.46869992263008997,0.28135278850000023,0.28007792400000003,0.058741833499999174
130112.0,1.6327091585,0.6631256729999999,10.717883917999998,0.3768357841273477,0.06134832320760068,-0.24624152284687195,10.861791313322332,0.4543167535246788,0.26693701299999995,0.2394783929999999,0.09335930800000014
130122.0,1.8038352009999998,0.8367033779999998,10.839976710499998,0.31821366521136213,0.1788578510858749,-0.20893685541474516,11.020843391469896,0.42060037704798603,0.17112604249999985,0.17357770499999992,0.12209279250000016
130132.0,1.892487317,0.986352857,11.0351290455,0.24253793417414002,0.31395506183649596,-0.14711729330910603,11.239593998644063,0.42312637397923447,0.08865211600000023,0.14964947900000014,0.1951523350000013
130142.0,1.8577717759999999,1.0498018825,11.293632339499998,0.16473115612023279,0.4282671465251166,-0.0738396446641241,11.493456024364601,0.46475950309122066,-0.03471554100000018,0.06344902549999998,0.2585032939999987
130152.0,1.7619608054999998,1.0749069064999999,11.633628895,0.10610903720424726,0.5007436890434331,-0.001895427567665842,11.815297372657978,0.5118661568602705,-0.09581097050000009,0.02510502399999992,0.33999655550000085
130162.0,1.6242754394999999,1.095206672,11.930476190499999,0.08399397025222712,0.520462418932465,0.050331804969012475,12.090244434660683,0.5295936245379125,-0.13768536599999992,0.020299765500000122,0.2968472954999992
130172.0,1.4518745324999998,1.0378377694999998,12.246544519999999,0.09678374301084156,0.4834247868758934,0.08204094681924545,12.375899950074936,0.49979729334220074,-0.1724009070000001,-0.05736890250000015,0.3160683295000002
130182.0,1.293889401,1.000670566,12.576930558499999,0.13621945745965344,0.40082184403750576,0.08577071543075733,12.68284958662721,0.4319380822221316,-0.15798513149999982,-0.03716720349999991,0.33038603850000037
