timestamp,ax,ay,az,gx,gy,gz,acc_mag,gyro_mag,dax,day,daz
63272.0,-0.49356869449999996,-1.7598033425,7.687334868499999,0.07624994436112828,0.14228622193958573,-0.08060105018635014,7.901622317025821,0.18043268068744847,0.0,0.0,0.0
63282.0,-0.718631312,-1.6760545515,7.5724009305,0.06372546164881696,0.1366889510284399,-0.11257548208288624,7.788892454927592,0.18819681974412936,-0.2250626175,0.08374879099999988,-0.11493393799999918
63292.0,-0.41580195999999997,-2.0782252679999997,7.5735777285,0.03867824155344634,0.06341304771270997,-0.1432182277601507,7.864540110147874,0.16133406879093942,0.302829352,-0.4021707164999997,0.0011767980000003675
63302.0,-0.19309293849999998,-2.180018295,7.504146646499999,0.04587248873016696,0.01251750139530333,-0.15840782824025734,7.816775648668091,0.16539048676171067,0.2227090215,-0.10179302700000026,-0.06943108200000125
63312.0,-0.07815900049999999,-2.124904922,7.242014892,0.06772226563588397,-0.054630550916674514,-0.18345504833562798,7.547722136701163,0.203043239523369,0.11493393799999999,0.05511337300000019,-0.2621317544999986
63322.0,0.08698498549999999,-2.0614558965,7.0648087265,0.10955780780618805,-0.0778120140416632,-0.19171569168531713,7.359938120864034,0.2341207577702097,0.16514398599999996,0.06344902549999976,-0.17720616550000035
63332.0,0.1109132115,-1.847180594,7.001359701,0.1751071385233391,-0.05009967617849723,-0.1773254520026239,7.2417826224019075,0.25419835452448747,0.02392822600000001,0.21427530250000015,-0.06344902549999976
63342.0,0.0379517355,-1.6185875825,6.9834135315,0.24705135561979732,-0.02292140906644153,-0.137889737553812,7.168635201235166,0.28385443986281045,-0.072961476,0.2285930114999999,-0.017946169500000053
63352.0,0.07747253500000001,-1.5264050725,7.1103115825,0.3229941220325746,-0.006934193118173471,-0.0997857093242718,7.272719246558793,0.3381278954584225,0.03952079950000001,0.09218251,0.1268980509999995
63362.0,0.0942419065,-1.4365761585,7.288694545999999,0.39094153514196583,-0.0010716321607245184,-0.07287273225851924,7.429515514554197,0.39767683789914976,0.01676937149999999,0.08982891399999993,0.17838296349999982
63372.0,0.0761976705,-1.3073245115,7.476589959999999,0.43730620672119525,-0.01999100125234305,-0.05049062993094396,7.590408480004955,0.4406650227539911,-0.018044236000000005,0.12925164700000003,0.18789541399999976
63382.0,0.090613446,-1.3743039309999998,7.637026754,0.45009597947980967,-0.07541393164942299,-0.025441664506321342,7.760225494962748,0.45707869139084284,0.014415775500000005,-0.06697941949999975,0.16043679400000066
63392.0,0.1779906975,-1.4820790144999998,7.737544916499999,0.4341087635315416,-0.16734391401046833,-0.007855726963226478,7.8802182855852925,0.46531292328641344,0.08737725149999999,-0.10777508349999998,0.10051816249999934
63402.0,0.24506818349999998,-1.6317284935,7.717245150999999,0.3970693861457179,-0.27579343774163995,-0.012918927123262028,7.891670863112372,0.4836248715621491,0.06707748599999999,-0.14964947900000025,-0.0202997654999999
63412.0,0.2797837245,-1.613782324,7.641832012499999,0.3485736675498035,-0.3583981259092796,-0.040097194235317726,7.815380274114608,0.5015581754392501,0.034715541000000016,0.017946169500000053,-0.07541313850000009
63422.0,0.24977537549999998,-1.381560852,7.487377274999999,0.2971457958105386,-0.412756405462643,-0.07154104603924757,7.617868244080594,0.5135967245677389,-0.030008349000000017,0.23222147199999998,-0.15445473750000005
63432.0,0.17563710149999998,-1.0870671525,7.303012255,0.23905774764566332,-0.4242144920019858,-0.09525483458609452,7.385563714581844,0.49616532068046104,-0.074138274,0.29449369950000004,-0.18436501999999955
63442.0,0.10738281749999999,-0.8668097934999999,7.046862557,0.18230138570005971,-0.4170184994960131,-0.11364187825585478,7.100786025846035,0.46909775169316975,-0.06825428399999998,0.2202573590000001,-0.25614969799999976
63452.0,0.18279595599999998,-0.8475887595,6.814641084999999,0.1417992750782793,-0.3799808674394415,-0.13442525898860327,6.869581805621843,0.42727350056715313,0.07541313849999999,0.01922103399999986,-0.23222147200000087
63462.0,0.308517209,-0.9948846425,6.6721504605,0.11408693721511333,-0.2933811206139868,-0.14988014951501305,6.752967502341609,0.3486436151638038,0.12572125300000003,-0.14729588299999996,-0.14249062449999883
63472.0,0.440122452,-1.209159945,6.571632298,0.08824035632232931,-0.15082262731109,-0.16613440083883624,6.696426405588555,0.24111089675705388,0.13160524299999998,-0.21427530249999993,-0.10051816250000023
63482.0,0.5371102205,-1.3875429085,6.4937674969999994,0.06292610085140356,0.024509658685756372,-0.18238865216265945,6.662040154261143,0.19448917187073647,0.09698776850000002,-0.17838296350000005,-0.07786480100000048
63492.0,0.567020503,-1.5144409595000001,6.5236777795,0.0461395241057221,0.19158130133291357,-0.1938467387020022,6.721117127485259,0.2764214333414062,0.02991028249999994,-0.12689805100000018,0.029910282500000385
63502.0,0.4616970819999999,-1.4844326104999999,6.6254708065,0.0376118453804778,0.3682452735490316,-0.20370610364651817,6.805407245597204,0.4225108389934773,-0.10532342100000003,0.030008349000000267,0.10179302700000026
63512.0,0.30724234449999993,-1.3599862219999999,6.803853769999999,0.05253441048502932,0.4790946250016954,-0.21596355098327433,6.945242004842372,0.5281399240199798,-0.1544547375,0.1244463885,0.17838296349999894
63522.0,0.1289574475,-1.1756212019999999,7.062455130499999,0.09356884652866801,0.4958812017473769,-0.22608820597409346,7.16079518658252,0.5529639881291658,-0.17828489699999994,0.18436502,0.25860136050000015
63532.0,-0.043443459499999997,-1.1038365239999999,7.2491737465,0.14899352225499993,0.3831678386535831,-0.22369012358185325,7.332861816019348,0.46803197929252044,-0.172400907,0.07178467799999999,0.18671861600000117
63542.0,-0.11414940599999998,-1.2271061144999997,7.427556709999999,0.2427875162571752,0.16013919485823572,-0.20956866460396714,7.529104739834574,0.3584820287881419,-0.07070594649999998,-0.12326959049999986,0.17838296349999894
63552.0,0.0163771055,-1.417453191,7.6226109785,0.4018655509301984,-0.12257796402606576,-0.1975765073135141,7.753298645596555,0.4642819773924187,0.13052651149999997,-0.19034707650000016,0.19505426850000074
63562.0,0.3144992655,-1.5299354665,7.751960691999999,0.587591272622671,-0.3821119144561265,-0.18105696594338774,7.907749799403603,0.7239161855824756,0.29812216,-0.11248227550000012,0.12934971349999902
63572.0,0.5239693095,-1.314483366,7.805799200499999,0.7296156951744575,-0.5521157102466342,-0.14588334552794602,7.933026630190713,0.9265272638452029,0.20947004399999997,0.21545210050000008,0.05383850850000016
63582.0,0.5957539875,-0.979292069,7.797463548,0.8183464890165972,-0.5886210168813476,-0.09951867394871668,7.881267255487355,1.0129509583710035,0.07178467799999999,0.33519129699999994,-0.008335652499999568
63592.0,0.6017360439999999,-0.7387349444999999,7.9350508474999994,0.877502678683693,-0.5004225484610662,-0.05928359870249139,7.992049019950056,1.0119032676992612,0.005982056499999944,0.2405571245000001,0.13758729949999982
63602.0,0.564666907,-0.6764627169999999,8.19247541,0.9041486203738904,-0.3232245054938379,-0.03849847264049092,8.2397271718672,0.960958345128131,-0.03706913699999992,0.062272227499999944,0.2574245625000007
63612.0,0.34440954799999995,-0.5985979159999999,8.6713341295,0.8764362825107245,-0.09140289292694304,-0.036100390248250715,8.698791467050158,0.8819287297240683,-0.22025735900000004,0.07786480100000004,0.4788587194999998
63622.0,0.025987622499999998,-0.5675108354999999,9.2650287205,0.8100875909961601,0.10551387992931718,-0.05128999072835736,9.282429697909,0.8185387877752742,-0.3184219255,0.031087080499999975,0.5936945910000002
63632.0,-0.082964259,-0.827288994,9.917465145,0.740274420916387,0.1731942576631533,-0.07393912843148777,9.952256279364736,0.7638517289787271,-0.1089518815,-0.2597781585000001,0.6524364244999994
63642.0,-0.08659271949999998,-1.1025616594999998,10.397500662499999,0.690977596193807,0.10018364439372651,-0.09232442677199604,10.456154194480765,0.7042802005058485,-0.003628460499999986,-0.27527266549999985,0.4800355174999993
63652.0,-0.06864655,-1.1445341214999998,10.650119966499998,0.6736586940262673,-0.0684867198482575,-0.11310780750474451,10.711663083057953,0.6865128133919134,0.017946169499999984,-0.04197246199999993,0.25261930399999954
63662.0,0.10973641349999999,-1.163657089,10.7566201855,0.6957737609782875,-0.27099727295715953,-0.13282653739377645,10.819936123486766,0.7584085557614105,0.1783829635,-0.0191229675000002,0.10650021900000084
63672.0,0.40423011299999995,-1.0558820055,10.7674075005,0.7562616368646549,-0.46898044198638833,-0.14135421611902074,10.826603949328632,0.9010301508682038,0.29449369949999993,0.10777508349999998,0.010787314999999964
63682.0,0.5969307855,-0.7434421365,10.739948880499998,0.8215439322062508,-0.5968816602310367,-0.12962909420412286,10.782185980994507,1.0237215690456312,0.19270067250000006,0.312439869,-0.027458620000000877
63692.0,0.6844061035,-0.4035436475,10.829679727999999,0.8729718039455158,-0.6341863276631635,-0.09152506597458264,10.858785484620265,1.082889147780339,0.08747531799999997,0.339898489,0.08973084750000027
63702.0,0.6987238124999999,-0.20593965,10.9147033835,0.9118751929724694,-0.5638408321615321,-0.03716678642121925,10.938984233254155,1.072760095074415,0.014317708999999956,0.1976039975,0.08502365550000057
63712.0,0.6269391344999999,-0.147295883,11.1481016535,0.9281294442962926,-0.3861104637724455,0.007599163563183311,11.166687925803505,1.0052677767098563,-0.07178467799999999,0.05864376700000001,0.23339827000000035
63722.0,0.636451585,-0.36039438749999997,11.4736824335,0.9161390323350916,-0.15029030188923173,0.02625149727924671,11.496971049776414,0.9287556419851439,0.009512450500000047,-0.21309850449999998,0.325580780000001
63732.0,0.6161518195,-0.5100438665,11.9106667575,0.8644458705495235,0.10204940136410845,0.017990853929557547,11.937494310727146,0.8706344894696114,-0.02029976550000001,-0.14964947900000003,0.4369843239999991
63742.0,0.6041877065,-0.610562029,12.3643223865,0.7802424607870571,0.301629546658912,-0.013985323296230564,12.394123480635788,0.8366326973651002,-0.011964112999999998,-0.10051816250000001,0.453655629
63752.0,0.636451585,-0.6859751675,12.8144476215,0.6856491059874683,0.426600357089462,-0.0678095320984837,12.84856802895337,0.8103707138425514,0.03226387850000001,-0.07541313849999998,0.4501252349999998
63762.0,0.587418335,-0.61781895,13.074225779999999,0.6011804061786987,0.45164757718483267,-0.1269639764363275,13.101989936711517,0.7625767279839052,-0.04903325000000003,0.0681562175,0.25977815849999963
63772.0,0.660379811,-0.4429663805,13.123357096499998,0.5755991153322179,0.38982976040844547,-0.1672007970118048,13.1474264474568,0.7150088742055728,0.07296147600000003,0.1748525695,0.04913131649999869
63782.0,0.659203013,-0.159259996,13.075402578,0.5942514490482813,0.3136199586201131,-0.1687995186066316,13.092977695522254,0.6928098877922385,-0.0011767980000000344,0.28370638449999996,-0.047954518499997434
63792.0,0.6233106740000001,0.17465643649999998,13.041961901499999,0.6121061672961833,0.27631529118798626,-0.13256124734747332,13.058016361887079,0.684541148861515,-0.035892338999999884,0.33391643249999997,-0.03344067650000149
63802.0,0.520340849,0.36980877149999997,13.032351384499998,0.6121061672961833,0.27924744433133675,-0.06674488125476714,13.047976691261194,0.6760976071406547,-0.10296982500000007,0.19515233499999998,-0.009610517000000485
63812.0,0.45090976699999996,0.525440307,13.1388516035,0.6195657045192071,0.29203721708995123,-0.003326597554301192,13.157082829905372,0.6849514323171484,-0.06943108200000003,0.15563153550000003,0.10650021900000084
63822.0,0.40903537149999997,0.5182814525,13.281342228,0.6118391319206281,0.31601978634160527,0.0425057486030699,13.297743303899336,0.6899437421798164,-0.041874395499999995,-0.007158854499999978,0.1424906245000006
63832.0,0.298906692,0.4931764285,13.392647705499998,0.5409595656678865,0.32108124117238884,0.07314849428033433,13.40505802910919,0.6333096535944089,-0.11012867949999999,-0.02510502400000003,0.11130547749999842
63842.0,0.161221326,0.4716017985,13.335180736499998,0.42957788879336434,0.2965663464988765,0.07741233364295648,13.34449121725614,0.5277133974193796,-0.13768536599999998,-0.021574629999999984,-0.057466969000000034
63852.0,0.042756994,0.39020660349999997,13.014405214999998,0.3091379531009916,0.24593958088627696,0.061158082319133306,13.020323822938124,0.39974099430373955,-0.118464332,-0.08139519500000003,-0.3207755214999999
63862.0,0.000784532,0.29557243099999997,12.563103181999999,0.21134540978249736,0.19690979153925225,0.029715975844455452,12.56657969532825,0.290384895372593,-0.041972462,-0.0946341725,-0.45130203299999927
63872.0,-0.12366185649999999,0.420116886,12.245858054499998,0.20921436276581226,0.17399361846056668,-0.012918927123262028,12.253686381804368,0.2724175609804227,-0.12444638849999999,0.12454445500000005,-0.31724512750000144
63882.0,-0.1799520275,0.536227622,12.136906172999998,0.2971457958105386,0.1350902294336131,-0.04969126913353056,12.150078775341441,0.33017300962435664,-0.056290171000000014,0.11611073599999994,-0.10895188149999946
63892.0,-0.18828767999999999,0.5745716235,12.1776037705,0.3976034568968282,0.06314601233715485,-0.07660250087003113,12.192605069970364,0.40980955448834416,-0.008335652499999985,0.03834400150000006,0.04069759750000124
63902.0,-0.13082071099999998,0.6116407604999999,12.172798511999998,0.45089534027722306,-0.04557054676957195,-0.08939401895789757,12.18885729230107,0.46192485670510897,0.05746696900000001,0.03706913699999992,-0.0048052585000011305
63912.0,-0.056682437,0.793554118,12.049528921499999,0.4378385321430535,-0.14602646252660956,-0.09552186996164966,12.075764500309036,0.4713286917090761,0.07413827399999998,0.18191335750000004,-0.12326959049999964
63922.0,0.021182364,0.8965239429999999,11.775433054,0.373355597598871,-0.19132648326212237,-0.09951867394871668,11.809531213479758,0.43116608391705885,0.077864801,0.10296982499999996,-0.27409586749999804
63932.0,0.12170052649999999,0.9264342254999999,11.513203233,0.2862217800223061,-0.18146711831760642,-0.09365611299126772,11.55105796352394,0.35160302884114447,0.1005181625,0.02991028249999994,-0.26222982100000003
63942.0,0.11571846999999999,1.126391819,11.291769076,0.21987308850774165,-0.10845650504817964,-0.08113337560820841,11.348400687317978,0.258243321646043,-0.005982056499999999,0.19995759350000009,-0.2214341570000009
63952.0,0.090613446,1.2449542175,11.187622453,0.20841500196839888,-0.004002039974822998,-0.05688551631025118,11.257043037633673,0.21607589253623746,-0.02510502399999999,0.11856239849999994,-0.1041466230000001
63962.0,0.027164420499999998,1.194646103,11.320502560499998,0.24625199482238394,0.08899259322993888,-0.021978931270364592,11.383395602342967,0.26275996655423023,-0.0634490255,-0.050308114499999945,0.13288010749999835
63972.0,0.04873905049999999,0.9384964049999999,11.557529290999998,0.3094032431472948,0.1358895902310265,-0.007855726963226478,11.595673085662792,0.3380207982496655,0.021574629999999994,-0.2561496980000001,0.23702673050000023
63982.0,0.1372931,0.649984762,11.899879442499998,0.3882764173741705,0.12843005300800275,-0.04675911599018008,11.918408464731097,0.41163001558771506,0.08855404950000001,-0.2885116429999999,0.3423501514999998
63992.0,0.10620601949999998,0.550545331,12.1393578355,0.44450045389791587,0.07780154206615122,-0.07873529321596819,12.152299722208104,0.4580752993353045,-0.031087080500000017,-0.09943943099999997,0.2394783930000024
64002.0,0.3156760635,0.46797333799999996,12.288909248,0.4570249366102272,0.026640705702441446,-0.11124379586361458,12.301867375635522,0.4711228098936113,0.20947004400000002,-0.08257199300000007,0.14955141249999926
64012.0,0.4329635975,0.4943532265,12.236247537499999,0.4082621826387576,0.013583897568271866,-0.13682334138084348,12.253880870495104,0.43079363829184664,0.11728753400000003,0.02637988850000006,-0.05266171050000068
64022.0,0.4557150254999999,0.6990180119999999,12.2386992,0.3139341178854721,0.05142089042225694,-0.12296717244926048,12.26711296408603,0.341056687142348,0.022751427999999907,0.2046647854999999,0.0024516625000003955
64032.0,0.429335137,0.9180985729999999,12.150047084,0.19029499367419375,0.13882174337437697,-0.09925338390241353,12.192246626156493,0.2556069155305519,-0.02637988849999995,0.21908056099999995,-0.08865211599999867
64042.0,0.345586346,0.846313895,11.999220806999999,0.03414736681526906,0.24354149849403678,-0.047558476787593486,12.033992567163793,0.25048016461087996,-0.08374879099999999,-0.07178467799999988,-0.15082627700000195
64052.0,0.0738440745,0.7289282944999999,11.849571328,-0.11533659295954128,0.30056489581519547,0.014793410739903938,11.87219988305542,0.32227415545344884,-0.27174227149999997,-0.11738560050000013,-0.14964947899999892
64062.0,-0.20152665749999998,0.55897905,11.650888598999998,-0.20060465356572427,0.23368213354952078,0.05689424295651115,11.666030846793188,0.313187677685561,-0.27537073199999995,-0.16994924449999982,-0.1986827290000015
64072.0,-0.38706847549999995,0.3709855695,11.285787019499999,-0.22805170138258707,0.10338108758338013,0.061957443116546704,11.298514988573402,0.257941761897827,-0.18554181799999997,-0.18799348050000003,-0.3651015794999992
64082.0,-0.5402483484999999,0.2980240935,10.890775157499998,-0.22858402680444534,-0.03597821720061111,0.03691022302117608,10.908238637359498,0.23432339615698364,-0.15317987299999997,-0.07296147600000003,-0.3950118620000005
64092.0,-0.5402483484999999,0.28959037449999997,10.422703753,-0.22458722281737833,-0.1625477492259879,-0.0022602013813326567,10.44071282939342,0.2772477230592554,0.0,-0.008433719000000006,-0.46807140449999807
64102.0,-0.360688587,0.272821003,9.907952694499999,-0.23710996020043765,-0.25154557844368275,-0.05182231615021563,9.918268707436786,0.34954522412985845,0.17955976149999991,-0.016769371499999963,-0.5147510585000017
64112.0,-0.17396997099999997,0.3207755215,9.4566506615,-0.24164083493861493,-0.2827223948720574,-0.10218379171651201,9.46368872161652,0.38569907047021257,0.18671861600000003,0.04795451849999999,-0.45130203299999927
64122.0,-0.0626644935,0.4476735725,8.999366572,-0.2235208266444098,-0.2502138922244111,-0.14055485532160736,9.010712356051076,0.36376396077727036,0.11130547749999997,0.126898051,-0.4572840894999999
64132.0,0.012748645,0.5973230515,8.7288010985,-0.18648319458783813,-0.17240711417050386,-0.1642686438684543,8.749224306930152,0.3024638527802417,0.0754131385,0.14964947899999997,-0.2705654734999996
64142.0,0.079826131,0.7601134414999999,8.713208524999999,-0.13478828747301808,-0.07834608479277345,-0.17706016195632074,8.746664933291548,0.23591585871717896,0.06707748599999999,0.16279038999999995,-0.015592573500001095
64152.0,0.15406247149999996,0.860631604,8.81617835,-0.0828280903118949,-0.02025629129864619,-0.17332864801555686,8.859425641763524,0.1931673629389598,0.07423634049999997,0.10051816250000012,0.10296982500000063
64162.0,0.193583271,1.0390145675,8.956217312,-0.03752981490563407,-0.010930997105240486,-0.13975549452419395,9.018362062706109,0.1451191646691364,0.03952079950000004,0.17838296349999994,0.1400389620000002
64172.0,0.289296175,1.1886640465,9.154900041,0.005103342732831419,-0.009065240134858547,-0.08752826198751562,9.236276806863962,0.08814430969896223,0.09571290399999999,0.14964947900000003,0.19868272899999972
64182.0,0.34440954799999995,1.1921944405,9.414678199499999,0.036812484583064395,-0.00426907535037813,-0.02944021382264035,9.49611031532665,0.04732980261366346,0.055113372999999966,0.0035303939999999923,0.25977815849999963
64192.0,0.3862839435,1.0833406255,9.582273848,0.052799700531332455,-0.021855012893472994,0.023853414887006503,9.651052496693268,0.061922817818183325,0.04187439550000005,-0.10885381500000002,0.16759564850000075
64202.0,0.35637366099999995,1.0042990265,9.6529797945,0.049336967295375705,-0.04317246437733173,0.059559360724306495,9.711623841248622,0.08857378546841618,-0.02991028250000005,-0.07904159899999996,0.0707059465000004
64212.0,0.37314303249999997,0.8774009754999998,9.698384584,0.04187568474309995,-0.04343949975288687,0.06782000407399566,9.74513887708536,0.0907750850403421,0.01676937150000002,-0.12689805100000018,0.045404789499999154
64222.0,0.44737937299999997,0.7194158439999999,9.706818303,0.038411206177891205,-0.02718524842906368,0.0518310427964756,9.743717413156023,0.07000653890573695,0.0742363405,-0.15798513149999993,0.008433719000001005
64232.0,0.4916073645,0.6104639625,9.7271180685,0.03574783373934786,-0.007466518540031742,0.016392132334730743,9.758645908571589,0.040029470626577364,0.04422799150000001,-0.1089518814999999,0.020299765499999012
