timestamp,ax,ay,az,gx,gy,gz,acc_mag,gyro_mag,dax,day,daz
149002.0,0.8252295975,0.77668668,9.2383546325,0.03089930907730761,-0.0722112524720134,0.029071949350469545,9.307601323827404,0.08375207772985763,0.0,0.0,0.0
149012.0,1.2717263719999998,-0.2193747605,9.326908682,0.004251622057858187,-0.0815382919946711,0.004824090052512327,9.41576543957801,0.08179144940863842,0.4464967744999998,-0.9960614404999999,0.08855404949999901
149022.0,1.3220344865,-0.4731708625,9.063502063,-0.019196876442685633,-0.05089380098815465,-0.01862440844803149,9.171626654777198,0.057494066078307045,0.05030811450000017,-0.253796102,-0.2634066189999995
149032.0,1.4142169965,-0.5820246775,8.804998769,-0.05090601829291861,0.006127851003752092,-0.033279938177027873,8.936820785967456,0.06112714242813864,0.09218251,-0.10885381499999996,-0.2585032940000005
149042.0,1.3411574539999997,-0.6670483329999999,8.460196954999999,-0.07115707360380881,0.08979719001510825,-0.02741737721957892,8.591774514753578,0.1178073725709389,-0.07305954250000024,-0.0850236554999999,-0.3448018140000002
149052.0,1.2526034045,-0.783159069,8.230329078999999,-0.05783323009408411,0.17746333301353143,-0.024486969405480445,8.36185805697244,0.18824858230024405,-0.08855404949999968,-0.1161107360000001,-0.22986787600000014
149062.0,1.1878795144999998,-0.911233918,8.067538689,-0.009869836920027934,0.25527185639669064,-0.029550169565515993,8.205277904665644,0.25716599088991404,-0.06472389000000023,-0.128074849,-0.16279038999999962
149072.0,1.108935982,-0.9376138064999999,8.0052664615,0.0666052549146076,0.29417524542364426,-0.027951447970689186,8.13591726739711,0.3029135494591804,-0.07894353249999986,-0.02637988849999995,-0.06227222749999939
149082.0,1.1029539255,-0.9387906044999998,8.007718123999998,0.16919221768833032,0.29097780223399067,-0.014095279039106205,8.1376522851687,0.33688687242219606,-0.005982056499999944,-0.0011767979999999234,0.002451662499998619
149092.0,1.041858496,-0.9495779194999999,8.0484157215,0.28803517711512816,0.2270254477824144,0.013884094199614892,8.170934033326771,0.3670116963644249,-0.06109542950000013,-0.010787315000000075,0.04069759750000124
149102.0,1.077750835,-0.9364370085,8.019682237,0.3954183046733313,0.12710185744723507,0.04852364386394634,8.145781995344887,0.4181687002288715,0.035892339000000106,0.013140910999999922,-0.028733484500000017
149112.0,1.0969718689999999,-0.8849520959999999,7.895137782,0.47748892208986066,0.03863635365139847,0.08236557806011639,8.019955616482926,0.48607872509624417,0.01922103399999986,0.05148491250000009,-0.12454445499999967
149122.0,1.107759184,-0.8657310619999999,7.738329448499999,0.5598265748819451,-0.03543891046174486,0.11620576692703445,7.865008794335216,0.5728573038601026,0.010787315000000186,0.01922103399999997,-0.15680833350000078
149132.0,1.1160948364999999,-0.7867875294999999,7.5623981475,0.64882440409964,-0.10631847671448658,0.15351043435916126,7.684697003913043,0.675160854391959,0.00833565249999979,0.07894353250000008,-0.17593130099999943
149142.0,1.123253691,-0.7053923344999999,7.3086020455,0.7114433270026926,-0.1406927363325149,0.17882468983008704,7.42798364695314,0.7469433199957126,0.007158854500000089,0.08139519499999992,-0.2537961019999999
149152.0,1.112466376,-0.657437816,7.118254968999999,0.7689990497457097,-0.10498679049521491,0.19268085876167,7.234594648170042,0.7996922395655877,-0.010787314999999964,0.04795451849999999,-0.19034707650000104
149162.0,1.0143018094999998,-0.6359612525,7.095503540999999,0.8396115806228962,-0.013589133556027849,0.18068870147121696,7.195792199318979,0.8589416031990977,-0.09816456650000016,0.021476563499999934,-0.022751427999999407
149172.0,0.880244904,-0.6035993075,7.302619988999999,0.9160866724575317,0.1057861512926283,0.1321929828753025,7.380204734204519,0.9316010336947302,-0.13405690549999982,0.032361945,0.20711644799999984
149182.0,0.772567887,-0.538973484,7.649775398999999,0.966181112648273,0.19611566672959482,0.06584429136073808,7.707555851995128,0.9880803448504814,-0.10767701699999999,0.06462582350000001,0.34715541000000005
149192.0,0.7605057074999999,-0.43237519849999995,7.8879789275,0.9701779166353399,0.26246610357341127,0.004557054676957195,7.93634228118357,1.0050643821165022,-0.012062179500000103,0.10659828550000006,0.2382035285000006
149202.0,0.7257901665000001,-0.2217283565,8.1213771975,0.9331402845787683,0.33787479923507824,-0.025818655624752117,8.156758082347254,0.9927621939015198,-0.03471554099999985,0.21064684199999995,0.23339826999999946
149212.0,0.6647928035,-0.097281968,8.352421871499999,0.8923711385814328,0.390899647239918,-0.025019294827338712,8.379401194142389,0.974553614892004,-0.06099736300000003,0.1244463885,0.23104467399999962
149222.0,0.5282842355,0.0201036325,8.6385799185,0.871055432426826,0.3877022040502644,-0.0031695179216217027,8.654741555807947,0.953446700780685,-0.136508568,0.11738560049999999,0.2861580470000007
149232.0,0.30322161799999997,0.2068222485,8.784600937,0.8697220008783024,0.2781862841461242,0.0357338711053319,8.792265488168475,0.9138275970022783,-0.22506261750000006,0.186718616,0.14602101850000082
149242.0,0.1656343185,0.3217561865,8.5919002645,0.8955685817710863,0.10072295113259276,0.0746372601322855,8.599518121739795,0.9043002367247219,-0.13758729949999998,0.11493393799999999,-0.1927006725000009
149252.0,0.185934084,0.203193788,8.3847838165,0.9736423952005487,-0.022649137703130415,0.08689470746904168,8.389306219736829,0.9777746096911533,0.02029976550000001,-0.1185623985,-0.20711644799999895
149262.0,0.2493831095,0.168478247,8.255532169499999,1.0546466164441095,-0.07114485629904485,0.05731661263549378,8.261016175790084,1.0585963679508954,0.0634490255,-0.03471554099999999,-0.12925164700000202
149272.0,0.4109967015,0.3660822445,8.482948383,1.0956827978170003,-0.07061253087718658,0.013084733402201489,8.500785126505924,1.0980337577675734,0.161613592,0.1976039975,0.22741621350000152
149282.0,0.6372361169999999,0.580357547,8.964160698499999,1.0828930250583857,-0.08393637438691129,-0.009297368925373794,9.005501750580091,1.0861809516532022,0.22623941549999993,0.2142753025,0.48121231549999877
149292.0,0.9340834124999999,0.707255598,9.4119323375,1.005618572426337,-0.12017464564606957,-0.0005044001538263612,9.484576565566234,1.0127738706564549,0.2968472955,0.12689805100000007,0.44777163900000083
149302.0,0.9963556399999999,1.0531361435,9.6357200905,0.8686573500345859,-0.17346652902646442,0.047191957644674674,9.744173744375209,0.8870644335830036,0.062272227499999944,0.3458805454999999,0.22378775299999987
149312.0,0.982037931,1.3632224165,9.4154627315,0.6871954677047353,-0.22356271454645768,0.13352641442382618,9.564189056215707,0.7348790386983385,-0.014317708999999845,0.310086273,-0.22025735899999965
149322.0,0.8599451385,1.5356233235,9.189223316,0.5667537866831106,-0.248075863890718,0.22545465145561952,9.356252977780422,0.6584688973882865,-0.12209279250000005,0.1724009070000001,-0.22623941550000026
149332.0,0.6839157709999999,1.4781563545,8.98093007,0.5736827438135281,-0.30296821419519165,0.28247804877677823,9.127419783947785,0.7075983870832222,-0.1760293675000001,-0.057466969000000034,-0.2082932460000002
149342.0,0.4445354445,1.4350070944999997,8.6493672335,0.6594831298415694,-0.36079097231376384,0.2835444449497468,8.77886158124307,0.8034211700662384,-0.2393803264999999,-0.0431492600000003,-0.33156283649999985
149352.0,0.22310128749999997,1.4542281285,8.352421871499999,0.7655363165097528,-0.3642537055497206,0.2169287180596272,8.481008475040943,0.8750912424547603,-0.22143415700000002,0.019221034000000303,-0.29694536200000066
149362.0,0.24222425499999997,1.4517764659999999,8.202870459,0.8643935106719637,-0.2643301152145412,0.09382191927020718,8.333871325145152,0.908762402191398,0.019122967500000004,-0.0024516625000001735,-0.14955141249999926
149372.0,0.32361945,1.5248360085,8.244744854499999,0.894769220973673,-0.0668827622656747,-0.06312332305687891,8.390808788015653,0.8994830830003772,0.081395195,0.07305954250000002,0.04187439549999894
149382.0,0.425412477,1.6947852529999998,8.480594787,0.8329496588680337,0.19105421189881128,-0.21873862449394532,8.658738982707881,0.8821300538685624,0.10179302700000004,0.16994924449999993,0.23584993250000075
149392.0,0.534266292,1.9581918719999998,8.935427213999999,0.7039820444504168,0.44365920519845453,-0.3359811169966644,9.16306801104445,0.8973892802146899,0.10885381499999996,0.26340661899999995,0.4548324269999995
149402.0,0.6659696015,2.317311395,9.306510849999999,0.5441046489799802,0.6200578873682694,-0.4119238834094417,9.613770946547803,0.9220644979893458,0.13170330949999998,0.35911952300000016,0.37108363599999983
149412.0,0.6887210294999999,2.526781439,9.560306952,0.41673575615719005,0.6813451240520504,-0.43563767195628866,9.912539034647478,0.9097692288470213,0.022751427999999962,0.20947004400000013,0.2537961020000008
149422.0,0.5510356634999999,2.7231105719999995,9.421444788,0.3677077121394174,0.6213913189167931,-0.4156536520209536,9.822555338765948,0.8331290963772136,-0.13768536600000003,0.19632913299999943,-0.13886216399999896
149432.0,0.425412477,2.870406455,9.063502063,0.4409836154551473,0.5259968579905391,-0.3831451493733072,9.516684225007058,0.7860912473778768,-0.12562318649999987,0.1472958830000004,-0.3579427250000009
149442.0,0.325973046,2.9996581019999997,8.819316478,0.6581514436222977,0.4423275189791829,-0.3562321723075546,9.321188244785912,0.8693206067817288,-0.09943943100000002,0.1292516469999998,-0.24418558500000032
149452.0,0.430119669,3.0380021034999998,8.8588372775,0.9294105159672564,0.3978286043703355,-0.3485055997089757,9.375151071836372,1.0693585267225785,0.104146623,0.03834400150000006,0.03952079949999998
149462.0,0.541523213,3.1936336389999997,9.2503187455,1.1447108418347731,0.4244745460605329,-0.33917856018631803,9.80106831440935,1.2671162722329132,0.11140354399999997,0.15563153549999997,0.3914814680000003
149472.0,0.546230405,3.498816587,9.651312664,1.2177232004334517,0.4918896337480659,-0.31466366551280567,10.280463087969315,1.3504882180369622,0.004707192000000027,0.3051829480000001,0.4009939185000011
149482.0,0.46130481599999995,3.7945851509999997,10.101437898999999,1.1721578896516358,0.5720944941942132,-0.2717634724987851,10.800496573251065,1.3323293937853757,-0.08492558900000002,0.29576856399999985,0.450125234999998
149492.0,0.267329279,3.9525702825,10.4545753655,1.079428546493177,0.597408749665139,-0.2309943265014495,11.180001022112307,1.2551579900700531,-0.19397553699999998,0.15798513150000026,0.35313746650000155
149502.0,0.033931009,3.8902980549999997,10.796925517,0.9893643211025136,0.5505117526640515,-0.2192709499158036,11.476461601458626,1.1532496256963893,-0.23339826999999996,-0.06227222750000028,0.3423501514999998
149512.0,-0.170831843,3.9573755409999998,10.9849189975,0.9336726100006265,0.3916990080373314,-0.24778264857638296,11.677262096601421,1.0423861551739542,-0.204762852,0.06707748600000007,0.18799348049999942
149522.0,-0.193583271,4.1740044395,10.966972828,0.9392698809117724,0.1577463484537515,-0.2880177238226082,11.736024904279434,0.9950206173112514,-0.02275142799999999,0.21662889850000022,-0.017946169500000053
149532.0,0.021966895999999996,4.367979976499999,10.7766257515,0.9912300780728956,-0.06102020130822575,-0.31253261849612063,11.628215435204051,1.041123033204115,0.215550167,0.19397553699999914,-0.19034707650000016
149542.0,0.255365166,4.583432077,10.431823937499999,1.0293341063024357,-0.1966497374807051,-0.30906813993091187,11.397193147239223,1.0925762841875244,0.23339827,0.2154521005000012,-0.3448018140000002
149552.0,0.3799096209999999,4.783389670499999,9.7506540285,1.010147701835262,-0.22196399295163083,-0.2659009115413361,10.867400887216673,1.0678809336478514,0.12454445499999994,0.19995759349999886,-0.6811699089999994
149562.0,0.3199909895,4.976090342999999,9.360447425,1.0210734629527467,-0.093261668580317,-0.21207670273908297,10.605745863976194,1.0470268780778174,-0.05991863149999993,0.1927006725,-0.39020660349999936
149572.0,0.211039108,5.059839134,9.705151172499999,1.1678940502890136,0.11084760612341187,-0.19848582385380314,10.946984463684116,1.1898152490007392,-0.10895188149999999,0.08374879100000054,0.34470374749999877
149582.0,0.1656343185,5.2011529605,10.697584152500001,1.3925214156791879,0.2725907585642304,-0.21793751836727995,11.896122626545257,1.435589905471573,-0.045404789500000015,0.14131382650000024,0.992432980000002
149592.0,0.13925443,5.507610773,12.243014125999998,1.6096892438463382,0.3237515949279402,-0.2531111387827217,13.425519100302072,1.6613186947569292,-0.026379888499999976,0.3064578124999997,1.5454299734999974
149602.0,0.382263217,5.6979578495,13.897395980999999,1.8185946833345474,0.2464771422958912,-0.29068284159040364,15.024994638084394,1.8580995986012439,0.24300878699999998,0.19034707650000016,1.6543818550000005
149612.0,0.462481614,6.5203435185,15.379474995499999,1.954224219507027,0.1430908187247551,-0.3255894266302902,16.710985009260906,1.9863221685428096,0.080218397,0.822385669,1.4820790145
149622.0,0.8958374775,7.0314661165,16.163516663,1.8934710535743562,0.05062851094185151,-0.3434423995489402,17.649456406605267,1.9250320928888707,0.4333558635,0.511122598,0.7840416675000004
149632.0,1.5710253299999999,7.0422534315,16.33591757,1.6102215692681965,0.07354293869128507,-0.30134156733233297,17.858433773285096,1.6398258462928892,0.6751878524999999,0.010787314999999964,0.1724009070000001
149642.0,2.0163453065,6.9620350344999995,16.004354733499998,1.2334433810061645,0.21050590641228809,-0.22033734608877215,17.569147692826586,1.2705289673454205,0.4453199765,-0.08021839700000033,-0.3315628365000016
149652.0,2.1826660904999997,6.755016652999999,15.173535345499998,0.8110998819623167,0.4457919975443917,-0.08763821773039127,16.75202841825621,0.9296741261328416,0.16632078399999983,-0.20701838150000018,-0.8308193880000001
149662.0,2.033114678,6.296457698999999,14.06862009,0.3951530146270282,0.7511582941318236,0.0661113267362932,15.546864831404015,0.851325669373767,-0.1495514124999997,-0.4585589539999999,-1.1049152554999981
149672.0,1.5410169809999998,5.6572602519999995,13.070205053499999,0.07166670974539116,1.063718837895976,0.19081510179128805,14.325138290261854,1.0830716903566981,-0.49209769700000017,-0.6391974469999999,-0.9984150365000009
149682.0,0.8299367894999999,4.9712850845,12.409432976499998,-0.0756862030127341,1.2606338654229843,0.24677210293947824,13.393897762196909,1.2867877116163926,-0.7110801914999999,-0.6859751674999996,-0.6607720770000007
149692.0,0.127290317,4.5091957365,11.9342027175,-0.03331833542057175,1.2307904805431331,0.22758744380155657,12.758300965146422,1.2520987832622954,-0.7026464724999999,-0.4620893480000001,-0.47523025899999816
149702.0,-0.2462449815,4.2626565554999996,11.774942721499999,0.13375330722658543,0.9789831027116513,0.15803956376808653,12.52518078095749,1.0006369802805553,-0.3735352985,-0.24653918100000016,-0.15925999600000118
149712.0,-0.40423011299999995,4.280602725,11.6684425025,0.3264062407202235,0.5808874629657608,0.09382191927020718,12.43541362833106,0.672884708659256,-0.15798513149999996,0.017946169500000053,-0.10650021899999906
149722.0,-0.32999377249999995,4.4505519695,11.476918628,0.4577719375300807,0.15374954446668448,0.05118876163174169,12.314055786654635,0.4856072060123783,0.0742363405,0.1699492445000006,-0.19152387449999964
149732.0,-0.17318543899999997,4.5882373355,11.018359674,0.4993386989955777,-0.16760571339826746,0.03520154568347363,11.936756885720138,0.5278919968107529,0.15680833349999998,0.13768536599999948,-0.4585589540000008
149742.0,-0.071392412,4.846838696,10.4449648485,0.47962171443579776,-0.31815606934604634,0.04132939668722572,11.514956921670823,0.5770341345627573,0.10179302699999997,0.25860136050000015,-0.5733948254999994
149752.0,-0.08580818750000001,5.064644392499999,9.800962143,0.43752088221919055,-0.2856475666983999,0.058650044184017446,11.032535737356252,0.5257935739635498,-0.014415775500000005,0.21780569649999926,-0.6440027055000002
149762.0,-0.08580818750000001,5.12691662,9.4262500465,0.39008981446699265,-0.10312103352483297,0.06664365215815148,10.73064895580018,0.4089564613490037,0.0,0.062272227500001165,-0.3747120964999997
149772.0,-0.24497011699999996,5.045521425,9.330537142499999,0.36930643373424415,0.16733867802271232,0.060781091200702526,10.610194162970302,0.4099802631925625,-0.15916192949999997,-0.0813951950000007,-0.09571290400000088
149782.0,-0.43414039549999994,4.8623332029999995,9.457435193499999,0.3581136372412045,0.4511204877507303,0.01921258440595358,10.643018486277917,0.576302173383146,-0.18917027849999998,-0.18318822200000007,0.1268980509999995
149792.0,-0.6268410680000001,4.723471039,9.7745822545,0.3389289781032828,0.6680212805423257,-0.061791636837607244,10.874123717835356,0.7516272279784806,-0.19270067250000011,-0.13886216399999984,0.3171470610000018
149802.0,-0.740598208,4.718665780499999,10.205584522,0.31947728358980604,0.7794029574168478,-0.15638499163719594,11.26801880941989,0.8567327298343491,-0.11375713999999992,-0.004805258500000242,0.43100226750000026
149812.0,-0.705882667,4.8000609755,10.546757875499999,0.30109198524929776,0.7578184705574339,-0.23206072267441805,11.60917556902773,0.8478192006008974,0.03471554099999996,0.0813951950000007,0.34117335349999856
149822.0,-0.5718257615,5.004823827499999,10.6832664435,0.28750110636401793,0.6245887621064468,-0.26936539010654487,11.811326265438609,0.7384617263592265,0.13405690550000005,0.2047628519999991,0.13650856800000177
149832.0,-0.41384063,5.2035065565,10.6532580945,0.2965611105111205,0.4447256013714231,-0.2531111387827217,11.863374417871462,0.5914343592983494,0.1579851315,0.1986827290000006,-0.030008349000000933
149842.0,-0.31440119899999996,5.380712721999999,10.489290906499999,0.3338657779432473,0.27019267617199016,-0.19315733364746446,11.793054787959262,0.470935447254111,0.09943943100000002,0.17720616549999946,-0.16396718800000087
149852.0,-0.28811937699999995,5.5626260795,10.3947548005,0.38556068505806734,0.1492186697285072,-0.11801567336135257,11.793080557608949,0.42994296414399547,0.02628182200000001,0.18191335750000093,-0.09453610599999962
149862.0,-0.345586346,5.676383219499999,10.429470341499998,0.43458872907584,0.08047189582170254,-0.04287226774598871,11.879166973377842,0.4440508088029753,-0.057466969000000034,0.11375713999999881,0.03471554099999885
149872.0,-0.5095535339999999,5.752973156,10.57549136,0.4513770511507735,0.05888740896228868,0.014151129575170023,12.049786821479588,0.4554220281322732,-0.16396718799999993,0.07658993650000134,0.14602101850000082
149882.0,-0.7597211755,5.775724584,10.832817856,0.43672152142177717,0.08659974682545464,0.050921726256186566,12.29984200857871,0.4481274658265153,-0.25016764150000004,0.022751427999999407,0.257326496000001
149892.0,-0.9297684865,5.670401162999999,11.272155776,0.404745344195989,0.15747931307819635,0.033868114134949966,12.652249389980044,0.4356209095658382,-0.17004731100000003,-0.10532342100000047,0.4393379199999998
149902.0,-0.9788017364999999,5.5961648225,11.756996551999999,0.3386619427277277,0.25607121719410403,-0.02981545961181913,13.057644561087644,0.4256211241929291,-0.04903324999999992,-0.07423634049999972,0.48484077599999864
149912.0,-0.9070170585,5.645296138999999,12.089834253,0.2166232854405282,0.38130731767095716,-0.11481823017169895,13.373710805398416,0.45332564926797386,0.07178467799999988,0.04913131649999958,0.33283770100000076
149922.0,-0.8723015175,5.794945618,12.287340184,0.061542054754572056,0.522000054003472,-0.20568181635977578,13.613266817716877,0.5644258059870216,0.03471554100000007,0.1496494790000007,0.19750593100000025
149932.0,-0.915352711,5.997158741,12.539959488,-0.07168939902566708,0.6530987154377742,-0.2829545236625727,13.930339820369387,0.7153604437626151,-0.043051193500000084,0.20221312299999994,0.25261930399999954
149942.0,-1.0207741985,6.2545833035,12.893096954499999,-0.14443297691953874,0.7330382858376184,-0.3317172776340423,14.36641017592361,0.8174609260426667,-0.10542148750000002,0.2574245624999998,0.3531374664999998
