timestamp,ax,ay,az,gx,gy,gz,acc_mag,gyro_mag,dax,day,daz
146362.0,0.6838177045,-4.914112315,7.111586447,-0.1726165536807432,-0.007812093731926619,-0.08612327193966018,8.671261055381528,0.1930666242069974,0.0,0.0,0.0
146372.0,0.850236555,-5.2959832659999995,7.263589521999999,-0.15183317294799473,0.019900244131239347,-0.07759733854366789,9.029400517050867,0.1716702626345029,0.16641885049999994,-0.3818709509999998,0.15200307499999965
146382.0,0.8466080945,-5.334229200999999,7.263589521999999,-0.03539004124268902,0.08145451619057535,-0.1079730488453772,9.051545678975618,0.1398051233108649,-0.003628460499999986,-0.03824593499999995,0.0
146392.0,0.7963980465,-5.084061559499999,7.1630713595,0.08771675754673101,0.11662639127676509,-0.12475962559105867,8.819950288439486,0.19199195002492747,-0.05021004799999995,0.25016764150000004,-0.10051816249999934
146402.0,0.805910497,-4.9571635085,7.252802206999999,0.1815107515489063,0.16139234126116764,-0.12929050032923595,8.821910316538187,0.2751539100594323,0.009512450499999936,0.1268980509999995,0.08973084749999938
146412.0,0.8897573545,-4.977561340499999,7.434813631,0.2459954314223408,0.19976340486626298,-0.12049753155768851,8.991342434588418,0.33902629000701734,0.0838468575000001,-0.02039783199999956,0.1820114240000006
146422.0,0.8777932415,-4.884103966,7.623983909499999,0.2867645774196763,0.2317378367627991,-0.10770601346982207,9.096709469793728,0.3841053672988035,-0.011964112999999998,0.0934573744999998,0.1891702784999989
146432.0,0.8012033049999999,-4.7357293515,7.839436009999999,0.3214041270840078,0.2346699899061496,-0.09358455449193595,9.193792263341948,0.40881375454923174,-0.07658993650000012,0.14837461449999978,0.2154521005000003
146442.0,0.783159069,-4.649528898,8.1566811375,0.35950815531354796,0.20589125587001506,-0.08185943257703804,9.421406703860221,0.422301183614866,-0.018044235999999936,0.08620045350000005,0.31724512750000056
146452.0,0.7879643275,-4.6231490095,8.416459296,0.3840230499870603,0.16405745902896302,-0.07013605599139214,9.634893960323495,0.4234473038459825,0.00480525850000002,0.02637988850000017,0.25977815849999963
146462.0,0.7952212484999999,-4.592061929,8.665450139499999,0.38242432839223356,0.11156319111672953,-0.06800326364545506,9.839178609721325,0.4041276486765439,0.007256920999999861,0.031087080499999864,0.24899084349999967
146472.0,0.8274851269999999,-4.6327595265,8.7456685365,0.3584417591405794,0.05027769976220065,-0.06800326364545506,9.931460648671411,0.36828356690952746,0.03226387850000001,-0.04069759750000035,0.08021839700000122
146482.0,0.9028982655,-4.650705695999999,8.612788429,0.31767435847249587,0.011641346110802179,-0.07040134603769527,9.829771781245281,0.3255900313186855,0.07541313850000009,-0.017946169499999165,-0.13288010750000012
146492.0,0.8980930069999999,-4.618343751,8.393707868,0.28303306347891244,0.0052447144022429604,-0.07306646380549062,9.62236986531635,0.2923592485016649,-0.00480525850000002,0.032361944999999004,-0.21908056100000017
146502.0,0.9256496934999999,-4.6159901549999995,8.2763222675,0.2787692241162903,0.023631758072003222,-0.07786262858997103,9.521643909622428,0.2904020131385317,0.027556686499999983,0.002353596000000735,-0.11738560050000046
146512.0,0.9447726609999999,-4.535771757999999,8.212873241999999,0.28649754204412115,0.058538343111889816,-0.08585623656410506,9.429586826091745,0.30476035268479373,0.019122967499999977,0.08021839700000033,-0.06344902550000064
146522.0,0.9759578079999999,-4.4854636435,8.244058389,0.2870298674659794,0.11502766968193828,-0.08905367975375868,9.435908883695184,0.3217888554435654,0.03118514699999997,0.05030811449999906,0.031185147000000413
146532.0,0.9484011215,-4.4915437664999995,8.3996899245,0.27210904769067995,0.16938594923530167,-0.08505687576669166,9.572263103435587,0.33161665481194297,-0.027556686499999872,-0.006080122999999382,0.1556315355000013
146542.0,0.8777932415,-4.53459496,8.5061901435,0.23213926249075778,0.20002869491256614,-0.07706326779255762,9.679273897532656,0.3159728836799842,-0.07060787999999996,-0.043051193500000196,0.10650021899999906
146552.0,0.710197593,-4.624423874,8.5852317425,0.18737331250635522,0.16912065918899855,-0.0690696598184236,9.777314603711682,0.26168907793707863,-0.16759564850000008,-0.08982891399999993,0.07904159899999996
146562.0,0.6143866225,-4.7261188345,8.539728886499999,0.1660558610224965,0.05747194693892128,-0.053347733916458674,9.77960324423466,0.1836397407395636,-0.09581097049999998,-0.1016949605000006,-0.04550285600000059
146572.0,0.5329914275,-4.6100080985,8.303878954,0.1716513866043903,-0.1109313819275076,-0.03549476099780868,9.512657894232726,0.20743637115474226,-0.08139519500000003,0.11611073600000044,-0.23584993249999897
146582.0,0.5426019445,-4.5860798725,7.9938907475,0.21561797579137945,-0.2817345385154286,-0.013112658670233398,9.231946422618087,0.35501746928042216,0.00961051700000004,0.023928225999999775,-0.3099882064999999
146592.0,0.662341141,-4.487915306,7.613196594499999,0.2739730593318099,-0.3912504584195689,0.02152689099409806,8.862327119182446,0.4781229606377694,0.11973919649999998,0.09816456650000038,-0.3806941530000012
146602.0,0.7389310775,-4.235296001999999,7.295951466999999,0.33579262143744903,-0.4328189652143178,0.05749987220695319,8.468450812909756,0.5508131957068955,0.07658993650000001,0.25261930400000043,-0.31724512749999967
146612.0,0.7652128994999999,-3.9097152219999995,7.1295326165,0.4016089875301552,-0.4141666314982544,0.09480453963907998,8.167108376190257,0.5846466268163916,0.026281821999999955,0.3255807799999997,-0.1664188504999995
146622.0,0.755700449,-3.726527,7.095993873499999,0.46129750261910923,-0.341955379026241,0.11798774809332067,8.050541329817351,0.5862166629052267,-0.009512450499999936,0.18318822199999962,-0.03353874300000026
146632.0,0.7377542795,-3.854601849,7.183371125,0.492472573718232,-0.22950730597875035,0.1275800776622815,8.185539536934542,0.5581034989843703,-0.017946169499999942,-0.12807484899999988,0.08737725150000042
146642.0,0.6132098245,-4.029454418499999,7.2468201505,0.48874280510672014,-0.10453649554820037,0.10999239478993465,8.314381004820824,0.5117574966297115,-0.12454445500000011,-0.1748525694999996,0.06344902549999976
146652.0,0.42531441049999996,-3.884610198,7.360577290499999,0.47675239314551904,-0.003014183618194207,0.06309539778884701,8.333617869065565,0.48091886934803935,-0.18789541399999998,0.14484422049999957,0.1137571399999997
146662.0,0.2756649315,-3.6391497484999995,7.585639907999999,0.49780280925382264,0.040418334817684684,-0.002986258350162298,8.417917489516558,0.4994498938125486,-0.14964947899999997,0.24546044950000034,0.2250626174999999
146672.0,0.33666229449999996,-3.353089768,7.876505147,0.5508276572586623,0.050010664386645524,-0.06560518125321485,8.567139885838317,0.5569705686665385,0.06099736299999997,0.2860599804999997,0.2908652390000004
146682.0,0.412075433,-3.0765422379999996,8.273968671499999,0.5985257603864155,0.0452144996021651,-0.1087724096427906,8.837051311475092,0.6100072736614786,0.07541313850000003,0.2765475300000002,0.3974635244999991
146692.0,0.560548114,-2.8347102489999996,8.570815967,0.627569784468853,-0.002748893571891069,-0.12929050032923595,9.044815239908262,0.6407553544602935,0.14847268100000005,0.24183198900000002,0.296847295500001
146702.0,0.7520719884999999,-2.790384191,8.7372348175,0.6320989138777784,-0.06350205950456168,-0.11623369219506637,9.202778301437199,0.6458264625176685,0.19152387449999986,0.04432605799999978,0.1664188504999995
146712.0,0.9507547174999998,-2.7963662475,8.604354709999999,0.5814721482651788,-0.10267248390707043,-0.0767962324170025,9.09717091729648,0.5954403072292099,0.19868272899999995,-0.005982056500000166,-0.13288010750000012
146722.0,0.997532438,-2.5282524365,8.357717462499998,0.5111249074342954,-0.09201375816514105,-0.039491564984875695,8.78854780555399,0.5208404615583785,0.046777720500000175,0.2681138110000001,-0.2466372475000007
146732.0,0.8909341525,-2.2708278739999996,8.1566811375,0.5068628134009252,-0.059772290893049806,-0.014444344889505072,8.513628490618705,0.5105793547202937,-0.10659828550000006,0.25742456250000023,-0.20103632499999868
146742.0,0.8478829589999999,-2.2314051409999998,8.161486395999999,0.563884465392832,-0.007812093731926619,-0.0005881759579220891,8.503407235193247,0.5639388841628088,-0.043051193500000084,0.03942273299999988,0.004805258499999354
146752.0,0.767664562,-2.197866398,8.301525358,0.6227736196843726,0.04228409178806662,-0.013912019467646801,8.621789190923492,0.6243624508879321,-0.08021839699999989,0.033538742999999815,0.1400389620000002
146762.0,0.653907422,-2.096073371,8.503836547499999,0.6702029421073186,0.046013860399578506,-0.039491564984875695,8.782730470631481,0.6729404451087276,-0.11375714000000003,0.10179302699999981,0.2023111894999996
146772.0,0.6000689135,-2.0398812664999997,8.546887740999999,0.6960495230001026,0.004979424355939822,-0.06587221662876999,8.807410989594093,0.6991772894332127,-0.05383850849999994,0.05619210450000045,0.043051193500000196
146782.0,0.6563590845,-2.0877377184999997,8.4151844315,0.7173669744839614,-0.04245164339625808,-0.08985304055117208,8.695101209601486,0.7242175688310841,0.056290171,-0.047856451999999994,-0.13170330949999887
146792.0,0.7377542795,-2.1248068554999997,8.1698220485,0.7338882611833396,-0.057639498547112734,-0.1063743272505504,8.473787692304848,0.7437941846999582,0.08139519500000003,-0.03706913700000003,-0.2453623829999998
146802.0,0.781982271,-2.0422348625,8.0417471995,0.7304237826181309,-0.029394835262088498,-0.11596665681951124,8.33378170619046,0.7401562159761669,0.0442279914999999,0.08257199299999973,-0.12807484900000077
146812.0,0.802380103,-1.911708351,7.927990059499999,0.7139024959187525,0.0020472712125893487,-0.11889880996286172,8.194599992220745,0.7237388285901393,0.020397832000000005,0.13052651150000005,-0.11375714000000059
146822.0,0.8346439815,-1.7190076785,7.865717832,0.7040448763034886,0.024696408915719763,-0.11276921362985762,8.094512646678545,0.7134465614222437,0.03226387850000001,0.1927006725,-0.06227222749999939
146832.0,0.7892391919999999,-1.4304960354999998,7.8693462924999995,0.7256276178336505,0.0007155849933176752,-0.09598263688417616,8.037153008438592,0.7319485080304903,-0.04540478950000004,0.2885116430000001,0.003628460499999875
146842.0,0.7963980465,-1.146789651,7.7508819605,0.7911769485508016,-0.06003758093935294,-0.06720390284804166,7.875629975926627,0.7962925590517697,0.007158854500000089,0.28370638449999985,-0.1184643319999994
146852.0,0.8538650154999999,-0.752954587,7.707732700499999,0.8969630998434299,-0.11546225666568487,-0.031232666964438528,7.791352222633512,0.9049032073546756,0.05746696899999992,0.393835064,-0.043149260000000744
146862.0,0.850236555,-0.373437232,7.7316609265,1.0379211262222479,-0.14770372393777612,0.014067353771074298,7.78722917654726,1.0484724816444477,-0.003628460499999986,0.37951735499999995,0.023928226000000663
146872.0,0.883775298,-0.0310870805,7.9160259465,1.1791461879766212,-0.12718563325133078,0.05909859380177999,7.965267852972065,1.1874571831079583,0.03353874300000004,0.34235015150000003,0.18436501999999955
146882.0,0.9100571199999998,0.10414662299999998,8.3530102705,1.2825342568770093,-0.04405036499108488,0.09000837485459956,8.403084615771967,1.2864431826796223,0.026281821999999844,0.13523370349999997,0.43698432400000087
146892.0,0.9484011215,0.21074490849999997,8.917971376999999,1.3097125239890648,0.06972939427567745,0.09853605357984385,8.970735286737224,1.3152636381254328,0.03834400150000017,0.10659828549999999,0.5649611064999984
146902.0,0.8670059265,0.30165255399999996,9.460279122,1.2665470409287412,0.17578083561460892,0.09054070027645783,9.504713283738228,1.2818884223914622,-0.08139519500000003,0.0909076455,0.5423077450000005
146912.0,0.8107157554999999,0.308909475,9.8697067595,1.1836770627147983,0.23919911931507484,0.07482051970374491,9.907764461193086,1.2099197153724617,-0.05629017100000011,0.007256921000000027,0.40942763750000033
146922.0,0.781982271,0.300475756,10.152236345999999,1.0893489979615127,0.27410570435496145,0.06442882933737068,10.186740635607913,1.1251516566976496,-0.028733484499999906,-0.008433719000000006,0.28252958649999904
146932.0,0.6946050195,0.3411733535,10.269523879999998,1.0075454159205386,0.2685101787730676,0.06869092337074083,10.298640498247487,1.0449707767209382,-0.08737725149999997,0.040697597500000016,0.11728753399999903
146942.0,0.5329914275,0.401091985,10.209703314999999,0.9598473127927855,0.23573464074986614,0.0801490099100836,10.231470882651315,0.9916156253884699,-0.16161359200000003,0.059918631499999986,-0.05982056499999899
146952.0,0.2995931575,0.287334845,10.0803536015,0.9459928891904545,0.21788166783121612,0.07135604113853616,10.088897169881653,0.973378986922761,-0.23339826999999996,-0.11375713999999998,-0.12934971349999813
146962.0,0.1020872265,0.2478140455,10.160571998499998,0.9590479519953721,0.23307126831132274,0.02605776573227534,10.164106303048182,0.9873065367421227,-0.19750593099999997,-0.03952079950000001,0.08021839699999767
146972.0,0.0026477955,0.36873004,10.265895419499998,0.9771679602895773,0.25092424122997276,-0.04215668275267104,10.272515642106876,1.0097511492214504,-0.09943943100000001,0.12091599449999998,0.10532342099999958
146982.0,0.030204481999999998,0.562705577,10.3425834225,0.9662439445013448,0.29515612046326506,-0.10370920948275505,10.357923620518333,1.0156279318057282,0.027556686499999997,0.19397553700000003,0.07668800300000278
146992.0,0.11287454149999998,0.7434421365,10.4347659325,0.9153483981839381,0.3814905772424166,-0.1436789946826772,10.46182522022353,1.0020186645445675,0.08267005949999998,0.1807365595,0.09218250999999889
147002.0,0.1056176205,0.889463155,10.431137472,0.8450029026823067,0.48088009682648564,-0.15753516361426018,10.46952380701363,0.9849329423064018,-0.007256920999999986,0.14602101849999993,-0.003628460499999875
147012.0,-0.015298373999999998,0.97085835,10.425155415499999,0.7610665282953953,0.5770739185501531,-0.1506079518130947,10.470275326529897,0.9669122623649831,-0.1209159945,0.08139519500000003,-0.00598205650000061
147022.0,-0.12778064949999998,0.9505585845,10.4359427305,0.6630086949305979,0.660210932139651,-0.14474539085564575,10.479923195864991,0.946789434163814,-0.11248227549999998,-0.02029976550000001,0.01078731500000174
147032.0,-0.3600021215,0.9301607525,10.5891226035,0.5665495831606273,0.7206970626967666,-0.14261259850970864,10.635991635241655,0.9277505266034178,-0.232221472,-0.020397832000000005,0.15317987299999913
147042.0,-0.6149750214999999,1.017538004,10.888421561499998,0.5012655424897795,0.6711349479278835,-0.14634411245047255,10.953141191803896,0.8503563145332975,-0.25497289999999995,0.08737725149999997,0.29929895799999784
147052.0,-0.8089505584999999,1.1635590225,11.073963379499999,0.5231153193954965,0.48088009682648564,-0.15087324185939782,11.164270488278472,0.726400743404952,-0.19397553699999992,0.14602101850000015,0.1855418180000008
147062.0,-0.7754118154999999,1.1982745634999998,11.12662509,0.6131812901154118,0.217616377784913,-0.1319556180970313,11.217794404719923,0.6638979346068161,0.033538742999999926,0.03471554099999974,0.05266171050000068
147072.0,-0.537208287,1.303696051,11.150553316,0.7282927356014458,-0.030461231435057034,-0.09971240549568804,11.239352979152006,0.7357178529573101,0.23820352849999993,0.10542148750000013,0.023928226000000663
147082.0,-0.34087915399999996,1.3731271329999999,11.138589203,0.8460692988552752,-0.21805096476865957,-0.057079247857222556,11.228082924266312,0.8755783929711527,0.19632913300000004,0.06943108199999992,-0.011964112999999443
147092.0,-0.10620601949999998,1.3862680440000001,11.199684632499999,0.9156154335594933,-0.3163740881797601,-0.009648180105024653,11.285652603011057,0.9687813340600925,0.2346731345,0.013140911000000255,0.06109542949999813
147102.0,0.0253992235,1.3598881554999998,11.172127946,0.8916328643078391,-0.28493198170508227,0.022593287167066597,11.2546161088603,0.9363257208563697,0.13160524299999998,-0.026379888500000392,-0.02755668649999876
147112.0,0.07453053999999999,1.2821214209999998,11.045229895,0.7589354812787104,-0.1389107551662287,0.0343184090819645,11.119644489505115,0.772306296650828,0.049131316499999994,-0.07776673449999993,-0.1268980509999995
147122.0,-0.0248108245,1.0594123995,10.756718252,0.5508276572586623,0.08838172799174086,0.02072753019668466,10.808790763176827,0.5582580660876536,-0.09934136449999999,-0.22270902149999983,-0.28851164299999965
147132.0,-0.3133224675,0.7685471604999999,10.432314270000001,0.32486860564921655,0.336724627258014,-0.027501153023674653,10.465276715624798,0.46869968952000196,-0.288511643,-0.29086523900000005,-0.32440398199999976
147142.0,-0.5886931995,0.4896460345,10.2862932515,0.18657395170894184,0.543233729683235,-0.12289561394992872,10.314753597546263,0.5873806742224147,-0.275370732,-0.27890112599999994,-0.14602101850000082
147152.0,-0.7491299935,0.29331690149999995,10.257559766999998,0.18897203410118202,0.6436896454402726,-0.23267682390037206,10.289060351919602,0.7100600634451475,-0.160436794,-0.19632913300000004,-0.028733484500001794
147162.0,-0.7059807334999999,0.4645410105,10.4347659325,0.29049434603118823,0.6439566808158278,-0.327804249451071,10.468932477219067,0.7787957356082567,0.04314926000000008,0.17122410900000007,0.17720616550000123
147172.0,-0.6006573125,0.8128732185,10.7017029455,0.4381142941648686,0.5400362864935815,-0.36670763847802457,10.749325467681107,0.7861665329937978,0.10532342099999992,0.34833220800000003,0.2669370129999997
147182.0,-0.3445076145,1.098933199,11.115837775,0.5947942464456516,0.38228993803982997,-0.33606489280076013,11.175338433910168,0.7828572056924136,0.256149698,0.2860599804999999,0.4141348295
147192.0,-0.191229675,1.38862164,11.416313530999998,0.7011127231601382,0.23120551134094083,-0.260389161763538,11.502045621791394,0.7828266440377258,0.15327793950000002,0.289688441,0.3004757559999991
147202.0,-0.12778064949999998,1.6113306615,11.5684146725,0.7083069703368587,0.12195662681235576,-0.1692602855291581,11.680793313383726,0.7383909718493584,0.0634490255,0.22270902150000005,0.1521011415000011
147212.0,-0.1709299095,1.6376124834999999,11.611465866,0.6238382705280892,0.08465195938022897,-0.1002464762467983,11.72762257396442,0.6374868610428682,-0.04314926000000002,0.026281821999999844,0.043051193500000196
147222.0,-0.2427145875,1.466486441,11.515752961999999,0.4852783265415114,0.11049854027301301,-0.06773797359915193,11.611290158050219,0.5022881789179553,-0.07178467799999999,-0.17112604249999985,-0.09571290400000088
147232.0,-0.3456844124999999,1.2342649689999998,11.3756159335,0.34192221777045306,0.1773795572094357,-0.07812966396552616,11.4475999927166,0.3930375996164319,-0.10296982499999993,-0.2322214720000002,-0.1401370284999981
147242.0,-0.503669544,1.10619012,11.2128255435,0.2582528787590969,0.24612807644549234,-0.12262857857437358,11.278510374163108,0.37724176291244615,-0.15798513150000004,-0.12807484899999988,-0.1627903900000014
147252.0,-0.5779058845,0.9899813175,11.216454004000001,0.25079159620682123,0.27970122993685526,-0.17698685812773696,11.27487820972743,0.4152752710023588,-0.07423634050000005,-0.11620880249999999,0.003628460500001651
147262.0,-0.5227925115,1.0678461184999999,11.407977878499999,0.3155415661265588,0.27490506515237484,-0.22921409066441528,11.469767505020377,0.4771565509967853,0.05511337300000008,0.07786480099999993,0.19152387449999786
147272.0,-0.4510078335,1.2725109039999998,11.7563100865,0.42532452140625415,0.2154835854389759,-0.2654523619235736,11.833575914178219,0.5457097035548292,0.07178467799999994,0.2046647854999999,0.3483322080000004
147282.0,-0.26664281349999996,1.4808041499999998,12.1585788695,0.5236493901466067,0.1344793641954151,-0.27664341308736123,12.251323171253802,0.6073096090133439,0.18436502000000005,0.208293246,0.40226878300000024
147292.0,-0.0930651085,1.7058667674999999,12.488964908,0.563884465392832,0.0638668333182285,-0.26678404814284523,12.605272191275223,0.6270712806794315,0.17357770499999997,0.22506261750000012,0.33038603850000037
147302.0,0.075707338,1.8782676745,12.657737354499998,0.5148564213750593,0.005511749777798093,-0.24120450262561635,12.79655953737579,0.5685834381193464,0.1687724465,0.1724009070000001,0.16877244649999845
147312.0,0.23496733399999997,2.0147762425,12.624198611499999,0.399210905137915,-0.029661870637643632,-0.20176878817680446,12.78612230263687,0.44828541938489797,0.15925999599999996,0.136508568,-0.03353874299999937
147322.0,0.3019467535,2.1344173725,12.5320161015,0.26118328657319545,-0.046181412007769956,-0.1476757986697442,12.716066094914506,0.303574658878099,0.06697941950000003,0.1196411300000002,-0.09218250999999889
147332.0,0.2409493905,2.1991412625,12.2735128075,0.1303499151851965,-0.05923822014193954,-0.07733030316811276,12.471302880496445,0.16272751120337656,-0.060997363,0.06472388999999978,-0.2585032940000005
147342.0,0.1056176205,2.2469977145,11.8916418565,0.027228881660363535,-0.0744260752927942,-0.00272096830385916,12.10253278673481,0.07929726570616012,-0.13533177000000002,0.047856451999999994,-0.3818709509999998
147352.0,-0.04873905049999999,2.2493513105,11.487019477499999,-0.03805341368123236,-0.10267248390707043,0.06735923715146916,11.705279718552482,0.12855725601486095,-0.154356671,0.002353595999999847,-0.404622379000001
147362.0,-0.11581653649999998,2.1224532595,11.161340630999998,-0.05510702580246896,-0.10533585634561378,0.13157688164934853,11.361942879195462,0.17732710652752565,-0.06707748599999999,-0.12689805099999996,-0.3256788465000007
147372.0,-0.12778064949999998,1.929752587,11.041699500999998,-0.030859166504511742,-0.06883054971090037,0.17367771386595574,11.209790399994258,0.18935121078187672,-0.011964112999999998,-0.19270067249999978,-0.11964112999999976
