timestamp,ax,ay,az,gx,gy,gz,acc_mag,gyro_mag,dax,day,daz
129052.0,-2.1680541819999997,-0.705490401,10.335816834,0.05147674095832075,-0.026237534645230758,-0.08185594191853406,10.58429427349734,0.10019310510868581,0.0,0.0,0.0
129062.0,-1.2654501159999998,-0.912606849,10.325029519,0.022167426829579978,-0.012648401089202906,-0.09757786782049897,10.442243524508873,0.10086038444678316,0.9026040659999999,-0.20711644799999995,-0.010787314999999964
129072.0,-0.8955432779999999,-0.94732239,10.12634679,0.009642944117268671,-0.04329114676646735,-0.09784315786680212,10.209912672726912,0.10742622259463722,0.3699068379999999,-0.03471554099999996,-0.19868272899999972
129082.0,-0.6884268299999999,-0.843175767,9.8461707995,0.0016493361431346415,-0.16826195719701734,-0.09171530686305003,9.906157493561585,0.191641603161911,0.20711644799999995,0.104146623,-0.2801759905000001
129092.0,-0.48248717999999996,-0.679208579,9.9001073745,0.0016493361431346415,-0.31188510134363073,-0.0650693651728526,9.935101619977564,0.3186048634811432,0.20593964999999997,0.16396718799999999,0.05393657499999982
129102.0,-0.5208311815,-0.679208579,10.2364754695,0.012840387306922283,-0.3814329813771008,-0.04215319209416705,10.272196427789197,0.3839699030290567,-0.0383440015,0.0,0.336368095000001
129112.0,-0.5183795189999999,-0.5594693824999999,10.67944185,0.026164230816646997,-0.33560063521972966,-0.03682470188782836,10.706642869882465,0.3386272463982192,0.0024516625000000625,0.11973919650000009,0.4429663804999997
129122.0,-0.6010495785,-0.530735898,10.922450636999999,0.036555921183021235,-0.19810708740612035,-0.050946160865714483,10.951843183087611,0.20779380347120732,-0.08267005950000006,0.028733484499999906,0.24300878699999906
129132.0,-0.5686876335,-0.6181131495,10.9068580635,0.035489525010052696,-0.06647435522070803,-0.061871921983198984,10.939150895175347,0.09750118469712607,0.032361945,-0.08737725149999997,-0.015592573499999318
129142.0,-0.43825918849999995,-0.5977153175,10.8170291495,0.016837191293989296,0.02945243112740431,-0.057341047245021703,10.842391541454841,0.06662531357630293,0.130428445,0.020397832000000005,-0.08982891399999993
129152.0,-0.389127872,-0.6229184079999999,10.6159928245,-0.02153387231110604,0.060894537602082154,-0.029096383959997467,10.641369812840262,0.0708410327848911,0.049131316499999966,-0.025203090499999914,-0.20103632500000046
129162.0,-0.34480181399999993,-0.682738973,10.426822545999999,-0.07242767329926068,0.05769709441242855,0.01859997383850357,10.454838554562413,0.09444935992358101,0.04432605800000006,-0.0598205650000001,-0.18917027850000068
129172.0,-0.4190381544999999,-0.6540054885,10.3321883735,-0.10626786216617874,0.07182029871956666,0.07215889259445357,10.361343191855168,0.14716629919242938,-0.0742363405,0.028733484500000017,-0.09463417249999928
129182.0,-0.5424058115,-0.5917332609999999,10.231670210999999,-0.1153278663132813,0.10619281300834298,0.11106228162140717,10.26311003659161,0.19212563775288227,-0.12336765700000007,0.062272227500000055,-0.10051816250000023
129192.0,-0.6644986039999999,-0.4302177355,10.044951594999999,-0.1153278663132813,0.14802835517864707,0.11958996034665147,10.076095386634137,0.2225189189731593,-0.12209279249999994,0.16151552549999992,-0.18671861600000028
129202.0,-0.863181333,-0.4576763555,9.901284172499999,-0.11186338774807256,0.15815301016946617,0.10626611683692674,9.949370730082501,0.2209485906986923,-0.19868272900000006,-0.027458620000000045,-0.14366742250000009
129212.0,-0.8475887595,-0.44688904049999995,9.7061318375,-0.10600257211987561,0.14722899438123369,0.07189185721889843,9.753312861109341,0.1951444624295582,0.015592573499999984,0.010787315000000075,-0.1951523349999995
129222.0,-0.871615052,-0.5235770435,9.584039044999999,-0.10147169738169833,0.12431282130254812,0.036719982132708696,9.637823931543762,0.16461634183017393,-0.02402629249999999,-0.07668800300000006,-0.12209279250000016
129232.0,-0.8691633894999999,-0.6744033205,9.489502939,-0.09214640318829263,0.09367007562528368,0.015135495273294825,9.553058717794954,0.13226536169894854,0.0024516625000000625,-0.15082627699999995,-0.09453610599999962
129242.0,-0.7962019134999999,-0.7162777159999999,9.451158937499999,-0.07002959090702049,0.08833984008969298,0.0028780479365386495,9.511645310638183,0.11276681297971573,0.07296147600000003,-0.04187439549999994,-0.0383440015000005
129252.0,-0.7734504855,-0.7258882329999999,9.4056560815,-0.037254052883818965,0.10645984838389813,-0.008313003227248992,9.465278955413094,0.11309584341101671,0.022751427999999962,-0.00961051700000004,-0.045502855999998815
129262.0,-0.7422653384999999,-0.701960007,9.3470123145,-0.014871950556243681,0.11125601316837855,-0.015507250403969617,9.402677538423863,0.11331173899716301,0.03118514700000008,0.023928225999999886,-0.058643766999999514
129272.0,-0.749424193,-0.6863674335,9.214132206999999,-0.009808750396208134,0.08274431450779916,-0.015507250403969617,9.270003732625879,0.0847543980144518,-0.007158854500000089,0.015592573500000095,-0.1328801075000019
129282.0,-0.781786138,-0.736675548,9.169806149,-0.020467476138137503,0.0339815605363296,-0.015507250403969617,9.232509151841024,0.042592708895313025,-0.032361945,-0.050308114500000056,-0.044326057999999335
129292.0,-0.7758040814999999,-0.7438344025,9.165098957,-0.03485597049157876,-0.006520550085450815,-0.01603957582582789,9.227903363322412,0.03891945843661194,0.005982056500000055,-0.007158854499999978,-0.004707191999999694
129302.0,-0.7506990575,-0.728241829,9.1506831815,-0.04205021766829938,-0.02703689544264416,-0.018437658218068097,9.210259927093459,0.05328378516672895,0.02510502399999992,0.015592573499999984,-0.014415775499999839
129312.0,-0.7626631705,-0.776098281,9.124401359499998,-0.04258428841940965,-0.036096899589746725,-0.015774285779524753,9.189052389808957,0.05801065309090944,-0.011964112999999998,-0.047856451999999994,-0.026281822000001398
129322.0,-0.745893799,-0.7665858305,9.0202547365,-0.04045149607347257,-0.05075242931874311,-0.002183406894244906,9.083446862632087,0.06493766150703317,0.01676937150000002,0.009512450500000047,-0.10414662299999833
129332.0,-0.7638399684999999,-0.7342238855000001,8.9508236545,-0.04284957846571278,-0.06354220207735756,0.012472122834751478,9.01331128417706,0.077648256049535,-0.017946169499999942,0.03236194499999989,-0.06943108199999948
129342.0,-0.8128732185,-0.7114724575,8.925620563999999,-0.05430766500505556,-0.05981243346584567,0.030857421175259747,8.99075404955754,0.08648138595671857,-0.04903325000000014,0.022751428000000073,-0.02520309050000158
129352.0,-0.8919148175,-0.6300772625,8.8586411445,-0.063100633776603,-0.028103291615612695,0.04338190388757105,8.925695061194048,0.08156883330998176,-0.07904159899999996,0.08139519500000003,-0.06697941949999908
129362.0,-0.9769384729999999,-0.5367179544999999,8.693399092,-0.06176894755733132,0.020926497731412013,0.039385099900504046,8.7645685983679,0.07618731707978581,-0.0850236554999999,0.09335930800000003,-0.16524205250000001
129372.0,-1.0595104659999999,-0.49356869449999996,8.4575491595,-0.053243014161339024,0.05236860420608986,0.025261895593365925,8.5379336065065,0.07883814199008474,-0.08257199299999995,0.04314925999999997,-0.23584993250000075
129382.0,-1.1312951439999999,-0.448163905,8.3055460845,-0.05004382564243341,0.0534332550498064,0.005810201079889122,8.39421082355787,0.07343878857073202,-0.07178467799999999,0.04540478949999999,-0.15200307499999965
129392.0,-1.1109953785,-0.391873734,8.2110099785,-0.07002959090702049,0.04170987846416049,-0.014974924982111348,8.295092562562157,0.0828740365996465,0.0202997654999999,0.056290171,-0.09453610599999962
129402.0,-1.1086417825,-0.34519408,8.1319683795,-0.11799298408107665,0.036114352882266665,-0.02190213678327684,8.2144479595381,0.1253247556236814,0.002353596000000069,0.04667965399999996,-0.07904159899999996
129412.0,-1.1217826935,-0.36912230599999996,7.9379928425,-0.17421527527557,0.05396732580091666,-0.010444050243934069,8.025358437839651,0.18268145110804962,-0.013140911000000033,-0.02392822599999994,-0.19397553700000003
129422.0,-1.1457109195,-0.413448364,7.7045945725,-0.20992296644212197,0.10459409141351618,0.011672762037338075,7.8002801608244985,0.23482723260316204,-0.023928225999999997,-0.04432605800000006,-0.23339827000000035
129432.0,-1.218770462,-0.4564995575,7.423241783999999,-0.2123210488343622,0.18506598723521875,0.041783182292744254,7.5364654758556995,0.28473756642209763,-0.07305954250000002,-0.04305119349999997,-0.28135278850000045
129442.0,-1.369596739,-0.506807672,7.1539511749999996,-0.17608103224595192,0.290852138527847,0.06416528462031953,7.301483866869896,0.346000982879281,-0.15082627699999995,-0.0503081145,-0.26929060899999957
129452.0,-1.45334553,-0.4325713315,6.840334508,-0.12119042727073026,0.38704596025151455,0.07189185721889843,7.006390466405812,0.41189820847323627,-0.0837487910000001,0.0742363405,-0.3136166669999998
129462.0,-1.5586689509999998,-0.21829602899999997,6.5913436645,-0.07216063792370556,0.4787089072370047,0.05403888430024843,6.776644697682836,0.4871237794955395,-0.1053234209999998,0.21427530250000001,-0.24899084349999967
129472.0,-1.7478392294999998,0.010395048999999998,6.2704700765,-0.0468463824527798,0.552784171350148,0.007141887299160796,6.50951956825577,0.5548116168560062,-0.1891702785,0.22869107799999996,-0.32087358800000043
129482.0,-1.8747372805,0.083356525,5.8203448415,-0.04205021766829938,0.5850273839514912,-0.059473839590958776,6.115390605278805,0.5895442293626221,-0.12689805100000018,0.072961476,-0.4501252349999998
129492.0,-1.880719337,-0.17043957699999998,5.3343272675,-0.038852774478645775,0.5634428970920774,-0.10823659356242835,5.658727972854648,0.57505877660827,-0.005982056499999944,-0.25379610199999997,-0.4860175739999999
129502.0,-1.8544375149999999,-0.34038882149999994,4.933333348999999,-0.036721727461960695,0.4813722796755481,-0.10796955818687322,5.281342725027138,0.4946970612434374,0.026281822000000066,-0.16994924449999996,-0.4009939185000011
129512.0,-1.812465053,-0.44934070299999995,4.703465473,-0.03352428427230708,0.35826722621538004,-0.06986552995733301,5.060585350670606,0.3665521453930556,0.04197246199999993,-0.10895188150000001,-0.22986787599999925
129522.0,-1.8423753354999999,-0.3847148795,4.6831657075,-0.04311661384126792,0.18826343042487234,-0.017105971998796425,5.047216407017972,0.19389372321584156,-0.02991028249999994,0.06462582349999996,-0.0202997654999999
129532.0,-1.8818961349999999,-0.1344491715,4.71307599,-0.08868192462308389,-0.0297020132104395,0.02979102500229121,5.076681487956424,0.0981539531261711,-0.03952079949999998,0.25026570800000003,0.029910282500000385
129542.0,-1.9310274514999999,0.20907777799999996,4.9189175735,-0.17155190283702665,-0.2609913003554761,0.05910208446028398,5.288509301361502,0.31786722167565107,-0.04913131650000002,0.34352694949999996,0.20584158349999981
129552.0,-2.0220331635,0.48444850999999994,5.1272108195,-0.25602060264579624,-0.43126038619228685,0.06789505323183141,5.532775005431985,0.5061045424921518,-0.0910057120000003,0.27537073199999995,0.2082932460000002
129562.0,-2.180018295,0.5419154789999999,5.3044169850000005,-0.2762716579566864,-0.4496474298620471,0.050042080313181414,5.760468010819173,0.530106640190209,-0.15798513149999982,0.05746696899999998,0.17720616550000035
129572.0,-2.3703653715,0.395796394,5.329522009000001,-0.17954551081116069,-0.28870363821864203,-0.009911724822075797,5.8462887051808465,0.34012442350126776,-0.19034707650000016,-0.14611908499999993,0.025105024000000142
129582.0,-2.329667774,0.3778502245,5.376201663,0.02269975225143825,-0.005721189288037412,-0.11463147994173557,5.871428024817538,0.11699738011074759,0.04069759750000035,-0.017946169499999998,0.04667965399999918
129592.0,-2.16923098,0.49994301699999993,5.244596420000001,0.24759415301716758,0.2961806287341857,-0.22388036447032064,5.697481695759596,0.4462602906836209,0.16043679399999977,0.12209279249999994,-0.1316052429999992
129602.0,-2.0207582989999997,0.6447872375,4.9261744945000006,0.42852196459590775,0.4707135539336187,-0.2878309735926448,5.363432654082886,0.6986050338762554,0.14847268100000033,0.14484422050000006,-0.31842192550000004
129612.0,-1.7765727139999998,0.6555745525000001,4.8494864914999996,0.5316429981207407,0.487234840632997,-0.292094812955267,5.206102941092874,0.7780497716295817,0.24418558499999987,0.010787315000000075,-0.076688003000001
129622.0,-1.5730847264999999,0.6640082715,4.976384542499999,0.5705463871476943,0.3907757288630264,-0.2507933415360732,5.261169609145948,0.7356127719898192,0.20348798749999997,0.008433718999999895,0.1268980509999995
129632.0,-1.646144269,0.7585443774999999,5.193111507499999,0.5780076696999702,0.23116536876814495,-0.20176355218904848,5.500326140905403,0.6543995911838921,-0.07305954250000024,0.09453610599999995,0.21672696500000033
129642.0,-1.6221179765,1.225438984,5.522320747999999,0.5470978886471505,0.020392426980301748,-0.1684556887439887,5.884640505331033,0.5728082313571694,0.0240262925000001,0.46689460650000003,0.3292092405
129652.0,-1.5526868944999999,1.71027976,5.810832390999999,0.4863447227144799,-0.1586696276280565,-0.1628601631620949,6.2531325370659205,0.5368711882649642,0.06943108200000014,0.484840776,0.28851164299999965
129662.0,-1.6747796869999998,1.7245974689999999,6.094538775499999,0.429054290017766,-0.26792025748589354,-0.18044784603444175,6.5515285480673935,0.5370570484524213,-0.12209279249999994,0.014317708999999956,0.2837063845000003
129672.0,-1.628100033,1.584558507,6.172305509999999,0.3901509009908124,-0.3185470230984931,-0.19536866580974124,6.577149130766081,0.5402396200290506,0.04667965399999985,-0.140038962,0.07776673449999993
129682.0,-1.4905127334999997,1.4181396564999997,5.9915689505,0.38908625014709586,-0.3427948823964503,-0.19536866580974124,6.334954363107855,0.5541347823688773,0.13758729950000026,-0.16641885050000016,-0.18073655949999967
129692.0,-1.3300759395,1.284082751,5.8754582145,0.45810005942945564,-0.40727956226988477,-0.17964848523702834,6.159462618328653,0.638753383192589,0.16043679399999977,-0.13405690549999982,-0.11611073599999955
129702.0,-0.9601691014999999,1.3259571465,6.075317741499999,0.6081180899553762,-0.5127986781869579,-0.155133590563516,6.292024532534373,0.8104545185279646,0.369906838,0.04187439550000005,0.1998595269999992
129712.0,-0.678816313,1.3463549785,6.787574730999999,0.8124944000346603,-0.6049939505943065,-0.13434846450151552,6.95303056543234,1.021868064016732,0.2813527884999999,0.020397832000000005,0.7122569895000002
129722.0,-0.47650512349999996,1.3918578345,7.8877827945,1.004613262777188,-0.6561547869580162,-0.12822061349776342,8.023804756933647,1.206742490310791,0.20231118950000004,0.045502855999999925,1.1002080635000002
129732.0,-0.36637644399999997,1.321151888,9.202168094,1.1261213399717813,-0.6633507794639888,-0.12742125270035,9.303739658874576,1.313171620388991,0.11012867949999999,-0.07070594649999995,1.3143852994999996
129742.0,-0.1305265115,0.9907658494999999,10.459086424499999,1.2255108595558504,-0.5959356917764558,-0.1380799784422794,10.506718944270851,1.369701535397045,0.23584993249999997,-0.33038603850000003,1.2569183304999996
129752.0,0.31950065699999997,0.5813382119999999,11.6131329965,1.3448861444045064,-0.46829976357811054,-0.16765632794657528,11.632063135185943,1.4339219135919021,0.45002716849999996,-0.4094276375,1.1540465720000004
129762.0,0.860631604,0.16720338249999997,12.659404484999998,1.447207817131926,-0.3292057488404225,-0.16579231630544536,12.689726775772641,1.4934101858442181,0.5411309470000001,-0.4141348294999999,1.0462714884999986
129772.0,1.4471673405,0.17318543899999997,13.311840909499999,1.4741207941976786,-0.2474021667994482,-0.09651147164753045,13.391392567897084,1.4978499297935786,0.5865357365,0.005982056499999999,0.6524364245000012
129782.0,1.6135861909999998,0.05707470299999999,13.894846251999999,1.462929743033891,-0.26392345349882657,0.018867009214058702,13.988340512163221,1.4866657278610538,0.16641885049999972,-0.11611073599999998,0.5830053424999999
129792.0,1.6040737404999998,-0.0422666615,14.4227382215,1.4498729348997215,-0.36464465930216733,0.1361095017167778,14.511726873172364,1.5012071980142898,-0.009512450499999936,-0.09934136449999999,0.5278919695000006
129802.0,1.6698763619999997,0.11326680749999998,15.266698520499999,1.4344180443733117,-0.5026722778668868,0.2597486259280561,15.358170468837896,1.5419805101333655,0.06580262149999982,0.15553346899999998,0.843960298999999
129812.0,1.6339840229999998,0.34195788549999995,16.358472865,1.3896520943889092,-0.5676892831621797,0.3516786082891014,16.44343253271093,1.5417788133142933,-0.035892338999999884,0.22869107799999996,1.091774344500001
129822.0,1.4089214055,0.48915570199999997,17.379541262999997,1.308113802394238,-0.493079948297926,0.374594781367787,17.443416733541472,1.4472770314130523,-0.2250626174999999,0.14719781650000002,1.021068397999997
129832.0,1.2376972964999997,0.592125527,17.933813121,1.2044604434475468,-0.31748237225477655,0.35034517674057775,17.986221401296053,1.2939326718913038,-0.17122410900000018,0.10296982500000001,0.5542718580000034
129842.0,1.1107992455,0.624487472,18.0451185985,1.1085336570994344,-0.12349775254186676,0.307179693680254,18.09005707012609,1.1569174248902268,-0.12689805099999973,0.032361945,0.1113054775000002
129852.0,1.055783939,0.5215176469999999,17.726696673,1.010475823734637,0.06382669074543264,0.2648118260880916,17.765765824149884,1.0465469602649544,-0.05501530650000008,-0.10296982500000007,-0.3184219255000009
129862.0,1.0665712539999999,0.6507692939999999,17.172424815,0.9070877548342489,0.19625878372825836,0.2621467083202963,17.217817775220535,0.9643892377271224,0.010787314999999964,0.12925164700000003,-0.5542718579999999
129872.0,0.8415086365,0.71784678,16.633745530499997,0.7866478191418762,0.23489513737965687,0.3063803328828406,16.67048083164637,0.8762758842411892,-0.2250626174999999,0.06707748600000007,-0.5386792845000024
129882.0,0.6139943565,0.821993403,16.257856636,0.673135095250669,0.23382874120668828,0.36100390248250713,16.29019842178476,0.7988182235527874,-0.22751427999999996,0.104146623,-0.3758888944999974
129892.0,0.215354034,1.0339151094999999,15.8448986045,0.575874877354033,0.24395514152675943,0.3817890285445076,15.88005571780208,0.7327406415382066,-0.39864032250000003,0.21192170649999986,-0.41295803149999877
129902.0,-0.1628884565,1.2948700659999999,15.4402762255,0.4748866361751371,0.24715258471641302,0.346882443504621,15.495333202510501,0.6379099834314222,-0.37824249050000003,0.2609549565,-0.404622379000001
129912.0,-0.4035436475,1.5988762159999999,14.895614884499999,0.35711007292130775,0.2546138672686888,0.249623970937237,14.986613874283476,0.504646363757685,-0.240655191,0.30400615,-0.5446613410000012
129922.0,-0.6560648849999999,1.734207986,14.152172747999998,0.22148053674882842,0.2119789643009713,0.12198804273889166,14.273117808007823,0.32995422718299466,-0.25252123749999994,0.13533177000000007,-0.7434421365000006
129932.0,-0.7530526535,1.8000106074999997,13.287912683499998,0.08638332599820735,0.08088030286666922,-0.0011187560505283654,13.430403939211063,0.11834252835484504,-0.09698776850000002,0.06580262149999982,-0.8642600644999998
129942.0,-0.7709988229999999,1.7437204364999999,12.631847798499999,-0.020999801559995774,-0.12429711333928016,-0.10850188360873149,12.774919919522175,0.16632324791405373,-0.017946169499999942,-0.05629017099999989,-0.6560648849999993
129952.0,-0.6500828285,1.621627644,12.226048621499999,-0.09001361084235555,-0.348125117932041,-0.18790738325746548,12.350244888056979,0.405712623114865,0.1209159944999999,-0.12209279249999994,-0.40579917700000045
129962.0,-0.32214845249999996,1.481588682,12.1230787965,-0.1291840352448643,-0.5002741954746466,-0.23267333324186806,12.217525287644243,0.5666565676155467,0.327934376,-0.140038962,-0.10296982499999885
129972.0,0.083748791,1.4875707384999999,12.184174226,-0.13584595699972665,-0.5543671849817069,-0.24626421212714789,12.274933080532785,0.6216294410597993,0.40589724349999995,0.005982056499999944,0.06109542949999991
129982.0,0.373437232,1.7760823814999998,12.2846923885,-0.14144148258162045,-0.5111999565921311,-0.25185973770904174,12.418034911860586,0.5871664296377569,0.289688441,0.2885116429999999,0.10051816250000023
129992.0,0.330287972,1.6827230734999998,12.068063489999998,-0.14490596114682922,-0.43632358635232243,-0.2641171850457979,12.189290524276139,0.5302206116511836,-0.04314926000000002,-0.09335930799999992,-0.21662889850000155
130002.0,0.144746154,1.4420678824999997,11.7747465885,-0.1294510706204194,-0.37317233802741157,-0.28490056577854633,11.86360689041188,0.48701489292890554,-0.185541818,-0.2406551910000001,-0.293316901499999
130012.0,0.1375872995,1.437262624,11.500650720999998,-0.08921425004494216,-0.31694830150366626,-0.3163426722532242,11.590928397750062,0.4566049655067838,-0.007158854499999978,-0.004805258499999798,-0.2740958675000016
130022.0,0.2070183815,1.3498853725,11.262349125999998,-0.020734511513692634,-0.2505996099891018,-0.34645309250863043,11.344847066623739,0.4280885770529214,0.06943108199999998,-0.08737725149999997,-0.23830159499999937
130032.0,0.43806305549999996,1.2086696124999998,11.085241026999999,0.07492698478811657,-0.18105347528488377,-0.3483188494790123,11.159540765616606,0.39965039079745124,0.23104467399999998,-0.14121576000000013,-0.1771080989999998
130042.0,0.640374245,1.0949124725,10.9906068545,0.17564993592070932,-0.12323071716631163,-0.3038199348701649,11.063559622756038,0.3719479297788657,0.2023111895,-0.11375713999999992,-0.09463417249999928
130052.0,0.8438622324999999,1.1523794415,11.076807308,0.2478611883927227,-0.08699244590715337,-0.23054228622518297,11.168515657113703,0.34950336206436694,0.20348798749999997,0.057466969000000034,0.08620045350000005
130062.0,0.8307213214999999,1.225438984,11.172618278499998,0.26677881215508925,-0.04808731155094777,-0.14767230801124023,11.270279402684475,0.30869148789761747,-0.013140911000000033,0.07305954250000002,0.09581097049999876
130072.0,0.6511615599999999,1.22779258,11.1989001005,0.2406651958867501,-0.013180726511061176,-0.06853384373806133,11.284806132925084,0.2505800387103494,-0.17955976149999997,0.002353596000000069,0.026281822000001398
130082.0,0.491901564,1.3427265179999999,11.1989001005,0.18817267330376863,0.014264575976549655,-0.017638297420654692,11.289829277353354,0.18953506968890235,-0.1592599959999999,0.11493393799999985,0.0
130092.0,0.30753654399999997,1.4420678824999997,11.1163281075,0.11729310705102691,0.03637964292856981,0.0010140362954087054,11.213692036846206,0.12280952589641532,-0.18436502000000005,0.09934136449999986,-0.08257199300000018
130102.0,0.16632078399999997,1.4456963429999998,11.0145350805,0.027228881660363535,0.046239007873085776,-0.002183406894244906,11.110251282438174,0.053704982182542486,-0.14121576,0.003628460500000097,-0.10179302699999937
130112.0,0.099243298,1.422944915,10.939121942,-0.06496639074698493,0.06489134158914917,-0.01683893662324129,11.031727440671661,0.09335452815226002,-0.06707748599999998,-0.02275142799999985,-0.07541313850000009
130122.0,0.040599530999999994,1.399016689,10.752403326,-0.1497021259313096,0.08754047929227958,-0.028829348584442336,10.843111790579021,0.17579872969643154,-0.058643767,-0.023928225999999997,-0.18671861600000028
130132.0,-0.024026292499999997,1.3702832044999997,10.530969169,-0.2187159352136694,0.09180431865490173,-0.03362725869817475,10.619772359221955,0.23957354980805945,-0.06462582349999998,-0.02873348450000024,-0.22143415699999913
130142.0,-0.0610954295,1.3714600024999999,10.319047462499999,-0.26641229301217045,0.07075390254659812,-0.03629063113671809,10.4099652123958,0.2780263198006214,-0.037069137,0.0011767980000001454,-0.21192170650000186
130152.0,-0.0911037785,1.34154972,10.199406332499999,-0.2925259092805096,0.0627602945724641,-0.025631905394788723,10.287659844937046,0.3002786318561126,-0.030008348999999997,-0.02991028249999994,-0.11964112999999976
130162.0,-0.014415775499999998,1.3128162354999997,10.241280727999998,-0.2909271876856828,0.08674111849486618,-0.002183406894244906,10.32509202053327,0.30359087179641414,0.076688003,-0.02873348450000024,0.04187439549999894
130172.0,0.10885381499999999,1.4397142864999999,10.278349865,-0.26960973620182405,0.16881173591139553,0.025794221015224196,10.379263091719842,0.3191428424295587,0.1232695905,0.12689805100000018,0.03706913700000136
130182.0,0.1005181625,1.4624657145,10.1909726135,-0.24749292392055192,0.26127404369429913,0.055639351224327234,10.295864833814951,0.3641601443098608,-0.008335652499999999,0.022751428000000073,-0.08737725149999953
130192.0,-0.0383440015,1.375088463,10.198131468,-0.2349701865374926,0.31137022921429236,0.08868017929383189,10.290491921290185,0.40003322662250346,-0.138862164,-0.08737725149999997,0.007158854500000089
130202.0,-0.101793027,1.3965650265,10.2580500995,-0.22990698637745707,0.30897214682205215,0.12651717214781696,10.353180551764792,0.4053734139596137,-0.06344902549999999,0.021476563500000045,0.05991863150000043
