timestamp,ax,ay,az,gx,gy,gz,acc_mag,gyro_mag,dax,day,daz
83092.0,-1.253093737,-2.168446448,7.359694692,0.04224220388601876,-0.07011511204036819,-0.17909870652265011,7.77415653759335,0.19691845876826203,0.0,0.0,0.0
83102.0,-0.9262380925,-3.0590864009999996,7.3153686339999995,0.022525219326238816,-0.055726617686926945,-0.22679506432115118,7.983141290500387,0.23462489770899247,0.32685564449999993,-0.8906399529999995,-0.044326058000000224
83112.0,-0.6353728535,-3.1129249095,7.137083736999999,0.005736897251305361,0.008758062186507546,-0.2601029277662109,7.812295720471684,0.2603135583789087,0.29086523900000005,-0.05383850850000016,-0.17828489700000016
83122.0,-0.607816167,-3.0328045789999996,7.000575169,0.005471607205002223,0.09269269124416685,-0.2838184616423099,7.653456526569503,0.2986214872786277,0.027556686499999983,0.08012033050000023,-0.1365085679999991
83132.0,-0.6341960555,-2.9142421804999996,6.987434258,0.03185051351964452,0.1739639478632828,-0.2880805556756801,7.597318581795104,0.33803596987014956,-0.02637988850000006,0.11856239849999994,-0.01314091099999981
83142.0,-0.698821879,-2.8220596705000003,7.107075388,0.08354367530521256,0.21793053705027196,-0.2808863084989594,7.678729932296552,0.3651991004434367,-0.06462582350000001,0.09218250999999933,0.11964112999999976
83152.0,-0.8089505584999999,-2.722718306,7.2831047555,0.16295092028319857,0.21020396445169304,-0.2659654887236599,7.81736597963225,0.3761334208553731,-0.11012867949999983,0.0993413645000003,0.17602936749999998
83162.0,-0.9047615289999998,-2.6353410545,7.417161661,0.2703340478414017,0.15797673191501474,-0.2425169902231161,7.923250785081832,0.39604499213567224,-0.09581097049999998,0.08737725149999997,0.1340569054999996
83172.0,-0.9933155785,-2.5790508835,7.589562568,0.40063509380754236,0.08016995386110753,-0.21720273475219035,8.07710587226388,0.4627231654846132,-0.08855404950000012,0.05629017100000011,0.1724009070000001
83182.0,-1.0627466604999998,-2.5419817465,7.687727134499999,0.5343988730096397,-0.009627236154000721,-0.19162144390570945,8.166532321522437,0.567797161770334,-0.06943108199999981,0.03706913700000003,0.0981645664999995
83192.0,-1.1094263144999998,-2.5431585445,7.844535467999999,0.6646981736465285,-0.11194890888142028,-0.1727038201433429,8.320770327228026,0.6958324724679606,-0.04667965400000007,-0.0011767979999999234,0.1568083334999999
83202.0,-1.0603930645,-2.4808863169999995,7.997715341,0.7904700902037438,-0.2108078483728831,-0.1564495688195197,8.440537959442175,0.8329221932606508,0.04903324999999992,0.06227222750000028,0.1531798730000009
83212.0,-0.9250612945,-2.376739694,8.2119906435,0.89625449616712,-0.28142037925006963,-0.13433275653824756,8.598919717066138,0.9489546044127692,0.13533176999999996,0.10414662299999966,0.21427530249999993
83222.0,-0.800614906,-2.2187545625,8.355658066,0.9626031876816846,-0.3160599289144011,-0.10075785771763264,8.682216177464992,1.0181605578159878,0.1244463885,0.15798513149999982,0.14366742250000009
83232.0,-0.7179448464999999,-2.087051253,8.560420918,0.9831212783681299,-0.3339129018330511,-0.05386086071654501,8.840363908154275,1.0396760391140512,0.08267005950000006,0.1317033095000002,0.204762852
83242.0,-0.723926903,-2.064299825,8.769890962,0.977258717410681,-0.3597594827258352,-0.004565781323217166,9.038605612247471,1.0413848148141114,-0.005982056500000055,0.02275142799999985,0.2094700439999997
83252.0,-0.6808757095,-2.142164626,8.8943373505,0.9676663878417201,-0.40505775813209605,0.0324735960626065,9.173968493578569,1.0495258739177797,0.04305119349999997,-0.07786480100000004,0.12444638850000089
83262.0,-0.5491724,-2.251018441,8.966220094999999,0.9721972625798975,-0.45488690827653405,0.04766145121346115,9.260765472606765,1.0744120394992804,0.13170330949999998,-0.1088538149999998,0.0718827444999981
83272.0,-0.4821929805,-2.2067904495,8.933858149999999,0.9889838393255789,-0.4841979677345269,0.03673569009597665,9.215001660486518,1.1017650463380275,0.06697941950000003,0.044227991499999675,-0.03236194499999989
83282.0,-0.468954003,-2.0787156005,8.8105885595,1.0063044868223705,-0.47700372055780627,0.02074847414770859,9.064626146150987,1.113827530995837,0.013238977499999971,0.12807484900000032,-0.12326959049999964
83292.0,-0.42109755099999996,-1.8619886355,8.7854835355,1.0380136286726036,-0.40825520132174964,0.0010297442586766543,8.990497526762962,1.1154127769976308,0.04785645200000005,0.21672696499999988,-0.025105024000000142
83302.0,-0.42953126999999997,-1.6249619049999997,8.822552672499999,1.07478422535362,-0.26916293191331353,-0.014957471689591405,8.981226751599467,1.108076505005181,-0.008433719000000006,0.23702673050000023,0.037069136999999586
83312.0,-0.5647649735,-1.4322612325000001,9.003289232,1.1032959240141995,-0.07757639459264395,-0.023750440461138837,9.133977704618182,1.1062748647449412,-0.13523370350000002,0.19270067249999956,0.18073655950000145
83322.0,-0.7838455344999999,-1.231126841,9.4786175575,1.1336733796451608,0.12386950767254155,-0.028813640621174388,9.590322096881495,1.140784472428059,-0.21908056099999995,0.20113439150000012,0.4753283254999996
83332.0,-1.101090662,-1.0611775964999999,10.1274255215,1.168045893933937,0.2826805069700096,-0.030679397591556325,10.242228577354961,1.2021566889525395,-0.3172451275000001,0.16994924450000015,0.6488079639999995
83342.0,-1.3740097315,-1.010869482,10.8433109715,1.175774211861768,0.3346407041311328,-0.03094468763785946,10.976664004903672,1.222860160375481,-0.2729190694999999,0.050308114499999945,0.71588545
83352.0,-1.4590333869999998,-0.9713486825,11.301771859,1.1464631524037752,0.2741545735740173,-0.03813893481458009,11.436885233325528,1.1794036918629447,-0.0850236554999999,0.03952079949999998,0.45846088750000114
83362.0,-1.4218661835,-0.8253276639999999,11.484862014499999,1.0902391158800298,0.15318056713053432,-0.05252917449727334,11.60193624740498,1.1022000408794521,0.03716720349999991,0.14602101850000004,0.18309015549999863
83372.0,-1.2578989955,-0.650573161,11.330505343499999,1.0161638517668865,0.043664647226394133,-0.06425255108291925,11.418664837001542,1.0191290229287868,0.16396718799999999,0.17475450299999995,-0.1543566710000004
83382.0,-1.0591182,-0.4386514545,11.081514499999999,0.9370236421644557,0.010356783781334353,-0.07118150821333674,11.140651241009945,0.9397804935499355,0.19878079550000005,0.21192170649999997,-0.24899084349999967
83392.0,-0.9669356899999999,-0.2327118045,10.942652335999998,0.864280064270584,0.07377506748180032,-0.06958278661850993,10.987754982666644,0.8702094887273444,0.09218251,0.20593964999999997,-0.13886216400000073
83402.0,-1.0399952325,-0.1034601575,10.995314046499999,0.7923341018448737,0.18568906977818073,-0.04879766055650946,11.044873248207642,0.8152637433721661,-0.07305954250000002,0.12925164700000003,0.05266171050000068
83412.0,-1.2172013979999998,-0.09031924649999999,11.2059608885,0.7153266845883799,0.2882777778811554,-0.01708851870627648,11.27223563647306,0.7714197044254671,-0.1772061654999999,0.013140911000000005,0.21064684200000094
83422.0,-1.4625637809999998,-0.1944658695,11.402290021499999,0.6343224633448191,0.34236902205896363,0.009025097562062679,11.497353065914426,0.720876540855267,-0.24536238300000002,-0.10414662300000001,0.196329132999999
83432.0,-1.7295007939999998,-0.272232604,11.49927779,0.564776328640601,0.3287798885029358,0.021015509523263722,11.63179578907378,0.6538426172384922,-0.26693701299999995,-0.07776673449999999,0.09698776850000179
83442.0,-1.923476331,-0.293807234,11.5376217915,0.5314684651955414,0.24724159650826474,0.01835039175546838,11.700547016715227,0.5864502309819983,-0.19397553700000025,-0.021574629999999984,0.038344001499998726
83452.0,-1.9761380414999998,-0.30577134699999997,11.556744759,0.5375963161992934,0.136659280431156,0.004761258199440531,11.72846823333651,0.554714546139412,-0.05266171049999979,-0.011964112999999998,0.01912296750000131
83462.0,-1.9522098154999998,-0.338133292,11.547134242,0.5770337759773573,0.027410395902570946,-0.020285961895930096,11.715876684638765,0.578040507812615,0.023928225999999997,-0.032361945,-0.009610517000000485
83472.0,-1.8731682165,-0.304594549,11.5195775555,0.6399179889267129,-0.0506634175268914,-0.05306149991913161,11.674853492175636,0.6441097245044363,0.07904159899999974,0.03353874299999998,-0.027556686500000538
83482.0,-1.7570574804999999,-0.26144528899999997,11.556744759,0.7038685980490371,-0.09063320272681354,-0.07810872001450223,11.692474248575248,0.7139652322755924,0.11611073600000021,0.04314926000000002,0.03716720350000102
83492.0,-1.7259703999999998,-0.14533455299999998,11.628529437,0.7483675126578847,-0.09542936751129395,-0.0964940183550105,11.756818992446359,0.7605733322722089,0.031087080500000086,0.11611073599999999,0.07178467799999844
83502.0,-1.7307756585,-0.017259704,11.709924632,0.7643564739354047,-0.09276424974349862,-0.10955082648918008,11.837154099045877,0.7777193638208462,-0.004805258500000242,0.128074849,0.0813951950000007
83512.0,-1.7462701655,0.0066685220000000005,11.893112854,0.7571622267586839,-0.10342297548542799,-0.1191449013873929,12.020633815156382,0.7734251463555085,-0.01549450699999988,0.023928226,0.18318822200000007
83522.0,-1.7954014819999997,0.0438357255,12.0811063345,0.7265177357521675,-0.12926955637821202,-0.12820316020524347,12.213865822003036,0.7489824356120024,-0.0491313164999998,0.037167203499999996,0.18799348049999942
83532.0,-1.8444347319999999,0.074922806,12.198393868499998,0.6825528918944304,-0.17883167114709497,-0.13593147813307435,12.337275464158413,0.7185656431991131,-0.04903325000000014,0.031087080499999996,0.11728753399999903
83542.0,-1.794224684,0.060507030499999996,12.224675690499998,0.6348547887666773,-0.24145059405014754,-0.14978764706465736,12.355792125773094,0.6955395972914252,0.05021004799999984,-0.014415775499999998,0.02628182199999962
83552.0,-1.6540876554999997,0.12277925799999999,12.191235014,0.5914222703307985,-0.2851501478615816,-0.17776527497412645,12.303547938901692,0.6802142321764113,0.14013702850000032,0.06227222749999999,-0.033440676499997934
83562.0,-1.4243178459999999,0.1970155985,12.022364501,0.5485220773167779,-0.2987392814176094,-0.21666866400108004,12.108044626090184,0.6611103822553658,0.2297698094999998,0.07423634050000001,-0.1688705129999999
83572.0,-1.1680700814999998,0.3227368515,11.8547688525,0.49869292717233976,-0.26383269637772283,-0.25317397063579344,11.916546955255777,0.6183844974586199,0.2562477645000001,0.12572125299999998,-0.16759564850000075
83582.0,-0.89632781,0.5058270069999999,11.684819607999998,0.43793976123966916,-0.17909870652265011,-0.27875526148227436,11.730058558058914,0.5491557856899952,0.27174227149999985,0.18309015549999996,-0.16994924450000148
83592.0,-0.7227501049999999,0.6986257459999999,11.4944725315,0.35160530446051763,-0.03920533098754863,-0.2923443950383022,11.538342360350537,0.4589429086639507,0.17357770500000003,0.192798739,-0.19034707649999838
83602.0,-0.6485137644999999,0.8326826515,11.364044086499998,0.23409577658224343,0.14971608856532556,-0.293943116633129,11.412950034972141,0.40449758417689136,0.07423634050000005,0.13405690550000005,-0.1304284450000015
83612.0,-0.7144144524999999,0.90809579,11.2179250015,0.10539345221092958,0.36048903035316876,-0.27848822610671925,11.277272157442834,0.46756369924746355,-0.06590068800000004,0.07541313849999998,-0.1461190849999987
83622.0,-0.8879921575,0.8470003604999999,11.255092204999999,-0.007052875507309086,0.5542066146905233,-0.24784548042945476,11.321794920661668,0.6071425672681492,-0.17357770500000014,-0.06109542950000002,0.037167203499999246
83632.0,-1.1620880249999999,0.6914668915,11.3340357375,-0.0856590143586297,0.6972974334152785,-0.21533697778180838,11.414418125284191,0.7348001030134861,-0.2740958674999998,-0.15553346899999998,0.07894353250000208
83642.0,-1.4781563545,0.49150929799999993,11.397484763,-0.12003327397665801,0.742063383399681,-0.19108911848385118,11.503442377009863,0.7756165953917391,-0.3160683295000002,-0.19995759350000003,0.06344902549999887
83652.0,-1.7223419395,0.3131263345,11.4466160795,-0.10111390488503949,0.692234233255243,-0.1806974281174769,11.579703343755659,0.7225398369500783,-0.24418558499999987,-0.17838296349999994,0.049131316500000466
83662.0,-1.8959196445,0.19221033999999998,11.423864651499999,-0.03289945640009311,0.5741906346258585,-0.18176207896119345,11.581715748929218,0.6031705500700136,-0.17357770500000003,-0.12091599450000001,-0.022751428000001184
83672.0,-1.9210246684999999,0.1611232595,11.38552065,0.06462605154284604,0.43856109845337915,-0.1841601613534337,11.54757017529289,0.480028466493786,-0.02510502399999992,-0.031087080499999975,-0.038344001499998726
83682.0,-1.8563988449999997,0.1719105745,11.381990255999998,0.16641365351915535,0.33677349647706983,-0.18229614971230373,11.533666897609846,0.4175425465828783,0.06462582350000012,0.010787314999999992,-0.0035303940000019907
83692.0,-1.7821625045,0.168282114,11.392777571,0.2516817141253383,0.28081649532887965,-0.1703057377511027,11.532554046897793,0.41377002499554094,0.07423634049999972,-0.003628460499999986,0.01078731500000174
