timestamp,ax,ay,az,gx,gy,gz,acc_mag,gyro_mag,dax,day,daz
117762.0,2.1318676434999997,-4.523905711499999,9.120969032,-0.05936388384808313,0.07626914298290022,0.038074357632256306,10.402050692947405,0.10387834031203876,0.0,0.0,0.0
117772.0,2.648972298,-5.0326747135,9.2118766775,-0.11665257121554501,-0.003403392041388943,0.05619436592646143,10.826058420724605,0.1295268783321139,0.5171046545000002,-0.5087690020000002,0.09090764549999975
117782.0,2.750765325,-5.1128931105,9.135286741,-0.11532088499627334,0.030703832201084247,0.03514394981815782,10.82413274460874,0.12440550243850645,0.10179302700000026,-0.08021839700000033,-0.07658993649999957
117792.0,2.5305079659999996,-4.952456316499999,8.913852583999999,-0.08494342936531203,0.05388704065532492,0.007431611954991855,10.506524735711311,0.10086837065789242,-0.22025735900000054,0.16043679400000066,-0.2214341570000009
117802.0,2.4886335705,-4.8806716385,8.724682305499998,-0.07215365660669758,0.0568174484694234,-0.005625196179177724,10.302151912245451,0.09201095284990289,-0.04187439549999983,0.07178467799999932,-0.18917027850000068
117812.0,2.6537775565,-5.116521571,8.7617514425,-0.0761504605937646,0.07626914298290022,-0.005892231554732856,10.487593463042046,0.10793791369432319,0.16514398600000035,-0.23584993249999986,0.03706913700000136
117822.0,2.796268181,-5.3882638425,8.802449039999999,-0.07401941357707952,0.1189040459506177,-0.005892231554732856,10.692783177370746,0.14018474996381003,0.14249062449999972,-0.27174227149999997,0.04069759749999946
117832.0,2.785480866,-5.522320747999999,8.760574644499998,-0.055100044485460985,0.14741574461119708,-0.008557349322528197,10.723926435802312,0.1576091523008776,-0.010787314999999964,-0.1340569054999996,-0.041874395500000716
117842.0,2.6537775565,-5.636077888,8.7570442505,-0.010866419922916697,0.12956277169254707,-0.008557349322528197,10.746801072142388,0.13029896054084242,-0.13170330949999975,-0.11375714000000059,-0.003530393999998438
117852.0,2.542472079,-5.6922699925,8.7223287095,0.06454227573875031,0.06134832320760068,-0.016816247342965364,10.721246198860394,0.09062068358063131,-0.1113054775000002,-0.056192104500000006,-0.03471554100000063
117862.0,2.4753945929999994,-5.648042000999999,8.648092368999999,0.15167434798606322,-0.020189968787070404,-0.04746073834948181,10.621556310582255,0.1602038213067911,-0.06707748600000052,0.04422799150000056,-0.07423634050000061
117872.0,2.4227328824999996,-5.5474257719999995,8.510407003,0.2284164751962539,-0.08414057790939464,-0.0916926175827741,10.443686833322223,0.2601177793061994,-0.05266171049999979,0.10061622899999989,-0.13768536599999948
117882.0,2.519720651,-5.5079049724999996,8.352421871499999,0.2734477152269596,-0.10465866859583997,-0.13965601075683026,10.317410550359893,0.3243931121580884,0.09698776850000046,0.03952079949999998,-0.15798513150000026
117892.0,2.66937013,-5.519967152,8.209931247,0.28437347634444404,-0.06575527956888637,-0.18841876472829985,10.246879785113231,0.3474099332793248,0.1496494789999998,-0.01206217950000088,-0.14249062449999883
117902.0,2.7711631569999997,-5.443279148999999,8.060281768,0.2689185858180343,0.005923647481268754,-0.23878024029459624,10.113198075594365,0.3596780484725179,0.10179302699999981,0.076688003000001,-0.1496494790000007
117912.0,2.774693551,-5.324814817,7.895137782,0.2356107223729745,0.08906066107076666,-0.28354619027899874,9.918960516811609,0.37926594346080034,0.0035303940000002143,0.1184643319999994,-0.16514398599999947
117922.0,2.785480866,-5.207527283,7.733524189999999,0.20443390594459981,0.17672680406918984,-0.30806108495251117,9.730603293494017,0.4097892351421565,0.010787314999999964,0.11728753399999992,-0.16161359200000103
117932.0,2.7639062359999995,-5.128485683999999,7.597015622,0.18924605079374515,0.24707229957082127,-0.3187198106944405,9.573671680881096,0.44546729025299087,-0.021574630000000372,0.07904159900000085,-0.1365085679999991
117942.0,2.7004572104999998,-5.037479972,7.4533481995,0.18844668999633174,0.2753169628558455,-0.32378126552522407,9.392607358823877,0.46491493083343344,-0.06344902549999976,0.0910057119999994,-0.14366742250000009
117952.0,2.7040856709999996,-5.0650366584999995,7.3048755185,0.20789838450980855,0.2542665467475419,-0.3253799871200509,9.291279890781302,0.46232602251544586,0.003628460499999875,-0.02755668649999965,-0.14847268099999944
117962.0,2.7902861244999997,-5.1260340215,7.114626508499999,0.2478681697097307,0.20657018894904086,-0.3205838223355704,9.202164517199394,0.4548448742824073,0.08620045350000005,-0.06099736300000025,-0.19024901000000138
117972.0,2.9027684,-5.141626595,6.821309606999999,0.29956133149529873,0.17246296470656766,-0.31845277531888533,9.021787693190321,0.4699921654995065,0.11248227550000012,-0.015592573500000206,-0.2933169014999999
117982.0,3.1015491954999996,-5.159572764499999,6.6070343045,0.3531202502512487,0.17246296470656766,-0.3240483009007792,8.938327630217895,0.5093571307536248,0.19878079549999983,-0.017946169499999165,-0.21427530249999904
117992.0,3.3025855205,-5.106911053999999,6.431004937,0.4088119613531358,0.20230634958641872,-0.33550638744012196,8.851295731891575,0.5662328274142194,0.20103632500000046,0.05266171049999979,-0.17602936749999998
118002.0,3.4630223145,-4.9944287785,6.3675559115,0.46503425254762915,0.2646582371139162,-0.3427006346168426,8.802420727294994,0.6354089734034015,0.16043679399999977,0.11248227549999967,-0.06344902549999976
118012.0,3.4535098639999995,-4.7765250155,6.3185226615,0.5100672379075868,0.351792054690481,-0.33977022680274416,8.640928782736935,0.7066611945986657,-0.00951245050000038,0.2179037629999998,-0.04903324999999992
118022.0,3.3780967255,-4.526357374,6.349609742,0.5409770189604064,0.4501169234308336,-0.31845277531888533,8.498058156996768,0.7724464705793064,-0.07541313849999964,0.25016764150000004,0.031087080499999864
118032.0,3.2511986745,-4.3467976125,6.5650618425,0.5612280742712966,0.5609645295542455,-0.2814133979330617,8.518508044308918,0.8419332843548328,-0.12689805099999996,0.1795597615000002,0.2154521004999994
118042.0,3.20089056,-4.365920579999999,6.8523966875,0.5617603996931549,0.6563589904804995,-0.2315859931178756,8.732829051963952,0.8944349854832303,-0.050308114499999945,-0.019122967499999532,0.28733484500000017
118052.0,3.1565645019999997,-4.4413337185,7.197198501499999,0.5433751013526466,0.7144470386453748,-0.16710131324444108,9.027126393507812,0.9130246002639586,-0.044326058000000224,-0.07541313850000098,0.3448018139999993
118062.0,3.1146901065,-4.4760492595,7.497674257499999,0.5175285204598626,0.7243064035898907,-0.09329133917760091,9.270999444751231,0.8950747509209754,-0.04187439549999983,-0.03471554099999974,0.300475756
118072.0,3.0680104525,-4.443687314499999,7.7669648664999995,0.49701042977341725,0.6755436496184213,-0.016550957296662228,9.459639967945018,0.8388399871434177,-0.04667965400000007,0.03236194500000078,0.26929060900000046
118082.0,3.0213307984999997,-4.3252229825,7.897491378,0.478625131432909,0.5745554084395254,0.05113116576642588,9.497703075370127,0.7495400789276802,-0.04667965400000007,0.1184643319999994,0.13052651150000028
118092.0,2.8956095454999997,-4.097806769,7.895137782,0.45197744441345955,0.43253098588773875,0.11614817106171864,9.3546659776187,0.6362837901852627,-0.12572125300000003,0.22741621349999974,-0.002353595999999847
118102.0,2.773516753,-3.8739209494999995,7.729895729499999,0.4213346987361951,0.29263761035263725,0.18089814098145626,9.08025036500035,0.5439520537350411,-0.12209279249999971,0.22388581950000042,-0.1652420525000009
118112.0,2.659759613,-3.660822445,7.4952225949999995,0.39681980406268275,0.17779145491290638,0.23605578133223307,8.755244366741582,0.4947707451302724,-0.11375714000000015,0.21309850449999956,-0.2346731344999995
118122.0,2.5484541354999997,-3.5698167329999997,7.285752551,0.4010836434253049,0.1018504338293811,0.2781566135488403,8.504140181250357,0.49861077159996164,-0.1113054775000002,0.0910057120000003,-0.2094700439999997
118132.0,2.5532593939999995,-3.6440530734999994,7.175623871499999,0.45251151516456983,0.06161361325390382,0.30373790439532117,8.443212320010357,0.5484702574079998,0.004805258499999798,-0.07423634049999972,-0.11012867950000071
118142.0,2.5388436185,-3.663176041,7.229462379999999,0.5556325486894028,0.05575279762570686,0.30693534758497476,8.492921283656752,0.6372167693989886,-0.014415775499999395,-0.01912296750000042,0.05383850850000016
118152.0,2.4994208854999997,-3.659645647,7.3743066005,0.6941924926759806,0.07733553915586874,0.29334621402894695,8.603517237889253,0.7575856412243681,-0.03942273300000032,0.00353039399999977,0.14484422050000045
118162.0,2.331825237,-3.4226189165,7.659287849499999,0.8234271424691527,0.10318212004865276,0.25923898978647375,8.70726245986602,0.869415701881534,-0.16759564849999986,0.23702673050000023,0.28498124899999944
118172.0,2.2396427269999997,-3.2155024685,7.94534783,0.9044313637127135,0.11384084579058214,0.2051460002794135,8.859120035828575,0.934366475890587,-0.09218251000000022,0.20711644799999984,0.28605998050000103
118182.0,2.204927186,-3.0191733354999997,8.2135597075,0.9209526504120918,0.09865299063972749,0.1305366654151599,9.024393308916869,0.9353748007515107,-0.03471554099999974,0.19632913300000032,0.26821187749999975
118192.0,2.158247532,-2.8108800895,8.4385242585,0.895371359565611,0.056018087672010004,0.04313755779229185,9.152473487982611,0.8981585308669527,-0.04667965400000007,0.20829324599999977,0.22496455099999935
118202.0,2.2180680969999997,-2.6145509565,8.54747614,0.8572673313360708,-0.014594443205176584,-0.05278922855582049,9.20950873559136,0.8590151208215466,0.05982056499999988,0.19632913299999988,0.10895188150000124
118212.0,2.5640467090000003,-2.770182492,8.697125619,0.8447445939530115,-0.08946906811573332,-0.13832432453755858,9.480940913094186,0.8606577495852273,0.3459786120000006,-0.15563153549999997,0.14964947899999892
118222.0,2.9854384594999996,-2.944936995,9.0143707465,0.8785847828199295,-0.13876589283831317,-0.20360661987915452,9.942050928019647,0.9124816980501973,0.42139175049999933,-0.17475450299999995,0.31724512749999967
118232.0,3.375645063,-2.9713168834999997,9.3017055915,0.9340094585462615,-0.16194735596330184,-0.2643597858118251,10.331768025099613,0.984117224273541,0.39020660350000025,-0.026379888499999726,0.28733484500000017
118242.0,3.6282643669999994,-2.8145085499999998,9.5817835155,0.9590566786416321,-0.16461247373109716,-0.3104591673447513,10.625268751084489,1.0214068111890513,0.25261930399999954,0.1568083334999999,0.2800779240000004
118252.0,3.7671265309999997,-2.433814397,9.751830826499999,0.9097615992483042,-0.1499569440021008,-0.3240483009007792,10.73372718529236,0.9773231573220617,0.1388621640000003,0.38069415299999987,0.17004731099999937
118262.0,3.837734411,-1.893860248,9.842738471999999,0.7874541612562976,-0.0963980252461508,-0.2992663708517117,10.732866004777895,0.847901524986228,0.07060788000000029,0.5399541489999999,0.09090764549999975
118272.0,3.7754621834999997,-1.4114711345,9.8799056755,0.6262450795665894,-0.008464846872172497,-0.232385353915289,10.670468669151436,0.6680250788917039,-0.06227222750000028,0.4823891135,0.03716720350000102
118282.0,3.664156706,-1.1109953785,9.944531498999998,0.48075617844959406,0.08000065692366409,-0.139123685334972,10.656174821753643,0.5068352868998567,-0.11130547749999975,0.300475756,0.06462582349999835
118292.0,3.522940946,-1.0068487554999999,10.139683834,0.3901596276370724,0.13995446205892131,-0.05278922855582049,10.781374939168762,0.4178498404207182,-0.14121576000000013,0.1041466230000001,0.1951523350000013
118302.0,3.4271299754999998,-1.164833887,10.3790641605,0.3736383409376941,0.13569062269629914,0.009829694347232064,10.992134947363489,0.397635735060799,-0.09581097050000009,-0.15798513150000004,0.23938032650000096
118312.0,3.4402708865,-1.510812499,10.713078659499999,0.42772958511550235,0.05335471523346665,0.04393691858970525,11.352888290838962,0.43327794362958577,0.013140911000000255,-0.34597861200000013,0.33401449899999847
118322.0,3.47743809,-1.7777495119999998,11.026695326499999,0.5257874184802998,-0.07028440897781166,0.04766668720121713,11.697904890220984,0.5326015589972272,0.037167203500000134,-0.2669370129999997,0.3136166669999998
118332.0,3.4714560335,-1.8029526025,11.178698401499998,0.629442522756243,-0.19578929015947188,0.023685863278815045,11.843350160789965,0.6596153088840162,-0.005982056500000166,-0.025203090500000247,0.15200307499999965
118342.0,3.433112032,-1.5586689509999998,11.188308918499999,0.6952588888489492,-0.27812519762230437,-0.01042136096365814,11.806522078023706,0.7488972912491112,-0.03834400150000006,0.2442836515000002,0.009610517000000485
118352.0,3.3600524894999997,-1.1732676059999998,11.1416292645,0.702985461447528,-0.2882515979423755,-0.03413689483975709,11.696256335898548,0.7605543177921137,-0.07305954250000024,0.385401345,-0.046679653999998294
118362.0,3.318178094,-0.862004535,11.055428810999999,0.661416954652779,-0.22669732588303948,-0.04612730680095813,11.574794334110257,0.7007080660998467,-0.04187439549999983,0.31126307099999984,-0.08620045350000183
118372.0,3.1698034795,-0.6045799725,11.1045601275,0.5987997770789786,-0.07854505232750082,-0.04213050281389112,11.563927821768052,0.6053969586497074,-0.14837461449999978,0.2574245625,0.049131316500000466
118382.0,2.9901456515,-0.5268132379999999,11.196644570999998,0.5233893360880595,0.10318212004865276,-0.032271137869375154,11.601006544874464,0.5344383719081355,-0.1796578280000003,0.07776673450000005,0.09208444349999922
118392.0,2.863345667,-0.6441007719999999,11.365515084,0.4442508718148807,0.2555982329668136,-0.014418164950725156,11.738336651240251,0.5127349971326177,-0.12679998449999985,-0.11728753400000003,0.16887051300000167
118402.0,2.7939145849999996,-0.9625226975,11.494766730999999,0.3816319489118281,0.32781123076807894,0.0068975412038815905,11.868532801133542,0.5031408585302749,-0.06943108200000037,-0.31842192550000004,0.12925164699999847
118412.0,2.7339959534999996,-1.289378342,11.5690030715,0.37124025854545384,0.3118222694905589,0.023951153325118185,11.957385268149114,0.48541334454332985,-0.059918631499999986,-0.32685564450000004,0.07423634050000061
118422.0,2.795091383,-1.345668513,11.504377247999999,0.4287959812884709,0.2779820806236408,0.009562658971676933,11.915286628969548,0.5111080855979483,0.06109542950000035,-0.05629017099999989,-0.06462582350000012
118432.0,2.5735591595,-1.4222584495,11.342763655999999,0.5359138188003708,0.22495548728954912,-0.014418164950725156,11.717692315490066,0.5813918437021812,-0.22153222350000012,-0.07658993650000001,-0.16161359200000014
118442.0,2.451466367,-1.242698688,11.314030171499999,0.6534233466786451,0.13808870508853935,-0.06797708370667514,11.643078033720354,0.671305775609755,-0.12209279249999971,0.17955976149999997,-0.028733484500000017
118452.0,2.3545766649999997,-1.0499980155,11.2804914285,0.7512158899971393,0.13009509711440534,-0.12473344565227876,11.571344518783391,0.772533805177282,-0.09688970200000036,0.1927006725,-0.03353874299999937
118462.0,2.1821757579999996,-0.7362832819999999,11.322365824,0.810103298959428,0.1967108240045249,-0.16976643101223646,11.554218794995998,0.8507544559766467,-0.1724009070000001,0.3137147335,0.041874395500000716
118472.0,2.1187267325,-0.5459362055,11.4169999965,0.8226277816717393,0.30196290454604297,-0.20600470227139472,11.624755405064093,0.9001866474559459,-0.06344902549999976,0.19034707649999993,0.09463417249999928
118482.0,2.1127446759999997,-0.481310382,11.482802618,0.8002439340149121,0.4021535302567774,-0.232385353915289,11.685465575394717,0.9252679441869722,-0.005982056500000166,0.06462582350000001,0.0658026214999996
118492.0,2.2036523215,-0.529166834,11.6264700405,0.7741320630758249,0.49035199867705886,-0.24677384826873022,11.845290485880959,0.949011520413729,0.09090764550000019,-0.047856451999999994,0.14366742250000009
118502.0,2.274358268,-0.6261546025,11.898212311999998,0.7786611924847502,0.5593658079594187,-0.24304407965721836,12.129807555723225,0.9890772388708026,0.07070594649999995,-0.09698776850000002,0.2717422714999991
118512.0,2.2479783794999997,-0.6500828285,12.327939715000001,0.8151664991194635,0.585746459603313,-0.22199366354891475,12.54807204694348,1.028045000416016,-0.02637988850000017,-0.023928225999999997,0.4297274030000029
118522.0,2.056454505,-0.5459362055,12.803169974,0.8442105232019013,0.5620309257272139,-0.1881517293527447,12.978760066152148,1.031489816826635,-0.19152387449999964,0.104146623,0.47523025899999816
118532.0,1.802658403,-0.3688281065,13.187492587499998,0.8628628569179646,0.49887967740230316,-0.14898305027948797,13.31523834692486,1.0077743753659538,-0.25379610200000013,0.17710809900000002,0.3843226134999984
118542.0,1.6566373845,-0.23477120099999998,13.470022173999999,0.8764537358032445,0.4232039463650811,-0.11221070826921943,13.573542732411227,0.9797264793158965,-0.14602101849999993,0.1340569055,0.2825295865000008
118552.0,1.4818828814999998,-0.235947999,13.668704903,0.8697918140483821,0.3283435561899372,-0.08876220976867562,13.750823322914563,0.9339304152666023,-0.17475450300000017,-0.0011767980000000067,0.1986827290000015
118562.0,1.441185284,-0.34725347649999994,13.6376178225,0.8396813937929759,0.2332161306392383,-0.07623772705636431,13.717952466469955,0.8747952890243372,-0.040697597499999905,-0.11130547749999994,-0.031087080500000752
118572.0,1.4710955665,-0.5112206645,13.519055424,0.7962471300278451,0.17299529012842593,-0.0738396446641241,13.608465317249097,0.8181620595018584,0.029910282500000163,-0.1639671880000001,-0.11856239849999994
118582.0,1.5860295045000001,-0.6764627169999999,13.368229147,0.7538810077649347,0.1578074349775713,-0.07570540163450604,13.47897035842634,0.7739322116564964,0.11493393800000007,-0.1652420524999999,-0.15082627700000018
118592.0,1.6302574959999998,-0.7877681944999999,13.2245617245,0.7125777910164889,0.17459401172325276,-0.08210028801381326,13.347934335942785,0.7382348098481331,0.044227991499999675,-0.11130547749999997,-0.14366742250000009
118602.0,1.6338859565,-0.8201301394999999,13.078540705999998,0.6715433549728501,0.19564442783155636,-0.09515709614798283,13.20569664058141,0.7059051584292644,0.003628460500000097,-0.032361945,-0.14602101850000082
118612.0,1.6003472134999999,-0.7925734529999999,13.0139148825,0.6454297387045111,0.21935996170765532,-0.11833855927297153,13.135876995888495,0.6918831946328514,-0.03353874300000004,0.027556686499999983,-0.06462582349999835
118622.0,1.614762989,-0.7267708314999999,12.9588015095,0.6334393267433099,0.23588124840703364,-0.1521804934691416,13.079227496866277,0.6928522545302064,0.014415775500000061,0.06580262150000005,-0.0551133729999993
118632.0,1.6290806979999999,-0.6045799725,12.9085914615,0.6161186792465183,0.2361465384533368,-0.1833555645682643,13.025020321813512,0.684826019948216,0.014317708999999956,0.12219085899999993,-0.050210048000000285
118642.0,1.639868013,-0.47415152749999995,12.7589419825,0.5769482548440096,0.22682124425993108,-0.1980110942972607,12.87262938501269,0.650788413449387,0.010787315000000186,0.130428445,-0.1496494790000007
118652.0,1.6793888125,-0.48013358399999995,12.551825534499999,0.5356467834248158,0.22655420888437597,-0.1793587605811973,12.672773938272591,0.6086163415106435,0.03952079949999998,-0.005982056499999999,-0.20711644800000073
118662.0,1.7463682319999998,-0.6034031745,12.3674605145,0.5231240460417564,0.25613230371792384,-0.13192943815825137,12.504718188366025,0.597216795818487,0.06697941949999975,-0.12326959050000008,-0.18436501999999955
118672.0,1.7823586374999998,-0.757857912,12.304011489,0.5556325486894028,0.325945473797697,-0.07970220562157306,12.455514828737343,0.6490919985897455,0.03599040549999999,-0.15445473749999994,-0.06344902549999887
118682.0,1.8397275399999997,-0.8488636239999999,12.375796167,0.6281090912077193,0.433063311309597,-0.03920009499979264,12.540554120162186,0.7639381581700267,0.05736890249999993,-0.09100571199999996,0.07178467800000021
118692.0,1.8817000019999999,-0.9027021325,12.523092049999999,0.7117784302190755,0.5614986003053558,-0.02587625149006793,12.695806415124643,0.9069612959003169,0.041972462000000155,-0.05383850850000005,0.14729588299999818
118702.0,1.892487317,-0.8332710504999999,12.780418545999998,0.7778618316873367,0.6947283087563428,-0.038400734202379244,12.946619137811537,1.0436431710937935,0.010787315000000186,0.06943108200000003,0.25732649599999924
118712.0,1.8601253719999997,-0.7063729994999999,13.091681616999999,0.8023767263608491,0.8212995861109716,-0.07490604083709264,13.242022382358234,1.1506312772150313,-0.032361945000000336,0.12689805100000007,0.31126307100000083
118722.0,1.8529665174999999,-0.49572615749999993,13.3526365735,0.7581431017983049,0.9110967761260799,-0.11940495544594007,13.489704696626076,1.1912748808132982,-0.007158854499999867,0.21064684199999995,0.2609549565000009
118732.0,1.8086404595,-0.2334963365,13.539453256,0.6470284602993379,0.9537299337645454,-0.15031473649875962,13.661716412014572,1.1622569143715806,-0.04432605799999978,0.2622298209999999,0.18681668249999994
118742.0,1.7021402405,0.153179873,13.5107197715,0.49834211599268896,0.9398755101622145,-0.14738432868466114,13.618380748672829,1.073979971655236,-0.10650021900000017,0.38667620950000003,-0.028733484500000017
118752.0,1.6350627544999998,0.4847427095,13.307133717500001,0.34912344626418174,0.8631333829520237,-0.09942093551060498,13.415968600179113,0.9363604754128548,-0.06707748600000007,0.33156283649999996,-0.20358605399999874
118762.0,1.477077623,0.6990180119999999,12.952819453,0.2262836828503168,0.7434910627278124,-0.01495223570183542,13.055493719790261,0.7773074262046631,-0.15798513149999982,0.21427530249999993,-0.35431426450000103
118772.0,1.3812666525,0.7804132069999999,12.4716071375,0.12849288486107455,0.6137240875127821,0.0777771074566233,12.572109088419076,0.6318361777372656,-0.09581097050000009,0.08139519500000003,-0.48121231550000054
118782.0,1.271137973,0.7756079484999999,11.959209675,0.04615523206899004,0.5098036931905356,0.15585092088608565,12.051558218205335,0.5350884231405993,-0.11012867949999983,-0.00480525850000002,-0.5123974624999992
118792.0,1.1322758089999998,0.677443382,11.4313177055,-0.03058514981194863,0.43599371912369544,0.20861047884462225,11.507215237734105,0.4842977455947052,-0.1388621640000003,-0.09816456649999994,-0.5278919695000006
118802.0,0.9706622169999999,0.597224985,10.902248938,-0.09586919048279652,0.3707114237820996,0.23498938515926454,10.9616556563478,0.4492637004520923,-0.16161359199999992,-0.080218397,-0.5290687675000001
118812.0,0.8821081675,0.5134761939999999,10.464087816,-0.14489723450056924,0.3102235478957321,0.24005258531930007,10.513748448671128,0.41816157397997294,-0.0885540494999999,-0.0837487910000001,-0.43816112200000035
118822.0,0.8282696589999999,0.40217071649999997,10.055836976499998,-0.1843346942786331,0.2569316645153372,0.23498938515926454,10.097902218340932,0.3939710279740734,-0.05383850850000005,-0.11130547749999992,-0.40825083950000085
118832.0,0.7396175429999999,0.30518294799999995,9.683576542499999,-0.21337871836107075,0.2020393142108636,0.23179194196961092,9.716574776953017,0.37426977743100326,-0.088652116,-0.09698776850000002,-0.3722604339999993
118842.0,0.679796978,0.213000438,9.402223754,-0.21870720856740944,0.14261957982671664,0.2275298479362408,9.429173062266274,0.346327907237038,-0.05982056499999988,-0.09218250999999997,-0.28135278849999956
118852.0,0.6474350329999999,0.10885381499999999,9.234628105499999,-0.18779742751458986,0.09199106888486512,0.22353304394917375,9.25793592124542,0.30610006905072873,-0.032361945000000114,-0.104146623,-0.16759564850000075
118862.0,0.6642044045,0.06452775699999999,9.226292453,-0.12784362237933264,0.0653451271946677,0.20727879262535057,9.250394788908492,0.2521477251600335,0.01676937150000002,-0.044326058,-0.008335652499999568
118872.0,0.7228481714999999,-0.010885381500000001,9.3927113035,-0.059096848472528,0.05815088001794707,0.17130581141249543,9.420491155001843,0.19031459053351654,0.05864376699999996,-0.07541313849999999,0.16641885050000127
118882.0,0.7995361745,0.0442279915,9.713486825,0.009117600012418377,0.056018087672010004,0.1265398614280929,9.746437323915586,0.13868487050380227,0.07668800300000012,0.055113373,0.3207755214999999
118892.0,0.914372046,0.18191335749999998,10.132426913,0.09651670763528643,0.05415407603088005,0.07404733884511143,10.175226968251364,0.13315835382564792,0.11483587149999996,0.13768536599999998,0.4189400879999994
118902.0,1.006554556,0.272821003,10.537049292,0.19377518020267043,0.04269598949153728,0.028747318109598602,10.588531114178208,0.20049482856107115,0.09218251,0.09090764550000002,0.404622379000001
118912.0,1.0568626705,0.44757550599999996,10.966874761499998,0.2857051625637158,0.018980455615438332,-0.010156070917355002,11.026768546237523,0.2865149967931997,0.050308114499999945,0.17475450299999995,0.4298254694999972
118922.0,1.041270097,0.6750897859999999,11.5474284415,0.36804281535580025,0.004324925886441949,-0.04905945994430861,11.613918083301217,0.3713233759527861,-0.015592573499999984,0.22751427999999996,0.5805536800000013
