timestamp,ax,ay,az,gx,gy,gz,acc_mag,gyro_mag,dax,day,daz
118932.0,-2.598958383,-0.127290317,9.803119606,0.020568705234753175,-0.3036262033231935,-0.1047721149972196,10.142580613971452,0.32185266669779516,0.0,0.0,0.0
118942.0,-1.3025192529999998,-0.4349249275,9.797137549499999,-0.04018620602716944,-0.4184706134336724,-0.1303516605144485,9.892907573651915,0.4401410465535863,1.29643913,-0.3076346105,-0.00598205650000061
118952.0,-0.8105196225,-0.6432181734999999,9.721724411,-0.07136127712629216,-0.471230171392209,-0.11889357397510572,9.776635269897897,0.49120870130322414,0.49199963049999984,-0.20829324599999988,-0.07541313849999831
118962.0,-0.5339720925,-0.8240527994999999,9.678575151,-0.06923023010960708,-0.45737400246062604,-0.10050827563459745,9.728258125969278,0.47337692841848783,0.27654753,-0.180834626,-0.043149259999999856
118972.0,-0.4872924384999999,-1.0287175849999999,9.6355239575,-0.04391597463868132,-0.39422275413571517,-0.06320360820247066,9.702527285499587,0.40166514511048285,0.04667965400000007,-0.2046647855,-0.043051193500000196
118982.0,-0.4610106165,-1.099325465,9.639152418,-0.0012828170002158322,-0.3398644745823518,-0.022701497580690243,9.712584959935148,0.34062422799178593,0.0262818219999999,-0.07060788000000007,0.003628460499999875
118992.0,-0.420313019,-0.982037931,9.792332291,0.03362376803967076,-0.266853861312925,-0.005115560037595381,9.850422997477061,0.2690124718843006,0.040697597500000016,0.11728753399999992,0.15317987299999913
119002.0,-0.48013358399999995,-0.8515114195,9.988661423999998,0.048014007722364006,-0.18931237330532094,-0.012842132636174277,10.03638166867568,0.19572797448168086,-0.05982056499999994,0.13052651150000005,0.196329132999999
119012.0,-0.4310022675,-0.7318702895,10.177831702499999,0.04215144676491505,-0.11310431684624053,-0.03469190954189129,10.21320984018526,0.12559004555016692,0.049131316499999966,0.11964112999999998,0.18917027850000068
119022.0,-0.31616639599999996,-0.800026507,10.292765640499999,0.036555921183021235,-0.02410648762854568,-0.050946160865714483,10.328650837941982,0.06717863816928521,0.11483587150000002,-0.0681562175,0.11493393800000007
119032.0,-0.16887051299999997,-0.891032219,10.3059065515,0.03842167815340317,0.07315198493883833,-0.04908040389533254,10.34573175341926,0.09610579742733891,0.147295883,-0.09100571199999996,0.013140911000000699
119042.0,-0.122190859,-0.912606849,10.242457525999999,0.03735528198043463,0.14936004139791875,-0.022968532956245378,10.283759917402724,0.15566435868363676,0.04667965399999997,-0.02157463000000004,-0.06344902550000064
119052.0,-0.1987807955,-0.9054479944999999,10.184990557,0.02882760325519034,0.1824026147966754,0.017001252243676764,10.227090618625752,0.18544753212689602,-0.0765899365,0.007158854500000089,-0.05746696899999826
119062.0,-0.2886097095,-0.83356525,10.120364733499999,0.011241665712095476,0.17360790069587595,0.041783182292744254,10.158735596987242,0.17891873170386693,-0.08982891399999998,0.07188274449999987,-0.0646258235000019
119072.0,-0.3568639935,-0.7509932569999999,10.186167354999998,-0.011140436615479804,0.16028580251540325,0.04391422930942932,10.220046387663018,0.16656562476042744,-0.068254284,0.08257199300000018,0.0658026214999996
119082.0,-0.44178958249999994,-0.6624392075,10.229316614999998,-0.03378957431861022,0.17041045750622236,0.025528930968921056,10.260259360696189,0.1755938087647991,-0.08492558899999997,0.0885540494999999,0.043149259999999856
119092.0,-0.5100438665,-0.62174161,10.138310902999999,-0.05004382564243341,0.1965240737745615,-0.010177014868378935,10.17015512867175,0.2030508992580697,-0.06825428400000005,0.040697597500000016,-0.0910057119999994
119102.0,-0.492097697,-0.6013437779999999,9.9456102305,-0.052708943410228755,0.21917321147769192,-0.05414360405536809,9.975917869537534,0.23183325733158355,0.017946169499999998,0.020397832000000005,-0.19270067249999911
119112.0,-0.573492892,-0.705490401,9.700149781,-0.04071853144902771,0.2010549485127388,-0.08638681665671134,9.742664757493817,0.2225843058638811,-0.08139519499999998,-0.1041466230000001,-0.24546044949999946
119122.0,-0.4550285599999999,-0.7797267414999999,9.598454820499999,-0.02153387231110604,0.14936004139791875,-0.09970891483718405,9.640817378366087,0.1808701117407402,0.11846433200000006,-0.07423634049999983,-0.10169496050000149
119132.0,-0.38196901749999995,-0.8742628474999998,9.550500302,-0.0012828170002158322,0.110191362324662,-0.09491275005270364,9.598035834239775,0.14543800078723573,0.07305954249999996,-0.09453610599999995,-0.04795451849999921
119142.0,-0.343625016,-0.9317298164999999,9.538536188999998,0.006977826349473329,0.07634942812849195,-0.06720041218953766,9.590092347388461,0.10195008893843557,0.03834400149999995,-0.057466969000000034,-0.01196411300000122
119152.0,-0.32214845249999996,-0.9185889054999999,9.6474880705,0.00884358331985527,0.04997052181384965,-0.03282789790076134,9.696474167097834,0.06043949782109756,0.021476563500000045,0.013140910999999922,0.10895188150000124
119162.0,-0.32214845249999996,-0.841998969,9.749281097499999,0.008576547944300135,0.04997052181384965,-0.013374458058032546,9.790874516983454,0.05243554475101193,0.0,0.0765899364999999,0.10179302699999937
119172.0,-0.36637644399999997,-0.6923494899999999,9.791155493,0.0013823007675795092,0.062493259196908964,-0.009377654070965533,9.822438872455528,0.06320805800164085,-0.04422799150000001,0.14964947900000014,0.041874395500000716
119182.0,-0.466992673,-0.6803853769999999,9.745652637,-0.009541715020653,0.07022157712473985,-0.02110277598586344,9.780529215688492,0.07394214883089804,-0.10061622900000006,0.011964112999999998,-0.04550285600000059
119192.0,-0.4610106165,-0.7461879985,9.721724411,-0.013538519007720013,0.08487710685373624,-0.032028537103347944,9.761211648205588,0.09172372623134917,0.005982056499999999,-0.06580262150000005,-0.023928225999998887
119202.0,-0.43345393,-0.8132654845,9.664257442,-0.0010157816246606998,0.10592752296203986,-0.03415958412003302,9.708097391505909,0.1113038594139309,0.02755668650000004,-0.06707748600000007,-0.057466969000000034
119212.0,-0.41550776049999993,-0.867103993,9.617577788,0.020568705234753175,0.10779327993242178,-0.02723062698961553,9.665522155680119,0.1130662190040473,0.017946169500000053,-0.05383850849999994,-0.04667965400000007
119222.0,-0.389127872,-0.8360169125,9.612772529499999,0.03575656038560783,0.0736860556899486,-0.006447246256867053,9.656901184265225,0.08215676112194609,0.02637988849999995,0.031087080499999975,-0.0048052585000011305
119232.0,-0.4035436475,-0.7533468529999999,9.6822036115,0.03575656038560783,0.022525219326238816,0.007408922674715929,9.719848030237214,0.042904653028601705,-0.014415775500000005,0.08267005950000006,0.06943108200000125
119242.0,-0.43463072799999997,-0.718631312,9.7994911455,0.025097834643678457,-0.03289945640009311,0.008740608893987603,9.835413643718374,0.04229271543730326,-0.031087080499999975,0.03471554099999996,0.11728753399999903
119252.0,-0.4610106165,-0.6803853769999999,9.8557813165,-0.0012828170002158322,-0.08805709675086991,0.003944444109507185,9.889988898296682,0.08815473071243048,-0.02637988850000006,0.038245935000000064,0.056290171000000555
119262.0,-0.524459642,-0.6971547484999999,9.932371253,-0.03139149192637001,-0.13841857231716628,-0.002183406894244906,9.970610882331314,0.1419503229772718,-0.06344902549999992,-0.01676937150000002,0.07658993649999957
119272.0,-0.5471130034999999,-0.7509932569999999,10.032987482,-0.052176617988370484,-0.15600625518951314,-0.007246607054280456,10.075919874861398,0.16465984463966613,-0.02265336149999997,-0.05383850849999994,0.10061622899999989
119282.0,-0.47895678599999997,-0.7114724575,10.091631249,-0.050577896393543674,-0.10910751285917353,-0.022169172158831973,10.12801135102197,0.12228673337741379,0.06815621749999995,0.03952079949999987,0.05864376700000129
119292.0,-0.466992673,-0.764134168,9.985032963499998,-0.03165852730192514,-0.03956137815495547,-0.04135383129675365,10.025111793168309,0.06540263263330069,0.011964112999999943,-0.052661710500000014,-0.10659828550000228
119302.0,-0.401091985,-0.776098281,9.94198177,0.003248057737961447,0.003872885610175417,-0.042952552891580446,9.980290819270484,0.04324894128094526,0.06590068800000004,-0.011964112999999998,-0.04305119349999842
119312.0,-0.32813050899999996,-0.7114724575,9.988661423999998,0.04028568979453311,0.028386034954435778,-0.04055447049934024,10.019342280410594,0.06382294932183608,0.07296147600000003,0.06462582350000001,0.046679653999998294
119322.0,-0.3245020485,-0.6564571509999999,10.0497568535,0.056007615696498037,0.04943645106273938,-0.037089991934131504,10.07640066616299,0.08340553465663522,0.003628460499999986,0.05501530650000008,0.061095429500001686
119332.0,-0.3711817025,-0.6659696015,10.077215473499999,0.043483132984186726,0.07261965951698006,-0.038423423482655164,10.106016181747417,0.09295567370854797,-0.046679654000000015,-0.009512450500000047,0.0274586199999991
119342.0,-0.39628672649999996,-0.691172692,10.05573891,0.011773991133953747,0.08407774605632284,-0.04348487831343872,10.087251750891053,0.09538673330746004,-0.025105023999999976,-0.025203090500000025,-0.02147656349999849
119352.0,-0.4058972435,-0.6564571509999999,9.937176511499999,-0.03032684108265347,0.07901454589628729,-0.04508359990826553,9.967104172430787,0.09589341340226433,-0.00961051700000004,0.03471554100000007,-0.11856239850000172
119362.0,-0.466992673,-0.6611643429999999,9.721724411,-0.07349406947222922,0.0558330827712986,-0.037089991934131504,9.755364983870344,0.09947049251415957,-0.06109542950000002,-0.004707192000000027,-0.21545210049999852
119372.0,-0.529166834,-0.693526288,9.520590019499998,-0.10786658376100555,0.03584731750671154,-0.029363419335552598,9.560472298467038,0.11739863908824719,-0.06217416099999995,-0.032361945000000114,-0.2011343915000019
119382.0,-0.5758464879999999,-0.6181131495,9.2644403215,-0.1267859528526241,0.044640286278258966,-0.027764697740725795,9.3028768407392,0.13725272835316096,-0.04667965399999996,0.07541313850000009,-0.256149697999998
119392.0,-0.5926158595,-0.6385109815,9.0573238735,-0.13451252545120299,0.06462605154284604,-0.02163510140772171,9.09912114326983,0.1507919880305367,-0.01676937150000002,-0.020397832000000005,-0.20711644800000073
119402.0,-0.633313457,-0.7091188614999999,8.871782055499999,-0.13504659620231324,0.09819920503420897,-0.008313003227248992,8.922581035487664,0.167181856186123,-0.040697597500000016,-0.07060787999999996,-0.1855418180000008
119412.0,-0.6405703779999999,-0.6898978275,8.6383837855,-0.1275853136500375,0.1450979473645486,0.008475318847684463,8.689531854314684,0.19339921824597348,-0.007256920999999972,0.01922103399999997,-0.23339826999999858
119422.0,-0.6812679755,-0.6037954405,8.286423116999998,-0.1198569957222066,0.18160325399926197,0.01859997383850357,8.336276330734389,0.21838360816111296,-0.040697597500000016,0.08610238699999995,-0.35196066850000207
119432.0,-0.7661935645,-0.5163201225,7.9188698749999995,-0.11506083093772618,0.19466006213343157,0.025794221015224196,7.972586728556933,0.22758927137203475,-0.08492558900000002,0.08747531799999997,-0.3675532419999987
119442.0,-0.8428815675,-0.44688904049999995,7.617217320999999,-0.11346210934289937,0.20291896015386873,0.027927013361161268,7.676728396048194,0.2341573674299869,-0.076688003,0.06943108200000009,-0.30165255400000035
119452.0,-0.9433997299999999,-0.3882452735,7.356262364499999,-0.11852530950293493,0.22183832924548727,0.0265935818126376,7.426663680167446,0.2529183898193668,-0.1005181624999999,0.05864376699999996,-0.2609549565
119462.0,-1.0392107005,-0.34519408,7.119235634,-0.13424723540489983,0.2546138672686888,0.03165678197267315,7.202960075227137,0.2895732954957025,-0.09581097050000009,0.04305119349999997,-0.23702673049999934
119472.0,-1.1661087515,-0.348724474,6.794831652,-0.14916805518019935,0.31030383304132386,0.036185911381598435,6.902981642602891,0.3461921398138578,-0.12689805099999996,-0.0035303939999999923,-0.32440398199999976
119482.0,-1.3767555934999998,-0.36676871,6.5481944045,-0.156364047686172,0.37798595610441194,0.03645294675715357,6.7014047191610295,0.4106725164267141,-0.21064684199999983,-0.01804423599999999,-0.24663724749999982
119492.0,-1.519246218,-0.3080268765,6.2226136245,-0.16222486331436894,0.4254152785273579,0.02606125639077933,6.4127926792752845,0.45604194386760205,-0.14249062450000016,0.05874183350000001,-0.3255807800000001
119502.0,-1.6329052914999997,-0.24340105299999998,5.743754904999999,-0.17474934602668024,0.4318101649066651,0.008475318847684463,5.976315267145949,0.46590683991871557,-0.11365907349999982,0.06462582350000001,-0.4788587195000007
119512.0,-1.7466624315,-0.1883857465,5.2960813325,-0.18860551495826325,0.35800019083982487,-0.006447246256867053,5.579856299184848,0.4046946304293144,-0.11375714000000015,0.05501530649999997,-0.4476735724999994
119522.0,-1.8951351125,-0.069823348,5.1021057955,-0.20779017409618492,0.21224599967652644,-0.015507250403969617,5.44315128790584,0.2974316655043681,-0.1484726810000001,0.11856239850000001,-0.19397553700000003
119532.0,-1.891506652,0.1826978895,5.175165337999999,-0.21578378207031892,0.10992432694910685,-0.014440854231001082,5.5130311271590555,0.2425995394280584,0.003628460500000097,0.2525212375,0.07305954249999935
119542.0,-1.8423753354999999,0.39108920199999997,5.3690428085,-0.19420104054015705,0.1482953905542022,-0.03522598029300155,5.689808285020269,0.24687332114691132,0.04913131650000002,0.20839131249999998,0.19387747050000037
119552.0,-1.9190633385,0.3862839435,5.584494908999999,-0.14517125119313234,0.2780623657692326,-0.07412936931995516,5.917651795334665,0.3223174441849779,-0.07668800300000012,-0.004805258499999965,0.2154521004999994
119562.0,-1.9777071054999997,0.128859381,5.778470445999999,-0.08361872446304834,0.42754807087329494,-0.10743723276501495,6.108899314157364,0.44870057162043736,-0.058643766999999736,-0.2574245625,0.19397553700000003
119572.0,-1.9070992254999999,-0.16082906,5.9711711185,-0.01780235837034216,0.55464992832053,-0.10503915037277474,6.270388980665532,0.5647890668741291,0.07060787999999985,-0.289688441,0.1927006725000009
119582.0,-1.519246218,0.29410143349999995,6.2465418505,0.030960395601127413,0.6615007304568749,-0.07226361234957321,6.435362446214046,0.6661559818545254,0.38785300749999996,0.4549304934999999,0.27537073199999984
119592.0,-1.4928663295,0.5861434704999999,6.2812573915,0.0472146469249506,0.7776785721158773,-0.0581404080424351,6.482777835468216,0.781276834073415,0.02637988849999995,0.292042037,0.03471554099999974
119602.0,-2.0722432115,0.46287387999999996,6.0394254025,0.022966787626993383,0.8027257922112481,-0.0759933809610851,6.401804694674492,0.8066419061547545,-0.579376882,-0.12326959049999997,-0.24183198899999958
119612.0,-2.4062577105,0.42217628249999994,5.884970664999999,-0.017270032948483893,0.6932098723071078,-0.12235805254031447,6.371906206996204,0.7041375392091639,-0.3340144989999998,-0.040697597500000016,-0.15445473750000094
119622.0,-2.5917995285,0.49994301699999993,5.7520905575,-0.06363470452771325,0.5330671867903681,-0.19750145815567835,6.328816129250442,0.5720286944083712,-0.18554181800000036,0.07776673449999999,-0.13288010749999923
119632.0,-2.6635842065,0.460520284,5.6048927410000005,-0.10227105817911174,0.3683936265354511,-0.2835688795592747,6.222666823413107,0.47600897351575117,-0.07178467799999977,-0.03942273299999993,-0.1471978164999994
119642.0,-2.529527301,0.417371024,5.6946235885,-0.09800721881648958,0.20531704254610894,-0.3600422260646583,6.245113670132816,0.4259001144043266,0.13405690550000005,-0.04314926000000002,0.08973084749999938
119652.0,-2.3715421694999996,0.3048887485,6.010691918,-0.016735962197373624,0.05609837281760174,-0.4133358547743051,6.468816487100958,0.41746095470769484,0.15798513150000026,-0.1124822755,0.3160683295000002
119662.0,-2.2195390945,0.0761976705,6.4764097265,0.13727887231561398,-0.02783625624005756,-0.4714239029391804,6.846608125379114,0.49179349549187673,0.15200307499999965,-0.228691078,0.4657178085
119672.0,-2.0232099614999997,-0.066292954,7.025876326,0.32300284867883455,-0.05821371187101887,-0.5399053867996819,7.311683216080284,0.6318366111581049,0.19632913300000032,-0.1424906245,0.5494665994999997
119682.0,-1.6293748974999998,0.05226944449999999,7.6231993775,0.46715831824730625,-0.04142713512533741,-0.5756113326369818,7.795560493033702,0.7424833385958681,0.3938350639999999,0.1185623985,0.5973230515000001
119692.0,-1.3073245115,0.12650578499999998,8.090093984,0.5332417197155676,0.022258183950683685,-0.5582906851401902,8.196018653099818,0.7723539651690159,0.3220503859999997,0.0742363405,0.4668946064999995
119702.0,-1.12776475,0.103754357,8.307899680499998,0.5620204537517021,0.1125894447169022,-0.4858141426218736,8.38473705009233,0.7513712495619962,0.17955976149999997,-0.022751427999999976,0.21780569649999926
119712.0,-0.9985131029999998,-0.0614876955,8.322315455999998,0.6217072235114042,0.18266790484297854,-0.3858905522866943,8.382227848414589,0.7541876116525068,0.12925164700000025,-0.16524205250000001,0.014415775499999839
119722.0,-0.9003485365,-0.3427424175,8.367818312,0.7533399556968166,0.21810856063397538,-0.2896967305630268,8.423092256088259,0.8360721432807178,0.09816456649999983,-0.281254722,0.04550285600000237
119732.0,-0.8548456804999999,-0.509161268,8.671824461999998,0.9070877548342489,0.2119789643009713,-0.20895954469502112,8.728719598775207,0.9546765774834435,0.04550285600000015,-0.16641885049999994,0.30400614999999753
119742.0,-0.885932761,-0.390696936,9.144701125,0.9880937214070618,0.14563027278640683,-0.13541486067448405,9.195818594251907,1.0079060289170758,-0.031087080500000086,0.11846433199999995,0.472876663000001
119752.0,-0.987725788,0.006766588499999999,9.6212062485,0.9297386378666314,0.004405211032033688,-0.07306297314698663,9.67177634642032,0.9326154291407649,-0.10179302700000004,0.3974635245,0.47650512350000085
119762.0,-1.2127884055,0.2748803995,9.940804971999999,0.7549386772916433,-0.20716534622397093,-0.04428423911085212,10.018284206483884,0.7840988336814312,-0.2250626175,0.268113811,0.3195987234999986
119772.0,-1.314483366,0.2833141185,10.077215473499999,0.5516270180560757,-0.46563464581031516,-0.048548078473474275,10.166533583703933,0.7235087465620594,-0.10169496049999993,0.008433719000000006,0.13641050150000034
119782.0,-1.0894207484999998,0.15406247149999996,10.253244840999999,0.42825492922035263,-0.6854658464160089,-0.09038362064377836,10.312109511728437,0.8132864869681675,0.22506261750000012,-0.12925164700000003,0.17602936749999998
119792.0,-0.7410885405,-0.21231397249999998,10.584807677499999,0.425057486030699,-0.7853894367511883,-0.15619998673648453,10.61284330504517,0.9065918980707718,0.34833220799999987,-0.3663764439999999,0.33156283649999985
119802.0,-0.343625016,-0.4109967015,10.8864602315,0.506328742649815,-0.7552790164957821,-0.2156197211206315,10.899633609085027,0.9345089900735666,0.39746352449999994,-0.19868272900000003,0.30165255400000035
119812.0,-0.020397831999999998,-0.357158193,11.1486900525,0.5979916896353051,-0.6588199047258115,-0.2361378118070768,11.154428175979698,0.9205426627271812,0.323227184,0.05383850849999999,0.26222982100000003
119822.0,0.29321883499999996,-0.16318265599999998,11.351001242,0.6534163653616372,-0.562627828331396,-0.20362930915943042,11.355960331927173,0.885984150695746,0.31361666699999996,0.19397553700000003,0.20231118950000138
119832.0,0.5769252195,0.11209000949999999,11.385716783,0.6659408480739484,-0.49148122670309924,-0.1226250879158696,11.400875121753272,0.8367006164222706,0.2837063845,0.27527266549999996,0.03471554099999885
119842.0,0.6032070415,0.2833141185,11.277941699500001,0.6507512475938417,-0.48961721506196926,-0.009911724822075797,11.297614553611643,0.8144325913290361,0.026281822000000066,0.171224109,-0.1077750834999982
119852.0,0.5829072759999999,0.34195788549999995,11.220474730499998,0.6344969962700185,-0.5421097376449507,0.10626611683692674,11.240808212297653,0.8412858571928763,-0.020299765500000122,0.05864376699999996,-0.05746696900000359
119862.0,0.5433864764999999,0.268898343,11.227633585,0.6291685060636798,-0.6127222685221373,0.20645674254766125,11.243990888502674,0.9021673757727598,-0.03952079949999998,-0.07305954249999996,0.0071588545000018655
119872.0,0.5074941374999999,0.0079433865,11.3820883225,0.6534163653616372,-0.7142445804521435,0.28266479900674163,11.393399316190793,1.0084630165877142,-0.035892338999999995,-0.2609549565,0.15445473750000005
119882.0,0.6176228169999999,-0.276939796,11.908803494,0.7037778409279335,-0.8080385744543187,0.32156818803369525,11.92802390395803,1.118765250954205,0.11012867949999994,-0.2848831825,0.5267151715000011
119892.0,0.9348679444999999,-0.0854159215,12.599583919999999,0.7573367596838835,-0.810436656846559,0.3271637136155891,12.634507861821206,1.1564612565217456,0.3172451275,0.19152387450000002,0.6907804259999981
119902.0,1.0953047384999999,0.345586346,13.243586625499999,0.7741233364295649,-0.6689463050458827,0.28133136745821796,13.293295644791952,1.061085970765466,0.160436794,0.4310022675,0.6440027055000002
119912.0,0.9180985729999999,0.452086565,13.4148107345,0.7605342028735371,-0.47656040692779966,0.23550076663009886,13.453788845319915,0.9278915379908586,-0.1772061655,0.10650021900000001,0.17122410900000062
119922.0,0.8558263454999999,0.49994301699999993,13.192101713,0.7501425125071628,-0.3009610855553982,0.22057820152554736,13.229283025169448,0.8378222407393394,-0.062272227499999944,0.04785645199999994,-0.22270902150000005
119932.0,0.812775152,0.6316463265,12.7097125995,0.7616005990465056,-0.1842509184745374,0.22271099387148444,12.751328357915446,0.8146066905064868,-0.04305119349999997,0.13170330950000003,-0.4823891135
119942.0,0.6583204144999999,0.7836494015,12.2584105665,0.776256128775502,-0.1951749342627699,0.2280394840778231,12.301061814717363,0.8322672880298042,-0.15445473750000005,0.152003075,-0.45130203299999927
119952.0,0.5182814525,0.6975470144999999,12.234384274,0.7906446231289433,-0.32813935266745387,0.21791482908700402,12.26520876566485,0.8833352860537966,-0.14003896199999988,-0.08610238700000006,-0.024026292500000324
119962.0,0.4727785965,0.60408964,12.680979114999998,0.8090299214694515,-0.48615273649676055,0.18247417329600715,12.70415976007583,0.9613379847671769,-0.045502856000000036,-0.09345737449999991,0.4465948409999978
119972.0,0.5074941374999999,0.866319461,13.398041362999999,0.8071659098283216,-0.5828788836422863,0.11319507396734424,13.435608362584967,1.00203678762585,0.03471554099999996,0.26222982100000003,0.7170622480000013
119982.0,0.5111225979999999,0.8495500894999999,14.020469438499997,0.7589354812787104,-0.6276430882974369,0.025794221015224196,14.055480957287381,0.9851823449844572,0.003628460499999986,-0.01676937150000013,0.6224280754999985
119992.0,0.697841214,0.7836494015,14.611908499999998,0.6768648638621809,-0.6092577899569285,-0.0496144746464428,14.64953783423902,0.9120321785160937,0.18671861600000006,-0.06590068799999993,0.5914390615000009
120002.0,0.8689672564999998,0.7357929495,14.882375906999998,0.5833361599063087,-0.49494570526830794,-0.11995997014807426,14.925870426700651,0.7743660123324811,0.17112604249999985,-0.047856451999999994,0.27046740699999994
120012.0,0.974388744,0.659203013,14.7243907755,0.48607768733892476,-0.3467916863835173,-0.16632464172730363,14.771312255395987,0.619838590537244,0.10542148750000013,-0.07658993650000001,-0.1579851314999985
120022.0,1.058137535,0.5969307855,14.3101578795,0.39441474035343455,-0.22315430750149098,-0.167124002524717,14.36163639498889,0.4830023442845995,0.08374879099999999,-0.062272227499999944,-0.4142328959999997
120032.0,1.217397531,0.7322625555,13.976241446999998,0.32193645250586606,-0.1509430550294776,-0.13408317445521237,14.04825932930884,0.3800068196568064,0.15925999600000007,0.13533176999999996,-0.33391643250000236
120042.0,1.2987927259999998,0.7250056344999999,13.557203292499999,0.27690521247516037,-0.10804286201545699,-0.08105658112112064,13.638557725409973,0.30809077570003557,0.08139519499999981,-0.007256921000000083,-0.41903815449999904
120052.0,1.0772605025,0.440122452,13.251922278,0.26464776513840416,-0.11044094440769718,-0.022169172158831973,13.302918552902359,0.28762321531584323,-0.2215322234999999,-0.2848831824999999,-0.30528101449999845
120062.0,0.9851760589999998,0.359904055,13.22917085,0.26784520832805775,-0.13175665056230393,0.022596777825570583,13.270684389831668,0.2993517746060576,-0.09208444350000011,-0.080218397,-0.022751428000001184
120072.0,0.9636014289999999,0.33479903099999997,13.284284222999998,0.2737077692855067,-0.11497007381662247,0.05057615106429168,13.32339391531212,0.30115113796418874,-0.021574629999999928,-0.02510502400000003,0.0551133729999993
120082.0,0.8929935489999999,0.315577997,13.307035651,0.268377533749916,-0.0398284135305106,0.06576400621514633,13.340698061485806,0.27917325742182125,-0.07060787999999996,-0.01922103399999997,0.022751428000001184
120092.0,0.708628529,0.3982480565,13.22917085,0.24519607062492738,0.04783772946791258,0.07748912813004424,13.25412076620356,0.26156094201715974,-0.18436502,0.0826700595,-0.07786480100000048
120102.0,0.6247816715,0.564666907,12.977826410499999,0.20682500701983203,0.13097474305741047,0.08548273610417828,13.005121267945738,0.2593034226915735,-0.08384685749999998,0.1664188505,-0.2513444395000004
120112.0,0.4727785965,0.671167126,12.566045177,0.16579057097619337,0.2026536701075656,0.08628209690159168,12.592834323643608,0.27568029251002674,-0.152003075,0.10650021899999995,-0.4117812334999993
120122.0,0.29557243099999997,0.6651850695,12.056099376999999,0.13727887231561398,0.24182234918082232,0.08601506152603655,12.078053089250467,0.2910706583579081,-0.1772061655,-0.005982056499999944,-0.5099458000000006
120132.0,0.13042844499999998,0.7238288365,11.5460555105,0.13861055853488566,0.23809258056931046,0.0833499437582412,11.56945710115049,0.2878335925218051,-0.165143986,0.05864376699999996,-0.5100438664999984
120142.0,-0.030008348999999997,0.7836494015,11.2192979325,0.1607273708161578,0.17760645001219497,0.07349232414297723,11.246672973981228,0.2505563021026321,-0.16043679399999997,0.05982056499999999,-0.3267575780000005
120152.0,-0.1389602305,0.915352711,11.215669472,0.1652565002250831,0.08727518924597645,0.05377359425394529,11.253818118147654,0.19446919798145884,-0.10895188150000001,0.1317033095000001,-0.003628460499999875
120162.0,-0.1736757715,1.062648594,11.258818732,0.13301503295299183,0.009201375816514106,0.017800613041090166,11.310189412559383,0.13451589546607814,-0.03471554099999999,0.14729588299999985,0.043149259999999856
120172.0,-0.24908890999999997,1.1176639005,11.243226158499999,0.06480058446804547,-0.07206988080260185,-0.022968532956245378,11.301387186126512,0.09960289640599647,-0.07541313849999998,0.05501530650000008,-0.015592573500001095
120182.0,-0.1856398845,1.0865768199999999,11.1834055935,-0.0007487462491055673,-0.13575345454937096,-0.05600936102575003,11.237600812504668,0.14685574406725288,0.06344902549999998,-0.031087080500000086,-0.05982056499999899
120192.0,-0.0814932615,1.0817715615,11.107992455,-0.051110221815401945,-0.15733794140878482,-0.08771850287598301,11.160840794638949,0.1872485469304839,0.104146623,-0.004805258499999798,-0.07541313850000009
120202.0,0.011866046499999998,1.1056997874999999,10.965501830500001,-0.0756251164889143,-0.13735217614419776,-0.10557147579463301,11.02111351986885,0.18902411231630045,0.093359308,0.023928225999999775,-0.14249062449999883
120212.0,0.133958839,1.1548311039999999,10.8637088035,-0.08388575983860347,-0.09205390073793693,-0.10104060105645572,10.925737907187573,0.16037438825018055,0.12209279249999999,0.04913131650000002,-0.10179302700000115
120222.0,0.20819517949999997,1.2206337255,10.778783214499999,-0.08335168908749319,-0.025972244598927618,-0.08105658112112064,10.849675548595082,0.1191311500250437,0.07423634049999997,0.06580262150000005,-0.08492558900000091
120232.0,0.20819517949999997,1.2349514345,10.663849276499999,-0.08681616765270193,0.056632443568712006,-0.057341047245021703,10.737137964571854,0.11845790952748243,0.0,0.014317708999999956,-0.11493393800000007
120242.0,0.2405571245,1.251720806,10.535774427499998,-0.1020040228035566,0.1357709078418909,-0.03176150172779281,10.612597019273082,0.1727638650769434,0.03236194500000003,0.01676937150000013,-0.12807484900000077
120252.0,0.24408751849999996,1.329585607,10.266385752,-0.13238147843451792,0.19092854819266766,-5.235987755982989e-05,10.355001352578263,0.23233288421793702,0.0035303939999999645,0.07786480100000004,-0.26938867549999834
120262.0,0.17465643649999998,1.351160237,9.9815025695,-0.16995318124219985,0.18906279122228575,0.033787828989358226,10.074052431955865,0.2564574822985669,-0.06943108199999998,0.021574629999999928,-0.2848831824999998
120272.0,0.1591619295,1.2996753245000001,9.7959607515,-0.2069908132987715,0.15229219454126922,0.060168480633252516,9.883083299954766,0.2639286937223703,-0.01549450699999999,-0.05148491249999987,-0.1855418180000008
120282.0,0.107677017,1.2541724685,9.64385961,-0.23816762972714622,0.10432880136721304,0.07962017514672931,9.725665586381362,0.27193324720409284,-0.051484912499999994,-0.04550285600000015,-0.15210114149999931
120292.0,0.062174161,1.1284512155,9.5888443035,-0.25575356727024107,0.07155326334401153,0.10866419922916695,9.655216354324944,0.28694540397216206,-0.045502856,-0.12572125300000003,-0.05501530649999964
120302.0,0.06099736299999999,1.032640245,9.654646925,-0.25388781029985913,0.08807455004338985,0.14623590203684889,9.709905962484836,0.3059429450546845,-0.0011767980000000067,-0.09581097049999987,0.0658026214999996
120312.0,0.004707192,1.031463447,9.712113894,-0.24562891227942196,0.14216579422119813,0.19233353824052313,9.766734115874225,0.34283649969954305,-0.05629017099999999,-0.0011767980000001454,0.057466969000000034
120322.0,0.007060788,1.054214875,9.786350234499999,-0.24749292392055192,0.19785750532308516,0.24056396679013442,9.842970576492476,0.39783333435148904,0.0023535960000000003,0.022751428000000073,0.07423634049999883
120332.0,0.0693330155,1.2026875559999999,9.7157423545,-0.2653458968392019,0.23702618439634193,0.2874609637912221,9.790143713113755,0.4574097318189321,0.0622722275,0.14847268099999988,-0.07060787999999896
