timestamp,ax,ay,az,gx,gy,gz,acc_mag,gyro_mag,dax,day,daz
33222.0,-1.566710404,-1.9433838305,7.213673673499999,-0.19730772660870696,0.15930841813428642,0.021015509523263722,7.63337474976813,0.25446249764644546,0.0,0.0,0.0
33232.0,-1.4530513305,-2.662897741,6.907215860999999,-0.18078643990932863,0.12999910400554565,0.03433760770373644,7.544005136433875,0.22530551524574285,0.11365907350000004,-0.7195139105000001,-0.3064578124999997
33242.0,-1.207590881,-2.783715669,6.767176899,-0.1658638748047771,0.13719335118226628,0.054323372968323506,7.416335472729759,0.22199970591091106,0.2454604494999999,-0.12081792799999969,-0.14003896199999932
33252.0,-1.1190368314999999,-2.8232364684999998,6.731186493499999,-0.1213649601959297,0.19688012094196836,0.07670547529589879,7.3845635752966965,0.24366978788075763,0.08855404950000012,-0.03952079949999998,-0.035990405500000655
33262.0,-1.163264823,-2.8471646944999995,6.7647252365,-0.051551790116156515,0.25896671842316266,0.10574949937833643,7.431086015608788,0.2844368206365179,-0.04422799150000012,-0.023928225999999775,0.03353874300000115
33272.0,-1.239952826,-3.0279993204999998,6.872500319999999,0.03984412149377855,0.28641202091077345,0.12840038241071883,7.611670220395386,0.31639541390959375,-0.0766880029999999,-0.18083462600000022,0.10777508349999909
33282.0,-1.359593956,-3.1800023955,7.012539282,0.14642963358382025,0.24884031810309154,0.1273339862377503,7.818990864694148,0.3155583710763117,-0.1196411300000002,-0.1520030750000001,0.1400389620000002
33292.0,-1.4984561199999997,-3.2733617034999996,7.14904785,0.27379852640661045,0.1411901551693333,0.09642420518493072,8.004320879818318,0.32279702651157954,-0.13886216399999962,-0.0933593079999997,0.136508568
33302.0,-1.5236592105,-3.2170715325,7.1477729855,0.4075623056087079,-0.012826424672906327,0.04606272961863435,7.985095195876312,0.4103575577260579,-0.025203090500000247,0.05629017099999967,-0.001274864500000028
33312.0,-1.4650154434999998,-3.0818378289999995,6.9934163145,0.5138807823231945,-0.1580482904143465,-0.016823228659973342,7.781507977369405,0.537899378663465,0.05864376700000018,0.1352337035000004,-0.1543566709999995
33322.0,-1.3489047075,-2.8962960109999996,6.745602269,0.5828945916055541,-0.25637315915469905,-0.07970744160932905,7.46399520798266,0.6417527389157532,0.11611073599999977,0.18554181799999991,-0.2478140455000002
33332.0,-1.1489471139999998,-2.652110426,6.605563306999999,0.6465799106815754,-0.28728119487826664,-0.1393959566982831,7.2102174575564355,0.7211291829981008,0.1999575935000002,0.24418558499999943,-0.1400389620000011
33342.0,-0.9107435854999999,-2.4294014045,6.6042884425,0.723320292562514,-0.2515752490409666,-0.18922336151346922,7.095637455116703,0.7888522245041857,0.23820352849999993,0.22270902150000005,-0.0012748644999991399
33352.0,-0.674893653,-2.2797519255,6.759919978,0.7867385762629799,-0.17749998492782332,-0.22652802894559604,7.165840382930963,0.8377223764038149,0.23584993249999986,0.14964947900000025,0.15563153550000042
33362.0,-0.5144568589999999,-2.1971799324999997,6.9371261435,0.8043245138060748,-0.09169785357053008,-0.2425169902231161,7.2949286937148345,0.8450804165318825,0.1604367940000001,0.08257199300000018,0.17720616549999946
33372.0,-0.4127618985,-2.101368962,7.187293785,0.7720830465339835,-0.02641555822893418,-0.23398931149787178,7.499554376841993,0.8071932918186273,0.10169496049999993,0.09581097049999965,0.25016764150000004
33382.0,-0.354020065,-2.1408897615,7.4303025719999996,0.7083994727872144,0.012487830798019428,-0.21187249921659965,7.7406805572112285,0.739510456239485,0.05874183350000001,-0.03952079949999998,0.24300878699999995
33392.0,-0.3241097825,-2.1828622235,7.704496506,0.6471122361034336,0.028742082121842618,-0.18949039688902436,8.01431226299935,0.6748977433008979,0.029910282499999996,-0.04197246199999993,0.27419393400000036
33402.0,-0.3360738955,-2.0594945664999997,7.9654514625,0.6058107646842398,0.046329764994189476,-0.18149678891489032,8.23425045369176,0.6341089923019042,-0.011964112999999998,0.12336765700000019,0.2609549565
33412.0,-0.4976874875,-1.818937442,8.206008587,0.5794318583695974,0.06951122811917816,-0.17936399656895324,8.419905176606283,0.6105280768265036,-0.16161359200000003,0.24055712449999977,0.24055712449999955
33422.0,-0.5790826825,-1.671641559,8.483732915,0.5442582379541557,0.07510675370107199,-0.16657422381033882,8.666224462128923,0.5741123810461614,-0.08139519499999992,0.14729588299999996,0.2777243279999997
33432.0,-0.571923828,-1.5734769925,8.74949313,0.5194763079050883,0.05059185902755963,-0.1361985135086295,8.908229719920687,0.5394119073180781,0.007158854499999978,0.09816456649999994,0.26576021500000024
33442.0,-0.559959715,-1.5519023625,8.955432779999999,0.5317337552418444,-0.0218846834907569,-0.09596169293315222,9.106137057076094,0.5407664674752688,0.011964112999999998,0.02157463000000015,0.20593964999999947
33452.0,-0.5707470299999999,-1.5890695659999998,9.1026305965,0.5794318583695974,-0.13060124259748368,-0.05172981369985994,9.25790354422529,0.5962163505700546,-0.010787314999999964,-0.03716720349999991,0.1471978165000003
33462.0,-0.5144568589999999,-1.6178030505,9.206875285999999,0.6529747970608826,-0.25610612377914393,-0.00642979296434711,9.362078033318074,0.7014326585435292,0.056290171,-0.02873348450000024,0.10424468949999977
33472.0,-0.41511549449999996,-1.5483719685,9.336126933,0.7481022226115815,-0.357361400333595,0.03966784323932712,9.472752648290703,0.8300226766251848,0.09934136449999997,0.06943108200000014,0.12925164700000025
33482.0,-0.316950928,-1.4214739175,9.348091045999999,0.8445613343815521,-0.41998032323664747,0.09749060135789926,9.460858956416072,0.9482466645295576,0.09816456649999994,0.12689805099999996,0.011964112999999443
33492.0,-0.279881791,-1.2371088975,9.4103632735,0.9295623596121799,-0.4381003315308526,0.1739639478632828,9.495457291802468,1.0422483082506708,0.03706913700000003,0.18436502,0.062272227500001165
33502.0,-0.306163613,-1.068336451,9.5874713725,0.9972444826752681,-0.4311713744004351,0.2571009614527807,9.65166753721695,1.1164704280492912,-0.02628182200000001,0.1687724465,0.1771080989999998
33512.0,-0.375594695,-0.9067228589999999,9.712015827499998,1.0401446756892887,-0.4343688175900888,0.33037861009776265,9.761478840398915,1.1746179132251973,-0.06943108199999998,0.16161359200000003,0.12454445499999878
33522.0,-0.5443671415,-0.7499145254999999,9.9813064365,1.0713214921176633,-0.45621859449580576,0.40498794496201623,10.024229923521164,1.2328342877294993,-0.1687724465,0.1568083335,0.26929060900000223
33532.0,-0.7132376545,-0.6793066455,10.393185736499998,1.1110242419420302,-0.48552965395379855,0.46361006387800174,10.439754557641868,1.2980940653051007,-0.168870513,0.07060787999999996,0.4118792999999972
33542.0,-0.8197378734999999,-0.7426576045,10.830071993999999,1.1504599563908422,-0.5289639177189295,0.5006476959345734,10.886412168110994,1.3616200104845602,-0.10650021899999995,-0.06335095899999998,0.4368862575000012
33552.0,-0.8461177619999999,-0.848079092,11.2047840905,1.1696446155287639,-0.5641357928051192,0.49771728812047494,11.268644103359613,1.3906977451097309,-0.02637988849999995,-0.10542148750000002,0.3747120965000015
33562.0,-0.793357985,-0.9366331414999999,11.492118935499999,1.1469954778256335,-0.5825228364748795,0.46014558531279304,11.557486584971537,1.366259653524924,0.0527597769999999,-0.0885540494999999,0.2873348449999984
33572.0,-0.7096091939999999,-0.9510489169999999,11.561550017499998,1.07292021371249,-0.5731957969522218,0.4028551526160792,11.622283685140818,1.281406836498804,0.0837487910000001,-0.014415775500000061,0.06943108199999948
33582.0,-0.6150730879999999,-0.8408221709999999,11.524382813999999,0.9479494032819401,-0.5041819876698619,0.3266470961569987,11.571373992333216,1.122277092923632,0.09453610599999995,0.11022674600000004,-0.037167203499999246
33592.0,-0.6245855385,-0.6720497244999999,11.440634023,0.7843404938707397,-0.3749473378766898,0.2392479885341307,11.477363145571767,0.9016735088289107,-0.009512450500000047,0.1687724465,-0.08374879099999966
33602.0,-0.7059807334999999,-0.4865079065,11.4107237405,0.5970177959126923,-0.2164033739547769,0.15584568489832967,11.442889277676793,0.6538719648347753,-0.08139519499999992,0.18554181799999991,-0.029910282499999497
33612.0,-0.826896728,-0.31057660549999994,11.442987619,0.4099603880009481,-0.057325339281753755,0.08043698923666266,11.477028434017592,0.4216916213195551,-0.12091599450000012,0.17593130100000004,0.03226387850000023
33622.0,-0.9981208369999999,-0.22074769149999998,11.536346926999999,0.25008299253051147,0.07644018524959564,0.014086552392846235,11.58154891060166,0.26188363070708476,-0.17122410899999985,0.08982891399999995,0.09335930799999836
33632.0,-1.205237285,-0.223199354,11.736304520499997,0.13683730401485944,0.15744440649315647,-0.03760660939272182,11.80013807811963,0.2119609538949429,-0.20711644800000006,-0.002451662500000007,0.19995759349999886
33642.0,-1.389602305,-0.211235241,11.918217877999998,0.07821518509887389,0.1662373752647039,-0.07224615905705328,12.000813817428401,0.19741324072474503,-0.18436502,0.011964112999999998,0.18191335750000093
33652.0,-1.5271896045,-0.271055806,12.112193415,0.06968750637362958,0.096956530606789,-0.09995849692021924,12.211101861029109,0.15571967916236326,-0.13758729950000004,-0.05982056500000002,0.1939755370000018
33662.0,-1.5128718954999998,-0.396777059,12.158873068999998,0.09500176184455535,-0.015756832487004806,-0.12633914856411352,12.259054111749238,0.15885588746879448,0.014317709000000178,-0.12572125299999998,0.046679653999998294
33672.0,-1.3500815054999997,-0.43502299399999994,12.143280495499999,0.13177410385482385,-0.13912892132272797,-0.16497550221551202,12.225842558662064,0.2528600156735504,0.16279039000000006,-0.03824593499999995,-0.015592573499999318
33682.0,-1.116585169,-0.40148425099999996,12.087088390999998,0.1528245199631275,-0.2441157118179429,-0.2182673855959069,12.145190727826332,0.3613702620211209,0.2334963364999998,0.03353874299999998,-0.056192104500000895
33692.0,-0.8532766165,-0.293807234,11.926651597,0.13017538225999706,-0.3128624857247475,-0.27422613207334906,11.960745043317287,0.4359226268872884,0.26330855249999996,0.10767701699999999,-0.16043679399999888
33702.0,-0.5551544565,-0.29498403199999995,11.652457663,0.05396732580091666,-0.33338057641119284,-0.3136618465221609,11.66940365390255,0.460910875274226,0.29812216,-0.001176797999999979,-0.2741939339999995
33712.0,-0.31459733199999995,-0.272232604,11.3364874,-0.059013072668432275,-0.3024707953583733,-0.33284650566008256,11.344118680723545,0.45360546857442535,0.2405571245,0.022751427999999962,-0.31597026300000053
33722.0,-0.21643276549999999,-0.1621039245,11.006101361499999,-0.173592192732608,-0.23931954703346248,-0.3421735451827403,11.009422691673365,0.45220662311927873,0.09816456649999997,0.11012867949999999,-0.33038603850000037
33732.0,-0.212804305,-0.061585761999999995,10.793002856999998,-0.2532647277568971,-0.1548508472246929,-0.3472367453427758,10.795276242390361,0.4568316588506363,0.003628460499999986,0.10051816250000001,-0.21309850450000134
33742.0,-0.22722008049999998,-0.0363826715,10.686404571499999,-0.29163404603274046,-0.07224615905705328,-0.3597594827258352,10.688881855907285,0.4687182626216778,-0.014415775499999978,0.025203090499999997,-0.10659828549999872
33752.0,-0.19485813549999997,-0.1177778665,10.688856234,-0.3022927717746699,-0.018687240301103285,-0.39546542856313516,10.6912809761005,0.4981195017321727,0.032361945,-0.081395195,0.0024516625000003955
33762.0,-0.1577889985,-0.177696498,10.668458401999999,-0.2911017206108822,0.00769166601353901,-0.43516817838750216,10.6711048204323,0.5236131367238381,0.037069136999999974,-0.059918631500000014,-0.02039783200000045
33772.0,-0.08953471449999999,-0.20280152199999998,10.608637837,-0.2607242649799209,0.028476792075539478,-0.45701795529321915,10.610953853403291,0.5269283456947713,0.06825428400000001,-0.025105023999999976,-0.05982056499999899
33782.0,0.03138128,-0.2542864345,10.464970414499998,-0.23194727627303843,0.0604512239720756,-0.44289649631533307,10.468106426277172,0.5035982485062881,0.12091599449999998,-0.05148491250000001,-0.14366742250000186
33792.0,0.08649465299999999,-0.387166542,10.3488596785,-0.22208791132852246,0.09295972661972197,-0.39786351095537537,10.35646058755234,0.46503755168934174,0.05511337299999999,-0.1328801075,-0.11611073599999777
33802.0,0.0373633365,-0.4625796804999999,10.195679805500001,-0.21062982478917966,0.11214613108689565,-0.3344452272549094,10.206236459930096,0.41084703703698255,-0.049131316499999994,-0.07541313849999992,-0.15317987299999913
33812.0,-0.027262487,-0.4614028825,10.0819226655,-0.16320050236623376,0.12840038241071883,-0.27022758275703007,10.09251210037914,0.34079907373482904,-0.0646258235,0.0011767979999999234,-0.11375714000000059
33822.0,-0.1505320775,-0.42305888099999994,10.067506889999999,-0.07313627697557039,0.1598424888853967,-0.2193337817688754,10.077516246741897,0.28107978242478093,-0.1232695905,0.03834400150000006,-0.014415775500001615
33832.0,-0.375594695,-0.4027591155,10.142920028499999,0.0355802821311564,0.20434140349424412,-0.186825279121229,10.157859665528802,0.2791505876355185,-0.22506261749999998,0.020299765499999955,0.07541313850000009
33842.0,-0.573100626,-0.39550219449999996,10.2458898535,0.13603794321744603,0.2664262556461864,-0.1735031809407563,10.269524098196086,0.3458216671769439,-0.19750593100000002,0.007256921000000027,0.10296982500000063
33852.0,-0.699998677,-0.42551054349999995,10.376416364999999,0.19306134053860477,0.3591555988046451,-0.1804303927419218,10.40870183789848,0.44589298266320637,-0.12689805099999996,-0.03000834899999999,0.1305265114999994
33862.0,-0.8879921575,-0.41109476799999994,10.575099093999999,0.19599174835270322,0.4763998366366162,-0.20521232279098928,10.620275412058676,0.5545102949405152,-0.1879934805000001,0.014415775500000005,0.19868272899999972
33872.0,-1.067551919,-0.30341775099999996,10.939023875499998,0.17200917910104915,0.5547389401123817,-0.23745379006308054,10.995179524689057,0.6274605579535234,-0.17955976149999997,0.10767701699999999,0.36392478149999974
33882.0,-1.2614293895,-0.2686041435,11.539975387499998,0.1725432498521594,0.5278259630466291,-0.26090228856362435,11.611820883681657,0.613548225091869,-0.19387747049999993,0.034813607499999955,0.600951512
33892.0,-1.4183357895,-0.26507374949999996,12.022364501,0.22237065466734554,0.3620877519479956,-0.2670301395673764,12.108641075668052,0.5018578918432085,-0.1569064,0.0035303940000000478,0.4823891135000018
33902.0,-1.3643992145,-0.2782146605,12.3025404915,0.30017917805050476,0.096956530606789,-0.268096535740345,12.381094101849094,0.4139853381924968,0.05393657500000004,-0.013140911000000033,0.2801759905000001
33912.0,-1.1668932834999999,-0.30577134699999997,12.355202202000001,0.37718659530699855,-0.1633767806206852,-0.25237460983838006,12.413950116865674,0.4823428695609997,0.19750593100000002,-0.027556686499999983,0.05266171050000068
33922.0,-0.8664175274999999,-0.177696498,12.195942206,0.4203520783673223,-0.347502035389079,-0.22226593491222588,12.227970464040745,0.5889445476525663,0.300475756,0.12807484899999996,-0.15925999600000118
33932.0,-0.6330192574999999,-0.061585761999999995,11.9110590235,0.41075974879836147,-0.40186031494244234,-0.18149678891489032,11.928027215250129,0.6026245666623193,0.23339827000000002,0.11611073600000002,-0.2848831824999998
33942.0,-0.5767290865,-0.0124544455,11.774648522,0.36492914797024234,-0.3461703491698073,-0.13086827797303882,11.7887709015429,0.5197438791003334,0.05629017099999989,0.049131316499999994,-0.13641050150000034
33952.0,-0.672540057,0.041384063,11.8273102325,0.31963087256398154,-0.2526416452139352,-0.08290488479898264,11.84648851367945,0.41577026771517545,-0.09581097049999998,0.0538385085,0.05266171050000068
33962.0,-0.8209146715,-0.006472388999999999,11.9697027905,0.30017917805050476,-0.174834867160028,-0.043469170350170776,11.9978217890835,0.3500919000503631,-0.1483746145,-0.047856452,0.14239255799999917
33972.0,-0.9130971815,-0.1381756985,12.1301395845,0.3041759820375718,-0.12047658760666458,-0.014425146267733134,12.165242509953226,0.32748392487985273,-0.09218251,-0.1317033095,0.16043679400000066
33982.0,-0.9609536334999998,-0.24830437799999996,12.320486660999999,0.33002256293035576,-0.09915913612280584,0.0026284658535034606,12.36039960979214,0.3446075088451858,-0.04785645199999988,-0.11012867949999997,0.19034707649999838
33992.0,-0.9765462069999999,-0.21476563499999998,12.516815794,0.3705246735521362,-0.0911655281486718,0.014885913190259637,12.556689228985118,0.381865522985581,-0.015592573500000095,0.03353874299999998,0.19632913300000077
