timestamp,ax,ay,az,gx,gy,gz,acc_mag,gyro_mag,dax,day,daz
105092.0,3.55196863,-6.135726705499999,9.737120851499999,-0.29796610055897593,-0.3783594565643387,0.1200070940378781,12.044714435378117,0.4963278937087856,0.0,0.0,0.0
105102.0,3.3508342384999996,-6.231537675999999,9.668866567499999,-0.353657811660863,-0.4630951917486634,0.19115195033692295,11.981115665973288,0.613245523821488,-0.20113439150000056,-0.09581097050000054,-0.068254284
105112.0,3.4502736694999996,-6.3320558385,9.30258819,-0.40774905583867127,-0.4921392158311011,0.24630959068769978,11.770193990289812,0.6849297151977867,0.09943943099999997,-0.10051816250000023,-0.3662783774999987
105122.0,3.5292172019999994,-6.7355014195,8.8356935835,-0.41734138540763205,-0.4535028621797026,0.2985368232243781,11.657265311061693,0.6848086687535778,0.07894353249999986,-0.4034455810000006,-0.46689460650000036
105132.0,3.6393458814999997,-7.167680484999999,8.451469036499999,-0.335804838742213,-0.3386567067399717,0.3081291527933389,11.663953483067354,0.5677999907923456,0.11012867950000027,-0.43217906549999885,-0.3842245470000005
105142.0,3.656115253,-7.556710290499999,8.207185384999999,-0.18605209826259553,-0.16199273452385368,0.2694927991419404,11.740057116621086,0.36535379852382605,0.01676937150000013,-0.3890298054999999,-0.24428365149999998
105152.0,3.587860969,-7.6728210265,8.1270650545,-0.020046851788406872,-0.0021153390534171274,0.20074427990588378,11.738573816169033,0.20175385210912103,-0.068254284,-0.11611073600000132,-0.08012033049999978
105162.0,3.4969533235,-7.578284920499999,8.1437363595,0.13556844964865955,0.09487784346766374,0.12746837659015386,11.661025974418276,0.20887507451044734,-0.09090764549999975,0.0945361060000014,0.016671305000000913
105172.0,3.4071244095,-7.3699916745,8.227583217,0.26453606406627656,0.12765163616161326,0.06884625767416833,11.55934252527669,0.3016853934186275,-0.08982891399999993,0.20829324599999932,0.08384685749999932
105182.0,3.4586093219999996,-7.102956595,8.251511442999998,0.35086877551617607,0.10393784761476631,0.030742229444628122,11.42372145697886,0.3672288911159324,0.051484912499999425,0.2670350794999994,0.023928225999998887
105192.0,3.5567738885,-6.959387238999999,8.194044474,0.39963152948764563,0.05730614065998181,0.019017107529730213,11.323695336689406,0.4041670489992646,0.09816456650000038,0.1435693560000013,-0.05746696899999826
105202.0,3.689653996,-6.916237979,8.0109543185,0.4278779381019218,0.006944665093685437,0.024612633111624035,11.20817931179969,0.42864150521887506,0.13288010750000012,0.04314925999999897,-0.1830901555000004
105212.0,3.7770312474999996,-6.8109145579999995,7.7463709015,0.46304981318811156,-0.04314977509705581,0.023813272314210633,10.98457028310956,0.4656652279511347,0.08737725149999953,0.10532342100000047,-0.2645834169999999
105222.0,3.7889953604999995,-6.609780166499999,7.566811139999999,0.5219389674796523,-0.08178787407770627,0.018484782107871942,10.737891344196743,0.5286314683117642,0.011964112999999887,0.20113439150000012,-0.17955976150000108
105232.0,3.7220159409999996,-6.268606813,7.472176967499999,0.6117361574947605,-0.12202294932393155,0.018484782107871942,10.439457010529122,0.6240612259367991,-0.06697941949999997,0.34117335349999944,-0.09463417249999928
105242.0,3.6873004,-5.9286102575,7.3992154915,0.7348412109549285,-0.18810635079219284,0.029408797896104455,10.17315062872992,0.7591050532829795,-0.03471554099999974,0.33999655549999996,-0.07296147599999969
105252.0,3.7674207305,-5.6485323334999995,7.3668535465,0.8611454529340022,-0.2600505678886511,0.05792049655668382,10.018478310540765,0.9014169805863935,0.08012033050000023,0.2800779240000004,-0.03236194499999989
105262.0,3.8368518124999995,-5.449751537999999,7.316545431999999,0.953874796092461,-0.28483249793771864,0.09549219936436576,9.897123860775814,1.0000627173539258,0.06943108199999948,0.19878079550000027,-0.05030811450000083
105272.0,3.852444386,-5.344428117,7.266335383999999,0.9919788243220011,-0.22887375146027641,0.13119814520166576,9.80835712837647,1.0264590275871306,0.01559257350000065,0.10532342099999958,-0.050210048000000285
105282.0,3.8368518124999995,-5.283430754,7.2183808654999995,0.9725271298085243,-0.10736741959493518,0.1447872787576936,9.733503720799312,0.9890905606132026,-0.01559257350000065,0.06099736299999936,-0.04795451849999921
105292.0,3.749474561,-5.239104696,7.175329671999999,0.9011152381339244,0.03332531673757973,0.12720134121459872,9.64324288821551,0.9106587891958283,-0.08737725149999953,0.044326058000000224,-0.043051193500000196
105302.0,3.538827719,-5.148098984,7.1226679614999995,0.7977271692335363,0.17348398231898435,0.08962963840691679,9.474102789372887,0.8212787594572011,-0.21064684200000006,0.0910057120000003,-0.05266171049999979
105312.0,3.355639497,-5.0260061915,7.0520600815,0.6927403787383213,0.27500629424899053,0.029408797896104455,9.287228115207924,0.7459105654197218,-0.18318822200000007,0.12209279250000016,-0.07060787999999985
105322.0,3.2526696719999997,-4.923036366499999,7.1142342425,0.6293220950378553,0.30165223593918794,-0.043334779997767206,9.24275261587097,0.6992269116012353,-0.10296982500000018,0.10296982500000063,0.062174161000000616
105332.0,3.1162591705,-4.799766775999999,7.129826816,0.6383820991849579,0.2321061012349699,-0.11261562465568212,9.142388240928705,0.6885399231031423,-0.1364105014999999,0.12326959049999964,0.015592573499999318
105342.0,3.123418025,-4.601084047,7.026856990999999,0.7081952692647311,0.07755719597087202,-0.17390111601021102,8.961162521593856,0.7333466139591879,0.007158854500000089,0.19868272899999972,-0.10296982500000063
105352.0,3.3376933275,-4.4178958249999996,6.892800085499999,0.7921316436516425,-0.06260146961053262,-0.21573665818051507,8.841306084943517,0.823367348487021,0.21427530249999993,0.18318822200000007,-0.1340569054999996
105362.0,3.5770736539999994,-4.220389894,6.876030714,0.868872025532581,-0.1145616667716558,-0.21919939141647185,8.825358075647106,0.9033888118877396,0.23938032649999963,0.19750593099999936,-0.016769371499999686
105372.0,3.7064233675,-3.9282497905,6.7396202125,0.9333567054060157,-0.09217956444408051,-0.16084430787604143,8.63661977885167,0.9515895664642373,0.12934971350000035,0.2921401035000004,-0.13641050149999945
105382.0,3.7052465695,-3.8133158524999997,6.8198386095,0.9719930590574141,-0.02396511595913414,-0.04386710541962548,8.647567784721101,0.9732775331716134,-0.0011767979999999234,0.11493393800000007,0.08021839699999944
105392.0,3.401142353,-3.8480313935,7.1909222454999995,1.0151602874469898,0.040784853960603495,0.08962963840691679,8.836542177320192,1.0199251372541995,-0.30410421649999986,-0.03471554100000018,0.37108363599999983
105402.0,2.9558223765,-4.0216090985,7.627808502999999,1.1094883522002754,-0.01383871563906304,0.20660684086333275,9.115573938101495,1.128646224647098,-0.4453199765,-0.17357770500000003,0.43688625749999943
105412.0,2.3812507529999998,-4.230000411,7.961823002,1.2864193597919487,-0.2629809757027496,0.28281489732241316,9.324906655881309,1.3431373827634254,-0.5745716235000002,-0.20839131249999987,0.33401449900000113
105422.0,1.955053744,-4.3185544605,8.009679454,1.5257022549111192,-0.6312332305687892,0.2854800150902085,9.30736873267964,1.675625734175472,-0.4261970089999998,-0.0885540494999999,0.04785645200000044
105432.0,2.072341278,-4.3089439435,7.794227353499999,1.7295462395685448,-0.9280718484309767,0.16130856545707192,9.143936587639681,1.9694334220647325,0.11728753400000014,0.009610516999999597,-0.2154521005000012
105442.0,2.674469588,-4.368862575,7.569164735999999,1.7783089935400145,-0.9310022562450753,-0.06198711371383061,9.139584376604795,2.008230683936806,0.6021283099999999,-0.05991863149999954,-0.2250626174999999
105452.0,3.1461694529999997,-4.164099723,7.529643936499999,1.6514724261390825,-0.5750091940450438,-0.2959415186266625,9.161530796791014,1.77357777669351,0.4716998649999997,0.204762852,-0.03952079949999998
105462.0,3.2730675039999997,-3.6757285529999995,7.7355835865,1.4081927270328447,-0.034089770949953246,-0.4752706086105759,9.168598840870313,1.4866240346370994,0.12689805099999996,0.4883711700000002,0.20593965000000036
105472.0,3.2167773329999996,-3.2088339465,8.247981049,1.1689098319136744,0.4796496397038296,-0.5741278027727866,9.416658807187213,1.3878172451476367,-0.05629017100000011,0.4668946064999995,0.5123974625000001
105482.0,3.0659510559999994,-3.0483971524999998,9.078702370499999,1.0343449465849115,0.8321799686679043,-0.5847865285147161,10.055626176886246,1.4506440820236197,-0.15082627700000018,0.16043679400000022,0.8307213214999987
105492.0,3.0456512905,-3.1046873234999994,9.777818449,1.0378094251501202,0.9392978061798043,-0.5328263313535929,10.701439565854244,1.4977425249382303,-0.020299765499999456,-0.05629017099999967,0.6991160785000012
105502.0,3.1186127665,-3.1992234295,10.429078075499998,1.1673111103188476,0.8556284671684481,-0.4654112436660599,11.345767741502259,1.5203035643691813,0.07296147600000014,-0.09453610600000051,0.6512596264999981
105512.0,3.2993493259999997,-3.193241373,10.839682511,1.3698216634277496,0.6973497932928383,-0.4062567993282161,11.77205221618112,1.5898907858094964,0.18073655949999967,0.005982056499999722,0.4106044355000016
105522.0,3.5651095409999995,-3.0208404659999997,11.071903982999999,1.5496848241627732,0.5646506649344575,-0.3545636375426481,12.017592977344655,1.6870295790882874,0.2657602149999998,0.17240090700000055,0.2322214719999991
105532.0,3.6609205114999996,-2.7743012849999995,11.114955176499999,1.6200303196644046,0.5478640881887761,-0.29887192644076094,12.026691780663468,1.7360811398587577,0.09581097050000009,0.24653918100000016,0.043051193500000196
105542.0,3.5591274844999994,-2.6414211775,11.002472900999999,1.5784618128696557,0.6520497725573254,-0.24744405470149608,11.861656892066476,1.7256706408776088,-0.10179302700000026,0.13288010749999968,-0.11248227549999967
105552.0,3.298172528,-2.5731668935,11.131724547999998,1.4886646228545475,0.8268497331323136,-0.20907473642565275,11.891779568206102,1.7156675336238973,-0.26095495649999956,0.068254284,0.12925164699999847
105562.0,2.881586036,-2.680941977,11.700412181499999,1.4438986728701448,1.0208343528452233,-0.18642559872252232,12.34466010807525,1.7781171663656314,-0.416586492,-0.10777508349999998,0.5686876335000015
