timestamp,ax,ay,az,gx,gy,gz,acc_mag,gyro_mag,dax,day,daz
294022.0,0.7656051654999999,-1.9830026964999998,9.5409878515,-0.11387051638786605,0.05803219762881146,-0.062400756746553265,9.774911771787874,0.14222547207378577,0.0,0.0,0.0
294032.0,0.6423355749999999,-1.458641121,9.230999644999999,-0.10321179064593666,0.06442882933737068,-0.07066140009624243,9.367581510548645,0.14070103497020178,-0.12326959049999997,0.5243615754999997,-0.3099882065000017
294042.0,0.9248651615,-1.5006135829999998,9.3554460335,-0.11333819096600778,0.07988371986378046,-0.025895450111839868,9.52006235159053,0.14105859976342097,0.28252958650000004,-0.04197246199999971,0.12444638850000089
294052.0,0.9236883634999999,-1.4694284359999998,9.421346721499999,-0.13278988547948456,0.12278391287780109,0.02073625684294463,9.579884872382836,0.18204130106955027,-0.0011767980000000344,0.03118514699999997,0.06590068799999926
294062.0,0.887697958,-1.514931292,9.594924426499999,-0.15970286254523713,0.15475834477433723,0.0500473163009374,9.754260568303703,0.22794710669662294,-0.03599040549999999,-0.04550285600000015,0.17357770499999958
294072.0,0.7189255115,-1.4514822665,9.810376527,-0.18315136104578095,0.14516601520537636,0.08548622676268225,9.943195777141376,0.2488483232606768,-0.1687724465,0.06344902549999998,0.21545210050000208
294082.0,0.514260726,-1.4658980419999998,9.82234064,-0.1975398553992222,0.06202900161587847,0.12652066280632096,9.944430441812194,0.24264597591874265,-0.2046647855,-0.014415775499999839,0.011964112999999443
294092.0,0.4076624405,-1.7496044265,9.766050469,-0.19487473763142685,0.0012758356832078548,0.13051746679338797,9.929906649998173,0.2345476503011086,-0.10659828549999995,-0.2837063845000001,-0.056290171000000555
294102.0,0.21378497,-1.896802243,9.709760297999999,-0.177288800088332,-0.02110626664436743,0.09561088175350138,9.895605479558325,0.20252958756217745,-0.1938774705,-0.14719781650000008,-0.056290171000000555
294112.0,0.10365629049999998,-2.0608674975,9.594924426499999,-0.16343263115674903,-0.021373302019922557,0.03485771582083075,9.814300495657266,0.16846988846170283,-0.1101286795,-0.16406525449999987,-0.11483587150000041
294122.0,0.060507030499999996,-2.09077778,9.604436877,-0.15357326621223305,-0.030166270791469992,-0.030424579520765153,9.829558512484637,0.15943778419048935,-0.04314925999999999,-0.02991028249999994,0.009512450500000824
294132.0,0.065312289,-2.071556746,9.659550249999999,-0.13865244643693353,-0.058410934076494225,-0.06986203929882902,9.879398973584758,0.1658826171050674,0.0048052584999999995,0.019221033999999637,0.0551133729999993
294142.0,0.1264077185,-2.1015650949999998,9.594924426499999,-0.12372988133238201,-0.11223688820799935,-0.0914447808289909,9.823193447655658,0.19044251245455268,0.06109542949999999,-0.0300083489999996,-0.06462582350000012
294152.0,0.21859022849999998,-2.04762852,9.405754148,-0.11786732037493307,-0.1578021989898153,-0.10157118114906201,9.62853962636766,0.22160989160776182,0.09218251,0.05393657499999982,-0.1891702784999989
294162.0,0.33950622299999994,-1.9853562925,9.232176443,-0.12079947351828352,-0.15327132425163803,-0.09730734178643986,9.449337858194573,0.21806726119637554,0.12091599449999996,0.062272227500000055,-0.17357770499999958
294172.0,0.36215958449999996,-1.9506407515,9.0896858185,-0.13358924627689797,-0.09545031146231789,-0.09091245540713264,9.30368460262372,0.18767504689552383,0.022653361500000024,0.03471554099999996,-0.1424906245000006
294182.0,0.329895706,-1.986631157,9.0885090205,-0.14371390126771708,-0.014179054843201934,-0.09304350242381772,9.30894896035585,0.1717900589589649,-0.032263878499999954,-0.03599040549999999,-0.0011767979999994793
294192.0,0.24732371299999997,-1.9793742359999997,9.1950092395,-0.14131581887547687,0.045242424870197015,-0.1076990321528141,9.408893999809065,0.18334699124674747,-0.08257199300000004,0.007256921000000194,0.10650021899999906
294202.0,0.22457228499999998,-1.974667044,9.338676662,-0.12239819511311034,0.04684114646502382,-0.12581904044701922,9.547807310751159,0.18167510040760537,-0.02275142799999999,0.004707191999999694,0.14366742250000009
294212.0,0.21859022849999998,-1.8992539055,9.4572390605,-0.09228777485770416,0.00793775743807021,-0.1404745701760156,9.648539668416127,0.16826510704084868,-0.005982056499999999,0.07541313850000009,0.11856239849999994
294222.0,0.2784107935,-1.8285479589999998,9.501467051999999,-0.0637760761971248,-0.0418896473771159,-0.14660242117976768,9.6798231568837,0.16527068810969045,0.05982056499999999,0.07070594650000017,0.044227991499999675
294232.0,0.41246769899999997,-1.7806915069999998,9.489502939,-0.05471607205002223,-0.07093541678880554,-0.14766881735273624,9.663935941173758,0.17271873527194598,0.1340569055,0.047856451999999994,-0.011964112999999443
294242.0,0.5082786695,-1.7160656834999999,9.444000082999999,-0.06590712321380987,-0.0613430872198447,-0.1460700957579094,9.61209478748826,0.17159019818948465,0.09581097050000004,0.0646258234999999,-0.04550285600000059
294252.0,0.5932042585,-1.7052783684999997,9.426053913499999,-0.09122137868473564,-0.028834584572198316,-0.14527073496049603,9.597414130201175,0.1739435530065943,0.08492558900000002,0.010787315000000186,-0.017946169500000053
294262.0,0.6124252925,-1.6813501425,9.4380180265,-0.10827499080597223,0.0012758356832078548,-0.14473840953863776,9.606153616776979,0.18076036232121892,0.01922103399999997,0.023928225999999775,0.01196411300000122
294272.0,0.6267430015,-1.689685795,9.4464517455,-0.1128041202148975,0.004207988826558329,-0.13994049942490536,9.616823563724875,0.17979382660901744,0.014317708999999956,-0.008335652500000013,0.008433718999999229
294282.0,0.6542996879999999,-1.6933142554999998,9.477538826,-0.10747563000855881,-0.010981611653548322,-0.13594369543783832,9.649827120106032,0.17364416249774053,0.027556686499999983,-0.003628460499999875,0.031087080500000752
294292.0,0.7021561399999999,-1.698119514,9.4021256875,-0.10001434745628307,-0.02563714138254471,-0.13407968379670837,9.580010468277925,0.16922616323252146,0.047856451999999994,-0.004805258500000242,-0.07541313850000009
294302.0,0.770410424,-1.6788984799999997,9.365056550499999,-0.09868266123701139,-0.01870818425212722,-0.13008287980964137,9.54549718566912,0.16434664403753396,0.06825428400000011,0.019221034000000303,-0.03706913700000136
294312.0,0.8207185385,-1.6574219165,9.348287179,-0.09841562586145625,-0.002453932928304027,-0.1218222364599522,9.529485794615987,0.15662794928308055,0.050308114499999945,0.021476563499999823,-0.016769371499998798
294322.0,0.8218953364999999,-1.664580771,9.371038607,-0.09788330043959798,0.007405432016211941,-0.10530094976057387,9.553151608826685,0.14395926836704276,0.0011767979999999234,-0.007158854500000089,0.022751427999999407
294332.0,0.7787460764999999,-1.6705628275,9.4129130025,-0.09361946107697583,0.0047403142484166,-0.0890466984367507,9.59167122064359,0.12929187358068084,-0.04314925999999997,-0.005982056499999944,0.041874395500000716
294342.0,0.7093149945,-1.6921374574999999,9.4715567695,-0.08935562171435368,-0.00778416846389471,-0.07998669428964814,9.647634143890322,0.12017858242639824,-0.06943108199999992,-0.021574629999999928,0.058643766999999514
294352.0,0.663910205,-1.7388171115,9.4919546015,-0.08695753932211349,-0.021638592066225697,-0.0829188474329986,9.672717501534166,0.12208758156005195,-0.04540478950000004,-0.04667965400000007,0.02039783200000045
294362.0,0.6830331725,-1.7974608785,9.484795747,-0.09068905326287736,-0.027235862977371513,-0.09384286322123112,9.677745103420667,0.13331458881682026,0.019122967499999977,-0.05864376699999996,-0.007158854500000089
294372.0,0.6806795765,-1.7735326525,9.5074491085,-0.09921498665886966,-0.022704988239194233,-0.10450158896316047,9.695376800623343,0.14587567365564066,-0.002353595999999958,0.023928225999999997,0.022653361499999747
294382.0,0.7380484789999999,-1.7459759659999998,9.501467051999999,-0.11786732037493307,-0.010981611653548322,-0.10370222816574708,9.6887059905565,0.15737678714923978,0.05736890249999993,0.027556686500000094,-0.00598205650000061
294392.0,0.7620747714999999,-1.7184192795,9.483520882499999,-0.1367866894665516,0.0047403142484166,-0.09517629476975478,9.668034500679424,0.16670811642056246,0.02402629249999999,0.027556686499999872,-0.017946169500000053
294402.0,0.768056828,-1.6825269404999998,9.466751511,-0.14344861122141395,0.011669271378834088,-0.07945436886778985,9.645734413074335,0.1643979096218807,0.005982056500000055,0.035892339000000106,-0.016769371499998798
294412.0,0.756092715,-1.7041015705,9.4560622625,-0.13572029329358307,0.005007349623971731,-0.060802035151726455,9.638088600367464,0.14880174407763064,-0.011964112999999998,-0.02157463000000015,-0.010689248500000303
294422.0,0.7488357939999999,-1.720870942,9.4237003175,-0.11760203032862993,-0.010981611653548322,-0.04454778382790327,9.608760561042468,0.12623525013205678,-0.007256921000000083,-0.016769371499999908,-0.03236194499999989
294432.0,0.7081381964999999,-1.724401336,9.4105594065,-0.10321179064593666,-0.014179054843201934,-0.0346884188833873,9.59341691037174,0.10980439758596432,-0.040697597500000016,-0.0035303939999999923,-0.013140911000000699
294442.0,0.667440599,-1.7328350549999998,9.392613236999999,-0.10481051224076349,-0.005651376117957639,-0.03681946590007237,9.574412655661856,0.11123333402071722,-0.040697597499999905,-0.008433718999999895,-0.017946169500000053
294452.0,0.6351767205,-1.724401336,9.433310834499999,-0.12106476356458666,0.014067353771074298,-0.04614650542273008,9.610637998289123,0.13032293497999453,-0.03226387850000001,0.008433718999999895,0.04069759749999946
294462.0,0.5800633475,-1.6849786029999998,9.476362027999999,-0.1351879678717248,0.024991369559306805,-0.05307371722389557,9.64246149411036,0.14736748172408445,-0.055113372999999966,0.0394227330000001,0.043051193500000196
294472.0,0.5297552329999999,-1.6753680859999998,9.469203173499999,-0.14211517967289028,0.02019520477482639,-0.05547179961613578,9.630851861154373,0.153888567288177,-0.050308114500000056,0.00961051700000004,-0.007158854500000089
294482.0,0.5202427825,-1.6801733445,9.421346721499999,-0.1423822150484454,0.0012758356832078548,-0.05573883499169091,9.584122759388594,0.15290892925209842,-0.009512450499999936,-0.004805258500000242,-0.04785645199999955
294492.0,0.5250480409999999,-1.7232245379999998,9.353092437499999,-0.13438860707431138,-0.007250097712784445,-0.05840395275948625,9.52499429911341,0.14671020184755687,0.004805258499999909,-0.04305119349999975,-0.068254284
294502.0,0.5465246045,-1.7770630465,9.3195536945,-0.12026540276717326,-0.0064507369153710414,-0.060269709729868184,9.503195424657347,0.13467671298492662,0.021476563500000045,-0.05383850850000016,-0.03353874299999937
294512.0,0.5657456384999999,-1.767550596,9.289643412,-0.10507754761631861,-0.00272096830385916,-0.062400756746553265,9.473213708083268,0.12223971991178982,0.01922103399999997,0.009512450499999936,-0.029910282499999497
294522.0,0.5680992345,-1.7507812244999998,9.3423051225,-0.0917537041065939,0.003940953451003196,-0.05653819578910431,9.521902994579966,0.10784637645498552,0.002353596000000069,0.01676937150000013,0.052661710499998904
294532.0,0.547799469,-1.757940079,9.421346721499999,-0.08669224927581035,0.008737118235483614,-0.0525413918020373,9.599594346966438,0.1017471433115213,-0.02029976550000001,-0.007158854500000089,0.07904159899999996
294542.0,0.5046502089999999,-1.7423475055,9.465574712999999,-0.09015498251176708,0.01353328301996403,-0.05520650956983264,9.637818804623317,0.10657780875904467,-0.04314926000000008,0.015592573499999984,0.044227991499999675
294552.0,0.4531652965,-1.7064551664999998,9.5278469405,-0.09388649645253097,0.013267992973660893,-0.05893627818134452,9.690057551058285,0.111643175964987,-0.051484912499999924,0.035892339000000106,0.062272227500001165
294562.0,0.4315906665,-1.70047311,9.578155055,-0.09708393964218458,0.0034086280291449255,-0.06559819993620689,9.737501402252276,0.1172178907691099,-0.021574629999999984,0.005982056499999944,0.050308114499999945
294572.0,0.472288264,-1.748329562,9.579331853,-0.10001434745628307,-0.01151393707540659,-0.07305948248848264,9.749015909904735,0.12439103032601441,0.040697597500000016,-0.047856451999999994,0.0011767979999994793
294582.0,0.5118090635,-1.7399939094999999,9.5374574575,-0.1104060378226573,-0.010182250856134918,-0.07972140424334499,9.708378962329407,0.13656014687574894,0.03952079949999998,0.008335652500000013,-0.04187439549999894
294592.0,0.53936575,-1.7232245379999998,9.478715624,-0.12159883431569694,0.009004153611038746,-0.08318413747930174,9.649169295918695,0.147604037943963,0.027556686499999983,0.01676937150000013,-0.05874183350000095
294602.0,0.559763582,-1.720870942,9.5027419165,-0.1285260461168624,0.02072753019668466,-0.08078605508706153,9.673512081884196,0.15321540958734553,0.020397832000000005,0.002353595999999847,0.024026292500000324
294612.0,0.5441710085,-1.696942716,9.536182593,-0.12426220675424028,0.023125612588924867,-0.07012732934513216,9.701263583416006,0.144546644050034,-0.015592573499999984,0.023928225999999997,0.03344067649999971
294622.0,0.5118090635,-1.698119514,9.5745265945,-0.11493691256083458,0.004473278872861466,-0.057337556586517714,9.737408172100835,0.12852275863909646,-0.032361945,-0.0011767980000001454,0.0383440015000005
294632.0,0.49268609599999996,-1.7256762004999997,9.584137111499999,-0.10747563000855881,-0.020839231268812295,-0.05360778797500583,9.750711877098789,0.12189782416919856,-0.019122967500000032,-0.02755668649999965,0.009610516999998708
294642.0,0.49866815249999996,-1.7459759659999998,9.520688086,-0.10747563000855881,-0.04162435733081277,-0.05920331355689965,9.692296096956063,0.1295709477662967,0.005982056499999999,-0.020299765500000122,-0.06344902549999887
294652.0,0.5250480409999999,-1.755586483,9.4703799715,-0.1128041202148975,-0.044554765144911246,-0.07039436472068729,9.646027998572189,0.1402328892200556,0.02637988849999995,-0.009610517000000263,-0.050308114499999945
294662.0,0.53936575,-1.77108099,9.4715567695,-0.11946604196975986,-0.03363074935667874,-0.07918733349223472,9.650804677500924,0.14722023051137562,0.014317709000000067,-0.01549450699999988,0.0011767979999994793
294672.0,0.5322068955,-1.779514709,9.409284542,-0.12506156755165368,-0.01604306648433188,-0.08558221987154195,9.59085774951778,0.15238796546590705,-0.007158854499999978,-0.008433719000000117,-0.06227222749999939
294682.0,0.548976267,-1.7938324179999998,9.400948889499999,-0.12799372069500414,-0.0016545721308906243,-0.09117949078268776,9.58629488950701,0.15715861314505578,0.01676937150000002,-0.014317708999999734,-0.008335652500001345
294692.0,0.5584887175,-1.8369816779999997,9.404577349999999,-0.12932540691427583,0.006072000467688272,-0.0999724595542352,9.598566896418209,0.16357390602582622,0.009512450499999936,-0.043149259999999856,0.003628460499999875
294702.0,0.563293976,-1.8202123064999998,9.363879752499999,-0.13625436404469332,0.0047403142484166,-0.10743199677725897,9.55576877929826,0.1735780983648183,0.00480525850000002,0.016769371499999908,-0.04069759749999946
294712.0,0.6112484945,-1.8106017894999997,9.362604888,-0.1431815758458588,-5.585053606381855e-05,-0.10903246370133776,9.555640944016817,0.17996956665439112,0.04795451849999999,0.00961051700000004,-0.0012748644999991399
294722.0,0.6279197995,-1.8130534519999997,9.349463977,-0.1383854110613784,-0.006983062337229313,-0.09650798098902645,9.544313634391624,0.1688581521538436,0.016671305000000025,-0.0024516624999999515,-0.013140911000000699
294732.0,0.6591049465000001,-1.8429637345,9.325535751,-0.12372988133238201,-0.02110626664436743,-0.07838797269482133,9.52872245898484,0.14798389199298864,0.03118514700000008,-0.029910282500000385,-0.023928225999998887
294742.0,0.7260843659999999,-1.9243589294999999,9.303961121,-0.10640923383559028,-0.02377138441216277,-0.0679962823284471,9.528591099274625,0.12849707456918244,0.06697941949999986,-0.08139519499999981,-0.021574629999999928
294752.0,0.7081381964999999,-1.8944486469999997,9.245317353999999,-0.09654986889107432,-0.012046262497264863,-0.0719930863155141,9.463946764306947,0.12103715999753842,-0.017946169500000053,0.029910282500000163,-0.05864376700000129
294762.0,0.6830331725,-1.8824845339999998,9.268068782,-0.08988969246546395,0.014067353771074298,-0.08371820823041201,9.48195028901584,0.12363974135757026,-0.02510502399999992,0.011964112999999887,0.022751428000001184
294772.0,0.6483176315,-1.9112180185,9.373392203,-0.08535881772728668,0.0343184090819645,-0.10023774960053833,9.588198551178111,0.13605692709560008,-0.03471554099999996,-0.02873348450000024,0.10532342099999958
294782.0,0.6387071145,-1.8441405324999998,9.506272310499998,-0.08482649230542841,0.0335190482845511,-0.11782543247288518,9.704535760308232,0.1490029963865405,-0.00961051700000004,0.0670774860000003,0.13288010749999835
294792.0,0.6494944294999999,-1.734011853,9.5972780225,-0.08962265708990882,0.01779712238258618,-0.12422031885219242,9.774271612834253,0.15420650389881904,0.010787314999999964,0.11012867949999983,0.09100571200000118
294802.0,0.6842099705,-1.652616658,9.630816765499999,-0.09654986889107432,-0.004319689898685966,-0.11755839709733006,9.79550492178257,0.15218578656299672,0.03471554100000007,0.08139519500000003,0.03353874299999937
294812.0,0.7380484789999999,-1.5772035194999998,9.580508651,-0.10667626921114541,-0.024837780585131305,-0.10130414577350687,9.737475674483775,0.14919541450092835,0.05383850849999994,0.07541313850000009,-0.05030811449999817
294822.0,0.7632515695,-1.5400363160000001,9.5147060295,-0.11706795957751964,-0.033096678605568475,-0.07998669428964814,9.668707030453799,0.1455959084512669,0.025203090500000025,0.03716720349999969,-0.06580262150000138
294832.0,0.7464821979999999,-1.5795571154999999,9.4560622625,-0.12239819511311034,-0.027768188399229784,-0.062400756746553265,9.616098474190778,0.14016506303806472,-0.01676937150000002,-0.03952079949999976,-0.058643766999999514
294842.0,0.7093149945,-1.596326487,9.400948889499999,-0.12079947351828352,-0.01124690169985146,-0.05467243881872237,9.561863104934703,0.13307171437434606,-0.03716720349999991,-0.01676937150000013,-0.055113373000001076
294852.0,0.6758743179999999,-1.677721682,9.3519156395,-0.11840139112604332,0.005272639670274869,-0.060269709729868184,9.52522347581985,0.13296288226643335,-0.033440676500000155,-0.08139519500000003,-0.04903324999999903
294862.0,0.651946092,-1.677721682,9.369861809,-0.11760203032862993,0.023125612588924867,-0.0679962823284471,9.541178861591671,0.13779886032010177,-0.023928225999999886,0.0,0.017946169500000053
294872.0,0.630371462,-1.6430061409999999,9.429682373999999,-0.1173349949530748,0.03565009530123618,-0.07226012169106924,9.592483882394276,0.14233747054951287,-0.021574629999999928,0.03471554100000018,0.05982056499999899
294882.0,0.6051683715,-1.641829343,9.4560622625,-0.1152039479363897,0.03298497753344083,-0.06692988615547855,9.616597416013441,0.13725730590317334,-0.025203090500000025,0.0011767979999999234,0.02637988850000106
294892.0,0.6039915735,-1.6609523105,9.469203173499999,-0.11307115559045265,0.02339264796448,-0.05360778797500583,9.632724284419062,0.1273031701762514,-0.0011767980000000344,-0.019122967499999977,0.013140910999998923
294902.0,0.572904493,-1.652616658,9.5039187145,-0.11094010857376756,0.010068804454755286,-0.03735353665118264,9.663531047615152,0.11749202191578234,-0.031087080499999975,0.008335652500000013,0.03471554100000063
294912.0,0.5537815254999999,-1.7232245379999998,9.500290254,-0.11333819096600778,-0.002453932928304027,-0.025628414736284733,9.671178402686913,0.11622556930451612,-0.019122967500000088,-0.07060787999999985,-0.003628460499999875
294922.0,0.49268609599999996,-1.779514709,9.488326140999998,-0.12000011272087012,-0.007250097712784445,-0.02909289330149348,9.66632014505639,0.12368907555042417,-0.061095429499999965,-0.05629017100000033,-0.01196411300000122
294932.0,0.44718324,-1.8298228235,9.5074491085,-0.12559563830276396,-0.00778416846389471,-0.048544587814970286,9.692255308557232,0.13487562658048474,-0.04550285599999998,-0.050308114499999945,0.01912296750000131
294942.0,0.459147353,-1.8549278475,9.5027419165,-0.12692732452203562,-0.008848819307611252,-0.07252541173737237,9.69297052212602,0.14645402917344502,0.011964112999999998,-0.02510502399999992,-0.004707191999999694
294952.0,0.493862894,-1.839335274,9.544616312,-0.12426220675424028,-0.008049458510197848,-0.0906454200315775,9.732767096337362,0.15402104395972022,0.034715541000000016,0.015592573499999984,0.041874395500000716
294962.0,0.5214195805,-1.8142302499999998,9.5529519645,-0.11493691256083458,-0.013912019467646801,-0.09730734178643986,9.737669177733872,0.15123741904776128,0.02755668650000004,0.025105024000000142,0.008335652499999568
294972.0,0.5310300975,-1.7831431694999997,9.54579311,-0.10747563000855881,-0.03363074935667874,-0.09437693397234137,9.72541817231058,0.14693210681824465,0.00961051699999993,0.031087080500000086,-0.007158854500000089
294982.0,0.5345604915,-1.768727394,9.5290237385,-0.10481051224076349,-0.06080901646873444,-0.0898460592341641,9.706515591202399,0.15084858076884572,0.0035303939999999923,0.014415775499999839,-0.016769371500000574
294992.0,0.572904493,-1.781868305,9.494308197499999,-0.09601754346921605,-0.09731432310344784,-0.08478285907412855,9.677043058888332,0.16086509667335727,0.03834400150000006,-0.013140911000000033,-0.03471554100000063
295002.0,0.607620034,-1.7770630465,9.429682373999999,-0.07629881358018412,-0.13781643372522825,-0.07652396105369139,9.614887667127489,0.17513079390510053,0.03471554099999996,0.00480525850000002,-0.06462582350000012
295012.0,0.6291946639999999,-1.7363654489999998,9.386631180499998,-0.04539077785661653,-0.16819388935618954,-0.06293308216841154,9.566592696274983,0.18522980311603982,0.021574629999999928,0.04069759750000013,-0.043051193500000196
295022.0,0.663910205,-1.7567632809999998,9.3770206635,-0.01421396142824182,-0.17299005414066998,-0.05200906638017903,9.563237449184195,0.18119751244653814,0.03471554100000007,-0.020397832000000005,-0.009610516999998708
295032.0,0.65312289,-1.8142302499999998,9.363879752499999,0.00017453292519943296,-0.14954155564012614,-0.051474995629068765,9.560347531796973,0.15815303506421738,-0.010787314999999964,-0.057466969000000034,-0.013140911000000699
295042.0,0.6136020904999999,-1.9099431539999998,9.2740508385,-0.012348204457859882,-0.09997944087124316,-0.07838797269482133,9.488540948536818,0.1276441969439409,-0.03952079950000009,-0.09571290399999999,-0.08982891399999993
