timestamp,ax,ay,az,gx,gy,gz,acc_mag,gyro_mag,dax,day,daz
81502.0,0.9309452844999999,-1.0237161934999999,10.0224943665,-0.011684979342102036,-0.116961494493148,0.2219779555856468,10.11756133137285,0.2511787067055634,0.0,0.0,0.0
81512.0,0.7658012985,-0.3976596575,9.7435932405,-0.028738591463338632,-0.13428214198993974,0.21984690856896172,9.781727560523477,0.2592108475817176,-0.1651439859999999,0.6260565359999999,-0.27890112600000094
81522.0,1.0015531645,-0.911233918,9.808219064,-0.056183893950949464,-0.130817663424731,0.21051986904630404,9.901243214972887,0.2541426887924788,0.23575186599999998,-0.5135742605,0.06462582350000012
81532.0,1.002828029,-1.020087733,9.892065921499999,-0.04978900757164224,-0.13614789896032167,0.21291795143854422,9.994959291266108,0.25758348105238676,0.001274864500000028,-0.10885381500000002,0.08384685749999932
81542.0,0.99439431,-1.0584317344999998,9.871668089499998,-0.027939230665925227,-0.15186807953303458,0.20652306505923704,9.977922060710316,0.25786874683202254,-0.008433719000000006,-0.038344001499999836,-0.02039783200000045
81552.0,1.0207741985,-1.075201106,9.8130243225,-0.0050230575872396805,-0.15000406789190465,0.2009275394773432,9.924388330604739,0.25079538993383266,0.02637988850000006,-0.01676937150000013,-0.05864376699999774
81562.0,1.0686306504999998,-1.0248929915,9.8489166615,0.008566075968788169,-0.1436091815125974,0.20066050410178807,9.959595198419773,0.2469040554114187,0.04785645199999977,0.050308114499999945,0.035892339000000106
81572.0,1.0817715615,-0.9949827089999999,9.881278606499999,0.006435028952103093,-0.13028533800287273,0.20225922569661486,9.989989349431445,0.24067503666880657,0.013140911000000255,0.029910282500000163,0.032361944999998116
81582.0,1.0805947635,-1.020087733,9.908835293000001,-0.0050230575872396805,-0.11403108667904953,0.20385794729144166,10.019644748678623,0.23363728835656744,-0.0011767980000001454,-0.025105024000000142,0.027556686500002314
81592.0,1.084223224,-1.040485565,9.9399223735,-0.014882422531755648,-0.1044387571100887,0.20652306505923704,10.05287058514334,0.23190669867120195,0.003628460500000097,-0.020397832000000005,0.031087080499998976
81602.0,1.0674538525,-1.0368571045,9.898047978,-0.021012018864759733,-0.09724450993336806,0.20812178665406383,10.009289892752587,0.2306787327194113,-0.01676937150000013,0.003628460500000097,-0.041874395500000716
81612.0,1.049507683,-1.0572549365,9.8681376955,-0.022076669708476274,-0.09564578833854126,0.20918818282703236,9.979949697006377,0.23107399682091903,-0.01794616949999983,-0.020397832000000005,-0.029910282499999497
81622.0,1.027933053,-1.0811831625,9.890889123500001,-0.024474752100716486,-0.09964259232560828,0.20972050824889063,10.002764170252842,0.2334745195432082,-0.02157463000000015,-0.023928225999999997,0.022751428000001184
81632.0,1.0207741985,-1.0476444194999999,9.887260662999998,-0.02580818364924015,-0.10950195727012424,0.2086558574051741,9.994871795683023,0.23705275324017935,-0.007158854499999867,0.03353874300000004,-0.0036284605000034276
81642.0,1.014792142,-1.0296982499999998,9.907658495,-0.02953795226075203,-0.12175765927762842,0.20998754362444577,10.01258100746574,0.24452440919866064,-0.005982056500000166,0.017946169500000053,0.020397832000002225
81652.0,1.050684481,-1.027344654,9.865686033,-0.03513347784264585,-0.12735493018877422,0.20892114745147722,9.974524340460945,0.24718755098335582,0.035892339000000106,0.002353595999999847,-0.04197246200000038
81662.0,1.050684481,-1.0368571045,9.841757806999999,-0.038330921032299466,-0.1286866164080459,0.20918818282703236,9.951844415253476,0.24857433613350322,0.0,-0.009512450499999936,-0.023928226000000663
81672.0,1.0339151094999999,-1.0225393955,9.854898718,-0.03619987401561439,-0.12762022023507738,0.2086558574051741,9.961606095958619,0.24725415733832334,-0.01676937150000013,0.014317708999999956,0.013140911000000699
81682.0,1.0207741985,-1.0296982499999998,9.860978841,-0.03220307002854737,-0.12389045162356549,0.2094552182025875,9.96700366976084,0.24547376673495702,-0.01314091099999981,-0.007158854499999867,0.00608012300000027
81692.0,1.0254813905,-1.0320518459999999,9.863332436999999,-0.030070277682610305,-0.12122533385577015,0.2086558574051741,9.97005866872759,0.243181146468719,0.004707191999999916,-0.002353596000000069,0.0023535959999989586
81702.0,1.0254813905,-1.0345035084999998,9.8585271785,-0.031936034652992246,-0.1177608552905614,0.2062560296836819,9.965559077170923,0.23964365029976809,0.0,-0.0024516624999999515,-0.004805258499999354
81712.0,1.0194993339999998,-1.05127288,9.823811637499999,-0.034334117045232454,-0.1153627728983212,0.20492434346441024,9.93236269219617,0.23765813158481436,-0.005982056500000166,-0.01676937150000013,-0.03471554100000063
81722.0,1.0194993339999998,-1.0715726455,9.820183176999999,-0.03513347784264585,-0.11403108667904953,0.2046573080888551,9.930943784779174,0.2369009576778894,0.0,-0.020299765500000122,-0.003628460499999875
81732.0,0.9991995684999999,-1.084811623,9.8226348395,-0.0308713838092757,-0.11589684364943145,0.20572370426182363,9.932742381902676,0.238133078763549,-0.0202997654999999,-0.013238977499999915,0.0024516625000003955
81742.0,0.9764481405,-1.0955008714999999,9.816652783,-0.02607347369554329,-0.1193595768853882,0.2062560296836819,9.925736496226605,0.239725018314082,-0.022751427999999962,-0.01068924849999986,-0.0059820564999988335
81752.0,0.9536967125,-1.0871652189999998,9.807042266,-0.0199456226917912,-0.11909428683908507,0.20785649660776068,9.913099598003999,0.24038635611100226,-0.022751427999999962,0.008335652500000013,-0.009610517000000485
81762.0,0.9405558014999998,-1.0715726455,9.791449692499999,-0.017015214877692718,-0.11962661226094334,0.20732242585665042,9.894715773132521,0.23996381427509117,-0.013140911000000144,0.015592573499999762,-0.015592573500001095
81772.0,0.970466084,-1.0356803065,9.821458041499998,-0.016481144126582456,-0.1193595768853882,0.20758946123220556,9.92348105144617,0.2400244177592302,0.029910282500000163,0.035892339000000106,0.030008348999999157
81782.0,0.9716428819999999,-1.0296982499999998,9.835775750499998,-0.017280504923995858,-0.11802789066611653,0.20998754362444577,9.93714511267286,0.24150355546647656,0.0011767979999999234,0.005982056500000166,0.014317709000000178
81792.0,0.9872354554999999,-1.0260697895,9.816652783,-0.01834690109696439,-0.1145634121009078,0.21051986904630404,9.919381277050627,0.24037470631357458,0.015592573499999984,0.003628460499999875,-0.019122967499997756
81802.0,0.982430197,-1.0057700239999998,9.809493928499998,-0.01834690109696439,-0.11403108667904953,0.20838882202961895,9.909738319775792,0.2382553224084593,-0.004805258499999909,0.020299765500000122,-0.0071588545000018655
81812.0,0.9728196799999999,-1.0213625975,9.8465630655,-0.016481144126582456,-0.11429812205460466,0.20572370426182363,9.947078158345596,0.23591933221365466,-0.009610517000000152,-0.015592573500000206,0.03706913700000136
81822.0,0.982430197,-1.017734137,9.8369525485,-0.014083061734342244,-0.11802789066611653,0.2041249826669968,9.938138020123953,0.23621160884196143,0.009610517000000152,0.003628460500000097,-0.009610517000000485
81832.0,0.9668376234999999,-1.0237161934999999,9.857350380499998,-0.01301666556137371,-0.12175765927762842,0.2017269002747566,9.957415646591876,0.23598326946960732,-0.015592573500000095,-0.005982056499999944,0.020397831999998672
81842.0,0.9907658494999999,-1.0345035084999998,9.8669608975,-0.011952014717657168,-0.12602149864025058,0.20199393565031173,9.970392762094594,0.23838166627248844,0.023928225999999997,-0.010787314999999964,0.009610517000002261
81852.0,1.0123404795,-1.040485565,9.863332436999999,-0.01301666556137371,-0.13215109497325464,0.2009275394773432,9.969592279536009,0.24084273209998705,0.02157463000000004,-0.005982056500000166,-0.003628460500001651
81862.0,1.030286649,-1.039308767,9.8477398635,-0.014083061734342244,-0.13321574581697118,0.19959585325807153,9.955884376158538,0.24038151384664086,0.017946169500000053,0.0011767979999999234,-0.015592573499999318
81872.0,1.0470560205,-1.0476444194999999,9.856173582499999,-0.017015214877692718,-0.1324163850195578,0.19826242170954786,9.966847185953322,0.2390221839518592,0.016769371499999908,-0.00833565249999979,0.008433718999999229
81882.0,1.050684481,-1.0500960819999998,9.905206832499998,-0.018879226518822664,-0.12762022023507738,0.20039521405548494,10.015975342154682,0.23833083649234796,0.003628460500000097,-0.0024516624999999515,0.04903324999999903
81892.0,1.0123404795,-1.040485565,9.9028532365,-0.021544344286618004,-0.12122533385577015,0.20385794729144166,10.008693505201675,0.23815499787546654,-0.03834400150000006,0.009610516999999819,-0.0023535959999971823
81902.0,1.004004827,-1.0237161934999999,9.923153001999998,-0.022876030505889676,-0.11722852986870314,0.2062560296836819,10.026214940772764,0.23834301073822092,-0.008335652500000013,0.01676937150000013,0.020299765499997235
81912.0,1.006358423,-1.0356803065,9.910012090999999,-0.025274112898129884,-0.1161621336957346,0.20758946123220556,10.014675761929647,0.23921915998140805,0.002353596000000069,-0.01196411300000011,-0.013140910999998923
81922.0,1.027933053,-1.0464676215,9.89687118,-0.027939230665925227,-0.11562980827387632,0.20812178665406383,10.004988755506542,0.23971969308285215,0.021574629999999928,-0.010787314999999964,-0.013140910999998923
81932.0,1.0231277945,-1.028521452,9.895694381999999,-0.029804987636307165,-0.11429812205460466,0.20732242585665042,10.001470600019227,0.2386105325761963,-0.00480525850000002,0.017946169500000053,-0.0011767980000012557
81942.0,1.014792142,-1.028521452,9.8693144935,-0.03220307002854737,-0.11829492604167167,0.2070553904810953,9.974518937788343,0.24062971963942226,-0.008335652500000013,0.0,-0.026379888499999282
81952.0,1.0088100855,-1.0213625975,9.835775750499998,-0.03300243082596078,-0.12069300843391187,0.20812178665406383,9.939988126668073,0.24283871356381853,-0.005982056499999944,0.007158854499999867,-0.03353874300000115
81962.0,1.004004827,-1.0296982499999998,9.835775750499998,-0.03513347784264585,-0.12282405545059695,0.20785649660776068,9.940361602719298,0.2439762960713664,-0.00480525850000002,-0.00833565249999979,0.0
81972.0,0.9991995684999999,-1.0260697895,9.829793694,-0.033269466201515906,-0.12442277704542376,0.20758946123220556,9.93358258923825,0.24429750150934088,-0.00480525850000002,0.003628460499999875,-0.0059820564999988335
81982.0,1.017145738,-1.0213625975,9.817829580999998,-0.03380179162337418,-0.1286866164080459,0.20545666888626848,9.923081411006468,0.24477591619549363,0.017946169500000053,0.004707191999999916,-0.01196411300000122
81992.0,1.0159689399999998,-1.041662363,9.829793694,-0.03113667385557884,-0.1270878948132191,0.20492434346441024,9.9369058278791,0.24313537795056506,-0.0011767980000001454,-0.0202997654999999,0.01196411300000122
82002.0,0.9860586575,-1.0476444194999999,9.819006379,-0.028738591463338632,-0.1262885340158057,0.2062560296836819,9.92384788157209,0.24354927682921554,-0.02991028249999983,-0.005982056499999944,-0.010787314999999964
82012.0,0.9847837929999999,-1.0607853305,9.842934605,-0.027406905244066956,-0.1254891732183923,0.20599073963737877,9.948790191509016,0.24275678335825615,-0.001274864500000139,-0.013140911000000033,0.023928226000000663
82022.0,0.960855567,-1.0368571045,9.8345989525,-0.027672195290370093,-0.1254891732183923,0.20599073963737877,9.93567575116565,0.24278687732984752,-0.023928225999999886,0.023928225999999997,-0.008335652499999568
82032.0,0.9477146559999999,-1.0296982499999998,9.841757806999999,-0.027939230665925227,-0.12362341624801036,0.2070553904810953,9.940756424281588,0.24276590448889537,-0.013140911000000033,0.007158854500000089,0.007158854499998313
82042.0,0.9465378579999999,-1.0153805409999999,9.8345989525,-0.02820626604148036,-0.12069300843391187,0.20652306505923704,9.932082768290988,0.2408613130627103,-0.0011767980000000344,0.014317708999999956,-0.007158854499998313
82052.0,0.94536106,-1.0129288785,9.860978841,-0.02953795226075203,-0.12122533385577015,0.20439201804255197,9.95784294660813,0.23946642610543192,-0.0011767979999999234,0.0024516624999999515,0.026379888499999282
82062.0,0.9560503084999998,-1.006946822,9.853721919999998,-0.027939230665925227,-0.12335638087245522,0.20252626107217,9.951070785167158,0.23877663984574954,0.01068924849999986,0.005982056499999944,-0.007256921000001526
82072.0,0.9381041389999999,-1.0260697895,9.877650145999999,-0.028738591463338632,-0.12522213784283714,0.20279329644772512,9.975010325573969,0.24006584831950192,-0.017946169499999942,-0.019122967499999977,0.023928226000000663
82082.0,0.9417325995,-1.027344654,9.844209469499999,-0.029270916885196903,-0.12575620859394743,0.20252626107217,9.942371819966143,0.24018388163883372,0.003628460500000097,-0.001274864500000028,-0.03344067649999971
82092.0,0.936927341,-1.020087733,9.8465630655,-0.030337313058165435,-0.12841958103249076,0.20305858649402828,9.943501195665396,0.242166741946747,-0.00480525850000002,0.007256920999999972,0.002353596000000735
82102.0,0.9668376234999999,-1.0596085325,9.8477398635,-0.028738591463338632,-0.12975301258101446,0.2009275394773432,9.951659442099539,0.24090169578806392,0.02991028249999994,-0.03952079949999998,0.0011767979999994793
82112.0,1.0003763665,-1.0452908235,9.816652783,-0.02607347369554329,-0.12762022023507738,0.20145986489920148,9.922704149692597,0.23990169613532614,0.03353874300000015,0.014317708999999956,-0.031087080499998976
82122.0,1.0327383115,-1.0368571045,9.8345989525,-0.022343705084031405,-0.12309109082615209,0.20305858649402828,9.942884774134018,0.23850251014739227,0.03236194499999989,0.008433719000000117,0.017946169500000053
82132.0,1.0458792225,-1.0248929915,9.887260662999998,-0.01834690109696439,-0.1153627728983212,0.2070553904810953,9.995108424133786,0.2377332809640465,0.013140911000000033,0.011964112999999887,0.05266171049999713
82142.0,1.0315615135,-1.039308767,9.917170945499999,-0.018879226518822664,-0.10790323567529743,0.20838882202961895,10.024697573072556,0.23542607037038185,-0.014317708999999956,-0.014415775500000061,0.029910282500001273
82152.0,1.0051816249999999,-1.0296982499999998,9.912365687,-0.02607347369554329,-0.10230596476415162,0.21185330059482768,10.016269869472652,0.2367026772763638,-0.02637988850000017,0.009610517000000263,-0.004805258499999354
82162.0,0.9895890515,-1.028521452,9.910012090999999,-0.033269466201515906,-0.09990788237191141,0.21291795143854422,10.012266602115579,0.23753420045576548,-0.015592573499999873,0.0011767979999999234,-0.002353596000000735
82172.0,0.9872354554999999,-1.0333267105,9.919622608,-0.03966435258082314,-0.09990788237191141,0.21371731223595766,10.0220412402052,0.23922778972154835,-0.002353596000000069,-0.00480525850000002,0.009610517000000485
82182.0,0.9752713424999999,-1.039308767,9.8681376955,-0.04099603880009481,-0.10683683950232889,0.21185330059482768,9.970529498577939,0.24078331845264464,-0.011964112999999998,-0.005982056500000166,-0.051484912499999425
82192.0,0.9740945445,-1.0476444194999999,9.859703976499999,-0.0385979564078546,-0.11642916907128972,0.20812178665406383,9.962940405098488,0.2415786243225449,-0.0011767979999999234,-0.00833565249999979,-0.008433719000001005
82202.0,0.9895890515,-1.041662363,9.862155639,-0.034334117045232454,-0.12362341624801036,0.20599073963737877,9.966266142201848,0.24268037715163318,0.01549450699999999,0.005982056499999944,0.0024516625000003955
82212.0,0.9847837929999999,-1.039308767,9.870491291499999,-0.03060434843372057,-0.12495684779653403,0.2046573080888551,9.973793669797658,0.2417342625869889,-0.004805258500000131,0.002353595999999847,0.008335652499999568
82222.0,1.002828029,-1.0368571045,9.850191526,-0.03247010540410251,-0.12495684779653403,0.20305858649402828,9.95525036399298,0.24062691267842934,0.018044236000000158,0.0024516625000001735,-0.020299765499999012
82232.0,0.9847837929999999,-1.0584317344999998,9.8010602095,-0.03619987401561439,-0.12282405545059695,0.20145986489920148,9.90711149053024,0.23870956545828276,-0.018044236000000158,-0.021574629999999928,-0.049131316500000466
82242.0,0.9656608255,-1.05127288,9.842934605,-0.039397317205268,-0.12122533385577015,0.20225922569661486,9.945905546325852,0.2390743075924505,-0.019122967499999866,0.007158854499999867,0.041874395500000716
82252.0,0.9621304315,-1.0368571045,9.8249884355,-0.04046371337823654,-0.12202469465318355,0.20385794729144166,9.926286585631066,0.24100913028231724,-0.0035303939999999923,0.014415775500000061,-0.017946169500000053
82262.0,0.9513431164999999,-1.0560781385,9.805865468,-0.04046371337823654,-0.12069300843391187,0.20305858649402828,9.908347608781417,0.23965997566163852,-0.010787315000000075,-0.01922103400000008,-0.019122967499999532
82272.0,0.9500682519999999,-1.0835367585,9.804688669999999,-0.03806563098599633,-0.12095829848021501,0.2041249826669968,9.910025303000259,0.24030586922169125,-0.001274864500000028,-0.02745861999999999,-0.0011767980000012557
82282.0,0.9525199144999998,-1.0560781385,9.8010602095,-0.03646690939116952,-0.12175765927762842,0.20359265724513853,9.903705188078899,0.24000986054211873,0.0024516624999999515,0.02745861999999999,-0.003628460499999875
82292.0,0.9536967125,-1.054803274,9.8249884355,-0.03247010540410251,-0.12122533385577015,0.2033256218695834,9.9273634527997,0.2389376442129814,0.0011767980000001454,0.001274864500000028,0.023928226000000663
82302.0,0.936927341,-1.0607853305,9.839404210999998,-0.025274112898129884,-0.12095829848021501,0.2046573080888551,9.940672692889644,0.23906966455029954,-0.01676937150000002,-0.005982056499999944,0.014415775499998063
82312.0,0.9525199144999998,-1.0500960819999998,9.839404210999998,-0.01834690109696439,-0.12015893768280161,0.20758946123220556,9.941019625591498,0.24055802522385025,0.015592573499999873,0.010689248500000081,0.0
82322.0,0.9788017364999999,-1.054803274,9.830970492,-0.011952014717657168,-0.11669620444684486,0.20812178665406383,9.935725620244918,0.2389048615415571,0.026281822000000066,-0.004707192000000138,-0.008433718999997453
82332.0,0.9800766009999999,-1.028521452,9.8585271785,-0.010618583169133501,-0.11509748285201805,0.21131922984371743,9.960369704497673,0.24086511114964795,0.001274864500000028,0.026281822000000066,0.02755668649999876
82342.0,0.9776249385,-1.0333267105,9.830970492,-0.013817771688039106,-0.11829492604167167,0.21291795143854422,9.93335267800276,0.24396449411013404,-0.0024516624999999515,-0.00480525850000002,-0.02755668649999876
82352.0,0.9728196799999999,-1.0296982499999998,9.823811637499999,-0.016748179502137587,-0.12255702007504182,0.21185330059482768,9.925418464978128,0.2453213110580335,-0.004805258500000131,0.003628460500000097,-0.0071588545000018655
82362.0,0.9633072294999999,-1.0105752825,9.805865468,-0.017280504923995858,-0.1278872556106325,0.20892114745147722,9.904757482973613,0.24556427234125364,-0.009512450499999936,0.019122967499999755,-0.017946169499998277
82372.0,0.9932175119999999,-1.004593226,9.8261652335,-0.017280504923995858,-0.1340151066143846,0.20785649660776068,9.927195564302773,0.24791730039137072,0.02991028249999994,0.005982056500000166,0.020299765499999012
82382.0,1.0015531645,-1.0333267105,9.876473348,-0.01568178332916905,-0.1380119106014516,0.2046573080888551,9.980761425147232,0.24734150389779438,0.008335652500000124,-0.028733484500000017,0.050308114499999945
82392.0,0.9860586575,-1.016557339,9.863332436999999,-0.014083061734342244,-0.134814467411798,0.20199393565031173,9.964488309104578,0.24325875789134976,-0.01549450699999999,0.016769371499999908,-0.013140911000000699
82402.0,1.018322536,-1.0237161934999999,9.8226348395,-0.010353293122830362,-0.12415574166986862,0.19959585325807153,9.92819877028652,0.23528778868844857,0.0322638784999999,-0.007158854499999867,-0.04069759749999946
82412.0,1.0315615135,-1.042839161,9.886083865,-0.0034243359924128747,-0.11349876125719126,0.19959585325807153,9.994312725628658,0.22963492661553786,0.013238977500000138,-0.0191229675000002,0.06344902550000064
82422.0,1.026756255,-1.028521452,9.8944195175,0.005635668154689691,-0.10630276875121863,0.20252626107217,10.000581101750575,0.2287988763599979,-0.00480525850000002,0.014317709000000178,0.008335652499999568
82432.0,1.017145738,-1.044015959,9.929135058499998,0.010964158361028377,-0.10070724316932482,0.20519137883996535,10.035550696644007,0.2288354508059829,-0.00961051700000004,-0.015494507000000102,0.03471554099999885
82442.0,0.9860586575,-1.044015959,9.941099171500001,0.0074996797958196346,-0.09617811376039953,0.20812178665406383,10.044288612752792,0.22939300957881834,-0.031087080499999975,0.0,0.011964113000002996
82452.0,0.9692892859999999,-1.0296982499999998,9.9985661405,-0.005290092962794812,-0.09191427439777738,0.21158626521927257,10.098075315225199,0.23074870866608393,-0.01676937150000013,0.014317709000000178,0.05746696899999826
82462.0,0.936927341,-1.020087733,10.018963972499998,-0.01834690109696439,-0.08791747041071037,0.21664946537930813,10.114249893471259,0.23452735710876024,-0.03236194499999989,0.009610516999999819,0.020397831999998672
82472.0,0.957325173,-1.0153805409999999,10.094377110999998,-0.034334117045232454,-0.08392066642364335,0.2174488261767215,10.190383623249009,0.23559605652875049,0.020397832000000005,0.004707192000000138,0.07541313850000009
82482.0,0.9381041389999999,-0.984195394,10.0991823695,-0.06071476868912674,-0.08365363104808822,0.21664946537930813,10.190297565900584,0.24004417088036914,-0.01922103400000008,0.031185146999999858,0.0048052585000011305
82492.0,0.9141759129999999,-0.992629113,10.126640989499998,-0.09322327133677313,-0.08472002722105675,0.2171817908011664,10.216158176443141,0.25106969467991913,-0.023928225999999997,-0.008433719000000006,0.0274586199999991
82502.0,0.9166275755,-0.9363389419999999,10.083589796,-0.12972857797148651,-0.09111491360036399,0.21691475542561126,10.168368595820473,0.2686697648494497,0.0024516625000000625,0.05629017100000011,-0.04305119349999842
82512.0,0.912999115,-0.9698776849999999,10.040538602499998,-0.15824027663206588,-0.10230596476415162,0.2155830692063396,10.128506579755198,0.28632595988373455,-0.003628460499999986,-0.03353874300000004,-0.04305119350000197
82522.0,0.8711247195,-1.027344654,9.913640551499999,-0.1736951671584757,-0.11909428683908507,0.2155830692063396,10.004727097695945,0.3013793622336249,-0.04187439549999994,-0.057466969000000034,-0.1268980509999995
82532.0,0.8854424284999999,-0.9986111695,9.838227413,-0.1731610964073654,-0.12735493018877422,0.21025457900000089,9.928340807604402,0.3006842721907085,0.014317708999999845,0.028733484500000017,-0.07541313849999831
82542.0,0.9058402604999999,-1.084811623,9.815475984999999,-0.15584219423982568,-0.1153627728983212,0.19959585325807153,9.91669963481048,0.278269408153485,0.020397832000000005,-0.08620045350000005,-0.022751428000001184
82552.0,0.9872354554999999,-1.1889582459999999,9.699365249,-0.14225131535454583,-0.11030131806753764,0.19106817453282723,9.821707681907283,0.26250498053721094,0.08139519500000003,-0.10414662299999988,-0.11611073599999955
