timestamp,ax,ay,az,gx,gy,gz,acc_mag,gyro_mag,dax,day,daz
117772.0,-0.15259147399999998,-0.5490743334999999,9.7498694965,-0.011519173063162575,0.02449744138099241,0.024116959604057644,9.766510225276331,0.03625525786445323,0.0,0.0,0.0
117782.0,0.33823135849999997,-0.5347566244999999,9.695932921499999,-0.037632789331501736,-0.043717007103953966,0.02784847354482152,9.716557019723956,0.06405420377908835,0.4908228324999999,0.014317708999999956,-0.053936575000001596
117792.0,0.575258089,-0.5216157135,9.6301303,-0.032569589171466184,-0.03678804997353648,0.036109116894510684,9.66138781006684,0.06097546295482259,0.2370267305,0.013140910999999922,-0.0658026214999996
117802.0,0.535835356,-0.38510714549999997,9.559522419999999,-0.004857251308300219,-0.016536994662646274,0.040105920881577696,9.582269874134074,0.043652605563743216,-0.03942273299999999,0.13650856800000005,-0.07060788000000073
117812.0,0.5071018715,-0.37549662849999993,9.558345622,0.01672549022186166,0.008243190057169218,0.04650080726088492,9.579150330572133,0.05010007266855181,-0.028733484500000017,0.00961051700000004,-0.0011767979999994793
117822.0,0.5453478064999999,-0.437768856,9.606202073999999,0.025253168947105956,0.028761280743614556,0.04543441108791639,9.63162312841713,0.05940723459975115,0.03824593499999995,-0.062272227500000055,0.04785645199999955
117832.0,0.5106322655,-0.41619422599999994,9.664845841,0.021788690381897208,0.041551053502229006,0.04037121092788083,9.6872704140341,0.061895652088710736,-0.03471554099999996,0.02157463000000004,0.05864376700000129
117842.0,0.43168873299999994,-0.3600021215,9.710348696999999,0.011397000015522973,0.042350414299642404,0.03211231290744367,9.72660416111467,0.054356690857435025,-0.07894353250000002,0.05619210449999995,0.045502855999998815
117852.0,0.43884758749999997,-0.43061000149999995,9.709171899,0.00606676447993229,0.03488913174736665,0.022785273384785976,9.728619179656363,0.04210968806058188,0.007158854500000034,-0.07060787999999996,-0.0011767979999994793
117862.0,0.42560861,-0.45934348599999997,9.7031898425,0.008464846872172497,0.027961919946201154,0.016123351629923614,9.723375558242722,0.03336892367801591,-0.013238977499999971,-0.028733484500000017,-0.0059820564999988335
117872.0,0.44002438549999995,-0.43541525999999997,9.6612173805,0.015393804002589986,0.01943424122095686,0.010794861423584929,9.681029345154926,0.027040487544770644,0.01441577549999995,0.023928225999999997,-0.04197246200000038
117882.0,0.4376707895,-0.4437509125,9.616989388999999,0.025518458993409092,0.01144063324682283,0.0113271868454432,9.63716532495239,0.030172586901328013,-0.002353595999999958,-0.008335652500000013,-0.04422799150000145
117892.0,0.45797055499999995,-0.448556171,9.618166187,0.03777590633016527,0.009841911651996023,0.013992304613238539,9.639505198325239,0.0414688667848637,0.020299765499999955,-0.00480525850000002,0.0011767980000012557
117902.0,0.46395261149999995,-0.460520284,9.613360928499999,0.05189911063730338,0.01383871563906304,0.016123351629923614,9.6355611823756,0.05608021222556193,0.005982056499999999,-0.011964112999999998,-0.0048052585000011305
117912.0,0.46395261149999995,-0.468954003,9.619342985,0.06415655797405956,0.018102555001685183,0.010794861423584929,9.64193597498532,0.06752995973508576,0.0,-0.008433719000000006,0.00598205650000061
117922.0,0.435219127,-0.44737937299999997,9.704366640499998,0.07348185216746526,0.022631684410610472,0.001202531854624093,9.72441750878384,0.07689747603194837,-0.02873348449999996,0.02157463000000004,0.0850236554999988
117932.0,0.41246769899999997,-0.4209994845,9.733100125,0.0753476091378472,0.0220993589887522,-0.0067928214487619305,9.75092858203477,0.07881488624453059,-0.022751428000000018,0.02637988849999995,0.028733484500001794
117942.0,0.4053088445,-0.36235571749999995,9.785761835499999,0.06868568738298485,0.01623679803130325,-0.01265363707695889,9.800852596920492,0.07170405701812028,-0.007158854499999978,0.05864376700000007,0.052661710499998904
117952.0,0.422078216,-0.38746074150000004,9.767815666,0.05856103239216574,0.01090830782496456,-0.01478642942289596,9.78460519037843,0.06137608809234058,0.01676937150000002,-0.025105024000000087,-0.017946169499998277
117962.0,0.443652846,-0.38147868499999993,9.7761513185,0.05856103239216574,0.007710864635310948,-0.015585790220309363,9.793645308927749,0.06108820512219904,0.021574629999999984,0.00598205650000011,0.008335652499999568
117972.0,0.43168873299999994,-0.3743198305,9.7606568115,0.06309016180109102,0.009309586230137754,-0.01718451181513617,9.777366306403072,0.06604804583171836,-0.011964113000000054,0.007158854499999923,-0.015494506999999658
117982.0,0.4292370705,-0.37196623449999994,9.747417833999998,0.06921801280484312,0.01037598240310629,-0.017449801861439306,9.763951954658562,0.07213383320248888,-0.0024516624999999515,0.002353596000000069,-0.013238977500002136
117992.0,0.46395261149999995,-0.3600021215,9.7726209245,0.072949526745607,0.01144063324682283,-0.015585790220309363,9.790248887907671,0.0754681283608374,0.03471554099999996,0.011964112999999943,0.02520309050000158
118002.0,0.47238633049999995,-0.345586346,9.800079544499999,0.07188313057263845,0.010108947027551158,-0.016650441064025905,9.817542352662004,0.07447558296888601,0.008433719000000006,0.014415775500000005,0.0274586199999991
118012.0,0.467581072,-0.307340411,9.826459432999998,0.06841865200742972,0.008510225432724351,-0.019582594207376378,9.842377516409384,0.07167296474487661,-0.004805258499999965,0.03824593500000001,0.026379888499999282
118022.0,0.4770935225,-0.2593858925,9.857546513499999,0.05989271861143741,0.012239994044236233,-0.017716837236994437,9.872493227967059,0.06364622155755918,0.009512450499999991,0.04795451849999999,0.031087080500000752
118032.0,0.4878808375,-0.216334699,9.8910852565,0.04843463207209464,0.018901915799098588,-0.009990264638415543,9.905473030852328,0.05294337911751542,0.01078731500000002,0.0430511935,0.03353874300000115
118042.0,0.493862894,-0.20191892349999999,9.9114830885,0.0388423025031338,0.02503151213210267,-0.0001308996938995747,9.925833406992028,0.04620950333096451,0.005982056499999999,0.014415775500000005,0.02039783200000045
118052.0,0.44600644199999995,-0.1972117315,9.952180685999998,0.031113984575302914,0.027162559148787752,0.007862708280234455,9.964121367192298,0.042044105855204586,-0.04785645200000005,0.004707191999999999,0.040697597499997684
118062.0,0.4531652965,-0.21388303649999998,9.984444564499999,0.026052529744519357,0.020767672769480525,0.011859512267301468,9.997011453470881,0.035364934180167264,0.007158854500000034,-0.016671304999999997,0.03226387850000023
118072.0,0.42090141799999997,-0.225945216,9.997683541999999,0.022855086554865747,0.009042550854582622,0.012925908440270006,10.009090140981113,0.02777052063599747,-0.03226387850000001,-0.01206217950000002,0.01323897750000036
118082.0,0.401680384,-0.225945216,9.974932114,0.022055725757452342,-0.0077440258910988395,0.013192943815825137,9.985573045671048,0.026841735082096956,-0.01922103399999997,0.0,-0.022751427999999407
118092.0,0.401680384,-0.24389138549999997,9.929429258,0.025785494368964226,-0.01840275163302821,0.01639038700547875,9.940543019797156,0.03566788154219668,0.0,-0.01794616949999997,-0.045502855999998815
118102.0,0.401680384,-0.25585549849999994,9.877944345500001,0.0279165413856493,-0.024797638012335435,0.0214535871655143,9.889418267006333,0.0430640515534223,0.0,-0.01196411299999997,-0.051484912499999425
118112.0,0.4076624405,-0.307340411,9.818123780499999,0.030314623777889512,-0.02852740662384732,0.025982716574439582,9.83138857755341,0.04907026496835909,0.005982056499999999,-0.051484912500000035,-0.059820565000002546
118122.0,0.4160961595,-0.32283491799999997,9.7618336095,0.03644422011089359,-0.028794441999402447,0.024116959604057644,9.776029552829437,0.0523347762973337,0.008433719000000006,-0.01549450699999999,-0.05629017099999878
118132.0,0.41727295749999993,-0.357550459,9.7630104075,0.04124038489537401,-0.022931881041953497,0.012393583018411734,9.778462622966108,0.048787717865003306,0.0011767979999999234,-0.034715541000000016,0.0011767979999994793
118142.0,0.42443181199999996,-0.367160976,9.768992464,0.04097334951981888,-0.016004669240788003,0.0009354964790689607,9.785099044313434,0.04399818134926282,0.007158854500000034,-0.009610516999999985,0.00598205650000061
118152.0,0.4531652965,-0.33244543499999996,9.755851553,0.03830997708127553,-0.005345943498858632,-0.0043929937272697275,9.772027337117757,0.03892983238788316,0.028733484500000017,0.034715541000000016,-0.013140911000000699
118162.0,0.4651294095,-0.307340411,9.780956577,0.039641663300547206,0.003447025272688801,-0.0014625859131712482,9.796831888777872,0.03981811911702904,0.011964112999999998,0.025105023999999976,0.025105024000000142
118172.0,0.471111466,-0.30253515249999996,9.812141723999998,0.04230678106834255,0.010108947027551158,0.007330382858376184,9.82810249965661,0.044111098911961806,0.005982056499999999,0.00480525850000002,0.031185146999998636
118182.0,0.4280602725,-0.310870805,9.7953723525,0.04790230665023637,0.01383871563906304,0.013192943815825137,9.809648096563684,0.05157707629829017,-0.04305119349999997,-0.008335652500000013,-0.016769371499998798
118192.0,0.40050358599999997,-0.29655309599999996,9.8551929175,0.04896695749395291,0.009576621605692885,0.012660618393966868,9.867784670445957,0.05147587654145257,-0.02755668650000004,0.014317709000000012,0.05982056500000077
118202.0,0.4149193615,-0.2678196115,9.917465145,0.04550422425799616,-0.0008168140899333463,0.010794861423584929,9.929753286116501,0.04677425193131283,0.014415775500000005,0.02873348449999996,0.06227222749999939
118212.0,0.44002438549999995,-0.2593858925,9.9030493695,0.04177271031723229,-0.00721170046924057,0.012126547642856601,9.916213456547666,0.04409105474628522,0.025105023999999976,0.008433719000000006,-0.014415775499999839
118222.0,0.45198849849999995,-0.2462449815,9.8899084585,0.04230678106834255,-0.008276351312957111,0.017989108600305555,9.90329336691588,0.04671155899404067,0.011964112999999998,0.013140911000000005,-0.013140910999998923
118232.0,0.435219127,-0.2319272725,9.869608693,0.04097334951981888,-0.0037472219040318258,0.02784847354482152,9.881921963928733,0.04968293994569889,-0.016769371499999963,0.014317708999999984,-0.020299765500000788
118242.0,0.42090141799999997,-0.24987344199999997,9.837246748,0.035644859313480194,0.0015812683023068625,0.03291167370485707,9.849417156447782,0.04854106170013854,-0.014317709000000012,-0.01794616949999997,-0.03236194499999989
118252.0,0.41844975549999996,-0.28811937699999995,9.826459432999998,0.026317819790822497,0.0061121430404841425,0.030778881358920002,9.839584237236629,0.040955164128544524,-0.002451662500000007,-0.03824593499999998,-0.01078731500000174
118262.0,0.434042329,-0.3144992655,9.861174973999999,0.01619316480000339,0.00797790001086608,0.023052308760341103,9.875731588049954,0.02927924886341084,0.01559257350000004,-0.02637988850000006,0.03471554100000063
118272.0,0.44836003799999996,-0.3360738955,9.848034062999998,0.009531243045141035,0.009841911651996023,0.013992304613238539,9.863962048432676,0.019582962169725524,0.014317708999999956,-0.021574629999999984,-0.013140911000000699
118282.0,0.443652846,-0.319304524,9.826459432999998,0.013528047032208048,0.013039354841649637,0.0067980574365179135,9.84165068548998,0.01998115152092795,-0.004707191999999971,0.01676937150000002,-0.021574629999999928
118292.0,0.456793757,-0.298906692,9.8767675475,0.02365444735227915,0.0135734255927599,0.004932300466135976,9.891842241681058,0.02771458730979375,0.013140911000000033,0.020397832000000005,0.05030811450000172
118302.0,0.4292370705,-0.2821373205,9.8910852565,0.03244741612382658,0.009042550854582622,0.003066543495754037,9.904413838368328,0.033823161118999884,-0.02755668650000004,0.016769371499999963,0.014317709000000178
118312.0,0.42325501399999993,-0.30253515249999996,9.926977595499999,0.03351206696754312,-0.004014257279586958,-0.0009302604913129776,9.940601415756154,0.033764452883550615,-0.005982056500000055,-0.02039783199999995,0.03589233899999833
118322.0,0.43041386849999996,-0.2809605225,9.941393371,0.03218038074827145,-0.01840275163302821,-0.008656833089891874,9.954672122695118,0.038068082850557225,0.007158854500000034,0.021574629999999984,0.014415775500001615
118332.0,0.4543420945,-0.24742177949999997,9.9234472015,0.03244741612382658,-0.022666590995650358,-0.012121311655100619,9.936923499593009,0.04139487114023835,0.023928226000000052,0.03353874300000001,-0.017946169500000053
118342.0,0.4531652965,-0.19240647299999997,9.919818741,0.03457846314051166,-0.018669787008583346,-0.010255554684718681,9.932028135839078,0.040612897729623364,-0.0011767980000000344,0.0550153065,-0.003628460499999875
118352.0,0.45081170049999997,-0.18995481049999996,9.9450218315,0.030848694528999777,-0.010941469080752452,-0.005726425275793395,9.957046411880954,0.0332287472864664,-0.0023535960000000133,0.002451662500000007,0.025203090499999803
118362.0,0.44237798149999996,-0.1768138995,9.9605163385,0.02152165500634208,-0.003480186528476693,0.0017348572764823635,9.971902885763472,0.021870140883285677,-0.008433719000000006,0.01314091099999995,0.015494506999999658
118372.0,0.43168873299999994,-0.15406247149999996,9.948552225499999,0.010330603842554437,-0.0029478611066184224,0.009728465250616393,9.959105471417843,0.014493250049183748,-0.010689248500000026,0.022751428000000046,-0.01196411300000122
118382.0,0.4280602725,-0.16965504499999998,9.909031426,0.0026022859147235454,-0.005612978874413764,0.017722073224750425,9.919723899012629,0.018770969692852836,-0.0036284604999999304,-0.015592573500000012,-0.039520799499998205
118392.0,0.43639592499999996,-0.183972754,9.90667783,-0.0008604473212332044,-0.003480186528476693,0.028380798966679794,9.917991379557881,0.02860632478758327,0.008335652499999957,-0.014317709000000012,-0.002353596000000735
118402.0,0.4292370705,-0.2234935535,9.880297941499999,-0.0016598081186466075,0.001048942880448592,0.03397632454857361,9.89214239909417,0.03403301153273355,-0.007158854499999978,-0.03952079950000001,-0.02637988850000106
118412.0,0.396973192,-0.2821373205,9.900695773499999,-0.005923647481268754,0.007178539213452678,0.030513591312616863,9.912666945993209,0.03190141500803415,-0.03226387850000001,-0.05864376700000001,0.02039783200000045
118422.0,0.378928956,-0.354020065,9.932959652,-0.013384930033544514,0.00797790001086608,0.020654226368100895,9.946487058674425,0.025872771545603947,-0.01804423599999999,-0.07188274449999998,0.03226387850000023
118432.0,0.3609827865,-0.355196863,9.941393371,-0.02057917721026514,0.0037140606482439333,0.005998696639104511,9.95428428068021,0.021755025684157072,-0.017946169499999998,-0.001176797999999979,0.008433719000001005
118442.0,0.39569832749999995,-0.3515684025,9.874315884999998,-0.023776620399918753,-0.0013491395117916165,-0.0014625859131712482,9.888492893499292,0.023859736222714555,0.03471554099999996,0.003628460499999986,-0.0670774860000023
118452.0,0.3849110125,-0.3060655465,9.849210861,-0.022177898805091946,-0.002415535684760152,-0.0019949113350295187,9.861479969595765,0.02239807311551326,-0.010787314999999964,0.04550285599999998,-0.025105023999998366
118462.0,0.41727295749999993,-0.273801668,9.791743892,-0.02057917721026514,-0.005878268920716902,0.002267182698340634,9.804454728386464,0.02152200496104899,0.03236194499999995,0.03226387850000001,-0.057466969000000034
118472.0,0.4412011835,-0.308517209,9.800079544499999,-0.020312141834710005,-0.005612978874413764,0.00839677903134472,9.814856108527433,0.02268467623439272,0.023928226000000052,-0.034715541000000016,0.008335652499999568
118482.0,0.44718324,-0.3252865805,9.856369715499998,-0.019247490990993467,-0.0048136180770003605,0.005731661263549378,9.87186953814807,0.02065160452070666,0.005982056499999999,-0.016769371499999963,0.05629017099999878
118492.0,0.44002438549999995,-0.319304524,9.842052006499998,-0.017648769396166664,-0.006412339671827167,-0.0027942721324429216,9.857056585894805,0.018984338756356637,-0.007158854500000034,0.005982056499999999,-0.014317709000000178
118502.0,0.435219127,-0.28811937699999995,9.871962289,-0.014983651628371319,-0.009609782861480778,-0.01292067245251402,9.885750750415855,0.02199548861449454,-0.004805258499999965,0.031185147000000024,0.02991028250000305
118512.0,0.42560861,-0.26066075699999997,9.8551929175,-0.010452776890194039,-0.012540190675579259,-0.02038195500478978,9.867822158930922,0.02611400039659444,-0.009610516999999985,0.02745861999999999,-0.016769371500000574
118522.0,0.4376707895,-0.20790097999999999,9.862351771999998,-0.005923647481268754,-0.016271704616343134,-0.0259774805866836,9.874247364338105,0.031219985077436976,0.012062179499999992,0.05275977699999998,0.007158854499998313
118532.0,0.43884758749999997,-0.20074212549999998,9.854016119499999,-0.0045919612619970815,-0.01467298302151633,-0.022780037397029988,9.865825778381181,0.02748295185731462,0.001176797999999979,0.007158854500000006,-0.008335652499999568
118542.0,0.459147353,-0.161221326,9.8551929175,-0.00699004365423729,-0.010142108283339049,-0.017716837236994437,9.867200010583867,0.021577983974441873,0.02029976550000001,0.03952079949999998,0.0011767980000012557
118552.0,0.459147353,-0.15651413399999997,9.864803434499999,-0.014983651628371319,-0.006677629718130304,-0.010522590060273812,9.876723129015597,0.019489111225230994,0.0,0.004707192000000027,0.009610516999998708
118562.0,0.4878808375,-0.15406247149999996,9.877944345500001,-0.022177898805091946,-0.00268082573106329,-0.004927064478379992,9.891185340975056,0.022876231909633712,0.028733484500000017,0.002451662500000007,0.013140911000002475
118572.0,0.4890576354999999,-0.1552392695,9.836069949999999,-0.027773424386985764,0.002647664475275398,0.0009354964790689607,9.849444078877179,0.027915020741808544,0.0011767979999999234,-0.0011767980000000344,-0.04187439550000249
118582.0,0.47836838699999995,-0.1660265845,9.800079544499999,-0.03416831076629299,0.006379178416039274,0.005998696639104511,9.813152409851233,0.03527253519742575,-0.01068924849999997,-0.010787314999999992,-0.03599040549999977
118592.0,0.4615990155,-0.16367298849999998,9.7630104075,-0.03443534614184812,0.007178539213452678,0.008662069077647858,9.775286937743996,0.036226453453987395,-0.016769371499999963,0.0023535960000000133,-0.037069136999999586
118602.0,0.4735631285,-0.20191892349999999,9.746241035999999,-0.03283662454702132,0.008777260808279484,0.013725269237683408,9.759828257718086,0.03665606681827035,0.011964112999999998,-0.03824593500000001,-0.016769371500000574
118612.0,0.481898781,-0.21388303649999998,9.757028351,-0.030970867576639378,0.003979350694547071,0.015858061583620478,9.771262693769396,0.035021536054117106,0.008335652500000013,-0.011964112999999998,0.01078731500000174
118622.0,0.47473992649999996,-0.24742177949999997,9.7498694965,-0.025375341994745556,-0.003214896482173555,0.015058700786207076,9.76455583903156,0.029681779092734704,-0.007158854500000034,-0.03353874299999998,-0.007158854500000089
118632.0,0.44482964399999997,-0.265367949,9.7020130445,-0.019779816412851738,-0.010142108283339049,0.009196139828758124,9.71582990156712,0.024055612349453193,-0.029910282499999996,-0.017946169500000025,-0.047856452000001326
118642.0,0.46395261149999995,-0.25467870049999997,9.711525494999998,-0.014983651628371319,-0.01547234381892973,0.0006684611035138282,9.725936495075475,0.02154878371552507,0.019122967499999977,0.010689248500000026,0.009512450499999048
118652.0,0.4890576354999999,-0.261837555,9.706720236499999,-0.011252137687607444,-0.01547234381892973,-0.0043929937272697275,9.722559026600344,0.019629121724618247,0.025105023999999976,-0.007158854500000034,-0.004805258499999354
118662.0,0.49866815249999996,-0.263014353,9.638564018999999,-0.007789404451650692,-0.009609782861480778,-0.008923868465447007,9.655038209378727,0.01525313661988264,0.00961051700000004,-0.001176797999999979,-0.06815621750000034
118672.0,0.503473411,-0.26066075699999997,9.676809954,-0.006723008278682157,-0.0008168140899333463,-0.013987068625482556,9.69340396309043,0.01554040264300449,0.00480525850000002,0.0023535960000000133,0.03824593500000084
118682.0,0.5250480409999999,-0.23663446449999997,9.697207786,-0.005391322059410484,0.006911503837897545,-0.016917476439581036,9.714294115374836,0.019053510121060057,0.021574629999999928,0.02402629249999999,0.02039783200000045
118692.0,0.503473411,-0.1972117315,9.729471664499998,-0.005656612105713622,0.012239994044236233,-0.0158510802666125,9.744485456550981,0.020810369058141102,-0.021574629999999928,0.03942273299999999,0.032263878499998455
118702.0,0.49268609599999996,-0.18161915799999998,9.808513263499998,-0.007789404451650692,0.01144063324682283,-0.01265363707695889,9.822558604966414,0.018753064871510797,-0.01078731500000002,0.015592573500000012,0.07904159899999996
118712.0,0.4974913544999999,-0.18161915799999998,9.827636231,-0.008854055295367234,0.004246386070102204,-0.009990264638415543,9.84189600916504,0.014008264609699327,0.004805258499999965,0.0,0.01912296750000131
118722.0,0.5118090635,-0.15170887549999998,9.837246748,-0.00992045146833577,-0.00268082573106329,-0.007592182246175334,9.851720036695257,0.012776674653252947,0.014317709000000067,0.029910282499999996,0.009610517000000485
118732.0,0.5011198149999999,-0.11571846999999999,9.849210861,-0.010719812265749171,-0.008810422064067376,-0.0009302604913129776,9.862629792186521,0.013906951374820058,-0.010689248500000081,0.03599040549999999,0.011964112999999443
118742.0,0.493862894,-0.09659550249999999,9.859998175999998,-0.012585569236131109,-0.006944665093685437,0.008662069077647858,9.872831168408409,0.016782620980253533,-0.007256920999999916,0.019122967500000004,0.010787314999998188
118752.0,0.46993466799999994,-0.08580818750000001,9.883926402,-0.017914059442469796,-1.7453292519943296e-05,0.015323990832510213,9.895463746453876,0.023574107095723013,-0.023928226000000052,0.010787314999999978,0.02392822600000244
118762.0,0.443652846,-0.091790244,9.880297941499999,-0.029639181357367702,0.005045746867515607,0.020654226368100895,9.890679486742384,0.03647653629185111,-0.026281821999999955,-0.005982056499999985,-0.003628460500001651
118772.0,0.4160961595,-0.1205237285,9.857546513499999,-0.04322831491339555,0.003447025272688801,0.024651030355167913,9.867060618487056,0.04988228634549204,-0.027556686499999983,-0.028733484500000003,-0.022751427999999407
118782.0,0.4292370705,-0.15406247149999996,9.8551929175,-0.05228831906049811,-0.004014257279586958,0.026515041996297856,9.865739057412691,0.058764189977779886,0.013140910999999977,-0.03353874299999997,-0.0023535959999989586
118792.0,0.43639592499999996,-0.18161915799999998,9.810866859499999,-0.05575279762570686,-0.01280722605113439,0.029180159764093196,9.822246965778483,0.06421745250378501,0.007158854499999978,-0.02755668650000001,-0.04432605800000111
118802.0,0.4376707895,-0.23663446449999997,9.731923327,-0.05068959746567132,-0.02053379864971329,0.02944719513964833,9.744633560702912,0.062114486875537236,0.001274864500000028,-0.0550153065,-0.07894353249999853
118812.0,0.4651294095,-0.297729894,9.67327956,-0.03923151092632854,-0.025329963434193706,0.02491632040147105,9.68903121593056,0.05292959020707593,0.02745861999999999,-0.06109542950000002,-0.05864376700000129
118822.0,0.471111466,-0.3156760635,9.6121841305,-0.021910863429536815,-0.022399555620095227,0.017989108600305555,9.628898231319072,0.03613079097444644,0.005982056499999999,-0.017946169499999998,-0.06109542949999991
118832.0,0.49150929799999993,-0.307340411,9.6576869865,-0.0029932396671702756,-0.011473794502610723,0.009196139828758124,9.675068860089088,0.015005879905668084,0.02039783199999995,0.008335652500000013,0.04550285600000059
118842.0,0.46993466799999994,-0.310870805,9.709171899,0.007932521450314228,-0.0037472219040318258,0.0017348572764823635,9.72550760700545,0.008942946848076144,-0.021574629999999984,-0.0035303939999999923,0.051484912499999425
118852.0,0.45198849849999995,-0.310870805,9.719959214,0.007932521450314228,-0.00028274333882308137,-0.006525786073206799,9.735427128893786,0.010275734729380863,-0.017946169499999998,0.0,0.010787314999999964
118862.0,0.44600644199999995,-0.261837555,9.745064238,0.00606676447993229,0.0007819075048934596,-0.010522590060273812,9.758778491914876,0.012171356217683798,-0.005982056499999999,0.04903324999999997,0.025105024000000142
118872.0,0.4376707895,-0.204370586,9.7749745205,0.005801474433629151,0.0031799898971336684,-0.006258750697651665,9.786901957863263,0.009107217008794733,-0.008335652499999957,0.05746696900000001,0.029910282500001273
118882.0,0.4280602725,-0.16720338249999997,9.779779779,0.006866125277345693,0.01090830782496456,0.005464625887994246,9.79057123429218,0.013999892571878022,-0.009610516999999985,0.03716720350000002,0.004805258499999354
118892.0,0.40413204649999995,-0.21751149699999997,9.782133375,0.004735078260660616,0.018369590377240317,0.015591026208065345,9.792893715783112,0.024554895947300637,-0.023928226000000052,-0.0503081145,0.002353596000000735
118902.0,0.39814998999999995,-0.26066075699999997,9.810866859499999,-0.0013945180723434693,0.018369590377240317,0.019320794819577228,9.822401741916902,0.02669606045359305,-0.005982056499999999,-0.043149259999999995,0.02873348449999824
118912.0,0.401680384,-0.285765781,9.802531207,-0.0024591689160600103,0.020500637393925398,0.019320794819577228,9.814918607746566,0.02827749560649122,0.0035303940000000478,-0.02510502400000003,-0.008335652499999568
118922.0,0.39216793349999995,-0.2917478375,9.818123780499999,-0.001127482696788337,0.023432790537275868,0.016123351629923614,9.830283162654633,0.028466284572763675,-0.009512450500000047,-0.005982056499999999,0.015592573499999318
118932.0,0.396973192,-0.273801668,9.827636231,0.005801474433629151,0.0220993589887522,0.012126547642856601,9.839460806234767,0.025866811381619233,0.00480525850000002,0.017946169499999998,0.009512450500000824
118942.0,0.399326788,-0.2917478375,9.882749603999999,0.010862929264412706,0.019968311972067124,0.013192943815825137,9.89511588712646,0.026282893329025857,0.0023535960000000133,-0.017946169499999998,0.0551133729999993
118952.0,0.4196265535,-0.285765781,9.912659886499998,0.011929325437381242,0.0135734255927599,0.012660618393966868,9.925652348909818,0.022064404497533868,0.02029976550000001,0.005982056499999999,0.029910282499999497
118962.0,0.408937305,-0.274978466,9.929429258,0.010862929264412706,0.007443829259755816,0.012393583018411734,9.941650178205368,0.018083548498187364,-0.010689248500000026,0.01078731500000002,0.01676937150000235
118972.0,0.410114103,-0.2917478375,9.8755907495,0.007133160652900825,-0.00028274333882308137,0.011859512267301468,9.888407507267052,0.013842324801637019,0.0011767980000000344,-0.01676937150000002,-0.05383850850000016
118982.0,0.4196265535,-0.27262486999999996,9.800079544499999,0.0031363566658338103,-0.009075712110370514,0.012925908440270006,9.812847183293547,0.016102310158852662,0.009512450499999991,0.019122967500000032,-0.07551120500000152
118992.0,0.42688347449999997,-0.27262486999999996,9.7606568115,-0.0005951572749300664,-0.012007865253720986,0.01639038700547875,9.77379021733253,0.020327022072177434,0.007256920999999972,0.0,-0.039422732999998544
119002.0,0.459147353,-0.3252865805,9.7379053835,-0.006190682856823887,-0.010142108283339049,0.02198591258737257,9.75414931755807,0.02499134384070483,0.03226387850000001,-0.052661710500000014,-0.022751428000001184
119012.0,0.456793757,-0.38393034749999994,9.753399890499999,-0.014983651628371319,-0.008276351312957111,0.026782077371852987,9.771636120536368,0.031785019671659816,-0.002353595999999958,-0.05864376699999996,0.015494506999999658
119022.0,0.456793757,-0.46414874449999993,9.7271180685,-0.019247490990993467,-0.0077440258910988395,0.02251823800923084,9.748893296779602,0.030618734289495905,0.0,-0.080218397,-0.02628182199999962
119032.0,0.4974913544999999,-0.5108283985,9.706720236499999,-0.01551597705022959,-0.009075712110370514,0.0113271868454432,9.732875271480411,0.02124662928478677,0.040697597499999905,-0.046679654000000015,-0.02039783200000045
119042.0,0.5118090635,-0.5347566244999999,9.677986751999999,0.00047123889803846896,-0.008810422064067376,-0.00466002910282486,9.706252661908964,0.009978049623308376,0.014317709000000067,-0.023928225999999997,-0.028733484500000017
119052.0,0.5298532994999999,-0.5179872529999999,9.7139771575,0.02445380814969255,-0.006412339671827167,-0.02011491962923465,9.742197263948894,0.03230660651909184,0.018044235999999936,0.01676937150000002,0.03599040550000154
119062.0,0.5166143219999999,-0.4545382275,9.7390821815,0.04683591047726783,-0.002415535684760152,-0.03104068074671915,9.763360952866854,0.05624020967331769,-0.013238977500000026,0.06344902549999992,0.025105024000000142
119072.0,0.5250480409999999,-0.37314303249999997,9.828813028999999,0.0582939970166106,0.0002495820830351891,-0.03770085717232951,9.849897295256502,0.06942338950899161,0.008433719000000006,0.08139519500000003,0.08973084749999849
119082.0,0.527401637,-0.319304524,9.8851032,0.05776167159475233,0.0002495820830351891,-0.03743556712602637,9.904310836217094,0.06883236653409075,0.002353596000000069,0.05383850849999999,0.056290171000000555
119092.0,0.5177911199999999,-0.2678196115,9.929429258,0.04870166744764977,-0.0005497787143782138,-0.03210533159043569,9.946527051080759,0.05833444081628006,-0.00961051700000004,0.05148491249999998,0.04432605800000111
119102.0,0.5298532994999999,-0.18995481049999996,9.940216572999999,0.03537782393792506,0.0005166174585903216,-0.021980676599616587,9.956140460397641,0.04165342079539538,0.012062179499999992,0.07786480100000004,0.010787314999998188
119112.0,0.5537815254999999,-0.1779906975,9.9593395405,0.019655898035960143,0.001848303677861995,-0.009456193887305276,9.976311881118614,0.021890412442893116,0.023928225999999997,0.01196411299999997,0.01912296750000131
119122.0,0.563293976,-0.20917584449999996,9.952180685999998,0.005267403682518886,0.004246386070102204,0.007330382858376184,9.970303658570865,0.009975562593726079,0.009512450500000047,-0.03118514699999997,-0.0071588545000018655
119132.0,0.5549583235,-0.242616521,9.941393371,-0.008321729873508963,0.004778711491960474,0.021718877211817436,9.959826488149622,0.023744407740624935,-0.008335652500000013,-0.033440676500000044,-0.010787314999998188
119142.0,0.548976267,-0.3156760635,9.9114830885,-0.017914059442469796,0.0023806290997202655,0.02704911274740812,9.931692873443964,0.03253053059882013,-0.005982056499999944,-0.07305954249999999,-0.029910282499999497
119152.0,0.5418174124999999,-0.354020065,9.894713717,-0.019247490990993467,-0.0013491395117916165,0.02198591258737257,9.915858805786756,0.029251776683993737,-0.007158854500000089,-0.0383440015,-0.016769371500000574
119162.0,0.5680992345,-0.3527452005,9.873139087,-0.012850859282434247,-0.00214850030920502,0.013992304613238539,9.895758755545856,0.01911923707330491,0.026281822000000066,0.0012748644999999725,-0.021574629999999928
119172.0,0.5573119194999999,-0.32646337849999996,9.892262054499998,-0.006190682856823887,-0.00268082573106329,0.005731661263549378,9.913325550390189,0.008852306008841801,-0.010787315000000075,0.026281822000000066,0.019122967499997756
119182.0,0.537012154,-0.298906692,9.9246239995,-0.005656612105713622,-0.003214896482173555,-0.00039618974020271284,9.943635592453973,0.006518418996646326,-0.0202997654999999,0.027556686499999983,0.03236194500000167
119192.0,0.53936575,-0.285765781,9.9593395405,-0.013117894657989381,-0.008543386688512244,-0.0025289820861397836,9.978026938068986,0.01585762803068512,0.002353595999999958,0.013140910999999977,0.03471554100000063
119202.0,0.5561351215,-0.23908612699999998,9.986896227,-0.026441738167714092,-0.008276351312957111,0.0017348572764823635,10.00522586943226,0.02776100211006798,0.01676937150000002,0.046679654000000015,0.027556686500000538
119212.0,0.5190659845,-0.183972754,10.073096680499999,-0.055485762250151734,-0.0016161748873467492,0.011859512267301468,10.088139184467044,0.05676204598994937,-0.03706913700000003,0.05511337299999999,0.08620045349999828
119222.0,0.455616959,-0.16367298849999998,10.149686616999999,-0.10957700642795999,-0.010409143658894181,0.019320794819577228,10.161226012829447,0.11175313741405601,-0.06344902549999998,0.02029976550000001,0.07658993649999957
119232.0,0.46875787,-0.23663446449999997,10.174791640999999,-0.16686743912467386,-0.03092723434533952,0.024651030355167913,10.188332284934546,0.17149026025360653,0.013140911000000033,-0.072961476,0.025105024000000142
119242.0,0.4903325,-0.253403836,10.1903842145,-0.21189867915537955,-0.05197765045364313,0.02944719513964833,10.205320666387045,0.22015872382458096,0.021574629999999984,-0.01676937150000002,0.015592573500001095
119252.0,0.45797055499999995,-0.24506818349999998,10.162827528,-0.24280846020819913,-0.08075463916052564,0.03211231290744367,10.176092511749564,0.2578923433041177,-0.03236194500000006,0.008335652500000013,-0.027556686500000538
119262.0,0.46993466799999994,-0.3013583545,10.045539993999999,-0.256397593764227,-0.10793465160183333,0.03824016391119576,10.061040165960412,0.280805849726194,0.011964112999999998,-0.056290171,-0.1172875340000008
119272.0,0.435219127,-0.3611789195,9.904324233999999,-0.23854462084557698,-0.12445419297195966,0.03877248933305403,9.920458882158501,0.27183761368093207,-0.03471554099999996,-0.05982056499999999,-0.1412157599999997
