timestamp,ax,ay,az,gx,gy,gz,acc_mag,gyro_mag,dax,day,daz
100722.0,-0.692545623,0.7004890094999999,9.88118054,-0.01778141441931823,0.0594354423474149,-0.02405063709248186,9.930157760903976,0.06653708477487336,0.0,0.0,0.0
100732.0,-0.47464185999999997,0.7004890094999999,9.868039628999998,-0.03430270111869655,0.03865206161466642,-0.01898743693244631,9.904250394008068,0.0550561525387147,0.21790376300000003,0.0,-0.013140911000002475
100742.0,-0.266348614,0.5867318695,9.834500885999999,-0.04789183467472441,0.05383991676552108,-0.01285958592869422,9.855587427830034,0.07319653964557918,0.208293246,-0.11375713999999992,-0.03353874299999937
100752.0,-0.21496176799999997,0.6154653539999999,9.8130243225,-0.050024627020661475,0.07702312521976176,-0.002467895562319982,9.834655688820662,0.09187554427420777,0.051386846000000014,0.028733484499999906,-0.02147656349999849
100762.0,-0.2136869035,0.706471066,9.859703976499999,-0.042031019046527444,0.10420139233181745,0.022581069862302638,9.88729113377534,0.11460559079776644,0.0012748644999999725,0.09100571200000007,0.046679653999998294
100772.0,-0.3334261,0.7614863725,9.943452767499998,-0.025776767722704257,0.12285372604788085,0.0588193411214609,9.978140478023338,0.138626096562086,-0.1197391965,0.05501530649999997,0.08374879099999966
100782.0,-0.43992631899999995,0.7639380349999999,9.99493768,-0.012985249634837812,0.11086331408667982,0.08972912217428047,10.033738870159635,0.14321524529367616,-0.10650021899999995,0.0024516624999999515,0.0514849125000012
100792.0,-0.542896144,0.662145008,10.0093534555,-0.005791002458117185,0.09114458419764787,0.1038505811521666,10.04591105036866,0.13829611037073597,-0.10296982500000001,-0.10179302699999992,0.014415775499999839
100802.0,-0.6530248234999999,0.578396217,9.996114477999999,-0.00925548102332593,0.06529800330486385,0.09372592616134749,10.034106251242724,0.11460384984535868,-0.11012867949999994,-0.08374879099999999,-0.01323897750000036
100812.0,-0.7176506469999999,0.5232828439999999,9.967380993499999,-0.018847810592286768,0.041582469428764895,0.06894399611228001,10.00687420004615,0.0826898804440239,-0.06462582350000001,-0.05511337300000008,-0.028733484500000017
100822.0,-0.6913688249999999,0.5053366745,9.9326654525,-0.02337868533046404,0.026661649653465378,0.040167007405397505,9.969513478503535,0.053579800054967014,0.026281822000000066,-0.017946169499999942,-0.03471554099999885
100832.0,-0.6530248234999999,0.5113187309999999,9.915896080999998,-0.021245892984526973,0.020266763274158155,0.01565211273188515,9.950521762901168,0.033273387192956166,0.03834400149999995,0.005982056499999944,-0.01676937150000235
100842.0,-0.5980095169999999,0.544857474,9.933940317,-0.015917402778188285,0.009873327578531921,0.004194026192542374,9.966827743626066,0.019194691046740153,0.05501530649999997,0.03353874300000004,0.01804423600000149
100852.0,-0.5656475719999999,0.544857474,9.9866020275,-0.009522516398881062,-0.014906857141283569,0.003394665395128971,10.017437142221072,0.018011564661141514,0.032361945,0.0,0.05266171050000068
100862.0,-0.5141626595,0.513672327,10.003371398999999,-0.0023265238929084412,-0.04661599899151655,0.007658504757751119,10.029738872287798,0.047298168786178624,0.05148491249999998,-0.03118514699999997,0.016769371499998798
100872.0,-0.473465062,0.48258524649999995,9.950611622,0.008065166473465796,-0.0711308936650289,0.01645147352929855,9.973551490665479,0.07345271897700979,0.04069759749999996,-0.03108708050000003,-0.052759776999998564
100882.0,-0.49866815249999996,0.49817781999999994,9.890791057,0.01952325301280857,-0.0788574662636078,0.022046999111192372,9.915876098453877,0.08417676379813552,-0.02520309049999997,0.015592573499999984,-0.05982056500000077
100892.0,-0.4950396919999999,0.5113187309999999,9.844111403,0.026450464813974065,-0.06553536808313508,0.021781709064889233,9.869804479117178,0.07395237932923293,0.0036284605000000414,0.013140910999999977,-0.04667965400000007
100902.0,-0.4998449505,0.5292649005,9.846464998999998,0.02618342943841893,-0.042086869582591266,0.017517869702267087,9.87333982429318,0.052571402181455236,-0.004805258500000076,0.017946169500000053,0.0023535959999989586
100912.0,-0.5297552329999999,0.5628036434999999,9.869216427,0.016591099869458097,-0.01543918256314184,0.008724900930719653,9.899435409708698,0.02428490991021437,-0.02991028249999994,0.033538742999999926,0.022751428000001184
100922.0,-0.542896144,0.5771213525,9.891967854999999,0.0027349309378751144,0.0021467549799530253,-0.0011344640137963143,9.92365020156569,0.0036572411429243233,-0.013140911000000033,0.014317709000000067,0.022751427999999407
100932.0,-0.542896144,0.5747677565,9.8824554045,-0.01005484182073933,0.010407398329642189,-0.013391911350552491,9.914031421122962,0.01971692353418718,0.0,-0.002353595999999958,-0.009512450499999048
100942.0,-0.5453478064999999,0.5759445544999999,9.8620575725,-0.01485100660521975,0.01120675912705559,-0.022451915497655055,9.893901956418263,0.02915874408876294,-0.0024516624999999515,0.0011767979999999234,-0.02039783200000045
100952.0,-0.518967918,0.5831034089999999,9.877650145999999,-0.010587167242597603,0.005344198169606637,-0.0267157548602772,9.908446381359413,0.029229781423287853,0.02637988849999995,0.007158854499999978,0.015592573499999318
100962.0,-0.48072198299999996,0.5951655885,9.864509235,0.001403244718603441,-0.0071802845427046715,-0.025382323311753534,9.89413251124495,0.02641567562181363,0.03824593500000001,0.012062179500000103,-0.013140910999998923
100972.0,-0.4770935225,0.6154653539999999,9.884809000499999,0.011794935084977679,-0.019703021925763987,-0.01872214688614317,9.915435684202263,0.029628505711430914,0.003628460499999986,0.0202997654999999,0.020299765499999012
100982.0,-0.45198849849999995,0.6214474105,9.903931967999998,0.017924531417981764,-0.030628783043248488,-0.008063421144213804,9.933698148905359,0.036392718197649866,0.02510502400000003,0.005982056500000055,0.019122967499999532
100992.0,-0.45198849849999995,0.605854837,9.9326654525,0.022720696202462184,-0.036489598671445446,-6.981317007977319e-05,9.96138527904526,0.04298518024862114,0.0,-0.015592573499999984,0.028733484500001794
101002.0,-0.41001603649999996,0.557998385,9.919524541499998,0.018189821464284904,-0.03515791245217378,0.004461061568097506,9.943663433426863,0.03983527937910857,0.04197246199999999,-0.047856451999999994,-0.013140911000002475
101012.0,-0.402857182,0.4933725615,9.876473348,0.0038013271108436495,-0.022101104318004196,0.00019722220547535924,9.896991269435594,0.02242649764179131,0.007158854499999978,-0.06462582350000001,-0.04305119349999842
101022.0,-0.40403397999999996,0.5257345065,9.8393061445,-0.012985249634837812,0.002946115777366428,-0.010993828958312283,9.86162185614085,0.017267326991092995,-0.001176797999999979,0.032361945,-0.037167203499999246
101032.0,-0.4076624405,0.5724141604999999,9.854898718,-0.021779963735637238,0.028792696670150452,-0.01792278608872977,9.879922842743934,0.04030648165056498,-0.0036284605000000414,0.04667965399999996,0.015592573499999318
101042.0,-0.42325501399999993,0.6238010064999999,9.838129346499999,-0.020713567562668705,0.04451462257211537,-0.01845511151058804,9.866968204116757,0.05245183166276812,-0.015592573499999929,0.051386845999999986,-0.016769371500000574
101052.0,-0.43639592499999996,0.61781895,9.923153001999998,-0.01485100660521975,0.039718457787634956,-0.016856389915761234,9.951939869163061,0.045631635596465284,-0.013140911000000033,-0.005982056499999944,0.0850236554999988
101062.0,-0.43041386849999996,0.6238010064999999,9.963850599499999,-0.009522516398881062,0.015735888535980874,-0.014723597569824165,9.992632414087092,0.02356015347959145,0.005982056499999999,0.005982056499999944,0.04069759750000124
101072.0,-0.42560861,0.6478272989999999,9.945904429999999,-0.002061233846605303,-0.010377727732358283,-0.006729989595690135,9.976063243029756,0.01253948475079606,0.004805258499999965,0.02402629249999999,-0.017946169500000053
101082.0,-0.401680384,0.6250758710000001,9.957868543,0.0030019663134302466,-0.026897269102484613,0.002595304597715568,9.985550204924401,0.027188425715244473,0.023928225999999997,-0.02275142799999985,0.01196411300000122
101092.0,-0.42796220599999996,0.5639804414999999,9.8944195175,0.0030019663134302466,-0.02876302607286655,0.00792554013330625,9.91971588184076,0.02998562417259342,-0.026281821999999955,-0.06109542950000013,-0.06344902550000064
101102.0,-0.4447315775,0.5771213525,9.878826944,-0.002860594644018706,-0.01730493953352378,0.00526042236551091,9.905658838312444,0.018311635029124793,-0.01676937150000002,0.013140911000000033,-0.015592573499999318
101112.0,-0.41246769899999997,0.5352469569999999,9.884809000499999,-0.01005484182073933,0.0005480333851262194,0.0007312929565856241,9.907879081017384,0.010096285159386757,0.03226387850000001,-0.04187439550000005,0.0059820564999988335
101122.0,-0.42325501399999993,0.5520163284999999,9.8369525485,-0.016716763575601687,0.02159844949342983,-0.0030002209841782524,9.861516225979015,0.027476253946211556,-0.010787314999999964,0.01676937150000002,-0.04785645199999955
101132.0,-0.44836003799999996,0.559175183,9.8393061445,-0.020978857608971842,0.03438822225204428,-0.004865977954560191,9.865376273318413,0.04057511599105756,-0.02510502400000003,0.007158854500000089,0.002353596000000735
101142.0,-0.483075579,0.520929248,9.858429112,-0.017249088997459958,0.03199013985980407,-0.006997024971245267,9.883994832696805,0.037011599235109376,-0.034715541000000016,-0.038245935000000064,0.019122967499999532
101152.0,-0.5010217485,0.5113187309999999,9.8477398635,-0.007656759428499123,0.013870131565598937,-0.010461503536454012,9.87372523702723,0.018985509496354688,-0.017946169500000053,-0.00961051700000004,-0.010689248500000303
101162.0,-0.5010217485,0.5184775855,9.8477398635,0.0011362093430483087,-0.00398284135305106,-0.01392423677241076,9.874098552187075,0.014527159619449354,0.0,0.007158854500000089,0.0
101172.0,-0.493862894,0.532893361,9.781839175499998,0.010728538912009145,-0.010910053154216554,-0.016589354540206103,9.808784509184326,0.02256850662039874,0.007158854500000034,0.01441577549999995,-0.06590068800000104
101182.0,-0.46865980349999997,0.5604500474999999,9.786644434,0.018189821464284904,-0.00691324916714954,-0.02271895087321019,9.813875663809002,0.029913430891975457,0.025203090500000025,0.027556686499999983,0.0048052585000011305
101192.0,-0.45797055499999995,0.5998727805,9.797431749,0.018723892215395166,0.004277801996638102,-0.027248080282135472,9.826456800818136,0.0333367906175426,0.010689248500000026,0.0394227330000001,0.010787314999999964
101202.0,-0.44953683599999994,0.6083064994999999,9.866862831,0.01232726050683595,0.010939723751500458,-0.028579766501407144,9.895812361298297,0.032991543774693155,0.008433719000000006,0.008433718999999895,0.06943108200000125
101212.0,-0.42198014949999996,0.6250758710000001,9.917170945499999,0.004068362486398782,0.009873327578531921,-0.02698104490658034,9.945806485818421,0.029017425024364944,0.027556686499999983,0.01676937150000013,0.05030811449999817
101222.0,-0.42796220599999996,0.6298811295,9.967380993499999,0.000603883921190038,0.004012511950334963,-0.01898743693244631,9.996428650105477,0.019416170817271847,-0.005982056499999999,0.004805258499999909,0.050210048000000285
101232.0,-0.39569832749999995,0.626252669,9.992584084,0.002202605516016844,-0.0034487706019407953,-0.006997024971245267,10.020005301776344,0.00810579102692814,0.03226387850000001,-0.003628460499999986,0.02520309050000158
101242.0,-0.38971627099999995,0.5986959825,9.9877788255,0.004600687908257053,-0.005047492196767601,0.0039287361462392355,10.013293240410466,0.007878989428370824,0.005982056499999999,-0.027556686499999983,-0.0048052585000011305
101252.0,-0.41599809299999996,0.578396217,10.004548197,0.0027349309378751144,-0.008244935386421213,0.00792554013330625,10.029884407275864,0.01175895374452401,-0.02628182200000001,-0.02029976550000001,0.016769371500000574
101262.0,-0.401680384,0.532893361,9.993760882,-0.0023265238929084412,-0.012775810124598492,0.002595304597715568,10.01601612576985,0.013242720404772984,0.014317708999999956,-0.045502856000000036,-0.010787314999999964
101272.0,-0.4315906665,0.5412290135,9.963850599499999,-0.011653563415566138,-0.014906857141283569,-0.0056653387519735934,9.987868547273766,0.01975135421397409,-0.029910282499999996,0.008335652500000013,-0.029910282500001273
101282.0,-0.42198014949999996,0.5759445544999999,9.935117114999999,-0.020713567562668705,-0.013575170922011897,-0.014458307523521027,9.960739503932233,0.028677165187301606,0.00961051700000004,0.03471554099999996,-0.028733484500000017
101292.0,-0.42325501399999993,0.6106600955,9.906383630499999,-0.02497740692529085,-0.009843656981248018,-0.019521507683556576,9.93420792986288,0.03319424199639447,-0.0012748644999999725,0.03471554100000007,-0.028733484500000017
101302.0,-0.3741236975,0.6083064994999999,9.803413805499998,-0.028440140161247598,-0.0023841197582242543,-0.02165255470024165,9.829391007597215,0.03582399648922382,0.04913131649999991,-0.002353596000000069,-0.10296982500000063
101312.0,-0.35617752799999997,0.5879086675,9.777033916999999,-0.03377037569683829,0.01120675912705559,-0.020586158527273118,9.801167851176826,0.04110741597020505,0.017946169500000053,-0.020397831999999894,-0.026379888499999282
101322.0,-0.34303661699999993,0.6202706124999999,9.7471236345,-0.03590142271352336,0.026661649653465378,-0.014458307523521027,9.772861858205221,0.04699785496747619,0.013140911000000033,0.03236194499999989,-0.029910282499999497
101332.0,-0.366964843,0.651357693,9.750752095,-0.03483502654055482,0.03918438703652469,-0.003267256359733385,9.77937096435017,0.052531611679345426,-0.023928226000000052,0.031087080500000086,0.003628460499999875
101342.0,-0.388539473,0.6274294669999999,9.786644434,-0.028707175536802732,0.039718457787634956,0.008190830179609388,9.814430189047258,0.04968649228271347,-0.02157463000000004,-0.023928226000000108,0.035892339000000106
101352.0,-0.40403397999999996,0.5400522154999999,9.819006379,-0.018315485170428497,0.025595253480496842,0.01378635576150321,9.842143370389591,0.034360407490916116,-0.015494506999999935,-0.08737725149999997,0.03236194499999989
101362.0,-0.405210778,0.44904650349999997,9.810572659999998,-0.003659955441432109,0.010939723751500458,0.011388273369263,9.82920009227874,0.016210046265371255,-0.0011767980000000344,-0.09100571199999996,-0.008433719000001005
101372.0,-0.42198014949999996,0.431100334,9.7435932405,0.008330456519768934,0.009608037532228783,0.000996583002888762,9.762249944601102,0.012755550506745074,-0.016769371499999963,-0.017946169499999998,-0.06697941949999908
101382.0,-0.44600644199999995,0.487390505,9.744770038499999,0.0173904606668715,0.021865484868984958,-0.010993828958312283,9.76713951747987,0.030023188137278837,-0.02402629249999999,0.056290171,0.0011767979999994793
101392.0,-0.5201447159999999,0.5735909585,9.822536773,0.023785347046178722,0.03385589683018601,-0.01765575071317464,9.853008970370063,0.044985442284467186,-0.07413827399999995,0.0862004535,0.07776673450000082
101402.0,-0.49866815249999996,0.602324443,9.912365687,0.02192133540504878,0.030124382889422128,-0.020320868480969978,9.943161377236517,0.04243773186952895,0.021476563499999934,0.028733484500000017,0.08982891399999993
101412.0,-0.5166143219999999,0.637039984,9.960222138999999,0.016858135245013228,0.015735888535980874,-0.020053833105414847,9.993934928602245,0.030560941316913063,-0.017946169499999942,0.03471554099999996,0.04785645199999955
101422.0,-0.4794471185,0.6358631859999999,9.984150365,0.015259413650186423,-0.00451516677490933,-0.011793189755725684,10.015859925222479,0.019806962426563397,0.03716720349999991,-0.0011767980000000344,0.023928226000000663
101432.0,-0.44355477949999994,0.604678039,9.979345106499999,0.02192133540504878,-0.02050238272317739,-0.003267256359733385,10.007482457036417,0.030192177917276953,0.03589233900000005,-0.03118514699999997,-0.0048052585000011305
101442.0,-0.40050358599999997,0.6035012409999999,9.962575735,0.02858151183065914,-0.025033257461354666,0.0036617007706841033,9.988870413910584,0.03817033992757474,0.04305119349999997,-0.0011767980000000344,-0.016769371499998798
101452.0,-0.41001603649999996,0.6298811295,9.969832656,0.02538406864100553,-0.017037904157968645,0.008990190977022791,9.998121152303135,0.03186635612477127,-0.009512450499999991,0.02637988850000006,0.00725692099999975
101462.0,-0.42560861,0.6214474105,9.955416880499998,0.010995574287564275,-0.0023841197582242543,0.014585716558916611,9.98387023340486,0.018420906830879803,-0.01559257350000004,-0.008433719000000006,-0.014415775500001615
101472.0,-0.43992631899999995,0.5759445544999999,9.978168308499999,-0.008456120225912526,0.01680228470894941,0.01671850890485368,10.00445351274925,0.025166074002858568,-0.014317708999999956,-0.045502856000000036,0.022751428000001184
101482.0,-0.473465062,0.5257345065,9.9446295655,-0.026309093144562524,0.02772630049718192,0.013521065715200072,9.969765450163619,0.04054300604819598,-0.03353874300000004,-0.05021004799999995,-0.03353874299999937
101492.0,-0.5261267725,0.501708214,9.948258026,-0.034569736494251685,0.026394614277910244,0.0039287361462392355,9.974786126259035,0.04367124124487907,-0.05266171049999996,-0.02402629249999999,0.003628460499999875
101502.0,-0.5716296285,0.47660318999999995,9.9326654525,-0.030038861756074408,0.01946740247674475,-0.007529350393103538,9.960509727126633,0.03657873825235427,-0.045502856000000036,-0.02510502400000003,-0.015592573499999318
101512.0,-0.575258089,0.4910189655,9.902755169999999,-0.016982053621904827,0.011739084548913861,-0.02138551932468652,9.9315951110787,0.029724345039888425,-0.003628460499999986,0.014415775500000061,-0.029910282500001273
101522.0,-0.5561351215,0.5520163284999999,9.856075515999999,-0.002860594644018706,0.005876523591464907,-0.02937912729882055,9.887175171776368,0.030097336295405525,0.019122967499999977,0.060997362999999916,-0.04667965400000007
101532.0,-0.5380908855,0.5903603299999999,9.852447055499999,0.0019355701404617114,0.001879719604397893,-0.030445523471789082,9.88477516697909,0.030564843808386533,0.018044236000000047,0.03834400149999995,-0.003628460499999875
101542.0,-0.4950396919999999,0.5951655885,9.895596315499999,-0.003125884690321844,-0.005314527572322733,-0.024317672468036993,9.925830585584622,0.025087139188773425,0.04305119350000003,0.004805258500000131,0.043149259999999856
101552.0,-0.4914112315,0.6190938145,9.8979499115,-0.00632507320922745,-0.010910053154216554,-0.013391911350552491,9.929459934969241,0.018395083597281477,0.0036284604999999304,0.023928225999999997,0.002353596000000735
101562.0,-0.47827032049999996,0.5903603299999999,9.8979499115,-0.00632507320922745,-0.02236813969355933,-0.004331907203449926,9.927068060070493,0.023645414872062884,0.013140911000000033,-0.028733484500000128,0.0
101572.0,-0.4794471185,0.6035012409999999,9.871668089499998,-0.003125884690321844,-0.02823070065100828,0.0017959438003021652,9.901712688044379,0.028459954822133354,-0.0011767980000000344,0.013140911000000033,-0.026281822000001398
101582.0,-0.44718324,0.5400522154999999,9.8249884355,-0.0017941984710501708,-0.02849599069731142,0.0028623399732707008,9.84997598998658,0.0286955331732547,0.03226387850000001,-0.06344902549999998,-0.046679653999998294
101592.0,-0.42443181199999996,0.466992673,9.7902728945,7.155849933176751e-05,-0.012775810124598492,-0.0072640603468004,9.810589578025098,0.014696700911448729,0.022751428000000018,-0.07305954249999991,-0.03471554100000063
101602.0,-0.44237798149999996,0.466992673,9.823713571,0.0038013271108436495,0.006675884388878311,-0.019521507683556576,9.844751330541634,0.020978722134974346,-0.017946169499999998,0.0,0.03344067650000149
101612.0,-0.46395261149999995,0.520929248,9.920701339499999,0.009663888068292601,0.018133970928221083,-0.030178488096233955,9.945196547816266,0.03650989972591804,-0.021574629999999984,0.05393657499999993,0.09698776849999824
101622.0,-0.4890576354999999,0.5508395304999999,9.921878137499998,0.010995574287564275,0.017601645506362812,-0.03790680602406484,9.94918425473178,0.04321627611665639,-0.025105023999999976,0.02991028249999994,0.0011767979999994793
101632.0,-0.46150094899999994,0.580749813,9.959045341000001,0.006466444878638991,0.004544837372193235,-0.041104249213718455,9.986632944857904,0.04185725456275931,0.027556686499999983,0.02991028250000005,0.0371672035000028
101642.0,-0.4543420945,0.6322347254999999,9.943452767499998,7.155849933176751e-05,-0.008244935386421213,-0.037639770648509714,9.973885924075235,0.0385322775685204,0.007158854499999923,0.05148491249999998,-0.015592573500002871
101652.0,-0.41599809299999996,0.6741091209999999,9.891967854999999,-0.007656759428499123,-0.010643017778661421,-0.027248080282135472,9.923633687553583,0.030238347696997486,0.03834400150000006,0.04187439549999994,-0.051484912499999425
101662.0,-0.39569832749999995,0.663321806,9.8608807745,-0.01538333202707802,-0.004782202150464463,-0.015522958367237567,9.891083996893622,0.022371378994917188,0.02029976550000001,-0.010787314999999853,-0.031087080499998976
101672.0,-0.3741236975,0.650180895,9.903931967999998,-0.01485100660521975,0.0037454765747798316,-0.005398303376418462,9.93229943990949,0.01623954036616665,0.021574629999999928,-0.013140911000000033,0.04305119349999842
101682.0,-0.40403397999999996,0.6418452424999999,9.924329799999999,-0.01005484182073933,0.00854164135926025,0.004461061568097506,9.953267340500934,0.013926972085298027,-0.02991028249999994,-0.008335652500000124,0.02039783200000045
101692.0,-0.42325501399999993,0.616642152,9.929135058499998,-0.005258677036258915,0.006410594342575173,0.008990190977022791,9.95726445166709,0.012230001545383208,-0.01922103399999997,-0.025203090499999803,0.004805258499999354
101702.0,-0.43394426249999996,0.578396217,9.949434823999999,-0.00419228086329038,0.0008150687606813518,0.008990190977022791,9.975675572301881,0.009953044244083886,-0.010689248500000026,-0.038245935000000064,0.020299765500000788
101712.0,-0.4566956905,0.5352469569999999,9.931488654499999,-0.00632507320922745,-0.00398284135305106,0.006059783162924312,9.95638122779362,0.00962239826276804,-0.022751428000000018,-0.04314926000000008,-0.017946169500000053
101722.0,-0.43992631899999995,0.48974410099999993,9.874021685499999,-0.00925548102332593,-0.0029164451800825246,-0.0022008601867648495,9.895943042294526,0.009950546066586475,0.01676937150000002,-0.04550285599999998,-0.057466969000000034
101732.0,-0.44836003799999996,0.46346227900000003,9.854898718,-0.013252285010392944,0.003478441199224699,-0.012325515177583957,9.875973508964535,0.01842934984110947,-0.008433719000000006,-0.0262818219999999,-0.019122967499999532
101742.0,-0.450713634,0.4910189655,9.842934605,-0.01485100660521975,0.010407398329642189,-0.02271895087321019,9.86547535817006,0.02906917724944168,-0.0023535960000000133,0.027556686499999983,-0.011964112999999443
101752.0,-0.44718324,0.5543699244999999,9.850093459499998,-0.011386528040011005,0.018933331725634488,-0.0259163940628638,9.875810854011517,0.03405559502138402,0.0035303939999999923,0.06335095899999987,0.007158854499998313
101762.0,-0.450713634,0.5975191845,9.8824554045,-0.006590363255530588,0.022130774915288098,-0.01872214688614317,9.910756619837372,0.029727476687692704,-0.0035303939999999923,0.04314926000000008,0.03236194500000167
101772.0,-0.4566956905,0.626252669,9.9087372265,-0.0033929200658769764,0.015470598489677736,-0.008862781941627205,9.939005824677727,0.01814938643445235,-0.005982056499999999,0.028733484500000017,0.02628182199999962
101782.0,-0.43041386849999996,0.6274294669999999,9.8871625965,-0.0023265238929084412,0.0016144295580947548,0.002595304597715568,9.916395920085364,0.0038411849964883806,0.02628182200000001,0.0011767979999999234,-0.021574629999999928
101792.0,-0.46748300549999994,0.5903603299999999,9.929135058499998,-0.0015271630954950383,-0.010643017778661421,0.011388273369263,9.957649757327419,0.015662018544562187,-0.037069136999999974,-0.03706913700000003,0.0419724619999986
101802.0,-0.4770935225,0.569962498,9.909914024499999,0.0019355701404617114,-0.01730493953352378,0.013521065715200072,9.937749818309959,0.022046010571128736,-0.00961051700000004,-0.020397831999999894,-0.019221033999999193
101812.0,-0.46993466799999994,0.54721107,9.909914024499999,0.005400048705670455,-0.01837133570649231,0.011922344120373267,9.936129755609102,0.02255679035210576,0.007158854500000034,-0.022751427999999962,0.0
101822.0,-0.4890576354999999,0.512495529,9.911188888999998,0.006998770300497262,-0.015973253314252103,0.005527457741066041,9.93647292712675,0.018294272224924916,-0.019122967499999977,-0.03471554100000007,0.0012748644999991399
101832.0,-0.49866815249999996,0.5113187309999999,9.88118054,0.006998770300497262,-0.014906857141283569,-0.004865977954560191,9.906959454598768,0.017171922344455942,-0.00961051700000004,-0.0011767980000000344,-0.03000834899999738
101842.0,-0.5058270069999999,0.5531931265,9.973363049999998,0.007265805676052394,-0.017037904157968645,-0.014458307523521027,10.001492594774177,0.02349733530983854,-0.007158854499999978,0.04187439550000005,0.09218250999999711
101852.0,-0.497393288,0.5915371279999999,9.9650273975,0.005932374127528726,-0.02476622208579954,-0.01845511151058804,9.994953090919214,0.0314507545229102,0.00843371899999995,0.03834400149999995,-0.008335652499997792
101862.0,-0.485429175,0.614288556,9.950611622,0.0027349309378751144,-0.03329215548179183,-0.020053833105414847,9.98136581665331,0.03896156678161931,0.011964112999999998,0.022751428000000073,-0.014415775499999839
101872.0,-0.435219127,0.6214474105,9.8824554045,-0.0033929200658769764,-0.03915471643924079,-0.016322319164650972,9.91153557197143,0.04255610213498783,0.05021004800000001,0.007158854499999978,-0.06815621750000034
101882.0,-0.366964843,0.5867318695,9.859703976499999,-0.008988445647770798,-0.034625587030315506,-0.013391911350552491,9.883960743896894,0.03819773189572831,0.068254284,-0.03471554099999996,-0.022751428000001184
101892.0,-0.3645131805,0.5412290135,9.814201120499998,-0.014051645807806348,-0.01783726495538205,-0.009395107363485476,9.835870187097623,0.024574067904357254,0.002451662500000007,-0.045502856000000036,-0.04550285600000059
101902.0,-0.3633363825,0.5412290135,9.830970492,-0.018315485170428497,0.004277801996638102,-0.006997024971245267,9.852559209996006,0.020067758853416016,0.001176797999999979,0.0,0.01676937150000235
101912.0,-0.37775215799999995,0.5616268455,9.8177315145,-0.019380136014145035,0.02479589268308344,-0.003267256359733385,9.841035184230691,0.03164017904497335,-0.01441577549999995,0.020397832000000005,-0.01323897750000036
101922.0,-0.40403397999999996,0.5843782734999999,9.8620575725,-0.022045253781940374,0.03412293220574114,0.00019722220547535924,9.887614524587722,0.040625196777690754,-0.02628182200000001,0.022751427999999962,0.044326057999999335
101932.0,-0.44237798149999996,0.555644789,9.846464998999998,-0.026841418566420795,0.035187583049457676,0.00019722220547535924,9.872047021088934,0.044256826005923795,-0.0383440015,-0.028733484499999906,-0.015592573500001095
101942.0,-0.460324151,0.49817781999999994,9.821359975,-0.028974210912357863,0.030391418264977262,-0.001933824811209717,9.844754502925191,0.04203430599582966,-0.017946169500000053,-0.05746696900000009,-0.025105023999998366
101952.0,-0.44953683599999994,0.49817781999999994,9.8022370075,-0.027108453941975925,0.02426356726122517,-0.004865977954560191,9.825177599334447,0.03670513196841136,0.010787315000000075,0.0,-0.019122967499999532
101962.0,-0.450713634,0.499354618,9.780662377499999,-0.015118041980774882,0.01973269252304789,-0.00779638576865867,9.803767355309658,0.026052216385470263,-0.0011767980000000344,0.0011767980000000344,-0.021574630000001704
101972.0,-0.4531652965,0.4814084485,9.7902728945,0.0019355701404617114,0.013070770768185535,-0.008862781941627205,9.812571336251294,0.015910386041448954,-0.002451662500000007,-0.017946169499999998,0.009610517000000485
101982.0,-0.45551889249999994,0.510141933,9.821359975,0.016058774447599827,0.007475245186291714,-0.012592550553139088,9.845143676542328,0.021733289138725093,-0.002353595999999958,0.028733484500000017,0.031087080500000752
101992.0,-0.460324151,0.5508395304999999,9.820183176999999,0.024584707843592127,0.005344198169606637,-0.016589354540206103,9.846386146307138,0.030135941961243952,-0.004805258500000076,0.040697597499999905,-0.0011767980000012557
102002.0,-0.4148212949999999,0.5543699244999999,9.865686033,0.02618342943841893,0.007209955139988576,-0.016057029118347832,9.889952660235885,0.03154970070198417,0.04550285600000009,0.0035303939999999923,0.04550285600000059
102012.0,-0.413644497,0.571139296,9.942275969499999,0.024584707843592127,0.010407398329642189,-0.012592550553139088,9.967254051093054,0.02951769179966453,0.0011767979999999234,0.01676937150000013,0.07658993649999957
102022.0,-0.438749521,0.5843782734999999,9.956593678499999,0.0173904606668715,0.009608037532228783,-0.006464699549386997,9.983374018209611,0.020893416371923622,-0.025105023999999976,0.013238977499999915,0.014317709000000178
102032.0,-0.44718324,0.54721107,9.9758147125,0.00939685269273747,0.007209955139988576,0.00046425758103049166,10.000814565994057,0.011853262367432832,-0.008433719000000006,-0.03716720349999991,0.01922103400000097
102042.0,-0.438749521,0.47297472949999997,9.961398936999998,0.000603883921190038,0.009873327578531921,0.00233001455141243,9.982268029811062,0.010162491873210259,0.008433719000000006,-0.07423634050000005,-0.014415775500001615
102052.0,-0.46993466799999994,0.5113187309999999,9.950611622,-0.0033929200658769764,0.01626995928709114,-0.003532546406036523,9.974816143104654,0.01699124380049428,-0.03118514699999997,0.03834400149999995,-0.010787314999998188
102062.0,-0.5225963785,0.578396217,9.955416880499998,-0.004726351614400644,0.018133970928221083,-0.007529350393103538,9.985888764812351,0.020195802003155097,-0.052661710500000014,0.06707748600000007,0.004805258499997578
102072.0,-0.544072942,0.5951655885,10.0009197365,-0.008456120225912526,0.015203563114122605,-0.011526154380170552,10.033375953280448,0.02086879333923553,-0.021476563500000045,0.01676937150000002,0.04550285600000237
102082.0,-0.5728064264999999,0.6202706124999999,10.004548197,-0.011121237993707867,0.008808676734815382,-0.014723597569824165,10.040110928723188,0.020446492259781412,-0.028733484499999906,0.02510502399999992,0.003628460499999875
102092.0,-0.553683459,0.5843782734999999,9.9542400825,-0.010854202618152736,-0.004782202150464463,-0.013658946726107622,9.986739155468047,0.01809005244742167,0.019122967499999866,-0.035892338999999995,-0.050308114499999945
102102.0,-0.5249499745,0.5998727805,9.906383630499999,-0.011121237993707867,-0.00957836693494488,-0.012060225131280817,9.938403114341392,0.01899673861141207,0.028733484500000017,0.015494507000000102,-0.047856452000001326
102112.0,-0.47827032049999996,0.5855550715,9.846464998999998,-0.011386528040011005,-0.005581562947877866,-0.010993828958312283,9.875448861584093,0.01678306113054784,0.04667965400000007,-0.014317709000000067,-0.05991863150000043
102122.0,-0.46150094899999994,0.5747677565,9.842934605,-0.0071244340066408535,0.006410594342575173,-0.010194468160898877,9.870496580119283,0.013992157118315189,0.01676937150000002,-0.010787314999999964,-0.003530393999998438
102132.0,-0.5118090635,0.5831034089999999,9.856075515999999,-0.0015271630954950383,0.013337806143740666,-0.006729989595690135,9.8865657677559,0.015017391910926001,-0.050308114500000056,0.008335652499999902,0.013140910999998923
102142.0,-0.5225963785,0.5795730149999999,9.903931967999998,0.002469640891571976,0.009341002156673653,-0.0056653387519735934,9.9346303545381,0.011200424572261534,-0.010787314999999964,-0.0035303939999999923,0.04785645199999955
102152.0,-0.5177911199999999,0.5771213525,9.9326654525,-0.0007278022980816355,-0.0034487706019407953,-0.008862781941627205,9.96288209760355,0.009537956730596825,0.00480525850000002,-0.0024516624999999515,0.028733484500001794
102162.0,-0.4998449505,0.5412290135,9.9326654525,-0.004726351614400644,-0.01543918256314184,-0.014723597569824165,9.959950642994249,0.02185156935323188,0.017946169499999942,-0.035892338999999995,0.0
102172.0,-0.46993466799999994,0.5041598764999999,9.864509235,-0.005258677036258915,-0.01837133570649231,-0.020320868480969978,9.888556933175895,0.027894396491646767,0.02991028250000005,-0.03706913700000003,-0.06815621750000034
102182.0,-0.44953683599999994,0.5076902704999999,9.859703976499999,-0.005258677036258915,-0.010643017778661421,-0.030445523471789082,9.882995258619278,0.03267808762886592,0.020397832000000005,0.0035303939999999923,-0.0048052585000011305
102192.0,-0.4327674645,0.604678039,9.8489166615,-0.004991641660703782,0.0013473941825396225,-0.03577575900737977,9.876947029034374,0.03614743269038798,0.016769371499999963,0.09698776850000002,-0.010787314999998188
102202.0,-0.39569832749999995,0.614288556,9.850093459499998,-0.008456120225912526,0.010939723751500458,-0.03550872363182463,9.87715894158353,0.038105812929204536,0.03706913700000003,0.00961051700000004,0.001176797999997703
102212.0,-0.3741236975,0.5724141604999999,9.8369525485,-0.018315485170428497,0.023729496510114904,-0.031244884269202487,9.860692772498929,0.04329883133119875,0.021574629999999928,-0.04187439550000005,-0.013140910999998923
102222.0,-0.370495237,0.5795730149999999,9.869216427,-0.023111649954908914,0.03385589683018601,-0.026181684109166936,9.8931594793232,0.04864001127268213,0.0036284605000000414,0.007158854499999978,0.03226387850000023
102232.0,-0.3968751255,0.5628036434999999,9.870491291499999,-0.020978857608971842,0.036786304644284486,-0.021919590075796785,9.894486148454341,0.04768451640785079,-0.026379888500000004,-0.01676937150000002,0.0012748644999991399
102242.0,-0.4315906665,0.543680676,9.901578371999998,-0.011653563415566138,0.03385589683018601,-0.019786797729859713,9.925880990507787,0.040908980124896806,-0.034715541000000016,-0.019122967499999866,0.031087080499998976
102252.0,-0.44718324,0.557998385,9.9326654525,-0.002061233846605303,0.021331414117874696,-0.01765575071317464,9.958372258511254,0.027766948814812585,-0.015592573499999984,0.014317708999999956,0.03108708050000253
102262.0,-0.43394426249999996,0.5735909585,9.960222138999999,0.0032690016889853793,0.005077162794051505,-0.016322319164650972,9.98615738253986,0.017403507031418197,0.013238977500000026,0.015592573499999984,0.02755668649999876
102272.0,-0.4292370705,0.567608902,9.959045341000001,0.0035342917352885177,-0.006113888369736136,-0.012592550553139088,9.984438313316122,0.014437561376530562,0.004707191999999971,-0.005982056499999944,-0.001176797999997703
102282.0,-0.42678540800000003,0.6154653539999999,9.920701339499999,0.0019355701404617114,-0.012241739373488228,-0.008862781941627205,9.948932528367711,0.015236650498121042,0.0024516624999999515,0.04785645199999988,-0.03834400150000228
102292.0,-0.41246769899999997,0.5986959825,9.9399223735,0.000603883921190038,-0.017037904157968645,-0.003267256359733385,9.966474967278344,0.01735885416744479,0.014317709000000067,-0.016769371499999908,0.01922103400000097
102302.0,-0.402857182,0.569962498,9.9326654525,0.002202605516016844,-0.019970057301319122,0.0036617007706841033,9.957157935349947,0.02042211331403255,0.009610516999999985,-0.028733484500000017,-0.00725692099999975
102312.0,-0.4148212949999999,0.556821587,9.901578371999998,0.006199409503083859,-0.02236813969355933,0.006592108584782583,9.925894480770628,0.024129281943959194,-0.011964112999999943,-0.013140911000000033,-0.03108708050000253
102322.0,-0.39452152949999997,0.512495529,9.917170945499999,0.010196213490150874,-0.022101104318004196,0.008990190977022791,9.938238197324178,0.02594696736451835,0.020299765499999955,-0.044326058,0.015592573500001095
102332.0,-0.4196265535,0.5388754175,9.868039628999998,0.007531095722355532,-0.015706217938696972,0.007391469382195985,9.891646944745982,0.018921852561128074,-0.02510502400000003,0.02637988850000006,-0.049131316500000466
102342.0,-0.4412011835,0.5352469569999999,9.870491291499999,0.00033684854563490564,-0.012775810124598492,0.0007312929565856241,9.894834315180667,0.012801155442804428,-0.021574629999999984,-0.003628460500000097,0.0024516625000003955
102352.0,-0.44355477949999994,0.5616268455,9.895596315499999,-0.005791002458117185,-0.00691324916714954,-0.004598942579005058,9.92144102413257,0.010123191016769307,-0.002353595999999958,0.02637988850000006,0.025105024000000142
102362.0,-0.44600644199999995,0.5531931265,9.8751984835,-0.008189084850357395,-0.0034487706019407953,-0.008328711190516942,9.900731764371411,0.012178774956710802,-0.002451662500000007,-0.008433719000000006,-0.020397831999998672
102372.0,-0.42678540800000003,0.5651572395,9.8632343705,-0.0071244340066408535,-0.000783652834145454,-0.008595746566072072,9.888626837799753,0.011191895760217957,0.019221033999999915,0.011964112999999998,-0.011964112999999443
102382.0,-0.41844975549999996,0.5903603299999999,9.8632343705,-0.00632507320922745,0.002413790355508158,-0.0056653387519735934,9.889743058569735,0.008827740263342864,0.008335652500000068,0.025203090499999914,0.0
102392.0,-0.4196265535,0.614288556,9.834500885999999,-0.002860594644018706,0.001879719604397893,0.0020629791758572974,9.862598265729453,0.003996527316129234,-0.0011767980000000344,0.023928226000000108,-0.028733484500001794
102402.0,-0.4196265535,0.6418452424999999,9.838129346499999,-0.0012618730491919003,0.00854164135926025,0.012721704917786668,9.867970449803074,0.01537510119373982,0.0,0.027556686499999872,0.003628460499999875
102412.0,-0.485429175,0.6358631859999999,9.865686033,7.155849933176751e-05,0.014137166941154071,0.022046999111192372,9.89806669895604,0.026190356613643186,-0.06580262149999999,-0.005982056499999944,0.027556686500000538
102422.0,-0.5261267725,0.5879086675,9.885985798499998,-0.0009948376736367678,0.01626995928709114,0.024979152254542846,9.917417062431454,0.029827157500441157,-0.04069759749999996,-0.047954518499999876,0.020299765499999012
102432.0,-0.5608423134999999,0.555644789,9.900401574,-0.0033929200658769764,0.01600292391153601,0.019383626672649024,9.931829466851338,0.02536395992893208,-0.03471554099999996,-0.03226387850000001,0.014415775500001615
102442.0,-0.5573119194999999,0.5029830785,9.919524541499998,-0.006058037833672318,0.014404202316709202,0.008724900930719653,9.947892022046423,0.01789706017830215,0.0035303939999999923,-0.052661710500000014,0.019122967499997756
102452.0,-0.5477014025,0.439534053,9.925506597999998,-0.006857398631085722,0.01227140997077213,-0.0059306287982767315,9.950319001770174,0.015257253245565905,0.00961051699999993,-0.06344902550000003,0.00598205650000061
102462.0,-0.5501530649999999,0.475426392,9.888437460999999,-0.007923794804054257,0.010672688375945327,-0.019521507683556576,9.915134596627881,0.02361741017778948,-0.0024516624999999515,0.035892338999999995,-0.037069136999999586
102472.0,-0.497393288,0.4550285599999999,9.905206832499998,-0.008988445647770798,0.006410594342575173,-0.028047441079548877,9.928120339115948,0.03014211051168701,0.05275977699999995,-0.02039783200000006,0.016769371499998798
102482.0,-0.47464185999999997,0.47660318999999995,9.913542484999999,-0.008456120225912526,0.006675884388878311,-0.029913198049930815,9.936335345482377,0.03179422619318075,0.022751428000000018,0.02157463000000004,0.008335652500001345
102492.0,-0.4794471185,0.559175183,9.9303118565,-0.004726351614400644,0.007475245186291714,-0.02698104490658034,9.957592078010904,0.02839356396138093,-0.00480525850000002,0.08257199300000007,0.016769371500000574
102502.0,-0.46150094899999994,0.566432104,9.9303118565,-0.0012618730491919003,0.004277801996638102,-0.016589354540206103,9.957154313442885,0.017178434083913893,0.017946169500000053,0.007256920999999972,0.0
102512.0,-0.4447315775,0.5747677565,9.972186252,0.0011362093430483087,0.0010803588069844899,-0.004865977954560191,9.998632046160889,0.00511232709021293,0.016769371499999963,0.008335652500000013,0.041874395500000716
102522.0,-0.43394426249999996,0.5986959825,9.938647508999999,-0.0017941984710501708,-0.000783652834145454,0.004728096943652638,9.966115532672205,0.005117436919646435,0.01078731500000002,0.023928225999999997,-0.03353874300000115
102532.0,-0.4208033514999999,0.5651572395,9.931488654499999,-0.009522516398881062,0.004544837372193235,0.01085594794740473,9.95645243349533,0.015138872849172228,0.013140911000000033,-0.03353874300000004,-0.007158854500000089
102542.0,-0.40050358599999997,0.571139296,9.969832656,-0.017516124373015092,0.018133970928221083,0.012454669542231536,9.994206642174166,0.02812070959422416,0.020299765499999955,0.005982056500000055,0.0383440015000005
102552.0,-0.4088392385,0.6298811295,9.978168308499999,-0.025242696971593988,0.035187583049457676,0.014585716558916611,10.006385089181366,0.045695764341996244,-0.008335652500000013,0.05874183349999995,0.008335652499999568
102562.0,-0.3764772935,0.6154653539999999,9.962575735,-0.03670078351093676,0.048244391183627264,0.01964891671895216,9.988665978503146,0.06372243497563333,0.032361945,-0.014415775500000061,-0.015592573499999318
102572.0,-0.39569832749999995,0.5831034089999999,9.981796768999999,-0.0462931130798976,0.055972709111458144,0.021781709064889233,10.006640469687744,0.07583165126575823,-0.01922103399999997,-0.032361945,0.019221033999999193
102582.0,-0.43992631899999995,0.578396217,9.9901324215,-0.04815887005027954,0.05064247357586747,0.02311339528416091,10.016527499542656,0.07360819204384807,-0.04422799150000001,-0.004707191999999916,0.008335652500001345
102592.0,-0.46993466799999994,0.5651572395,9.9650273975,-0.04283037984394085,0.03412293220574114,0.02391275608157431,9.992097494043637,0.05975479765935728,-0.03000834899999999,-0.013238977500000026,-0.025105024000000142
102602.0,-0.47827032049999996,0.5053366745,9.8728448875,-0.03536909729166509,0.01680228470894941,0.023645720706019176,9.89733165184944,0.04574286744810528,-0.008335652500000013,-0.05982056499999999,-0.09218251000000066
102612.0,-0.473465062,0.4814084485,9.846464998999998,-0.024710371549735717,0.00028099800957108706,0.021247638313778967,9.86958946642432,0.032590543964784315,0.004805258499999965,-0.023928225999999997,-0.02637988850000106
102622.0,-0.46395261149999995,0.49817781999999994,9.795078153,-0.012452924212979541,-0.010643017778661421,0.02018298747006243,9.818706085296347,0.025994271140153406,0.009512450500000047,0.016769371499999963,-0.05138684599999799
102632.0,-0.5118090635,0.5232828439999999,9.784290838,0.0016702800941585732,-0.016505578736110374,0.020982348267475828,9.81163190579815,0.026748512179643323,-0.04785645200000005,0.025105023999999976,-0.010787314999999964
102642.0,-0.49621648999999995,0.5269113045,9.858429112,0.018189821464284904,-0.03169343388696503,0.02417979145712944,9.884962867107136,0.0438178693156143,0.01559257350000004,0.003628460500000097,0.07413827399999917
102652.0,-0.5106322655,0.5496627325,9.870491291499999,0.03391174736624982,-0.049813442181170155,0.02684316389567279,9.89896321670337,0.06596924343433903,-0.014415775500000005,0.022751427999999962,0.012062179499999104
102662.0,-0.5369140874999999,0.5196543835,9.900401574,0.048033206344135944,-0.0703315328676155,0.0308399678827398,9.928558240857955,0.09058044516458971,-0.026281821999999955,-0.030008348999999934,0.029910282500001273
102672.0,-0.5728064264999999,0.513672327,9.956593678499999,0.059491292883478715,-0.09058258817850572,0.0308399678827398,9.9862767907019,0.11267441071100852,-0.035892338999999995,-0.005982056500000055,0.05619210449999912
102682.0,-0.5943810565,0.4945493595,9.981796768999999,0.06961769320354981,-0.1116330042868093,0.022046999111192372,10.011699887977402,0.13339648054911826,-0.02157463000000004,-0.019122967499999977,0.025203090499999803
102692.0,-0.5824169435,0.5292649005,10.0464225925,0.07654490500471531,-0.11483044747646293,0.012986994964089806,10.077198903369508,0.13861391051414318,0.011964112999999998,0.03471554099999996,0.0646258235000019
102702.0,-0.5812401455,0.5747677565,10.064368762,0.07574554420730191,-0.11429812205460466,0.003394665395128971,10.097510418819796,0.1371603875964723,0.0011767979999999234,0.045502856000000036,0.017946169500000053
