timestamp,ax,ay,az,gx,gy,gz,acc_mag,gyro_mag,dax,day,daz
115772.0,-0.254188368,0.13072264449999998,9.703680175,-0.002848377339254746,-0.011056660811384077,-0.014014993893514467,9.707889012287874,0.018077141798415592,0.0,0.0,0.0
115782.0,0.15406247149999996,0.2576206955,9.679653882499998,-0.026563911215353696,0.0198531202414355,0.020891591146372127,9.68430704556975,0.0391949785432428,0.40825083949999996,0.126898051,-0.0240262925000021
115792.0,0.1683801805,0.3127340685,9.704856973,-0.035091589940597995,0.08060628617410612,0.04274136805208914,9.711354351951766,0.09775283933628279,0.01431770900000004,0.05511337300000002,0.02520309050000158
115802.0,0.1348414375,0.1893664115,9.811357192,-0.02576455041794029,0.13070072636484736,0.0627271333166762,9.814110851222416,0.1472453231334203,-0.03353874300000001,-0.12336765700000002,0.10650021899999906
115812.0,-0.053053976499999995,0.201428591,9.890398790999999,-0.015372860051566056,0.14482393067198548,0.06699097267929835,9.892591998395009,0.16030622614847992,-0.18789541399999998,0.012062179499999992,0.07904159899999996
115822.0,-0.15004174499999998,0.09365350749999998,9.984934897,-0.011109020688943906,0.12270711839071333,0.055798176186258715,9.986501309369467,0.1352548842376226,-0.09698776849999999,-0.10777508350000001,0.0945361060000014
115832.0,-0.220649625,0.0338329425,10.078294205,-0.008710938296703698,0.07394436441924376,0.035547120875368515,10.08076609229415,0.08250604388711752,-0.07060788000000001,-0.059820564999999985,0.09335930800000014
115842.0,-0.24340105299999998,0.008629852,10.097515239,0.000614355896702004,0.01345648853287628,0.012365657750379825,10.100452096257092,0.018285622997392566,-0.02275142799999999,-0.025203090499999997,0.019221033999999193
115852.0,-0.220649625,0.0612915625,10.0734889465,0.010740756216773104,-0.04569795580496753,-0.007620107514207243,10.076091626613168,0.047557681265900605,0.02275142799999999,0.0526617105,-0.024026292500000324
115862.0,-0.2027034555,0.12954584649999998,9.969342323500001,0.018202038769048863,-0.08566599567563767,-0.016413076285754676,9.972244340184682,0.08910312061656613,0.017946169499999998,0.06825428399999997,-0.10414662299999833
115872.0,-0.127290317,0.1978001305,9.850877991499999,0.017935003393493732,-0.10645112173763814,-0.01534668011278614,9.853685854534172,0.1090368114739709,0.0754131385,0.06825428400000003,-0.11846433200000206
115882.0,-0.080610663,0.225356817,9.7718363925,0.014737560203840119,-0.10192024699946087,-0.0068207467167938395,9.774767017977721,0.10320588653254027,0.04667965399999999,0.027556686499999983,-0.07904159899999996
115892.0,-0.0399130655,0.16671305,9.676123488499998,0.00727627765156436,-0.08380198403450773,0.000640535835481919,9.677641864552506,0.0841197184418676,0.0406975975,-0.058643766999999986,-0.09571290400000088
115902.0,-0.0314793465,0.14396162199999998,9.6294438345,0.0022130774915288098,-0.05422388920095983,0.0022392574303087246,9.630571346480696,0.054315210999320185,0.008433719,-0.022751428000000018,-0.046679653999998294
115912.0,-0.033931009,0.12356378999999999,9.6414079475,0.000614355896702004,-0.023048818101837117,0.0025062928058638572,9.64225941020501,0.023192821145520695,-0.0024516625,-0.02039783199999999,0.011964112999999443
115922.0,-0.06864655,0.088848249,9.646213205999999,0.0008813912722571365,0.00013439035240356338,-0.0036215581978882336,9.646866619570629,0.0037296910223665546,-0.034715541,-0.03471554099999999,0.004805258499999354
115932.0,-0.048248717999999996,0.0697252815,9.673671826,0.0035465090400524776,0.021451841836262305,-0.01587900553464441,9.674043423037498,0.02692400529840342,0.020397832000000005,-0.019122967500000004,0.027458620000000877
115942.0,-0.0614876955,0.039814999,9.76350074,0.006476916854150957,0.037706093160085496,-0.02813645287140059,9.763775533615252,0.047490629533805694,-0.013238977500000006,-0.029910282500000003,0.08982891399999993
115952.0,-0.082964259,0.078060934,9.868824161,0.00967436004380457,0.041168826396042246,-0.03906221398888509,9.869481592182323,0.05757014912954523,-0.021476563499999997,0.038245935,0.10532342099999958
115962.0,-0.06501808949999999,0.109246081,9.9538478165,0.012871803233458181,0.03530801076784529,-0.053717743717881475,9.95465963316767,0.06555863736383741,0.01794616950000001,0.031185146999999996,0.08502365550000057
115972.0,-0.024320492,0.14513842,9.9801296385,0.01606924642311179,0.02171713188256544,-0.06677455185205106,9.981214567804729,0.07203259868180299,0.04069759749999999,0.035892338999999995,0.02628182199999962
115982.0,0.015200307499999998,0.2336924695,10.032791349,0.01740267797163546,0.00786096295098246,-0.07343472827766141,10.035524175259523,0.07587692176357136,0.039520799499999995,0.08855404950000001,0.05266171050000068
115992.0,0.069038816,0.3258749795,10.0232788985,0.01526988562569839,-0.008658578419143869,-0.0710366458854212,10.028812528783963,0.07317339301900044,0.05383850850000001,0.09218251,-0.009512450500000824
116002.0,0.136116302,0.41442902899999995,9.971793986,0.009142034621946299,-0.019050268785518104,-0.0593132692997753,9.981330290445948,0.0629647000537366,0.06707748599999999,0.08855404949999995,-0.051484912499999425
116012.0,0.174362237,0.49464742599999995,9.9179554775,0.0024801128670839424,-0.01691922176883303,-0.03746349239405829,9.931813485935603,0.04118160132214497,0.03824593500000001,0.080218397,-0.05383850850000016
116022.0,0.1575928655,0.48748857149999997,9.872452621499999,-0.0023160519173964756,-0.009724974592112405,-0.008419468311620645,9.885737270551035,0.013070067863316239,-0.01676937149999999,-0.007158854499999978,-0.04550285600000059
116032.0,0.160044528,0.4300216025,9.870000958999999,-0.004447098934081553,-0.002530727415391778,0.020891591146372127,9.88066049210377,0.02150906438708339,0.002451662499999979,-0.05746696899999998,-0.0024516625000003955
116042.0,0.12405412249999999,0.3594137225,9.885593532499998,-0.006045820528908358,0.005729915934297384,0.04593881124174275,9.892902867158675,0.046687881305391817,-0.0359904055,-0.07060788000000001,0.015592573499999318
116052.0,0.0414821295,0.275566865,9.849701193499998,-0.010309659891530504,0.007595672904679321,0.06325945873853447,9.853642548082869,0.06454256311804063,-0.08257199299999998,-0.08384685749999998,-0.035892339000000106
116062.0,0.0055897905,0.1858360175,9.8604885085,-0.014041173832294382,0.005197590512439114,0.06405881953594789,9.862241119411888,0.06578527092034238,-0.035892339,-0.08973084749999999,0.01078731500000174
116072.0,-0.038736267500000005,0.09483030549999999,9.842542339,-0.015372860051566056,-0.0006649704450098396,0.052867768372160236,9.843075382230323,0.055061492392689086,-0.044326058,-0.09100571200000002,-0.017946169500000053
116082.0,-0.047071919999999996,0.044522190999999996,9.824498102999998,-0.011643091440054173,-0.010524335389525807,0.03421543465609683,9.824711749817116,0.03764331524159795,-0.008335652499999992,-0.050308114499999994,-0.01804423600000149
116092.0,-0.06864655,0.07325567549999999,9.8173392485,-0.004714134309636684,-0.020116664958486644,0.01689478715930511,9.817852548442474,0.026689644143366147,-0.021574630000000004,0.028733484499999996,-0.007158854499998313
116102.0,-0.0638412915,0.10198916,9.7694827965,0.0022130774915288098,-0.023581143523695385,0.003038618227722128,9.770223723659932,0.023878886963225012,0.004805258500000006,0.028733484500000003,-0.04785645199999955
116112.0,-0.0518771785,0.10326402449999998,9.7598722795,0.006743952229706089,-0.023048818101837117,-0.007620107514207243,9.760556419208772,0.025195137350215217,0.011964112999999992,0.0012748644999999864,-0.009610517000000485
116122.0,-0.07462860649999999,0.1403331615,9.7694827965,0.007808603073422631,-0.013454743203624287,-0.013480923142404202,9.77077565683678,0.020584938314339163,-0.022751427999999983,0.037069137000000016,0.009610517000000485
116132.0,-0.093751574,0.16788984799999998,9.789782562,0.0054105206811824215,-0.004129449010218584,-0.018011797880581482,9.791670897754285,0.019254894080737436,-0.019122967500000018,0.027556686499999983,0.020299765499999012
116142.0,-0.092574776,0.191818074,9.816162450499998,0.0022130774915288098,-0.0019984019935335075,-0.021209241070235092,9.818472870934189,0.0214178250363247,0.0011767980000000067,0.023928226000000025,0.026379888499999282
116152.0,-0.0854159215,0.201428591,9.801746675,-0.00018500490071139895,0.0004014257279586958,-0.023340288086920166,9.80418824981403,0.023344472952045454,0.007158854499999992,0.009610516999999985,-0.014415775499998063
116162.0,-0.0626644935,0.20495898499999998,9.804198337499999,-0.00018500490071139895,0.0025324727446437724,-0.025473080432857242,9.806540677798445,0.025599325611321586,0.022751428000000004,0.0035303939999999923,0.002451662499998619
116172.0,-0.053053976499999995,0.22888721099999998,9.76350074,0.0016807520696705393,0.005197590512439114,-0.027871162825097447,9.76632739466389,0.028401436440394924,0.009610517000000006,0.023928225999999997,-0.04069759749999946
116182.0,-0.020790097999999996,0.22290515449999998,9.819790910999998,0.004611159883769018,0.0097267199213644,-0.028670523622510852,9.822342514483788,0.030624676336106813,0.032263878499999996,-0.005982056499999999,0.05629017099999878
116192.0,-0.013533176999999999,0.239674526,9.834108619999999,0.007543313027119492,0.0097267199213644,-0.030534535263640795,9.837038140377993,0.032922158125194355,0.007256920999999998,0.01676937150000002,0.014317709000000178
116202.0,0.0175539035,0.230064009,9.899911241499998,0.010208430794914833,0.007595672904679321,-0.03106860601475106,9.902599667629874,0.03357327189699078,0.031087080499999996,-0.009610516999999985,0.0658026214999996
116212.0,0.011571847,0.2660544145,9.939432041,0.011007791592328238,0.004131194339470578,-0.030269245217337655,9.94299895186434,0.03247253375451205,-0.005982056499999999,0.03599040549999999,0.03952079950000176
116222.0,0.03667687099999999,0.2899826405,9.9442372995,0.0099413954193597,-0.0022636920398366456,-0.027071802027684045,9.948532082343844,0.028928154271598523,0.025105023999999993,0.023928225999999997,0.004805258499999354
116232.0,0.070215614,0.29478789899999996,9.939432041,0.0051452306348792835,-0.01079137076508094,-0.019610519475408286,9.944050454191373,0.022967358476126753,0.033538743,0.004805258499999965,-0.004805258499999354
116242.0,0.0989490985,0.30430034949999996,9.9047165,0.00034906585039886593,-0.017985617941801566,-0.013215633096101064,9.909883882880365,0.022321676860109118,0.028733484500000003,0.009512450499999991,-0.03471554100000063
116252.0,0.11209000949999999,0.30430034949999996,9.842542339,-0.003115412714809878,-0.022249457304423712,-0.0052220251219670345,9.847883151619088,0.023065422023007244,0.013140910999999991,0.0,-0.06217416099999973
116262.0,0.125328987,0.299495091,9.775464852999999,-0.0033824480903650108,-0.019851374912183504,0.003038618227722128,9.780854653697387,0.020365442340443473,0.013238977500000013,-0.004805258499999965,-0.06707748600000052
116272.0,0.1205237285,0.28880584249999997,9.7467313685,-0.00124965574442794,-0.0065275314024587925,0.013697343969651499,9.751754055219788,0.015224570191391798,-0.004805258500000006,-0.010689248500000026,-0.02873348449999824
116282.0,0.08580818750000001,0.2815489215,9.737120851499999,0.0024801128670839424,0.008660323748395862,0.023024383492309196,9.741568421817705,0.024723964133233668,-0.03471554099999999,-0.007256920999999972,-0.009610517000002261
116292.0,0.067862018,0.225356817,9.789782562,0.003811799086355616,0.019319049490325233,0.028352873698647883,9.792611171679118,0.034520152555512496,-0.01794616950000001,-0.056192104500000006,0.05266171050000068
116302.0,0.03187161249999999,0.18701281549999998,9.846072732999998,0.002747148242639075,0.024382249650360784,0.027820548276789616,9.847900174979976,0.03709479515916937,-0.0359904055,-0.0383440015,0.05629017099999878
116312.0,-0.018338435499999996,0.14994367849999998,9.856860048,-0.0023160519173964756,0.02171713188256544,0.02488839513343914,9.858017519298556,0.033112386292851397,-0.05021004799999999,-0.037069137,0.01078731500000174
116322.0,-0.033931009,0.11993532949999999,9.890398790999999,-0.004714134309636684,0.011857766938049475,0.02249031274119893,9.891184157705702,0.025858148933040972,-0.015592573500000002,-0.03000834899999999,0.03353874299999937
116332.0,-0.07462860649999999,0.13797956549999998,9.870000958999999,-0.002049016541841343,0.0022654373690886398,0.017161822534860243,9.871247475373343,0.017431546918734424,-0.04069759749999999,0.01804423599999999,-0.02039783200000045
116342.0,-0.0734518085,0.125917386,9.891575588999999,0.0035465090400524776,-0.009192649170254133,0.009967575358139616,9.892649695059946,0.014015530088396231,0.0011767979999999928,-0.012062179499999992,0.021574629999999928
116352.0,-0.0854159215,0.134351105,9.927467928,0.009407324668249437,-0.018784978739214968,0.0025062928058638572,9.92874441007165,0.021157851669660076,-0.011964113000000012,0.008433719000000006,0.03589233900000188
116362.0,-0.08659271949999998,0.1522972745,9.898734443499999,0.015004595579395251,-0.023581143523695385,-0.0038885935734433662,9.900284659635993,0.028219308608925086,-0.001176797999999979,0.017946169499999998,-0.028733484500001794
116372.0,-0.0626644935,0.17740229849999997,9.9106985565,0.015536921001253522,-0.018517943363659837,-0.007620107514207243,9.912484264404654,0.025345141134879953,0.023928225999999983,0.025105023999999976,0.01196411300000122
116382.0,-0.053053976499999995,0.18465921949999997,9.9310963885,0.010740756216773104,-0.005995205980600523,-0.008684758357923783,9.932954707912774,0.015057601621556647,0.009610517000000006,0.0072569209999999995,0.02039783200000045
116392.0,-0.026772154499999996,0.19064127599999997,9.903539702,0.0032794736644973454,0.010526080718777801,-0.006021385919380436,9.905410616095716,0.012562261388956624,0.026281822,0.005982056499999999,-0.027556686500000538
116402.0,-0.018338435499999996,0.178677163,9.9071681625,-0.0036477381366681488,0.023849924228502514,-0.0014905111812031574,9.908796235004933,0.024173260078034695,0.008433719,-0.01196411299999997,0.003628460499999875
116412.0,-0.035107807,0.18701281549999998,9.920309073499999,-0.006045820528908358,0.030777136029668008,0.0025062928058638572,9.922133765730031,0.03146530711251971,-0.0167693715,0.008335652499999985,0.013140910999998923
116422.0,-0.07462860649999999,0.16190779149999998,9.9442372995,-0.004447098934081553,0.02891137905928607,0.005970771371072602,9.945835260581365,0.029854558090932355,-0.03952079949999999,-0.025105024000000004,0.023928226000000663
116432.0,-0.10934414749999999,0.16543818549999997,10.0005274705,-0.002049016541841343,0.018254398646608695,0.007035422214789143,10.002493470332244,0.019670249222579702,-0.034715541,0.0035303939999999923,0.056290171000000555
116442.0,-0.14523648649999998,0.17142024199999997,9.987386559499999,0.001947787445225672,0.004663519761328849,0.001973967384005587,9.989913354241839,0.00542575706507408,-0.035892338999999995,0.005982056499999999,-0.013140911000000699
116452.0,-0.127290317,0.14513842,10.020827236,0.0032794736644973454,-0.006260496026903661,-0.006286675965683575,10.022686589907991,0.009458913929014878,0.017946169499999998,-0.026281821999999982,0.03344067650000149
116462.0,-0.09738003449999999,0.1511204765,9.981404502999998,0.001947787445225672,-0.007859217621730466,-0.016413076285754676,9.983023395847846,0.01830164612048599,0.029910282499999996,0.005982056499999999,-0.0394227330000021
116472.0,-0.06501808949999999,0.17740229849999997,9.933449984500001,-0.004447098934081553,0.0017331119472303693,-0.02813645287140059,9.9352467267823,0.02853840125402417,0.032361945,0.026281821999999982,-0.047954518499997434
116482.0,-0.0422666615,0.2085874455,9.867647362999998,-0.015639895427121187,0.014255849330289684,-0.03959453941074336,9.869942232536895,0.04489502333497686,0.02275142799999999,0.031185147000000024,-0.06580262150000316
116492.0,-0.0028439284999999996,0.284000584,9.822144506999999,-0.03029542515611757,0.025980971245187588,-0.04465773957077891,9.826249901973382,0.059892715381794956,0.039422732999999995,0.0754131385,-0.045502855999998815
116502.0,0.025889555999999998,0.29831829299999996,9.823321305,-0.03988775472507841,0.03397457921932162,-0.03906221398888509,9.827884082258766,0.06535412436756709,0.028733484499999996,0.014317708999999956,0.0011767980000012557
116512.0,0.03187161249999999,0.30076995549999996,9.797039482999999,-0.04015304477138155,0.02891137905928607,-0.024673719635443837,9.80170704506494,0.05528948619919327,0.005982056499999996,0.002451662500000007,-0.026281822000001398
116522.0,0.0199074995,0.284000584,9.7096622315,-0.03295879759466092,0.012391837689159739,-0.0052220251219670345,9.713835148388418,0.03559648194098346,-0.011964112999999995,-0.016769371499999963,-0.08737725149999953
116532.0,0.0044129925,0.274390067,9.683282342999998,-0.020169024836046472,-0.004661774432076854,0.014496704767064902,9.687170191424666,0.025272042909034228,-0.015494506999999998,-0.009610516999999985,-0.02637988850000106
116542.0,-0.050700380499999996,0.230064009,9.678477084499999,-0.00684518132632176,-0.015320500174006225,0.028885199120506154,9.681343845355954,0.033405522914680415,-0.05511337299999999,-0.044326058,-0.004805258499999354
116552.0,-0.056682437,0.1642613875,9.725156738499999,0.004878195259324152,-0.018517943363659837,0.032349677685714895,9.7267090164392,0.037592720861590295,-0.005982056500000006,-0.06580262150000002,0.04667965400000007
116562.0,-0.08178746099999999,0.09247670949999999,9.786252167999999,0.010473720841217971,-0.015053464798451092,0.024356069711580868,9.787030838117424,0.0304880921425621,-0.02510502399999999,-0.071784678,0.06109542949999991
116572.0,-0.092574776,0.0481506515,9.739572514,0.012339477811599909,-0.009192649170254133,0.0003752457891787808,9.740131484218045,0.01539182642939547,-0.010787315000000006,-0.04432605799999999,-0.046679653999998294
116582.0,-0.056682437,0.050504247499999995,9.755067020999999,0.012072442436044778,-0.00039793506945470715,-0.03373197845329441,9.755362431087919,0.03582943746508777,0.035892338999999995,0.0023535959999999925,0.015494506999997881
116592.0,-0.004020726499999999,0.10444082249999999,9.751536627,0.008075638448977763,0.009194394499506129,-0.06331007328684231,9.75209673041488,0.06448192154516257,0.0526617105,0.053936574999999994,-0.003530393999998438
116602.0,0.082179727,0.214569502,9.776641651,0.001413716694115407,0.020118410287738638,-0.08249473242476399,9.77934126364278,0.08492425981561698,0.0862004535,0.1101286795,0.025105024000000142
116612.0,0.1552392695,0.309105608,9.809003596,-0.004181808887778414,0.033175218421908216,-0.08569217561441758,9.815100460720354,0.09198495314151878,0.0730595425,0.09453610599999998,0.03236194499999989
116622.0,0.21152944049999997,0.386970409,9.835285418,-0.002049016541841343,0.03983714017677058,-0.06837327344687787,9.84516785307205,0.0791587059526237,0.05629017099999997,0.07786480100000004,0.02628182199999962
116632.0,0.18632634999999997,0.46356034549999997,9.855683249999998,0.0030124382889422127,0.0409035363497391,-0.03852814323777483,9.86833815933336,0.05627247899026315,-0.025203090499999997,0.07658993649999996,0.020397831999998672
116642.0,0.172008641,0.46110868299999996,9.959829872999999,0.007009242276009227,0.027579692840014398,-0.0025569073541716926,9.971981713241346,0.02857108170250391,-0.014317708999999984,-0.002451662500000007,0.1041466230000001
116652.0,0.152787607,0.3845187465,10.005332729,0.005677556056737553,0.004663519761328849,0.026221826681962806,10.013884447968296,0.027231732480336217,-0.019221033999999998,-0.07658993649999996,0.04550285600000059
116662.0,0.09532063799999999,0.297141495,10.0101379875,-0.0017837264955382049,-0.017186257144388165,0.04593881124174275,10.015000829798774,0.04908078537623851,-0.05746696900000001,-0.08737725150000003,0.0048052585000011305
116672.0,0.034323275,0.2468333805,9.982581301,-0.011908381486357311,-0.039036034050105174,0.05633224693736898,9.9856914751063,0.06956251540160335,-0.060997362999999985,-0.05030811449999997,-0.027556686500000538
116682.0,0.00196133,0.20976424349999997,9.8712758235,-0.020169024836046472,-0.05369156377910156,0.05419945459143191,9.87350450793851,0.07891232135662389,-0.032361945,-0.03706913700000003,-0.1113054775000002
116692.0,-0.021966895999999996,0.15465087049999998,9.773111257,-0.02203478180642841,-0.05475795995207009,0.045406485819884476,9.774359471493076,0.07446955580558266,-0.023928225999999997,-0.05511337299999999,-0.0981645664999995
116702.0,-0.0410898635,0.146315218,9.708387366999998,-0.01750390706825113,-0.04010243022307371,0.032883748436825164,9.7095768078545,0.05473511289571685,-0.0191229675,-0.008335652499999985,-0.06472389000000156
116712.0,-0.038736267500000005,0.16788984799999998,9.664159375499999,-0.009510299094117103,-0.016652186393277896,0.02195798731934066,9.665695212168954,0.029152946809068193,0.0023535959999999925,0.021574629999999984,-0.044227991499999675
116722.0,-0.033931009,0.14513842,9.671318229999999,-0.0036477381366681488,0.014255849330289684,0.013964379345206631,9.67246673709774,0.020286427091492913,0.004805258500000006,-0.02275142799999999,0.007158854500000089
116732.0,-0.059036033,0.1642613875,9.738395716,-0.0023160519173964756,0.043034583366424184,0.009168214560726213,9.7399598653189,0.044061271205416905,-0.025105024000000004,0.019122967500000004,0.06707748600000052
116742.0,-0.10699055149999999,0.17740229849999997,9.78507537,-0.003914773512223281,0.05582435612503863,0.007834783012202546,9.787268186281807,0.05650723859184273,-0.04795451849999999,0.013140910999999977,0.04667965400000007
116752.0,-0.1213082605,0.15465087049999998,9.8269497655,-0.006579891280018622,0.05049586591869994,0.005171410573659199,9.828915213769648,0.05118467477143468,-0.014317709000000012,-0.02275142799999999,0.041874395500000716
116762.0,-0.14523648649999998,0.1534740725,9.843719136999999,-0.010843730642640768,0.03210882224893968,0.003038618227722128,9.845986714193788,0.03402640388283774,-0.023928225999999983,-0.001176797999999979,0.016769371499998798
116772.0,-0.1428828905,0.1534740725,9.842542339,-0.010843730642640768,0.0062622413561556544,0.001973967384005587,9.844775746878897,0.01267669942398298,0.0023535959999999856,0.0,-0.0011767979999994793
116782.0,-0.13925443,0.16788984799999998,9.8604885085,-0.005246459731494954,-0.01185602160879748,-0.000158824961931484,9.86290081180971,0.012965948228764583,0.003628460499999986,0.014415775499999978,0.017946169500000053
116792.0,-0.140431228,0.19897692849999998,9.8269497655,0.004078834461910748,-0.018784978739214968,-0.0033562681515850955,9.829967163807487,0.019513504367636623,-0.001176797999999979,0.031087080500000003,-0.03353874299999937
116802.0,-0.1536702055,0.201428591,9.812533989999999,0.011273081638631374,-0.019050268785518104,-0.009218829109034049,9.815804160344477,0.023978780631493894,-0.013238977499999999,0.002451662500000007,-0.014415775500001615
116812.0,-0.129643913,0.1978001305,9.816162450499998,0.012606513187155043,-0.012922417781766015,-0.016146040910199545,9.819011034234043,0.02421998540747401,0.02402629249999999,-0.003628460499999986,0.003628460499999875
116822.0,-0.10453888899999998,0.19064127599999997,9.812533989999999,0.007543313027119492,-0.0019984019935335075,-0.023340288086920166,9.81494247463191,0.024610246441945614,0.025105024000000017,-0.007158854500000034,-0.003628460499999875
116832.0,-0.10571568699999999,0.195348468,9.7922342245,0.00034906585039886593,0.008660323748395862,-0.029469884419924253,9.794753082027997,0.030718026338269817,-0.0011767980000000067,0.004707192000000027,-0.020299765499999012
116842.0,-0.055505638999999996,0.191818074,9.850877991499999,-0.0036477381366681488,0.015055210127703087,-0.034798374626262944,9.852901717407564,0.03809057917822644,0.05021004799999999,-0.0035303939999999923,0.058643766999999514
116852.0,-0.020790097999999996,0.178677163,9.852054789499999,-0.002848377339254746,0.01532224550325822,-0.0414602963811253,9.85369683581053,0.04429267023718087,0.034715541,-0.013140911000000005,0.0011767979999994793
116862.0,0.000784532,0.202605389,9.854506451999999,-0.0009843656981248017,0.012657127735462877,-0.04545710036819231,9.856589013023314,0.047196608270334194,0.021574629999999997,0.023928225999999997,0.0024516625000003955
116872.0,0.035500073,0.2444797845,9.855683249999998,-0.00124965574442794,0.006529276731710786,-0.04439070419522378,9.858778978379762,0.0448857183641601,0.034715541,0.041874395499999995,0.0011767979999994793
116882.0,0.07266727649999999,0.287530978,9.834108619999999,-0.004181808887778414,0.0012007865253720988,-0.040393900208156766,9.838579518728395,0.04062753484867061,0.03716720349999999,0.0430511935,-0.021574629999999928
116892.0,0.102577559,0.3150876645,9.8485243955,-0.010044369845227366,-0.004661774432076854,-0.028935813668813988,9.85409737929807,0.03098229848025483,0.02991028250000001,0.027556686499999983,0.014415775500001615
116902.0,0.083356525,0.33666229449999996,9.834108619999999,-0.011908381486357311,-0.009992009967667536,-0.012681562344990798,9.840222668250773,0.020061700733698364,-0.019221033999999998,0.021574629999999984,-0.014415775500001615
116912.0,0.06187996149999999,0.3127340685,9.825772967499999,-0.010309659891530504,-0.01611986097141963,0.007035422214789143,9.830943298386455,0.020387157000358806,-0.02147656350000001,-0.02392822599999994,-0.008335652499999568
116922.0,0.0379517355,0.2899826405,9.816162450499998,-0.005513495107050087,-0.02198242192886858,0.01955990492710045,9.820518088198043,0.029936856597035637,-0.02392822599999999,-0.022751428000000018,-0.009610517000000485
116932.0,-0.000392266,0.2444797845,9.831755023999998,0.001947787445225672,-0.022514747350726852,0.024089034336025737,9.834794221073006,0.033030127148424175,-0.0383440015,-0.04550285600000001,0.015592573499999318
116942.0,-0.033931009,0.17142024199999997,9.830480159499999,0.0032794736644973454,-0.018784978739214968,0.023024383492309196,9.832033176259232,0.029895695491990316,-0.033538742999999996,-0.07305954250000002,-0.0012748644999991399
116952.0,-0.023143694,0.125917386,9.830480159499999,-0.0007173303225696694,-0.012655382406210882,0.013964379345206631,9.83131379750398,0.018859405004823016,0.010787314999999999,-0.04550285599999998,0.0
116962.0,-0.0195152335,0.10081236199999999,9.801746675,-0.010044369845227366,-0.0033300882128051807,-0.00042411500823462205,9.802284522372535,0.010590501717717943,0.0036284604999999998,-0.025105024000000004,-0.02873348449999824
116972.0,-0.012356378999999999,0.11277647499999999,9.777818449,-0.015905185473424326,0.0062622413561556544,-0.01561371548834127,9.77847661116087,0.023151213857973894,0.007158854500000001,0.011964112999999998,-0.023928226000000663
116982.0,0.006766588499999999,0.157102533,9.76350074,-0.0180379778193614,0.015055210127703087,-0.0236073234624753,9.764766955364346,0.03330666174901058,0.019122967499999997,0.044326058,-0.014317709000000178
116992.0,-0.000392266,0.20378218699999998,9.764677537999999,-0.012707742283770713,0.019586084865880368,-0.026272441230270643,9.76680371230695,0.03514744091000406,-0.007158854499999999,0.04667965399999999,0.0011767979999994793
117002.0,0.0199074995,0.20495898499999998,9.8065519335,-0.0025830872929516074,0.011058406140636074,-0.02653773127657378,9.808713744344931,0.02886540953532286,0.020299765499999997,0.0011767980000000067,0.041874395500000716
117012.0,0.0199074995,0.230064009,9.872452621499999,0.010208430794914833,-0.0022636920398366456,-0.02040988027282169,9.875152987196486,0.02293250038039248,0.0,0.02510502400000003,0.06590068799999926
117022.0,0.035500073,0.236144132,9.8832399365,0.016603317174222056,-0.01611986097141963,-0.010817550703860855,9.886124414991427,0.02554485196974755,0.015592573500000002,0.006080122999999993,0.01078731500000174
117032.0,0.034323275,0.2336924695,9.878434678,0.014737560203840119,-0.026778586713348998,-0.0033562681515850955,9.881258115494235,0.03074984427654078,-0.0011767979999999997,-0.002451662500000007,-0.0048052585000011305
117042.0,0.05707470299999999,0.23732092999999999,9.8748062175,0.004878195259324152,-0.02731091213520727,0.0035726889788323924,9.877822461388707,0.027972250842300386,0.02275142799999999,0.003628460499999986,-0.003628460499999875
117052.0,0.0510926465,0.227710413,9.858036846,-0.007112216701876893,-0.020916025755900045,0.009700539982584484,9.860798798667815,0.0241280798197795,-0.005982056499999992,-0.009610516999999985,-0.016769371500000574
117062.0,0.03912853349999999,0.20741064749999996,9.8269497655,-0.017238617021947993,-0.011590731562494343,0.013165018547793228,9.82921624100776,0.024593346424326586,-0.011964113000000005,-0.02029976550000004,-0.031087080499998976
117072.0,0.0032361944999999997,0.2121178395,9.822144506999999,-0.01990198946049134,0.0004014257279586958,0.011299261577411289,9.824435208559281,0.02288937830731404,-0.035892338999999995,0.004707192000000027,-0.0048052585000011305
117082.0,-0.001569064,0.206135783,9.812533989999999,-0.015372860051566056,0.0043982297150257105,0.009700539982584484,9.814699064561285,0.018702131609655913,-0.0048052584999999995,-0.005982056499999999,-0.009610517000000485
117092.0,-0.014808041499999999,0.19299487199999998,9.825772967499999,-0.007379252077432025,0.0043982297150257105,0.007302457590344274,9.827679314444744,0.011274913423490076,-0.013238977499999999,-0.013140911000000005,0.01323897750000036
117102.0,0.0199074995,0.182207557,9.810180393999998,-0.0025830872929516074,0.0043982297150257105,0.004372049776245795,9.811892542480589,0.006718004453341342,0.034715540999999996,-0.010787314999999992,-0.015592573500001095
117112.0,0.0187307015,0.202605389,9.812533989999999,0.00034906585039886593,0.00786096295098246,0.0025062928058638572,9.814643299057577,0.008258213433507182,-0.0011767979999999997,0.020397832000000005,0.002353596000000735
117122.0,0.00196133,0.2313388735,9.822144506999999,0.000614355896702004,0.011857766938049475,0.0033056536032772606,9.824868662613149,0.012325234913370686,-0.016769371499999998,0.02873348449999999,0.009610517000000485
117132.0,-0.0028439284999999996,0.22290515449999998,9.8759830155,-0.00018500490071139895,0.00999375529691953,0.003038618227722128,9.878498636851475,0.010447132261144184,-0.0048052584999999995,-0.008433719000000006,0.05383850850000016
117142.0,-0.010002783,0.2217283565,9.859213644,-0.004447098934081553,0.004131194339470578,0.004372049776245795,9.861711676873325,0.007480526374925359,-0.0071588545,-0.001176797999999979,-0.016769371499998798
117152.0,-0.000392266,0.18818961349999996,9.8173392485,-0.007112216701876893,-0.005995205980600523,0.007834783012202546,9.819142803964123,0.012161823301322153,0.009610516999999999,-0.03353874300000004,-0.041874395500000716
117162.0,-0.0171616375,0.17142024199999997,9.7910574265,-0.004181808887778414,-0.017985617941801566,0.011299261577411289,9.7925729484232,0.02164817060439796,-0.0167693715,-0.01676937149999999,-0.02628182199999962
117172.0,-0.011179581,0.18818961349999996,9.7706595945,0.003811799086355616,-0.023048818101837117,0.017161822534860243,9.772478151689853,0.028988031683512987,0.005982056500000001,0.01676937149999999,-0.02039783200000045
117182.0,-0.036284605,0.2193747605,9.739572514,0.011540117014186507,-0.021715386553313447,0.02142566189748239,9.742110377816951,0.0326158136738327,-0.025105023999999997,0.031185147000000024,-0.031087080499998976
117192.0,-0.035107807,0.2193747605,9.755067020999999,0.015803956376808655,-0.008658578419143869,0.020092230348958722,9.757596549758478,0.026989511625743673,0.0011767979999999997,0.0,0.015494506999997881
117202.0,-0.0399130655,0.20378218699999998,9.793411022499999,0.016603317174222056,0.013723523908431413,0.017428857910415374,9.795612267140864,0.027708668999332216,-0.0048052584999999995,-0.015592573500000012,0.0383440015000005
117212.0,-0.045895122,0.2001537265,9.8400906765,0.012606513187155043,0.03690673236267209,0.014496704767064902,9.842233100175866,0.0416075175603071,-0.005982056499999999,-0.003628460499999986,0.04667965400000007
117222.0,-0.060212830999999994,0.17985396099999998,9.864018902499998,0.00727627765156436,0.05236162288908188,0.007834783012202546,9.865842181039675,0.05344218925988508,-0.014317708999999998,-0.02029976550000001,0.023928225999998887
117232.0,-0.060212830999999994,0.16063292699999998,9.915503815000001,0.004345869837465881,0.05422563453021183,-0.0017575465567582899,9.916987669021939,0.054427888023948434,0.0,-0.019221033999999998,0.05148491250000298
117242.0,-0.055505638999999996,0.1152281375,9.9669887275,0.005677556056737553,0.04250225794456591,-0.010283479952750588,9.967809322701985,0.04409565208841385,0.004707191999999999,-0.04540478949999999,0.051484912499999425
117252.0,-0.038736267500000005,0.14513842,9.983758099,0.012606513187155043,0.024382249650360784,-0.01587900553464441,9.98488815354123,0.03171058324155676,0.01676937149999999,0.029910282499999996,0.016769371499998798
117262.0,-0.0410898635,0.1858360175,10.0244556965,0.018202038769048863,0.005197590512439114,-0.017744762505026348,10.026262285287276,0.025946208949377245,-0.0023535959999999925,0.040697597500000016,0.04069759750000124
117272.0,-0.0063743225,0.2240819525,10.074763810999999,0.019001399566462265,-0.012123056984352613,-0.015079644737231007,10.0772575237938,0.027118580005806203,0.034715540999999996,0.03824593499999998,0.05030811449999817
117282.0,0.010395048999999998,0.317539327,10.1166382065,0.017935003393493732,-0.02491282974296706,-0.010817550703860855,10.121625752933708,0.032547393686089464,0.016769371499999998,0.0934573745,0.041874395500000716
117292.0,0.025889555999999998,0.32950344,10.1082044875,0.015536921001253522,-0.03290643771710109,-0.002022836603061428,10.113606713096809,0.036446144176734675,0.015494507,0.011964112999999998,-0.008433718999999229
117302.0,0.0199074995,0.3462728115,10.031614550999999,0.011273081638631374,-0.05422388920095983,0.012365657750379825,10.037608862092375,0.05674700010845282,-0.005982056499999999,0.01676937150000002,-0.07658993650000134
