timestamp,ax,ay,az,gx,gy,gz,acc_mag,gyro_mag,dax,day,daz
219772.0,0.46875787,-0.3827535495,10.344838952,0.022588051179310613,0.07086211296022178,0.009461429875061262,10.362525134500675,0.07497451410010664,0.0,0.0,0.0
219782.0,0.259287826,-0.48327171199999996,9.883926402,0.012728686234794645,0.037821284890717115,0.009461429875061262,9.899130408499722,0.041012043344965624,-0.20947004400000002,-0.10051816249999995,-0.46091254999999975
219792.0,0.43286553099999997,-0.40423011299999995,9.879121143499999,0.03404613771865339,0.018901915799098588,0.023052308760341103,9.896858548051126,0.0452529651361745,0.17357770499999997,0.07904159900000002,-0.0048052585000011305
219802.0,0.3933447315,-0.4294332035,9.9234472015,0.0465688751017127,0.028494245368059425,0.026782077371852987,9.940519972065108,0.06081004699624901,-0.03952079949999998,-0.02520309050000008,0.04432605800000111
219812.0,0.32028518899999997,-0.4437509125,9.9497290235,0.056162949999925535,0.0061121430404841425,0.030513591312616863,9.964768191770224,0.0642083678350017,-0.07305954250000002,-0.014317708999999956,0.02628182199999962
219822.0,0.30351581749999995,-0.46414874449999993,9.934234516499998,0.058026961641055474,-0.012540190675579259,0.020654226368100895,9.949702072791606,0.06285683516004574,-0.01676937150000002,-0.02039783199999995,-0.015494507000001434
219832.0,0.286746446,-0.4557150254999999,9.9354113145,0.06095911478440595,-0.032791245986469465,0.0017348572764823635,9.949989834017657,0.0692408060208234,-0.016769371499999963,0.008433719000000006,0.0011767980000012557
219842.0,0.3011622215,-0.4329635975,9.9018725715,0.06895272275853997,-0.03625572455167821,-0.019048523456266113,9.915908258079185,0.08019851485187963,0.014415775500000005,0.022751427999999907,-0.03353874299999937
219852.0,0.2988086255,-0.425804743,9.894713717,0.07108376977522506,-0.035189328378709674,-0.03477044935823103,9.90837806178299,0.08660355250089438,-0.0023535960000000133,0.007158854500000034,-0.007158854500000089
219862.0,0.292826569,-0.37549662849999993,9.844405602499998,0.06548824419333124,-0.03625572455167821,-0.03983364951826659,9.855915319444488,0.08479332122423702,-0.005982056499999999,0.050308114500000056,-0.05030811450000172
219872.0,0.2891981085,-0.34921480650000003,9.848034062999998,0.055895914624370394,-0.040784853960603495,-0.03317172776340423,9.858466484856915,0.0767340935118938,-0.003628460499999986,0.0262818219999999,0.003628460499999875
219882.0,0.292826569,-0.388735606,9.803708004999999,0.04843463207209464,-0.04638037954249731,-0.02571044521112847,9.815780835887972,0.07181977571268042,0.003628460499999986,-0.03952079949999998,-0.044326057999999335
219892.0,0.353823932,-0.425804743,9.777426183,0.055628879248815266,-0.043717007103953966,-0.024645794367411926,9.793087552862538,0.0749210524259182,0.06099736300000003,-0.037069136999999974,-0.02628182199999962
219902.0,0.363434449,-0.45816668799999993,9.704366640499998,0.06868568738298485,-0.03412467753499313,-0.029441959151892346,9.721971672760729,0.08215257894212503,0.009610516999999985,-0.03236194499999995,-0.07305954250000113
219912.0,0.36578804499999995,-0.4616970819999999,9.688774066999999,0.0753476091378472,-0.024797638012335435,-0.03690149637491611,9.706663072898118,0.08748660176557646,0.002353595999999958,-0.0035303939999999923,-0.015592573499999318
219922.0,0.4076624405,-0.43659205799999995,9.697207786,0.0745482483404338,-0.017336355460059676,-0.04889365366536915,9.715587482770257,0.09082169300345375,0.04187439550000005,0.025105023999999976,0.008433719000001005
219932.0,0.40648564249999997,-0.4055049775,9.7390821815,0.07001737360225652,-0.010409143658894181,-0.05662022626394805,9.755992343290698,0.09064564468329483,-0.0011767980000000344,0.031087080499999975,0.041874395500000716
219942.0,0.41727295749999993,-0.33244543499999996,9.7630104075,0.06788632658557145,-0.004014257279586958,-0.05981766945360165,9.777576842207196,0.09056942738943385,0.010787314999999964,0.07305954250000002,0.023928225999998887
219952.0,0.408937305,-0.3060655465,9.7737977225,0.06948504818039825,0.0005166174585903216,-0.05635319088839291,9.787135830186541,0.08946575287524515,-0.008335652499999957,0.02637988849999995,0.010787314999999964
219962.0,0.43168873299999994,-0.261837555,9.818123780499999,0.06975208355595339,0.0021153390534171274,-0.04835958291425888,9.83109702101587,0.08490275071720994,0.022751427999999962,0.04422799150000001,0.044326057999999335
219972.0,0.459147353,-0.2786069265,9.854016119499999,0.06575527956888637,0.005045746867515607,-0.03956661414271145,9.868640828129601,0.07690730334208619,0.027458620000000045,-0.01676937150000002,0.035892339000000106
219982.0,0.471111466,-0.2833141185,9.8408752085,0.055096553826956995,0.006644468462342412,-0.03290469238784909,9.856218228732967,0.06451742389380412,0.011964112999999998,-0.004707191999999971,-0.013140910999998923
219992.0,0.483075579,-0.28458898299999996,9.8887316605,0.04443782808502762,0.010641272449409428,-0.029441959151892346,9.904613407783579,0.05435794516865706,0.011964112999999998,-0.0012748644999999725,0.04785645199999955
220002.0,0.5082786695,-0.25222703799999996,9.929429258,0.03457846314051166,0.017570229579826915,-0.026776841384097003,9.945628742024981,0.04713154267745369,0.025203090500000025,0.032361945,0.04069759750000124
220012.0,0.5130839279999999,-0.23065240799999998,9.952180685999998,0.026584855166377628,0.02156703356689393,-0.02038195500478978,9.968066816453405,0.03984112888599017,0.004805258499999909,0.021574629999999984,0.02275142799999763
220022.0,0.514260726,-0.2342808685,9.964144799,0.019655898035960143,0.019701276596511993,-0.013187707828069155,9.980156972467412,0.030796270308120908,0.0011767980000000344,-0.0036284605000000136,0.01196411300000122
220032.0,0.5262248389999999,-0.263014353,10.006019194499999,0.012461650859239512,0.014638076436476442,-0.007592182246175334,10.023298321997954,0.02066899260140299,0.011964112999999998,-0.02873348449999999,0.04187439549999894
220042.0,0.5214195805,-0.2678196115,9.979737372499999,0.006600835231042554,0.008777260808279484,-0.0025289820861397836,9.996937718486897,0.01126974194185242,-0.004805258499999909,-0.00480525850000002,-0.02628182199999962
220052.0,0.5071018715,-0.274978466,9.92825246,0.005801474433629151,-0.00028274333882308137,0.002801253449450899,9.944996851399127,0.006448571181879135,-0.014317709000000067,-0.007158854499999978,-0.051484912499999425
220062.0,0.5237731765,-0.2893942415,9.905501032,0.008464846872172497,-0.0005497787143782138,0.007330382858376184,9.923559747509325,0.0112111730900244,0.016671305000000025,-0.014415775500000005,-0.022751427999999407
220072.0,0.5202427825,-0.331268637,9.9150134825,0.007665486074759095,0.0029146998508305304,0.012126547642856601,9.934177561366615,0.014639272854798087,-0.0035303939999999923,-0.041874395499999995,0.009512450499999048
220082.0,0.5058270069999999,-0.36480737999999996,9.904324233999999,0.0007382742735936014,0.005312782243070739,0.012393583018411734,9.923939939243521,0.013504503104505608,-0.014415775500000061,-0.03353874299999998,-0.010689248500000303
220092.0,0.5082786695,-0.376771493,9.880297941499999,-0.008854055295367234,0.004778711491960474,0.011859512267301468,9.900534903560274,0.015552440641747831,0.0024516625000000625,-0.011964113000000054,-0.024026292500000324
220102.0,0.4998449505,-0.3958944605,9.868333828499999,-0.014184290830957916,0.0031799898971336684,0.010260790672474663,9.88891247555121,0.017792983655008848,-0.008433719000000006,-0.019122967499999977,-0.011964112999999443
220112.0,0.4998449505,-0.368337774,9.8671570305,-0.012051498485020845,0.005578072289373877,0.005464625887994246,9.886673128754747,0.014360210384798592,0.0,0.027556686499999983,-0.0011767979999994793
220122.0,0.5322068955,-0.3827535495,9.8887316605,-0.008854055295367234,0.010108947027551158,-0.0014625859131712482,9.910436837629694,0.013517553873858352,0.032361945,-0.014415775500000005,0.021574629999999928
220132.0,0.528578435,-0.3707894365,9.941393371,-0.007789404451650692,0.013306390217204768,-0.006258750697651665,9.962338185643459,0.01664051689759887,-0.003628460499999986,0.011964112999999998,0.05266171050000068
220142.0,0.4974913544999999,-0.32165812,10.001213936000001,-0.010719812265749171,0.008243190057169218,-0.010789625435828945,10.018744521525878,0.017299727581005626,-0.031087080500000086,0.04913131650000002,0.05982056500000077
220152.0,0.481898781,-0.2917478375,10.0071959925,-0.013650220079847652,-0.0016161748873467492,-0.013187707828069155,10.023039203162046,0.019048783878591376,-0.015592573499999929,0.029910282499999996,0.0059820564999988335
220162.0,0.47836838699999995,-0.273801668,9.990426621,-0.015783012425784722,-0.011208504456307585,-0.012388347030655751,10.00561980772136,0.022982715147073007,-0.0035303940000000478,0.017946169499999998,-0.016769371500000574
220172.0,0.434042329,-0.237909329,9.97728571,-0.017914059442469796,-0.02080083402526842,-0.010255554684718681,9.989555732421698,0.029304686037327905,-0.044326057999999946,0.035892338999999995,-0.013140910999998923
220182.0,0.42090141799999997,-0.21996315949999998,9.958162742499999,-0.027506389011430633,-0.03332531673757973,-0.008923868465447007,9.96948077892358,0.04412271071111523,-0.013140911000000033,0.017946169500000025,-0.01912296750000131
220192.0,0.455616959,-0.265367949,9.930606055999998,-0.03789982470705686,-0.04185125013357203,-0.00466002910282486,9.944593687081877,0.056653682332286445,0.034715541000000016,-0.045404789500000015,-0.027556686500000538
220202.0,0.46993466799999994,-0.24742177949999997,9.8755907495,-0.04322831491339555,-0.04344997172839884,0.0036006142468643022,9.88986090805979,0.06139667479925177,0.014317708999999956,0.017946169500000025,-0.05501530649999786
220212.0,0.4735631285,-0.28458898299999996,9.789390295999999,-0.04349535028895069,-0.04265061093098543,0.009995500626171525,9.804968908331052,0.061731921582861914,0.0036284605000000414,-0.037167203499999996,-0.08620045350000183
220222.0,0.46993466799999994,-0.3611789195,9.711525494999998,-0.04136255794301361,-0.04025252853874522,0.012393583018411734,9.729594865363842,0.059031586065308464,-0.0036284605000000414,-0.07658993650000001,-0.07786480100000048
220232.0,0.46875787,-0.35637366099999995,9.67327956,-0.035501742314816655,-0.03438996758129627,0.004399975044277704,9.691185354375142,0.04962260934312623,-0.0011767979999999234,0.00480525850000002,-0.038245934999999065
220242.0,0.47836838699999995,-0.333622233,9.729471664499998,-0.03523470693926153,-0.028794441999402447,-0.006258750697651665,9.746935876383985,0.04593230261425994,0.00961051699999993,0.022751427999999962,0.05619210449999912
220252.0,0.467581072,-0.2893942415,9.735453720999999,-0.042161918740427025,-0.02612932423160711,-0.01265363707695889,9.75097124596513,0.051190658405125156,-0.010787314999999964,0.04422799150000001,0.00598205650000061
220262.0,0.49150929799999993,-0.2893942415,9.745064238,-0.04083023252115534,-0.024265312590477164,-0.008391543043588736,9.76174202792618,0.04823205653398561,0.02392822599999994,0.0,0.009610517000000485
220272.0,0.471111466,-0.237909329,9.733100125,-0.03390302071998985,-0.018669787008583346,0.002534218073895766,9.747398878957243,0.03878657012590813,-0.02039783199999995,0.05148491249999998,-0.011964112999999443
220282.0,0.4770935225,-0.23663446449999997,9.753399890499999,-0.025375341994745556,-0.01573763386523287,0.009995500626171525,9.76792831274913,0.03148795220071031,0.005982056499999999,0.001274864500000028,0.020299765499999012
220292.0,0.4903325,-0.2786069265,9.779779779,-0.022444934180647077,-0.016804030038201405,0.012393583018411734,9.796026761181663,0.030655364880108966,0.013238977500000026,-0.041972462000000044,0.02637988850000106
220302.0,0.4627758135,-0.2821373205,9.777426183,-0.022444934180647077,-0.020001473227855015,0.005464625887994246,9.792437167794004,0.030556441837261045,-0.027556686499999983,-0.0035303939999999923,-0.002353596000000735
220312.0,0.46993466799999994,-0.2570322965,9.785761835499999,-0.02564237737030069,-0.0245306026367803,-0.0027942721324429216,9.800410139109518,0.03559620681582054,0.007158854499999923,0.02510502400000003,0.008335652499999568
220322.0,0.46993466799999994,-0.26419115099999996,9.7834082395,-0.024843016572887285,-0.030127873547926117,-0.0054593899002382635,9.798250473282026,0.03942929336221234,0.0,-0.007158854499999978,-0.0023535959999989586
220332.0,0.4903325,-0.2593858925,9.747417833999998,-0.016050047801339853,-0.032791245986469465,-0.00519235452468313,9.763189101536724,0.036875878203514574,0.02039783200000006,0.004805258499999965,-0.03599040550000154
220342.0,0.493862894,-0.25222703799999996,9.7606568115,-0.006723008278682157,-0.032258920564611195,0.002267182698340634,9.776397108784487,0.03302993965626912,0.0035303939999999923,0.007158854500000034,0.013238977500002136
220352.0,0.47836838699999995,-0.2786069265,9.6947561235,0.0010035643198967395,-0.03332531673757973,0.009196139828758124,9.710548616186188,0.034585442960214534,-0.015494507000000046,-0.02637988850000006,-0.06590068800000104
220362.0,0.4735631285,-0.2797837245,9.706720236499999,0.0063337998554874216,-0.024797638012335435,0.010260790672474663,9.722291844974023,0.027573967738150032,-0.004805258499999965,-0.001176797999999979,0.011964112999999443
220372.0,0.44482964399999997,-0.28458898299999996,9.768992464,0.005002113636215749,-0.013606586848547793,0.0041329396687225725,9.783254983036828,0.015074532722508846,-0.028733484500000017,-0.004805258499999965,0.062272227500001165
220382.0,0.443652846,-0.274978466,9.7977259485,-0.008054694497953832,-0.008810422064067376,-0.00519235452468313,9.811619375334422,0.01301776424400021,-0.001176797999999979,0.009610516999999985,0.028733484500000017
220392.0,0.4735631285,-0.24389138549999997,9.810866859499999,-0.01738173402061153,-0.009609782861480778,-0.004927064478379992,9.825316970939472,0.020463346954547972,0.029910282499999996,0.031087080500000003,0.013140910999998923
220402.0,0.459147353,-0.216334699,9.802531207,-0.014451326206513048,-0.01067443370519732,0.00386590429316744,9.815662741657702,0.01837742038637724,-0.014415775500000005,0.027556686499999983,-0.008335652499999568
220412.0,0.46993466799999994,-0.240262925,9.789390295999999,-0.008854055295367234,-0.01280722605113439,0.014791665410651944,9.803607868164494,0.02147586319380325,0.010787314999999964,-0.023928225999999997,-0.013140911000000699
220422.0,0.46993466799999994,-0.2701732075,9.790567094,-0.0024591689160600103,-0.013606586848547793,0.021186551789959165,9.805561492151009,0.025299341773520737,0.0,-0.029910282500000024,0.0011767980000012557
220432.0,0.459147353,-0.276155264,9.7977259485,0.0007382742735936014,-0.01227490062927612,0.017722073224750425,9.812365249190025,0.021570584455342635,-0.010787314999999964,-0.005982056499999999,0.007158854500000089
220442.0,0.44237798149999996,-0.2809605225,9.812141723999998,-0.003792600464583678,-0.009875072907783916,0.011594222220998332,9.826126515854614,0.015694803985010445,-0.01676937150000002,-0.004805258499999965,0.014415775499998063
220452.0,0.4543420945,-0.2809605225,9.813318522,-0.010452776890194039,-0.0061453042962720346,0.0041329396687225725,9.827847473799457,0.012810405923125727,0.011964113000000054,0.0,0.0011767980000012557
220462.0,0.43884758749999997,-0.29655309599999996,9.8312646915,-0.013650220079847652,-0.003480186528476693,0.0006684611035138282,9.84552164073272,0.014102731889537489,-0.015494507000000046,-0.015592573499999984,0.017946169500000053
220472.0,0.44836003799999996,-0.28458898299999996,9.789390295999999,-0.014451326206513048,-0.006677629718130304,0.0017348572764823635,9.80378396234532,0.01601378461043084,0.009512450499999991,0.011964112999999998,-0.041874395500000716
220482.0,0.42560861,-0.295376298,9.759381947,-0.011519173063162575,-0.01227490062927612,0.005731661263549378,9.773122624512384,0.017782476609228704,-0.022751427999999962,-0.01078731500000002,-0.030008348999999157
220492.0,0.4292370705,-0.330091839,9.717507551499999,-0.006455972903127025,-0.01573763386523287,0.007063347482821052,9.732582293426823,0.018418566270616974,0.003628460499999986,-0.034715541000000016,-0.041874395500000716
220502.0,0.4149193615,-0.37314303249999997,9.697207786,-0.0045919612619970815,-0.014405947645961197,-0.0014625859131712482,9.713250364533485,0.015190674552608377,-0.014317709000000012,-0.04305119349999997,-0.020299765499999012
220512.0,0.390893069,-0.38510714549999997,9.747417833999998,-0.005923647481268754,-0.013606586848547793,-0.02038195500478978,9.762850983984576,0.02521215768169576,-0.02402629249999999,-0.011964112999999998,0.05021004799999851
220522.0,0.3813806185,-0.3360738955,9.796549150499999,-0.013650220079847652,-0.017071065413756536,-0.03929957876715632,9.809728441581155,0.04496895233230317,-0.009512450499999991,0.04903324999999997,0.049131316500000466
220532.0,0.42325501399999993,-0.30008348999999995,9.7726209245,-0.011786208438717707,-0.02639635960716224,-0.044097488880888734,9.786384145424803,0.05272827548357363,0.04187439549999994,0.035990405500000044,-0.023928225999998887
220542.0,0.4627758135,-0.2485985775,9.7737977225,0.0031363566658338103,-0.025329963434193706,-0.03770085717232951,9.787905017246631,0.04552799591725184,0.03952079950000009,0.05148491249999995,0.0011767979999994793
220552.0,0.4376707895,-0.22712201399999998,9.7726209245,0.01992293341151527,-0.023731241839366896,-0.02650980600854187,9.785052879938881,0.04077824088369571,-0.02510502400000003,0.021476563500000018,-0.0011767979999994793
220562.0,0.44600644199999995,-0.265367949,9.7845850375,0.025518458993409092,-0.021867230198236953,-0.021980676599616587,9.798338953655911,0.0401561657746095,0.008335652499999957,-0.03824593500000001,0.011964112999999443
220572.0,0.44482964399999997,-0.3037119505,9.8061596675,0.020189968787070404,-0.018135716257473077,-0.029707249198195482,9.820940982694141,0.04023754091291038,-0.001176797999999979,-0.0383440015,0.021574629999999928
220582.0,0.4615990155,-0.2689964095,9.7845850375,0.007133160652900825,-0.017071065413756536,-0.044097488880888734,9.799160018874236,0.0478214573268209,0.01676937150000002,0.034715541000000016,-0.021574629999999928
220592.0,0.48072198299999996,-0.2223167555,9.792920689999999,-0.0045919612619970815,-0.020001473227855015,-0.04942597908722742,9.807232739429892,0.05351702951628878,0.019122967499999977,0.04667965399999999,0.008335652499999568
220602.0,0.5166143219999999,-0.20554738399999997,9.747417833999998,-0.004857251308300219,-0.02586403418530397,-0.03743556712602637,9.763262493416121,0.04575983873067937,0.03589233899999994,0.01676937150000002,-0.04550285600000059
220612.0,0.5465246045,-0.21751149699999997,9.721136012,0.0028693212902786776,-0.027462755780130774,-0.01824916265885271,9.738916046380846,0.03309785336627161,0.02991028250000005,-0.011964112999999998,-0.026281821999997845
220622.0,0.552506661,-0.242616521,9.67327956,0.01166229006182611,-0.02399827721492203,-0.002261946710584651,9.692082533316835,0.02677765340152006,0.005982056500000055,-0.02510502400000003,-0.047856452000001326
220632.0,0.5848686059999999,-0.3180296595,9.67327956,0.01752485101927506,-0.011740829878165854,0.002801253449450899,9.696161694016856,0.021279438675958506,0.03236194499999989,-0.0754131385,0.0
220642.0,0.562117178,-0.376771493,9.6672975035,0.017791886394830196,0.004246386070102204,-0.010255554684718681,9.690953178140811,0.02097044153169306,-0.02275142799999985,-0.05874183350000001,-0.0059820564999988335
220652.0,0.5584887175,-0.368337774,9.707995101,0.010597639218109568,0.017570229579826915,-0.02917492377633721,9.731020051586066,0.03566790016022985,-0.003628460500000097,0.008433719000000006,0.04069759749999946
220662.0,0.5777097514999999,-0.32283491799999997,9.7414357775,0.004468042885105484,0.021032962815783665,-0.03956661414271145,9.763889693580898,0.04503183192755424,0.01922103399999997,0.045502856000000036,0.03344067649999971
220672.0,0.6052664379999999,-0.24987344199999997,9.7834082395,0.008998917623282763,0.021299998191338796,-0.03210533159043569,9.805297597661308,0.03956542376714159,0.027556686499999983,0.072961476,0.04197246200000038
220682.0,0.5788865495,-0.21388303649999998,9.800079544499999,0.018856537238546738,0.018634880423543457,-0.01265363707695889,9.81949156876372,0.029375879498388668,-0.02637988849999995,0.03599040549999999,0.016671304999999137
220692.0,0.575258089,-0.2570322965,9.780956577,0.026052529744519357,0.01144063324682283,0.006531022060962781,9.801229465305031,0.02919377749346864,-0.003628460499999986,-0.043149259999999995,-0.019122967499999532
220702.0,0.527401637,-0.333622233,9.789390295999999,0.0279165413856493,0.006911503837897545,0.014259339988793671,9.809261880920559,0.03210032624684604,-0.047856451999999994,-0.07658993650000001,0.008433718999999229
220712.0,0.5465246045,-0.4078585735,9.7749745205,0.02845061213675957,0.01037598240310629,0.001467821900927231,9.798732807650465,0.030319182754796406,0.019122967499999977,-0.0742363405,-0.014415775499998063
220722.0,0.563293976,-0.4198226865,9.777426183,0.02365444735227915,0.015172147187586705,-0.021980676599616587,9.802633011365462,0.03567740284270245,0.01676937150000002,-0.011964112999999998,0.002451662499998619
220732.0,0.5584887175,-0.32283491799999997,9.825282634999999,0.01752485101927506,0.014372786390173304,-0.03716853175047124,9.84643645637788,0.04353386204268036,-0.00480525850000002,0.09698776850000002,0.04785645199999955
220742.0,0.575258089,-0.26419115099999996,9.834893152,0.018057176441133332,0.011974703997933095,-0.030506609995608888,9.855244398008763,0.03741802253311256,0.01676937150000002,0.05864376700000001,0.009610517000000485
220752.0,0.570550897,-0.21868829499999998,9.905501032,0.021788690381897208,0.012239994044236233,-0.009990264638415543,9.924328873601004,0.026914120277406327,-0.004707192000000027,0.04550285599999998,0.07060788000000073
220762.0,0.563293976,-0.240262925,9.912659886499998,0.02232101580375548,0.012774064795346499,0.007063347482821052,9.93155840751861,0.026670121026539928,-0.007256920999999972,-0.02157463000000001,0.007158854499998313
220772.0,0.5465246045,-0.3180296595,9.9354113145,0.017791886394830196,0.009841911651996023,0.00839677903134472,9.955512543105964,0.02199818957445065,-0.01676937150000002,-0.07776673450000002,0.022751428000001184
220782.0,0.5777097514999999,-0.37794829099999994,9.9258007975,0.01166229006182611,0.005845107664929009,-0.004927064478379992,9.949779642750872,0.013944542211019113,0.03118514699999997,-0.05991863149999993,-0.009610516999998708
220792.0,0.575258089,-0.3743198305,9.953357484,0.009531243045141035,0.003979350694547071,-0.016118115642167634,9.976991651232565,0.019143497010474093,-0.0024516624999999515,0.0036284604999999304,0.02755668649999876
220802.0,0.5812401455,-0.3037119505,9.932959652,0.011929325437381242,-0.002415535684760152,-0.016917476439581036,9.954585300447093,0.020840936330191125,0.005982056500000055,0.07060788000000001,-0.02039783200000045
220812.0,0.5968327189999999,-0.2713500055,9.919818741,0.01432740782962145,-0.006412339671827167,-0.0070581114950650685,9.941460857150151,0.017210742373876736,0.015592573499999873,0.032361945,-0.013140910999998923
220822.0,0.5800633475,-0.253403836,9.940216572999999,0.007665486074759095,-0.01067443370519732,0.008662069077647858,9.960351023400545,0.015739588698403823,-0.016769371499999908,0.017946169499999998,0.020397831999998672
220832.0,0.575258089,-0.3144992655,9.904324233999999,-0.0045919612619970815,-0.014938273067819467,0.016123351629923614,9.925999707291938,0.022454411109236037,-0.00480525850000002,-0.06109542950000002,-0.035892339000000106
220842.0,0.5800633475,-0.38393034749999994,9.8887316605,-0.014184290830957916,-0.013873622224102926,0.012126547642856601,9.913167498444654,0.02325348700149701,0.00480525850000002,-0.06943108199999992,-0.015592573499999318
220852.0,0.5561351215,-0.392266,9.874315884999998,-0.01684940859875326,-0.010941469080752452,0.004399975044277704,9.89774080711781,0.020566431293811496,-0.023928225999999997,-0.008335652500000068,-0.014415775500001615
220862.0,0.572904493,-0.388735606,9.825282634999999,-0.012850859282434247,-0.009342747485925645,-0.0017296212887263805,9.849645363519658,0.015981961853449404,0.01676937150000002,0.0035303939999999923,-0.04903324999999903
220872.0,0.5549583235,-0.3407810875,9.858821378,-0.009388126046477499,-0.008011061266653973,-0.0017296212887263805,9.880307153815078,0.012462166869571611,-0.017946169500000053,0.04795451849999999,0.03353874300000115
220882.0,0.5345604915,-0.331268637,9.882749603999999,-0.008854055295367234,-0.008543386688512244,0.002534218073895766,9.902738690094509,0.012562086312747923,-0.020397832000000005,0.009512450500000047,0.023928225999998887
220892.0,0.527401637,-0.3527452005,9.90667783,-0.015783012425784722,-0.011473794502610723,0.005199335841691108,9.926975737383444,0.0201936756118174,-0.007158854499999978,-0.021476563500000045,0.023928226000000663
220902.0,0.5262248389999999,-0.33479903099999997,9.894713717,-0.021645573383233675,-0.011208504456307585,0.005199335841691108,9.914351341047334,0.0249237740406768,-0.0011767980000000344,0.017946169500000053,-0.011964112999999443
220912.0,0.528578435,-0.30253515249999996,9.8851032,-0.024843016572887285,-0.011473794502610723,0.002267182698340634,9.903847129024937,0.027458396714239296,0.002353596000000069,0.03226387850000001,-0.009610517000000485
220922.0,0.5250480409999999,-0.28811937699999995,9.8910852565,-0.02670702821401723,-0.010941469080752452,0.0006684611035138282,9.909200561705898,0.02886915208169934,-0.0035303940000001033,0.014415775500000005,0.00598205650000061
220932.0,0.5202427825,-0.286942579,9.898244110999999,-0.029372145981812574,-0.010142108283339049,0.0041329396687225725,9.916058948863336,0.03134751202748288,-0.004805258499999909,0.001176797999999979,0.007158854499998313
220942.0,0.502296613,-0.295376298,9.9030493695,-0.03390302071998985,-0.013873622224102926,0.008129743655789588,9.920178217129257,0.03752312539576141,-0.017946169500000053,-0.008433719000000006,0.0048052585000011305
220952.0,0.4843504435,-0.307340411,9.892262054499998,-0.038165114753360006,-0.017603390835614807,0.010527826048029796,9.908879958666006,0.043327710236592466,-0.017946169499999942,-0.011964112999999998,-0.01078731500000174
220962.0,0.5225963785,-0.3276401765,9.814495319999999,-0.03949854630188367,-0.02080083402526842,0.010260790672474663,9.83385852279664,0.04580495258520804,0.03824593499999995,-0.02029976550000001,-0.07776673449999905
220972.0,0.5237731765,-0.31685286149999997,9.804884803,-0.03923151092632854,-0.021867230198236953,0.009995500626171525,9.823975777472274,0.04601301162576861,0.0011767980000000344,0.01078731500000002,-0.009610516999998708
220982.0,0.5441710085,-0.28458898299999996,9.808513263499998,-0.04083023252115534,-0.02080083402526842,0.010260790672474663,9.82771822021736,0.04695813464249532,0.020397832000000005,0.03226387850000001,0.0036284604999980985
220992.0,0.552506661,-0.263014353,9.810866859499999,-0.04775744432232084,-0.017071065413756536,0.012925908440270006,9.829931266044985,0.052338072868291334,0.008335652500000013,0.021574629999999984,0.002353596000000735
221002.0,0.5549583235,-0.25105024,9.794097488,-0.05708448384497854,-0.014405947645961197,0.018521434022163823,9.813019441959437,0.06171882323621504,0.0024516624999999515,0.011964112999999998,-0.016769371499998798
221012.0,0.5657456384999999,-0.26066075699999997,9.792920689999999,-0.06401169564614403,-0.011208504456307585,0.02438399497961278,9.812711541584806,0.06940970366459882,0.010787314999999964,-0.009610516999999985,-0.0011767980000012557
221022.0,0.5561351215,-0.286942579,9.7834082395,-0.06507809181911256,-0.009609782861480778,0.028380798966679794,9.803402424552687,0.07164478844583706,-0.00961051699999993,-0.02628182200000001,-0.009512450499999048
221032.0,0.5429942105,-0.298906692,9.801354409,-0.062412974051317224,-0.006412339671827167,0.028647834342234925,9.820933569370208,0.06897242813253293,-0.013140911000000033,-0.011964112999999998,0.017946169500000053
221042.0,0.502296613,-0.345586346,9.801354409,-0.06374640559984089,-0.009075712110370514,0.023317598806644243,9.820299387533796,0.06848126160722633,-0.040697597500000016,-0.046679654000000015,0.0
221052.0,0.456793757,-0.392266,9.796549150499999,-0.07040832735470325,-0.009609782861480778,0.007330382858376184,9.815034814474803,0.07143819006933363,-0.045502855999999925,-0.046679654000000015,-0.0048052585000011305
221062.0,0.44237798149999996,-0.4317867995,9.810866859499999,-0.08266402936220743,-0.016004669240788003,-0.01531875484475423,9.830322815328795,0.08558127971639942,-0.014415775500000061,-0.03952079949999998,0.014317709000000178
221072.0,0.41246769899999997,-0.415017428,9.7641872055,-0.08986002186818005,-0.02799508120198905,-0.03317172776340423,9.781703371719672,0.09979434665583597,-0.029910282499999996,0.016769371499999963,-0.046679653999998294
221082.0,0.408937305,-0.3947176625,9.6612173805,-0.08426449628628624,-0.043717007103953966,-0.045162139724605276,9.677920904088099,0.10512516781919294,-0.0035303939999999923,0.02029976550000001,-0.10296982500000063
221092.0,0.46640427399999995,-0.34323275000000003,9.618166187,-0.056552158423120266,-0.05730614065998181,-0.04649557127312894,9.635583141057324,0.0929729989172659,0.05746696899999998,0.05148491249999998,-0.043051193500000196
221102.0,0.5345604915,-0.357550459,9.5906095005,-0.016582373223198124,-0.04957956806140292,-0.02757620218151041,9.612147930659654,0.05910630759592636,0.0681562175,-0.014317708999999956,-0.027556686500000538
221112.0,0.575258089,-0.3407810875,9.591786298499999,0.012995721610349778,-0.027728045826433914,-0.00466002910282486,9.615062039043218,0.030974976622520738,0.040697597500000016,0.016769371499999963,0.0011767979999994793
221122.0,0.5669224365,-0.35882532349999996,9.6588637845,0.023120376601168884,-0.0061453042962720346,0.007330382858376184,9.68213851735853,0.025021013007550923,-0.008335652500000013,-0.018044235999999936,0.06707748600000052
221132.0,0.5561351215,-0.40668177549999995,9.7259412705,0.014060372454066319,0.0007819075048934596,0.004932300466135976,9.750313325073446,0.014920892760874625,-0.010787314999999964,-0.047856451999999994,0.06707748600000052
221142.0,0.572904493,-0.40423011299999995,9.768992464,0.00020420352248333657,0.001048942880448592,-0.005993460651348527,9.79412248769865,0.006087984134695286,0.01676937150000002,0.002451662500000007,0.043051193500000196
221152.0,0.5812401455,-0.3360738955,9.7606568115,-0.0029932396671702756,0.0031799898971336684,-0.013987068625482556,9.783721539468443,0.01465298291082578,0.008335652500000013,0.06815621749999995,-0.008335652499999568
221162.0,0.5584887175,-0.319304524,9.782133375,0.0018029251173101424,0.005312782243070739,-0.019582594207376378,9.803264680345551,0.02037042439498221,-0.022751428000000073,0.01676937150000002,0.021476563500000267
221172.0,0.5381889519999999,-0.355196863,9.7881154315,0.005801474433629151,0.0021153390534171274,-0.0251781197892702,9.809333099650981,0.02592430290360387,-0.02029976550000001,-0.035892338999999995,0.0059820564999988335
221182.0,0.551329863,-0.3527452005,9.803708004999999,0.010862929264412706,-0.003214896482173555,-0.02864259835447894,9.825532272686933,0.03080157840258719,0.013140911000000033,0.0024516624999999515,0.015592573499999318
221192.0,0.5310300975,-0.3635325155,9.807336465499999,0.016992525597416794,-0.01067443370519732,-0.032639402341545956,9.828428022924248,0.0383147497227743,-0.02029976550000001,-0.010787314999999964,0.003628460499999875
221202.0,0.5177911199999999,-0.38510714549999997,9.780956577,0.02365444735227915,-0.022132520244540092,-0.0345034139826759,9.802220499388165,0.04732723220701415,-0.013238977500000026,-0.021574629999999984,-0.026379888499999282
221212.0,0.540542548,-0.4078585735,9.7630104075,0.029515262980476107,-0.027462755780130774,-0.036102135577502706,9.786465504927154,0.054117630187418185,0.022751428000000073,-0.022751428000000018,-0.017946169500000053
221222.0,0.5465246045,-0.42462794499999995,9.698384584,0.03351206696754312,-0.02639635960716224,-0.03876725334529805,9.723047957002354,0.057643094685194025,0.005982056499999944,-0.016769371499999963,-0.06462582350000012
221232.0,0.551329863,-0.41384063,9.6912257295,0.03138101995085805,-0.016536994662646274,-0.042231731910506796,9.715713294709616,0.05515215123446646,0.00480525850000002,0.010787314999999964,-0.007158854500000089
221242.0,0.5549583235,-0.411487034,9.6361123565,0.025253168947105956,-0.00214850030920502,-0.044362778927191863,9.660846840058278,0.0510920223674169,0.003628460499999986,0.0023535960000000133,-0.0551133729999993
221252.0,0.56094038,-0.401876517,9.668474301499998,0.020989329584483806,0.012507029419791366,-0.045961500522018674,9.69306732482533,0.05205225520137564,0.005982056500000055,0.009610516999999985,0.032361944999998116
221262.0,0.5657456384999999,-0.388735606,9.7390821815,0.01992293341151527,0.02769488457064602,-0.047560222116845484,9.763242557514628,0.05853122786090137,0.004805258499999909,0.013140910999999977,0.07060788000000251
221272.0,0.551329863,-0.426981541,9.810866859499999,0.018591247192243598,0.033025120106236705,-0.053955108496152704,9.83561825148911,0.06593517091072165,-0.01441577549999995,-0.03824593500000001,0.07178467799999844
