timestamp,ax,ay,az,gx,gy,gz,acc_mag,gyro_mag,dax,day,daz
61652.0,0.933396947,-0.9734080789999999,10.5875535395,-0.01807986572140926,-0.1185602160879748,0.20599073963737877,10.673099039206484,0.23836021312225292,0.0,0.0,0.0
61662.0,0.9093706545,-0.34019268849999995,9.758009015999999,-0.037798595610441195,-0.14600726390483765,0.20972050824889063,9.806193247581444,0.2583206273669828,-0.02402629249999999,0.6332153905,-0.829544523500001
61672.0,1.053038077,-0.9172159744999999,9.8824554045,-0.05645092932650459,-0.12762022023507738,0.20652306505923704,9.980636210053,0.2492496829208365,0.14366742250000009,-0.577023286,0.12444638850000089
61682.0,0.9920407139999999,-0.9398693359999999,9.8585271785,-0.045792203584575225,-0.12655556939136084,0.21078690442185916,9.952791431362856,0.25008869852284954,-0.06099736300000014,-0.02265336149999997,-0.023928226000000663
61692.0,0.92378643,-0.9662492245000001,9.7987066135,-0.030337313058165435,-0.12895365178360102,0.21158626521927257,9.889472697244663,0.24963602404572083,-0.06825428399999989,-0.02637988850000017,-0.05982056499999899
61702.0,0.94536106,-1.041662363,9.808219064,-0.020744983489204602,-0.1262885340158057,0.20545666888626848,9.908578567063396,0.24205699938995867,0.021574629999999928,-0.07541313849999987,0.009512450499999048
61712.0,0.9776249385,-0.9997879675,9.850191526,-0.014083061734342244,-0.11989364763649847,0.20385794729144166,9.94894967316737,0.23691956872592512,0.03226387850000001,0.04187439549999994,0.04197246200000038
61722.0,0.9513431164999999,-0.9459494589999999,9.864509235,-0.012217304763960306,-0.116961494493148,0.2041249826669968,9.955321017008673,0.23557644678228748,-0.026281822000000066,0.05383850850000005,0.014317709000000178
61732.0,0.94536106,-0.9614439659999999,9.875296549999998,-0.01834690109696439,-0.11882725146352995,0.20519137883996535,9.966923496443824,0.23782351948553143,-0.005982056499999944,-0.01549450699999999,0.010787314999998188
61742.0,0.9513431164999999,-0.9494798529999999,9.898047978,-0.025274112898129884,-0.12149236923132528,0.20519137883996535,9.988889802743582,0.2397971611893566,0.005982056499999944,0.011964112999999998,0.022751428000001184
61752.0,0.9596787689999999,-0.9411442004999999,9.876473348,-0.03593283864005926,-0.12362341624801036,0.20545666888626848,9.967520330531483,0.24245898772246643,0.008335652500000013,0.008335652500000013,-0.021574629999999928
61762.0,0.9776249385,-0.9554619095,9.8789250105,-0.041263074175649936,-0.1254891732183923,0.20599073963737877,9.973054564373191,0.24470872216129777,0.017946169500000053,-0.014317709000000067,0.0024516625000003955
61772.0,0.9716428819999999,-0.9866470565,9.856173582499999,-0.04312708581677988,-0.12602149864025058,0.2033256218695834,9.9529754341409,0.2430692744038937,-0.005982056500000055,-0.03118514699999997,-0.022751428000001184
61782.0,0.9440861954999998,-0.950656651,9.887260662999998,-0.041263074175649936,-0.12389045162356549,0.20305858649402828,9.977623476095465,0.24142136368364125,-0.027556686500000094,0.03599040549999999,0.031087080499998976
61792.0,0.935750543,-0.9446745944999999,9.888437460999999,-0.0385979564078546,-0.12282405545059695,0.2033256218695834,9.977436273328266,0.24065921828354458,-0.00833565249999979,0.005982056500000055,0.0011767980000012557
61802.0,0.9417325995,-0.9650724264999999,9.870491291499999,-0.03513347784264585,-0.12309109082615209,0.20145986489920148,9.962169613740219,0.23868777738144914,0.005982056499999944,-0.020397832000000005,-0.017946169500000053
61812.0,0.9585019709999999,-0.9913542485,9.874119751999999,-0.032735395450405644,-0.12335638087245522,0.20199393565031173,9.969942334400255,0.23893503898915067,0.016769371499999908,-0.026281822000000066,0.003628460499999875
61822.0,0.9681124879999999,-0.9698776849999999,9.852545122,-0.03300243082596078,-0.12335638087245522,0.2041249826669968,9.947389099373186,0.24077575810528418,0.00961051700000004,0.021476563500000045,-0.02157462999999815
61832.0,0.9776249385,-0.9531083134999999,9.809493928499998,-0.03247010540410251,-0.12442277704542376,0.20652306505923704,9.904056598733584,0.24328401425928217,0.009512450500000047,0.01676937150000002,-0.04305119350000197
61842.0,0.9585019709999999,-0.9554619095,9.797529815499999,-0.03220307002854737,-0.12495684779653403,0.20785649660776068,9.890562368972136,0.2446539897744603,-0.019122967500000088,-0.002353596000000069,-0.011964112999999443
61852.0,0.9393790034999999,-0.9770365394999999,9.7747783875,-0.03140370923113397,-0.1286866164080459,0.2070553904810953,9.868299034609352,0.2458014908890994,-0.019122967499999977,-0.021574629999999928,-0.022751427999999407
61862.0,0.9321220825,-1.0081236199999999,9.795078153,-0.02820626604148036,-0.13374981656808144,0.2017269002747566,9.890840249102395,0.24367673087609287,-0.007256920999999972,-0.031087080499999975,0.020299765500000788
61872.0,0.935750543,-0.9758597415,9.796254951,-0.022343705084031405,-0.13907830677442015,0.19959585325807153,9.889112315005692,0.24429597051515098,0.003628460500000097,0.0322638784999999,0.0011767979999994793
61882.0,0.9548735104999999,-0.9913542485,9.8334221545,-0.01514945790731078,-0.14813831092152271,0.1977300962876896,9.929287886635425,0.24753112171100045,0.019122967499999866,-0.01549450699999999,0.037167203499999246
61892.0,0.9681124879999999,-0.9878238545,9.842934605,-0.00955393232541696,-0.15400087187897168,0.19932881788251638,9.939637789942212,0.25207047387745257,0.013238977500000026,0.0035303939999999923,0.009512450500000824
61902.0,1.014792142,-0.9818417979999999,9.907658495,-0.006621779182066486,-0.15559959347379848,0.19986114330437466,10.007772642367057,0.2533763170694514,0.04667965399999996,0.005982056500000055,0.06472388999999978
61912.0,1.0315615135,-0.9901774505,9.912365687,-0.009819222371720098,-0.15400087187897168,0.2009275394773432,10.014967002063864,0.25334672247315154,0.01676937150000013,-0.008335652500000013,0.004707191999999694
61922.0,1.041073964,-0.9890006524999999,9.920799406,-0.015416493282865913,-0.14760598549966444,0.20225922569661486,10.0241816695057,0.2508664776327479,0.009512450499999936,0.0011767980000000344,0.008433719000001005
61932.0,1.0578433354999999,-1.0153805409999999,9.895694381999999,-0.021012018864759733,-0.14254278533962889,0.2033256218695834,10.003739174301254,0.24920124216746062,0.016769371499999908,-0.02637988849999995,-0.02510502400000192
61942.0,1.0566665375,-1.0033183614999999,9.929135058499998,-0.02607347369554329,-0.13588086358476653,0.20385794729144166,10.035482794361666,0.24637673955342115,-0.0011767979999999234,0.012062179499999992,0.03344067649999971
61952.0,1.0422507619999999,-1.018910935,9.913640551499999,-0.03113667385557884,-0.12442277704542376,0.20385794729144166,10.020216321452216,0.24084970952933307,-0.014415775500000061,-0.015592573500000206,-0.015494506999999658
61962.0,1.054214875,-1.030875048,9.935117114999999,-0.034868187796342716,-0.1153627728983212,0.20599073963737877,10.043934709864763,0.23865570327847818,0.01196411300000011,-0.011964112999999887,0.021476563500000267
61972.0,1.0422507619999999,-1.039308767,9.991407286,-0.03619987401561439,-0.10390468635897841,0.20812178665406383,10.09924100706516,0.23541727380586092,-0.01196411300000011,-0.008433719000000117,0.056290171000000555
61982.0,1.0350919075,-1.040485565,10.001017802999998,-0.03406882699892931,-0.09697747455781293,0.2131849868140994,10.108134474959673,0.23667098290162647,-0.007158854499999867,-0.0011767979999999234,0.009610516999998708
61992.0,0.9932175119999999,-1.0237161934999999,10.0093534555,-0.034868187796342716,-0.09617811376039953,0.21611539462819787,10.110471426600611,0.2391064279395497,-0.04187439550000016,0.01676937150000013,0.008335652500001345
62002.0,0.9872354554999999,-0.9782133375,10.006999859499999,-0.03726627018858293,-0.09537875296298613,0.2187805123959932,10.103048122536691,0.2415590901100518,-0.005982056499999944,0.045502855999999925,-0.002353596000000735
62012.0,0.936927341,-0.935162144,9.990230488,-0.04392644661419329,-0.09404706674371444,0.2195798731934066,10.07755259382201,0.24287796150922952,-0.050308114499999945,0.04305119349999997,-0.016769371499998798
62022.0,0.9440861954999998,-0.9195695705,9.932763519,-0.05431988230981952,-0.09058258817850572,0.21904754777154833,10.01981527094689,0.24318240701168775,0.007158854499999867,0.015592573499999984,-0.057466969000000034
62032.0,0.9226096319999999,-0.9195695705,9.8789250105,-0.0641775019250835,-0.08871683120812376,0.21505074378448133,9.96443556309795,0.24132188109496713,-0.021476563499999934,0.0,-0.05383850850000016
62042.0,0.9033885979999999,-0.8991717384999999,9.821458041499998,-0.06924070208511904,-0.09218130977333251,0.21158626521927257,9.903820416145402,0.24095729149832268,-0.01922103399999997,0.020397832000000116,-0.05746696900000181
62052.0,0.8711247195,-0.8812255689999999,9.7902728945,-0.06764198049029224,-0.09804387073078145,0.2086558574051741,9.868376772760794,0.2402609101414785,-0.0322638784999999,0.017946169499999942,-0.031185146999998636
62062.0,0.8842656305,-0.8956413444999999,9.7208418125,-0.06231349028395355,-0.10683683950232889,0.20199393565031173,9.801982690604468,0.23685149648190326,0.013140910999999922,-0.01441577549999995,-0.06943108199999948
62072.0,0.8759299779999999,-0.902800199,9.6753389565,-0.05405284693426438,-0.11376405130349439,0.19586433931730768,9.756766136832429,0.23286650477663928,-0.008335652500000013,-0.007158854500000089,-0.04550285600000059
62082.0,0.889070889,-0.9398693359999999,9.6753389565,-0.043661156567890144,-0.11882725146352995,0.19133520990838238,9.761454058570722,0.22942400666431476,0.013140911000000033,-0.03706913699999992,0.0
62092.0,0.8674962589999999,-0.996159507,9.680144214999999,-0.03140370923113397,-0.12362341624801036,0.18946945293800044,9.769855451641208,0.22840231083534948,-0.02157463000000004,-0.05629017100000011,0.004805258499999354
62102.0,0.8734783154999999,-0.9973363049999999,9.692108328,-0.021544344286618004,-0.12682085943766397,0.1884030567650319,9.782362082575288,0.22813022806646183,0.005982056499999944,-0.0011767979999999234,0.01196411300000122
62112.0,0.8782835739999999,-1.028521452,9.6957367885,-0.01301666556137371,-0.12762022023507738,0.18707137054576023,9.789614409436906,0.22683044741183983,0.00480525850000002,-0.03118514699999997,0.003628460499999875
62122.0,0.9033885979999999,-1.0607853305,9.740062846499999,-0.00955393232541696,-0.130817663424731,0.18707137054576023,9.83921748566267,0.2284737104453245,0.02510502400000003,-0.03226387850000001,0.044326057999999335
62132.0,0.9285916885,-1.0763779039999999,9.807042266,-0.008487536152448424,-0.1326834203951129,0.18946945293800044,9.909538330481453,0.23146404021858458,0.025203090500000025,-0.015592573499999984,0.06697941950000086
62142.0,0.935750543,-1.0787315,9.851368324,-0.006888814557621619,-0.1326834203951129,0.19506497851989424,9.954333156114858,0.23601417681724624,0.007158854500000089,-0.002353596000000069,0.044326057999999335
62152.0,0.9548735104999999,-1.1110934449999998,9.884907067,-0.005822418384653084,-0.130817663424731,0.19879649246065811,9.992882456418824,0.238048749281345,0.019122967499999866,-0.03236194499999989,0.03353874300000115
62162.0,0.982430197,-1.1039345905,9.930409923000001,-0.00449073216538141,-0.12975301258101446,0.2033256218695834,10.03976503265374,0.24124120597004753,0.027556686500000094,0.007158854499999867,0.04550285600000059
62172.0,0.9872354554999999,-1.0763779039999999,9.985425229499999,-0.003691371367968007,-0.12815429098618764,0.20679010043479215,10.091676780929461,0.2433090507124224,0.004805258499999909,0.027556686500000094,0.05501530649999786
62182.0,1.026756255,-1.0715726455,10.026122827,-0.0047577675409365425,-0.12602149864025058,0.20812178665406383,10.1353655722848,0.24334899332355564,0.03952079950000009,0.004805258499999798,0.04069759750000124
62192.0,1.051861279,-1.0452908235,10.006999859499999,-0.007955210730590153,-0.12229173002873868,0.21051986904630404,10.116278527402546,0.2435922163667448,0.02510502399999992,0.026281822000000066,-0.01912296750000131
62202.0,1.0769663029999998,-1.0009647654999998,9.980619971,-0.01807986572140926,-0.11483044747646293,0.21211859064113084,10.088337914894305,0.24188263622618414,0.02510502399999992,0.044326058000000224,-0.026379888499999282
62212.0,1.062648594,-0.984195394,9.941099171500001,-0.03220307002854737,-0.10630276875121863,0.21238562601668595,10.046059692511239,0.23967680426344595,-0.014317708999999956,0.016769371499999797,-0.039520799499998205
62222.0,1.0422507619999999,-0.9542851114999998,9.887260662999998,-0.042861795770476746,-0.10124131392043507,0.21451667303337107,9.987735986850439,0.2410484187675007,-0.020397832000000005,0.029910282500000163,-0.05383850850000371
62232.0,1.006358423,-0.962620764,9.854898718,-0.04685859975754376,-0.10630276875121863,0.2139843476115128,9.952809892330157,0.24348574504093148,-0.035892338999999884,-0.008335652500000124,-0.032361944999998116
62242.0,1.0159689399999998,-0.9459494589999999,9.784290838,-0.04472580741160669,-0.11829492604167167,0.2131849868140994,9.882275065418785,0.24787481917038776,0.009610516999999819,0.016671305000000025,-0.07060787999999896
62252.0,0.9728196799999999,-0.9542851114999998,9.7424164425,-0.039397317205268,-0.12575620859394743,0.21025457900000089,9.837261628264251,0.24814060649834105,-0.04314925999999997,-0.008335652499999902,-0.041874395500000716
62262.0,0.948891454,-0.9363389419999999,9.7328059255,-0.03247010540410251,-0.12762022023507738,0.20599073963737877,9.823677355717043,0.24448601836129105,-0.023928225999999886,0.017946169499999942,-0.009610517000000485
62272.0,0.933396947,-0.9446745944999999,9.724470273,-0.02341010125699994,-0.1270878948132191,0.19959585325807153,9.814731888371854,0.23777693430342747,-0.01549450699999999,-0.008335652500000013,-0.008335652499999568
62282.0,0.901035002,-0.9398693359999999,9.7520269595,-0.01301666556137371,-0.1278872556106325,0.19479968847359108,9.83855925745213,0.2333913073774686,-0.032361945,0.00480525850000002,0.027556686500000538
62292.0,0.8962297435,-0.9398693359999999,9.7567341515,-0.0050230575872396805,-0.13028533800287273,0.19373329230062256,9.84278636489351,0.2335210674686247,-0.00480525850000002,0.0,0.004707191999999694
62302.0,0.8974065414999999,-0.950656651,9.7879192985,0.0005724679946541401,-0.13295045577066805,0.19213457070579576,9.874839277819476,0.23364897746306038,0.0011767979999999234,-0.010787315000000075,0.031185147000000413
62312.0,0.8950529455,-0.9818417979999999,9.8226348395,0.002171189589480946,-0.13108469880028611,0.19186753533024065,9.91207789929575,0.23238128891435375,-0.002353595999999847,-0.03118514699999997,0.03471554099999885
62322.0,0.9081938565,-0.9853721919999999,9.872942954,0.0027035150113392165,-0.12841958103249076,0.19373329230062256,9.963472136293126,0.2324467386986005,0.013140910999999922,-0.0035303939999999923,0.05030811450000172
62332.0,0.8926993495,-0.9745848769999998,9.931586720999999,0.0019041542139258136,-0.12522213784283714,0.1977300962876896,10.01913881567764,0.23405426846596905,-0.01549450699999999,0.010787315000000075,0.05864376699999774
62342.0,0.9058402604999999,-0.980665,9.944727632000001,0.0003054326190990077,-0.12362341624801036,0.19986114330437466,10.033935324409464,0.23500493385638827,0.013140910999999922,-0.006080123000000159,0.013140911000002475
62352.0,0.8938761474999999,-0.9818417979999999,9.948356092500001,-0.0023596851486963333,-0.12389045162356549,0.20279329644772512,10.036573958605157,0.2376542303465834,-0.011964112999999998,-0.0011767979999999234,0.003628460499999875
62362.0,0.9118223169999998,-0.9698776849999999,9.9387455755,-0.0047577675409365425,-0.12735493018877422,0.20652306505923704,10.027499502675681,0.24268022374479342,0.017946169499999942,0.011964112999999998,-0.009610517000000485
62372.0,0.9189811714999999,-0.9782133375,9.9614970035,-0.006888814557621619,-0.13001830262731756,0.2094552182025875,10.051509850662928,0.2466246200532128,0.007158854500000089,-0.008335652500000013,0.022751427999999407
62382.0,0.9178043735,-0.9579135719999999,9.924329799999999,-0.009019861574306696,-0.13028533800287273,0.2110539397974143,10.0126063169689,0.2481922494868706,-0.0011767979999999234,0.02029976550000001,-0.03716720350000102
62392.0,0.933396947,-0.9650724264999999,9.908835293000001,-0.014083061734342244,-0.12841958103249076,0.21158626521927257,9.99938055645758,0.24790859010896357,0.015592573499999984,-0.007158854499999978,-0.015494506999997881
62402.0,0.9393790034999999,-0.9579135719999999,9.9016764385,-0.017280504923995858,-0.12815429098618764,0.21211859064113084,9.99215830621115,0.24842792645791723,0.005982056499999944,0.007158854499999978,-0.0071588545000018655
62412.0,0.9440861954999998,-0.9315336835,9.876473348,-0.020212658067346328,-0.12921894182990418,0.21211859064113084,9.965128174879792,0.24919948428792396,0.004707191999999916,0.02637988849999995,-0.025203090499999803
62422.0,0.9417325995,-0.9494798529999999,9.860978841,-0.01941329726993293,-0.1262885340158057,0.20785649660776068,9.951244946380509,0.24398769050262378,-0.002353595999999847,-0.017946169499999942,-0.015494506999999658
62432.0,0.9621304315,-0.9662492245000001,9.853721919999998,-0.014350097109897379,-0.12335638087245522,0.20279329644772512,9.947621233629357,0.237797903845153,0.020397832000000005,-0.01676937150000013,-0.007256921000001526
62442.0,0.9776249385,-0.95909037,9.844209469499999,-0.011684979342102036,-0.12309109082615209,0.2001281786799298,9.939017302409596,0.2352429452390513,0.01549450699999999,0.007158854500000089,-0.009512450499999048
62452.0,0.982430197,-0.9315336835,9.850191526,-0.008220500776893291,-0.1262885340158057,0.19906178250696127,9.942796246245557,0.2358854885569118,0.00480525850000002,0.027556686499999983,0.00598205650000061
62462.0,0.9644840275000001,-0.925551627,9.817829580999998,-0.010086257747275229,-0.130817663424731,0.19799713166324473,9.908413240025043,0.23752443622946026,-0.017946169499999942,0.005982056499999944,-0.03236194500000167
62472.0,0.9633072294999999,-0.950656651,9.8345989525,-0.014083061734342244,-0.13215109497325464,0.19932881788251638,9.927287919820378,0.23957091261020158,-0.0011767980000001454,-0.02510502399999992,0.01676937150000235
62482.0,0.970466084,-0.9459494589999999,9.838227413,-0.017015214877692718,-0.13534853816290826,0.19906178250696127,9.931130017731183,0.24131791805628328,0.007158854500000089,0.004707192000000027,0.003628460499999875
62492.0,0.957325173,-0.9638956285,9.8334221545,-0.01781457567510612,-0.1324163850195578,0.19959585325807153,9.926820112106006,0.2401873493045574,-0.013140911000000033,-0.017946169500000053,-0.0048052585000011305
62502.0,0.9525199144999998,-0.984195394,9.842934605,-0.011952014717657168,-0.12655556939136084,0.2009275394773432,9.937771198784787,0.23776256837484314,-0.004805258500000131,-0.02029976550000001,0.009512450500000824
62512.0,0.948891454,-0.9758597415,9.840581009,-0.005557128338349946,-0.12095829848021501,0.20199393565031173,9.934270573184834,0.23550656399790634,-0.003628460499999875,0.008335652500000013,-0.002353596000000735
62522.0,0.9429093974999999,-0.962620764,9.874119751999999,0.0011047934165124105,-0.11669620444684486,0.2041249826669968,9.965638852778795,0.23513024741533092,-0.005982056500000055,0.013238977500000026,0.03353874299999937
62532.0,0.9381041389999999,-0.9542851114999998,9.890889123500001,0.005368632779134557,-0.11296469050608099,0.20732242585665042,9.981001307634926,0.23616187622505494,-0.00480525850000002,0.008335652500000124,0.01676937150000235
62542.0,0.9226096319999999,-0.9494798529999999,9.905206832499998,0.005635668154689691,-0.11269940045977785,0.2094552182025875,9.99328989467016,0.23791680069267218,-0.01549450699999999,0.004805258499999909,0.014317708999996626
62552.0,0.9118223169999998,-0.9207463684999999,9.905206832499998,0.002171189589480946,-0.11269940045977785,0.21185330059482768,9.989610413198797,0.23997435259033256,-0.010787315000000075,0.028733484500000017,0.0
62562.0,0.912999115,-0.9016234009999999,9.888437460999999,-0.002092649773141201,-0.11429812205460466,0.21185330059482768,9.971343317794734,0.24072860416079503,0.0011767980000001454,0.019122967499999977,-0.016769371499998798
62572.0,0.933396947,-0.8968181425,9.8789250105,-0.00955393232541696,-0.116961494493148,0.20892114745147722,9.963366499555685,0.2396232765600855,0.020397832000000005,0.004805258499999909,-0.009512450499999048
62582.0,0.9776249385,-0.8968181425,9.906383630499999,-0.012217304763960306,-0.12095829848021501,0.20652306505923704,9.994822156283353,0.23964963782235543,0.04422799150000001,0.0,0.0274586199999991
62592.0,0.9764481405,-0.9087822555,9.927958260499999,-0.014882422531755648,-0.12255702007504182,0.20545666888626848,10.017169828910147,0.23969595837212124,-0.0011767980000000344,-0.011964112999999998,0.021574629999999928
62602.0,0.9548735104999999,-0.9004466029999999,9.930409923000001,-0.020477948113649468,-0.12495684779653403,0.20492434346441024,10.016767379984708,0.24088907553999014,-0.02157463000000004,0.008335652500000124,0.002451662500002172
62612.0,0.9513431164999999,-0.935162144,9.917170945499999,-0.027672195290370093,-0.12362341624801036,0.20599073963737877,10.00649096952333,0.2418277987605469,-0.0035303939999999923,-0.03471554100000007,-0.013238977500002136
62622.0,0.9178043735,-0.9446745944999999,9.9016764385,-0.033269466201515906,-0.11882725146352995,0.20439201804255197,9.988892393566742,0.2387527384371071,-0.033538742999999926,-0.009512450499999936,-0.015494506999999658
62632.0,0.9405558014999998,-0.9423209984999998,9.870491291499999,-0.03300243082596078,-0.1153627728983212,0.2033256218695834,9.959880140620502,0.23609116527279195,0.02275142799999985,0.002353596000000069,-0.031185147000000413
62642.0,0.935750543,-0.935162144,9.900401574,-0.02953795226075203,-0.11269940045977785,0.20225922569661486,9.988398702532711,0.23341473789618775,-0.004805258499999798,0.007158854499999867,0.029910282500001273
62652.0,0.9201579695,-0.9446745944999999,9.89687118,-0.027939230665925227,-0.1116330042868093,0.20066050410178807,9.984345743805285,0.23131616061720864,-0.015592573500000095,-0.009512450499999936,-0.0035303940000002143
62662.0,0.9033885979999999,-0.913587514,9.917170945499999,-0.027939230665925227,-0.11243236508422272,0.1977300962876896,10.000051633216822,0.22916986779804782,-0.01676937150000002,0.031087080499999864,0.020299765499999012
62672.0,0.9213347675,-0.8968181425,9.993760882,-0.03619987401561439,-0.1177608552905614,0.1977300962876896,10.076130065710489,0.23297047215355404,0.017946169500000053,0.01676937150000002,0.07658993650000134
62682.0,0.9178043735,-0.8956413444999999,9.991407286,-0.05112243912016591,-0.12335638087245522,0.2001281786799298,10.073368743410883,0.24058592723867125,-0.0035303939999999923,0.0011767980000001454,-0.002353596000000735
62692.0,0.8782835739999999,-0.9051537949999999,9.930409923000001,-0.06684261969287883,-0.13001830262731756,0.20119457485289832,10.010181150597525,0.24870052628760975,-0.03952079950000009,-0.009512450500000047,-0.06099736299999847
62702.0,0.8005168394999999,-0.9087822555,9.8669608975,-0.07483622766701285,-0.13907830677442015,0.19959585325807153,9.941007481690614,0.25452257468540257,-0.07776673450000005,-0.003628460500000097,-0.06344902550000064
62712.0,0.796888379,-0.9554619095,9.760362612,-0.06577796884916229,-0.152667440330448,0.1953320138954494,9.839340265831753,0.2564930489807166,-0.003628460499999875,-0.04667965399999996,-0.1065982855000005
62722.0,0.854355348,-0.9758597415,9.740062846499999,-0.04232772501936648,-0.1643925622453459,0.1876036959676185,9.826039362301898,0.2530053311051284,0.057466969000000034,-0.020397832000000005,-0.020299765500000788
62732.0,0.9226096319999999,-0.9423209984999998,9.726823868999999,-0.010618583169133501,-0.16332616607237738,0.17934479794718133,9.81581784548905,0.24280186857422845,0.06825428399999989,0.03353874300000015,-0.01323897750000036
62742.0,0.9656608255,-0.8956413444999999,9.748398499,0.016027358521063927,-0.15400087187897168,0.17268287619231898,9.836968412228869,0.23193214630727224,0.043051193500000084,0.04667965399999996,0.021574630000001704
62752.0,0.9895890515,-0.8752435124999999,9.7532037575,0.03281393526674539,-0.14893767171893613,0.17321520161417725,9.842272158009761,0.23078711072108818,0.023928225999999997,0.020397832000000005,0.004805258499999354
62762.0,0.9884122535,-0.938692538,9.775955185499999,0.0352120176589856,-0.14174342454221547,0.17481392320900405,9.870532014672266,0.2277959445123969,-0.0011767980000000344,-0.06344902550000009,0.022751427999999407
