timestamp,ax,ay,az,gx,gy,gz,acc_mag,gyro_mag,dax,day,daz
129702.0,-0.235947999,-0.3692203725,10.011707051499998,0.0003089232776029963,0.0406906061809958,-0.034430110154092135,10.021290996012237,0.05330340842939837,0.0,0.0,0.0
129712.0,-0.20476285199999997,-0.32371751649999997,9.817829580999998,-0.01860870048476354,0.03829252378875559,-0.04748691828826172,9.82529890321952,0.06377780586034688,0.031185147000000024,0.045502856000000036,-0.19387747050000037
129722.0,-0.15210114149999998,-0.3464689445,9.9303118565,-0.044722316753102696,0.054014449690720515,-0.05734453790352569,9.937518254277222,0.0905872089123245,0.052661710499999986,-0.022751428000000018,0.11248227550000145
129732.0,-0.21319657099999997,-0.24232232149999997,9.8967731135,-0.052715924727236727,0.06067462611633087,-0.057079247857222556,9.902034687147879,0.09858204456264069,-0.06109542949999999,0.10414662300000002,-0.03353874299999937
129742.0,-0.19397553699999998,-0.19319100499999997,9.866862831,-0.05058487771055165,0.06520550085450816,-0.0442894750986081,9.870660129856397,0.09365972880159838,0.019221033999999998,0.049131316499999994,-0.029910282499999497
129752.0,-0.131801376,-0.2411455235,9.807042266,-0.04445702670679957,0.05774421830223239,-0.01924050967398549,9.810891945859458,0.07537253600257648,0.06217416099999998,-0.047954518500000015,-0.05982056500000077
129762.0,-0.1628884565,-0.1297419795,9.878826944,-0.030066787024106312,0.0694675948878783,0.006606071218798537,9.881021577752268,0.07598288358839234,-0.031087080500000003,0.111403544,0.07178467800000021
129772.0,-0.235947999,-0.11542427049999998,9.911188888999998,-0.019408061282176946,0.06333974388412622,0.03591713067679131,9.914668900870547,0.07535672680055275,-0.07305954249999999,0.014317709000000012,0.032361944999998116
129782.0,-0.25987622499999996,-0.15249340749999998,9.981796768999999,-0.01567829267066506,0.048951249530684963,0.058566268379921724,9.986343506472728,0.07792330513801012,-0.02392822599999997,-0.037069137,0.07060788000000073
129792.0,-0.275370732,-0.188483813,9.9758147125,-0.015145967248806793,0.027366762671271087,0.06789156257332743,9.981394409897682,0.07475027954232438,-0.015494507000000046,-0.03599040550000002,-0.0059820564999988335
129802.0,-0.2550709665,-0.2638969515,9.936293913,-0.015145967248806793,0.01137954672300303,0.06469411938367381,9.943069924549615,0.06741085587909396,0.02029976550000001,-0.07541313849999998,-0.03952079949999998
129812.0,-0.2670350795,-0.3380352255,9.923153001999998,-0.012747884856566584,0.007915068157794285,0.05403539364174444,9.932499234757785,0.056080126945978685,-0.011964112999999998,-0.074138274,-0.013140911000002475
129822.0,-0.23947839299999998,-0.378732823,9.854898718,-0.011414453308042916,0.012445942895971564,0.03778114231792125,9.865080698806748,0.04138364355319982,0.02755668650000001,-0.040697597500000016,-0.06825428399999822
129832.0,-0.22633748199999998,-0.39197180049999997,9.822536773,-0.00928340629135784,0.023636994059759206,0.022060961745208326,9.832959839493018,0.03363889346686451,0.013140911000000005,-0.013238977499999971,-0.03236194499999989
129842.0,-0.22751427999999996,-0.400307453,9.8153779185,-0.005818927726149095,0.031630602033893236,0.011669271378834088,9.82617181243584,0.034212962447317447,-0.001176797999999979,-0.008335652500000013,-0.007158854500000089
129852.0,-0.23830159499999998,-0.3847148795,9.76153941,-0.0018221237390820802,0.031630602033893236,0.006606071218798537,9.772023579672297,0.03236441405146856,-0.01078731500000002,0.015592573499999984,-0.05383850850000016
129862.0,-0.2670350795,-0.33332803349999995,9.7459468365,0.0011082840750163993,0.031897637409448364,0.005539675045830002,9.755300869347131,0.03239406682571619,-0.028733484500000017,0.05138684600000004,-0.015592573499999318
129872.0,-0.2550709665,-0.29733762799999996,9.713682958,0.002441715623540067,0.03296228825316491,0.008737118235483614,9.721579474114046,0.03418788757925522,0.011964112999999998,0.03599040549999999,-0.03226387850000023
129882.0,-0.30410421649999997,-0.2662505475,9.726823868999999,0.00324107642095347,0.03776019836689732,0.014599679192932567,9.735218092425317,0.040613886659742915,-0.04903324999999997,0.031087080499999975,0.013140910999998923
129892.0,-0.31253793550000003,-0.2901787735,9.762716207999999,0.0037734018428117405,0.04228932777582261,0.016198400787759373,9.772026987256147,0.04544242503739408,-0.008433719000000062,-0.023928225999999997,0.035892339000000106
129902.0,-0.3233252505,-0.30812494299999993,9.759087747499999,0.005904448859496817,0.04228932777582261,0.014332643817377436,9.769302629231742,0.045040808594664264,-0.010787314999999964,-0.017946169499999942,-0.003628460499999875
129912.0,-0.353235533,-0.36206151799999997,9.795078153,0.010168288222118965,0.040957641556550926,0.0063390358432434055,9.808130296237309,0.04267441695752756,-0.029910282499999996,-0.05393657500000004,0.03599040550000154
129922.0,-0.3688281065,-0.3703971705,9.796254951,0.014964453006599382,0.0398912453835824,-0.0035203291012725624,9.810190584338859,0.042750895066900906,-0.015592573499999984,-0.008335652500000013,0.0011767979999994793
129932.0,-0.330484105,-0.35607946149999997,9.796254951,0.01949532774477666,0.03776019836689732,-0.012845623294678265,9.808293602434206,0.04439493690064752,0.0383440015,0.014317709000000012,0.0
129942.0,-0.29812215999999997,-0.36323831599999995,9.845288201,0.024556782575560217,0.04228932777582261,-0.01657713723544214,9.85649626678991,0.051635494508302925,0.032361945,-0.007158854499999978,0.049033250000000805
129952.0,-0.28978650749999996,-0.35480459699999994,9.8944195175,0.02748893571891069,0.04975061032809836,-0.01710946265730041,9.905018935381511,0.059359064408043435,0.008335652500000013,0.008433719000000006,0.04913131649999869
129962.0,-0.275370732,-0.31773545999999997,9.943452767499998,0.02615550417038702,0.054546775112578785,-0.012845623294678265,9.952338308261382,0.06184230842568992,0.01441577549999995,0.037069136999999974,0.04903324999999903
129972.0,-0.2813527885,-0.29733762799999996,9.99493768,0.021359339385906603,0.053480378939610246,-0.009382890058721515,10.003316864105884,0.058347330156406495,-0.005982056499999999,0.020397832000000005,0.0514849125000012
129982.0,-0.30175062049999996,-0.284196717,10.027299625,0.015231488382154514,0.04681845718474789,-0.003785619147575701,10.035863638992453,0.04937911586719907,-0.02039783199999995,0.013140910999999977,0.03236194499999989
129992.0,-0.308909475,-0.2770378625,10.0236711645,0.007503170454323623,0.034028684426133445,-0.001387536755335492,10.032255910563293,0.034873689063352885,-0.007158854500000034,0.007158854499999978,-0.003628460499999875
130002.0,-0.317343194,-0.3129302015,10.057209907499999,0.0037734018428117405,0.023636994059759206,-0.0011222467090323538,10.06708016940886,0.023962585155286587,-0.008433719000000006,-0.035892338999999995,0.03353874299999937
130012.0,-0.3113611375,-0.31175340349999997,10.0128838495,0.004040437218366873,0.012978268317829835,-0.001921607506445757,10.022573468232451,0.013727824184989353,0.005982056499999999,0.0011767980000000344,-0.044326057999999335
130022.0,-0.31371473349999995,-0.33568162949999997,9.982973567,0.008569566627292158,0.004452334921837535,-0.006983062337229313,9.99354093051204,0.01191737882428196,-0.002353595999999958,-0.023928225999999997,-0.029910282499999497
130032.0,-0.3113611375,-0.34529214649999995,9.971009454,0.014964453006599382,-0.0014102260356114182,-0.013112658670233398,9.981843615091217,0.019946563830902923,0.002353595999999958,-0.009610516999999985,-0.011964112999999443
130042.0,-0.31969678999999995,-0.31175340349999997,9.9662041955,0.02215870018332001,-0.00407534380340676,-0.018441148876572087,9.976202799088034,0.02911515744106715,-0.008335652499999957,0.03353874299999998,-0.0048052585000011305
130052.0,-0.282627653,-0.31175340349999997,9.945904429999999,0.024024457153701946,-0.010470230182713983,-0.02057394122250916,9.954802032462911,0.03331797291307407,0.037069136999999974,0.0,-0.020299765500000788
130062.0,-0.26340661899999995,-0.30930174099999996,9.889614258999998,0.02189341013701687,-0.014999359591639269,-0.01924050967398549,9.897955385115388,0.03277955777770138,0.019221034000000026,0.002451662500000007,-0.056290171000000555
130072.0,-0.240655191,-0.2770378625,9.864509235,0.016563174601426187,-0.012068951777540788,-0.013912019467646801,9.871332602319411,0.024769792804020748,0.022751427999999962,0.032263878499999954,-0.025105023999998366
130082.0,-0.228691078,-0.25310963649999996,9.835775750499998,0.010435323597674096,-0.005407030022678433,-0.007250097712784445,9.84168932203053,0.013809267507700835,0.011964112999999998,0.023928226000000052,-0.028733484500001794
130092.0,-0.22035542549999998,-0.24467591749999998,9.829793694,0.005372123437638546,0.004452334921837535,0.0026092672317315226,9.835307157621154,0.007449246402960995,0.008335652500000013,0.008433718999999978,-0.0059820564999988335
130102.0,-0.22633748199999998,-0.25664003049999995,9.820183176999999,0.002707005669843205,0.012178907520416431,0.010602875205865553,9.826143210377454,0.0163729847834345,-0.005982056499999999,-0.01196411299999997,-0.009610517000000485
130112.0,-0.25987622499999996,-0.28900197549999995,9.805767401499999,0.005105088062083414,0.015109315334514912,0.017530087007031046,9.813466876006828,0.02369930978896881,-0.03353874299999998,-0.032361945,-0.014415775499999839
130122.0,-0.271840338,-0.2901787735,9.820183176999999,0.010168288222118965,0.0127112329422747,0.019928169399271254,9.828229673740216,0.025731332337966956,-0.011964113000000054,-0.0011767980000000344,0.014415775499999839
130132.0,-0.2813527885,-0.31528379749999996,9.797431749,0.016030849179567916,0.008714428955207687,0.0148667145684877,9.806540273759953,0.023536112667437242,-0.009512450499999991,-0.025105023999999976,-0.022751427999999407
130142.0,-0.25987622499999996,-0.340486888,9.808219064,0.01949532774477666,0.009780825128176223,0.005272639670274869,9.817567324986022,0.022439542623609296,0.021476563500000045,-0.025203090500000025,0.010787314999999964
130152.0,-0.24908890999999997,-0.3584330575,9.832147289999998,0.020294688542190065,0.015376350710070043,-0.00272096830385916,9.841831124036222,0.025606839178121506,0.010787314999999992,-0.017946169499999998,0.023928225999998887
130162.0,-0.22751427999999996,-0.36559191199999996,9.830970492,0.02189341013701687,0.024968680279030882,-0.008316493885752979,9.84039638471431,0.03423332401120092,0.02157463000000001,-0.007158854499999978,-0.001176797999997703
130172.0,-0.23231953849999998,-0.3345048315,9.8751984835,0.02375742177814681,0.029499555017208155,-0.00778416846389471,9.883593017662474,0.0386682313331286,-0.00480525850000002,0.031087080499999975,0.044227991499999675
130182.0,-0.2562477645,-0.2986124925,9.924329799999999,0.026422539545942154,0.028700194219794757,-0.005651376117957639,9.932127381213771,0.03941814044748229,-0.023928225999999997,0.035892338999999995,0.04913131649999869
130192.0,-0.284981249,-0.2782146605,9.985425229499999,0.029619982735595768,0.02177123708937727,0.000476474885794452,9.993364534706709,0.03676353043405463,-0.028733484500000017,0.020397832000000005,0.06109542949999991
130202.0,-0.3160683295,-0.25310963649999996,9.971009454,0.034950218271186446,0.012445942895971564,0.009269443657341885,9.979228086819115,0.03824057841468923,-0.03108708050000003,0.02510502400000003,-0.014415775499998063
130212.0,-0.33881975749999993,-0.284196717,9.9985661405,0.04614126943497409,0.0001884955592153876,0.01832944780444445,10.008341094705905,0.04964897715424328,-0.022751427999999907,-0.03108708050000003,0.02755668649999876
130222.0,-0.3268556445,-0.29733762799999996,10.0201407705,0.06159615996138388,-0.016865116562021207,0.024724334183751674,10.029878630272776,0.06848220045726323,0.011964112999999943,-0.013140910999999977,0.021574629999999928
130232.0,-0.34127141999999994,-0.31175340349999997,9.99493768,0.08078081909930555,-0.034185764058812934,0.030054569719342353,10.005620200356718,0.09272262053918863,-0.01441577549999995,-0.014415775500000005,-0.025203090499999803
130242.0,-0.343625016,-0.33931008999999995,9.9650273975,0.10076483903464062,-0.05123937618004953,0.03778114231792125,9.97672193266518,0.11919077637067678,-0.002353596000000069,-0.027556686499999983,-0.029910282499999497
130252.0,-0.3029274185,-0.375202429,9.9183477435,0.11888484732884576,-0.0618981019219789,0.03698178152050785,9.930063637489848,0.13904184301992414,0.040697597500000016,-0.03589233900000005,-0.04667965400000007
