timestamp,ax,ay,az,gx,gy,gz,acc_mag,gyro_mag,dax,day,daz
46242.0,0.17318543899999997,-0.07394214099999999,10.053189180999999,0.006743952229706089,0.008127998326537593,-0.02413964888433357,10.054952677435768,0.026348963864479807,0.0,0.0,0.0
46252.0,-0.6971547484999999,-0.1624961905,9.9442372995,-0.004981169685191816,0.023315853477392248,-0.031867966812164465,9.969969168660962,0.03979960280647426,-0.8703401874999999,-0.08855404950000001,-0.10895188149999946
46262.0,0.058251501,-0.12778064949999998,9.881965071999998,-0.02949606435870417,0.015856316254368483,-0.03506541000181808,9.882962856147104,0.048487354603102155,0.7554062494999999,0.034715541000000016,-0.062272227500001165
46272.0,0.09414383999999999,-0.0069627215,9.891575588999999,-0.024698154244971758,0.05635842687614889,-0.036664131596644875,9.892026039947595,0.07162771564693887,0.035892338999999995,0.12081792799999998,0.009610517000000485
46282.0,0.10493115499999998,0.1534740725,9.913150219,-0.0023160519173964756,0.07927285462558245,-0.03160093143660933,9.914893448881793,0.08537077043481621,0.010787314999999992,0.160436794,0.021574630000001704
46292.0,0.091790244,0.251638639,9.9430605015,0.00727627765156436,0.09872454913905926,-0.014280283939817605,9.946667763126543,0.10001703519188615,-0.013140910999999991,0.0981645665,0.029910282499999497
46302.0,0.08580818750000001,0.21574629999999997,10.013668381499999,0.006476916854150957,0.10592054164503188,0.0011746065865921838,10.01635981610378,0.1061248853707074,-0.005982056499999985,-0.03589233900000002,0.07060787999999896
46312.0,0.067862018,0.13670470099999998,10.126248723499998,-0.0007173303225696694,0.08380372936375972,0.0057037359955174685,10.127398809119144,0.08400066798765664,-0.01794616950000001,-0.07904159899999999,0.11258034199999933
46322.0,0.058251501,0.079237732,10.176458771499998,-0.007911577499290296,0.055024995327625226,0.004372049776245795,10.176933967732154,0.05576251418810333,-0.009610516999999999,-0.05746696899999998,0.050210048000000285
46332.0,0.04265892749999999,0.075707338,10.196856603499999,-0.010843730642640768,0.011325441516191205,0.0003752457891787808,10.197226876826074,0.015684161730520063,-0.015592573500000005,-0.003530394000000006,0.02039783200000045
46342.0,0.0403053315,0.0960071035,10.200386997499999,-0.009245009047813963,-0.04969475979203455,0.0003752457891787808,10.200918428378733,0.05054878982215571,-0.0023535959999999925,0.020299765499999997,0.0035303940000002143
46352.0,0.0881617835,0.125917386,10.025632494499998,-0.0017837264955382049,-0.09819047838794898,0.005436700619962337,10.026810789226115,0.09835705078893052,0.047856451999999994,0.029910282499999996,-0.17475450300000084
46362.0,0.14445195449999998,0.124740588,9.842542339,0.0051452306348792835,-0.12297066310776447,0.012365657750379825,9.844392631161204,0.12369788549142195,0.056290170999999986,-0.0011767979999999928,-0.18309015549999863
46372.0,0.18995481049999996,0.1762255005,9.7467313685,0.010473720841217971,-0.11311304349250051,0.02142566189748239,9.750174902367673,0.1155998201734817,0.04550285599999998,0.051484912499999994,-0.09581097049999876
46382.0,0.18279595599999998,0.2444797845,9.689264399499999,0.008874999246391164,-0.06355092872361753,0.033948399280541705,9.694071865319401,0.07259462767291286,-0.007158854499999978,0.068254284,-0.05746696900000181
46392.0,0.1575928655,0.202605389,9.6880876015,-0.0036477381366681488,-0.005728170605045389,0.045406485819884476,9.691487286750489,0.045911511481387536,-0.02520309049999997,-0.041874395499999995,-0.0011767979999994793
46402.0,0.15043401099999998,0.121210194,9.743102908,-0.020436060211601607,0.043566908788282455,0.044874160398026205,9.74501803890958,0.06579816387838275,-0.007158854500000034,-0.081395195,0.05501530649999964
46412.0,0.102577559,0.0350097405,9.7910574265,-0.03242647217280265,0.07341203899738549,0.03608119162647877,9.791657335025622,0.08799236305790335,-0.04785645199999998,-0.0862004535,0.04795451850000099
46422.0,0.09777230049999999,-0.01765197,9.813808854499998,-0.03589095073801139,0.06941523501031847,0.023823744289722597,9.814311756177938,0.08169581377523694,-0.004805258500000006,-0.0526617105,0.02275142799999763
46432.0,0.10140076099999999,-0.015298373999999998,9.830480159499999,-0.028961993607593904,0.04756371277534947,0.013165018547793228,9.831015019869593,0.05722256163495298,0.0036284604999999998,0.002353596000000001,0.016671305000000913
46442.0,0.07864933299999999,0.0122583125,9.850877991499999,-0.013774138456739249,0.01665567705178189,0.008634143809615948,9.851199581128471,0.023274168247303842,-0.022751428000000004,0.027556686499999997,0.02039783200000045
46452.0,0.09777230049999999,0.030204481999999998,9.8065519335,0.0008813912722571365,-0.017985617941801566,0.013165018547793228,9.807085834125779,0.022306434423434985,0.019122967500000004,0.017946169499999998,-0.044326057999999335
46462.0,0.10610795299999999,0.0373633365,9.789782562,0.011273081638631374,-0.04196644186420365,0.01849350875413192,9.790428873539888,0.0472257819248341,0.008335652499999999,0.007158854499999999,-0.016769371500000574
46472.0,0.1109132115,0.042168594999999996,9.7586954815,0.014737560203840119,-0.05182580680871962,0.024356069711580868,9.75941685919492,0.05912975616330519,0.004805258500000006,0.0048052584999999995,-0.031087080499998976
46482.0,0.0881617835,0.0685484835,9.737120851499999,0.013138838609013314,-0.04569795580496753,0.02755351290123448,9.737761235077398,0.054955694135775945,-0.022751428000000004,0.026379888499999997,-0.021574630000001704
46492.0,0.04265892749999999,0.07453053999999999,9.738395716,0.008607963870836033,-0.02731091213520727,0.025155430508994273,9.738774343155061,0.038115333499150576,-0.045502856,0.005982056499999999,0.0012748645000009162
46502.0,0.0187307015,0.0697252815,9.752713425,0.0035465090400524776,-0.005195845183187119,0.019292869551545317,9.752980652304924,0.020292593453567414,-0.023928225999999993,-0.0048052584999999925,0.014317709000000178
46512.0,0.03187161249999999,0.07688413599999999,9.777818449,-0.00124965574442794,0.0198531202414355,0.012630947796682963,9.778172661170213,0.023563719253186833,0.013140910999999995,0.007158854499999992,0.025105024000000142
46522.0,0.0079433865,0.060114764499999994,9.8485243955,-0.0033824480903650108,0.033442253797463344,0.004372049776245795,9.848711065467329,0.033896019137709024,-0.023928225999999993,-0.016769371499999998,0.0707059465000004
46532.0,0.015200307499999998,0.030204481999999998,9.879611476,-0.0023160519173964756,0.037706093160085496,-0.002022836603061428,9.879669340458307,0.03783127576230819,0.007256920999999998,-0.029910282499999996,0.031087080499998976
46542.0,0.035500073,0.0146119085,9.9083449605,-0.0015166911199830724,0.027047367418156127,-0.008419468311620645,9.908419330010148,0.0283680785894384,0.020299765500000004,-0.015592573499999998,0.028733484500000017
46552.0,0.0403053315,0.006276256,9.902362903999999,0.001413716694115407,0.008660323748395862,-0.011616911501274257,9.902446919506914,0.014558586303164468,0.0048052584999999995,-0.008335652499999999,-0.00598205650000061
46562.0,0.0893385815,0.017063571,9.872452621499999,0.004078834461910748,-0.01132369618693921,-0.015079644737231007,9.872871583858563,0.019294006097824036,0.04903325,0.010787314999999999,-0.029910282499999497
46572.0,0.09777230049999999,0.027752819499999998,9.873629419499999,0.00727627765156436,-0.02464753969666392,-0.016678366332057812,9.874152498080589,0.03063679704322236,0.008433718999999992,0.010689248499999998,0.0011767979999994793
46582.0,0.0989490985,0.0685484835,9.842542339,0.011540117014186507,-0.027045622088904132,-0.014014993893514467,9.843278392572858,0.032573916385847494,0.0011767980000000067,0.040795663999999995,-0.031087080499998976
46592.0,0.0761976705,0.0960071035,9.8485243955,0.013671164030871583,-0.026511551337793864,-0.0054873151682701725,9.849287091849375,0.030329419843633746,-0.022751428000000004,0.027458620000000003,0.00598205650000061
46602.0,0.069038816,0.087671451,9.813808854499998,0.010740756216773104,-0.02438050432110879,-0.000158824961931484,9.814443278867003,0.02664203559092824,-0.007158854499999992,-0.008335652499999999,-0.0347155410000024
46612.0,0.059428299,0.1079712165,9.8293033615,0.005677556056737553,-0.018784978739214968,0.004105014400690663,9.830075995571434,0.02004897035361251,-0.009610517000000006,0.020299765499999997,0.015494507000001434
46622.0,0.0893385815,0.090025047,9.78507537,-0.000450294947014537,-0.008925613794699,0.009168214560726213,9.785897295997563,0.012803339618355052,0.029910282500000003,-0.017946169499999998,-0.044227991499999675
46632.0,0.0893385815,0.042168594999999996,9.7945878205,-0.0036477381366681488,0.0097267199213644,0.009967575358139616,9.795086020348961,0.014396792436600674,0.0,-0.047856452,0.009512450500000824
46642.0,0.08698498549999999,-0.010493115499999999,9.822144506999999,-0.004714134309636684,0.027312657464459263,0.005436700619962337,9.8225352740301,0.02824468151159214,-0.0023535960000000133,-0.05266171049999999,0.02755668649999876
46652.0,0.0846313895,-0.0344213415,9.844895935,-0.005246459731494954,0.03424161459487675,-0.00788539756051038,9.845319866404488,0.035527355720143004,-0.0023535959999999856,-0.023928226000000004,0.022751428000001184
46662.0,0.071392412,-0.0344213415,9.8867703305,-0.004714134309636684,0.026780332042600993,-0.0228079626650619,9.887088007765325,0.03549101868828384,-0.013238977499999999,0.0,0.04187439549999894
46672.0,0.090613446,-0.029616082999999998,9.8759830155,-0.003914773512223281,0.012391837689159739,-0.03586477079923148,9.87644310627124,0.03814662340821127,0.019221033999999998,0.004805258500000003,-0.010787314999999964
46682.0,0.1336646395,0.019417167,9.885593532499998,-0.00124965574442794,-0.004928809807631987,-0.04385837877336551,9.886516209061348,0.04415214824023163,0.04305119349999999,0.04903325,0.009610516999998708
46692.0,0.138469898,0.06727361899999999,9.809003596,0.00034906585039886593,-0.017718582566246435,-0.043326053351507236,9.810211577677947,0.04681043595334761,0.00480525850000002,0.047856451999999994,-0.07658993649999779
46702.0,0.16357492199999998,0.13797956549999998,9.777818449,-0.00018500490071139895,-0.02464753969666392,-0.03293261765588101,9.78015995458191,0.04113505494806536,0.025105023999999976,0.07070594649999999,-0.031185147000000413
46712.0,0.18877801249999998,0.18103075899999999,9.750359828999999,0.0016807520696705393,-0.023581143523695385,-0.016146040910199545,9.753867236572603,0.028628480477990093,0.025203090499999997,0.0430511935,-0.027458620000000877
46722.0,0.19476006899999998,0.202605389,9.729961996999998,0.004878195259324152,-0.013454743203624287,0.0009075712110370514,9.734019770433639,0.014340522625297511,0.005982056499999999,0.02157463000000001,-0.02039783200000045
46732.0,0.17553903499999998,0.14749201599999998,9.7802701115,0.008607963870836033,-0.0019984019935335075,0.01583013631558857,9.78295718591739,0.01812964060039507,-0.019221033999999998,-0.05511337300000002,0.05030811450000172
46742.0,0.152787607,0.134351105,9.8412674745,0.012072442436044778,0.008127998326537593,0.020092230348958722,9.843370346427037,0.024809392244942854,-0.02275142799999999,-0.013140910999999977,0.06099736300000025
46752.0,0.1468055505,0.08649465299999999,9.884416734499998,0.009407324668249437,0.011857766938049475,0.016095426361891707,9.885885260102851,0.022094504835864327,-0.005982056499999999,-0.04785645200000001,0.04314925999999808
46762.0,0.1205237285,0.051779111999999995,9.8963808475,0.0011484266478122688,0.010526080718777801,0.006236061417375739,9.897250169836866,0.012288438512069523,-0.026281821999999996,-0.034715540999999996,0.01196411300000122
46772.0,0.11571846999999999,0.008629852,9.913150219,-0.008710938296703698,0.0014660765716752368,-0.0054873151682701725,9.913829356162251,0.010399060259413926,-0.004805258500000006,-0.043149259999999995,0.016769371500000574
46782.0,0.116895268,0.0122583125,9.889221993,-0.015639895427121187,-0.015053464798451092,-0.01907644872429802,9.889920444409096,0.02889851254546268,0.0011767980000000067,0.0036284604999999998,-0.023928226000000663
46792.0,0.13003617899999997,0.054132707999999995,9.834108619999999,-0.015905185473424326,-0.027045622088904132,-0.026272441230270643,9.835117289991137,0.040922875843687624,0.013140910999999977,0.041874395499999995,-0.055113373000001076
46802.0,0.15406247149999996,0.08521978849999999,9.7455545705,-0.010044369845227366,-0.030775390700416013,-0.0228079626650619,9.747144789325237,0.03960072220656869,0.02402629249999999,0.031087080499999996,-0.08855404949999901
46812.0,0.1683801805,0.14749201599999998,9.740749312,-0.0017837264955382049,-0.025179865118522195,-0.012681562344990798,9.743320939966898,0.028249412579870476,0.01431770900000004,0.062272227499999985,-0.004805258499999354
46822.0,0.1768138995,0.182207557,9.7131926255,0.007543313027119492,-0.011056660811384077,0.005171410573659199,9.716510367871374,0.0143490350562141,0.008433719000000006,0.034715541000000016,-0.027556686500000538
46832.0,0.160044528,0.134351105,9.719174681999998,0.012606513187155043,0.0035988689176123076,0.023289673538612336,9.72142072793824,0.026726109439258263,-0.01676937150000002,-0.047856451999999994,0.0059820564999988335
46842.0,0.15406247149999996,0.0816893945,9.714369423499999,0.008874999246391164,0.010526080718777801,0.03421543465609683,9.715934422304947,0.03688170217909284,-0.005982056500000027,-0.0526617105,-0.004805258499999354
46852.0,0.14562875249999999,0.043345393,9.72035148,0.0011484266478122688,0.01665567705178189,0.03634648167278191,9.721538944600656,0.039997464817267236,-0.008433718999999978,-0.038344001499999995,0.00598205650000061
46862.0,0.07737446849999999,-0.0008825985,9.774288055,-0.0057805304826052195,0.026248006620742722,0.0331490384831283,9.774594342962343,0.042675884719344755,-0.068254284,-0.0442279915,0.05393657499999982
46872.0,0.0187307015,-0.0201036325,9.797039482999999,-0.009245009047813963,0.029445449810396335,0.0254224658845494,9.797078014728639,0.03998507819777035,-0.058643766999999986,-0.019221033999999998,0.022751427999999407
46882.0,-0.0075511204999999994,-0.05119071299999999,9.836462216,-0.009245009047813963,0.027579692840014398,0.008101818387757679,9.836598316253127,0.030195183566786143,-0.026281821999999996,-0.031087080499999992,0.03942273300000032
46892.0,-0.024320492,-0.04638545449999999,9.861665306499999,-0.004447098934081553,0.01772032789549843,-0.010283479952750588,9.86180438429733,0.02096512984915935,-0.016769371499999998,0.0048052584999999995,0.025203090499999803
46902.0,-0.012356378999999999,-0.0224572285,9.859213644,0.004078834461910748,0.005462880558742251,-0.026272441230270643,9.859246963396831,0.02714260714752324,0.011964113,0.023928225999999993,-0.002451662499998619
46912.0,0.03187161249999999,-0.016475172,9.843719136999999,0.00967436004380457,-0.002530727415391778,-0.03639709622108975,9.843784520148528,0.037745813500777055,0.044227991499999994,0.005982056499999999,-0.015494507000001434
46922.0,0.0738440745,0.0038245934999999996,9.87725788,0.01180715238974164,-0.005461135229490257,-0.04465773957077891,9.877534652071654,0.046513939299105536,0.041972462,0.0202997655,0.03353874300000115
46932.0,0.128859381,0.0577611685,9.8759830155,0.011007791592328238,-0.008126252997285598,-0.05105262595008613,9.876992538981826,0.05285430994645028,0.0550153065,0.053936575,-0.0012748645000009162
46942.0,0.14925721299999997,0.1175817335,9.880788274,0.011007791592328238,-0.0017313666179783749,-0.05531646531270828,9.88261504336283,0.056427656701284704,0.020397831999999977,0.05982056499999999,0.0048052585000011305
46952.0,0.1552392695,0.195348468,9.9322731865,0.011540117014186507,0.007061602153569058,-0.0523843121693578,9.935406932079415,0.05410320403759038,0.005982056500000027,0.0777667345,0.051484912499999425
46962.0,0.16475172,0.2552670995,9.962183469,0.008607963870836033,0.015856316254368483,-0.043326053351507236,9.966815132796782,0.04693257617239672,0.009512450499999991,0.059918631499999986,0.029910282499999497
46972.0,0.187503148,0.2672312125,9.974147581999999,-0.00018500490071139895,0.020652481038848904,-0.031333896061054196,9.979488460785982,0.037528285895285014,0.022751428000000018,0.011964112999999998,0.011964112999999443
46982.0,0.19946726099999998,0.25644389749999996,9.987386559499999,-0.011643091440054173,0.01745503784919529,-0.015079644737231007,9.99266936056913,0.02583864566883105,0.01196411299999997,-0.01078731500000002,0.01323897750000036
46992.0,0.206724182,0.23251567149999997,9.939432041,-0.018837338616774797,0.00732863752912419,0.0025062928058638572,9.944300263094135,0.02036751722289802,0.007256921000000027,-0.023928225999999997,-0.04795451849999921
47002.0,0.1911316085,0.1630845895,9.937078445000001,-0.019102628663077936,-0.007326892199872196,0.017428857910415374,9.940254317530503,0.026876734533969028,-0.015592573500000012,-0.06943108199999998,-0.0023535959999989586
47012.0,0.14445195449999998,0.097281968,9.87725788,-0.011643091440054173,-0.02384817889925052,0.028885199120506154,9.878793113355442,0.03922565414780753,-0.046679654000000015,-0.06580262149999999,-0.05982056500000077
47022.0,0.1109132115,0.075707338,9.846072732999998,-0.0025830872929516074,-0.04223347723975879,0.031017991466443223,9.846988453585103,0.05246384216140271,-0.03353874299999998,-0.021574629999999997,-0.03118514700000219
47032.0,0.11571846999999999,0.055309505999999994,9.813808854499998,0.0051452306348792835,-0.04889539899462114,0.025954791306407675,9.8146469186831,0.05559572495155067,0.0048052584999999925,-0.020397832000000005,-0.03226387850000023
47042.0,0.12405412249999999,0.0026477955,9.8030215395,0.005944591432292687,-0.042500512615313915,0.01822821870782878,9.803806798383533,0.04662509728806776,0.008335652499999999,-0.05266171049999999,-0.010787314999998188
47052.0,0.10738281749999999,0.005099457999999999,9.7922342245,0.000614355896702004,-0.026511551337793864,0.008634143809615948,9.792824320972741,0.02788885488558864,-0.016671304999999997,0.0024516624999999996,-0.010787314999999964
47062.0,0.102577559,0.0361865385,9.782623707499999,-0.007646287452987157,-0.009457939216557272,-0.0017575465567582899,9.783228415186883,0.012288502591323882,-0.0048052584999999925,0.031087080499999996,-0.009610517000000485
47072.0,0.116895268,0.08286619249999999,9.731138795,-0.015639895427121187,0.008927359123950995,-0.007086036763096978,9.732193666234467,0.01935241553158776,0.014317708999999998,0.046679653999999994,-0.051484912499999425
47082.0,0.1587696635,0.1164049355,9.72035148,-0.019369664038633067,0.023315853477392248,-0.0054873151682701725,9.722344923411988,0.030804602514959794,0.041874395499999995,0.03353874300000001,-0.010787314999999964
47092.0,0.1468055505,0.1056176205,9.735944053499999,-0.016439256224534588,0.039570104801215436,0.001973967384005587,9.737623609705793,0.042894508814394765,-0.011964112999999998,-0.010787315000000006,0.015592573499999318
47102.0,0.1205237285,0.1271922505,9.7694827965,-0.007911577499290296,0.0478307481509046,0.010232865404442754,9.771054085861374,0.04954881493626242,-0.026281821999999996,0.021574629999999997,0.03353874300000115
47112.0,0.07266727649999999,0.12238699199999999,9.824498102999998,-0.0017837264955382049,0.04889714432387314,0.017428857910415374,9.825529099480358,0.051941096362148664,-0.04785645200000001,-0.004805258500000006,0.05501530649999786
47122.0,0.013925443,0.064920023,9.8759830155,-0.00018500490071139895,0.03637266161156183,0.019292869551545317,9.876206207334551,0.04117304403436082,-0.05874183349999999,-0.05746696899999999,0.0514849125000012
47132.0,-0.014808041499999999,0.019417167,9.937078445000001,-0.002848377339254746,0.013723523908431413,0.013432053923348359,9.93710844896799,0.01941309956013739,-0.028733484499999996,-0.045502855999999994,0.061095429500001686
47142.0,-0.015984839499999997,-0.014121576,9.961006671,-0.0007173303225696694,-0.009992009967667536,0.0022392574303087246,9.961029506718122,0.0102649451934649,-0.001176797999999998,-0.033538742999999996,0.023928225999998887
47152.0,-0.011179581,0.0002941995,9.9538478165,0.004345869837465881,-0.02997602990300261,-0.010550515328305723,9.953854098972242,0.03207432504485038,0.004805258499999998,0.0144157755,-0.007158854500000089
47162.0,-0.0075511204999999994,0.051779111999999995,9.9106985565,0.008607963870836033,-0.04143411644234538,-0.025206045057302107,9.910836693926074,0.0492567533927095,0.0036284604999999998,0.051484912499999994,-0.043149259999999856
47172.0,0.06187996149999999,0.079237732,9.850877991499999,0.009407324668249437,-0.04329987341272732,-0.036664131596644875,9.851391016055896,0.05751204517932011,0.06943108199999999,0.02745862000000001,-0.05982056500000077
47182.0,0.14445195449999998,0.11277647499999999,9.814985652499999,0.008075638448977763,-0.028110272932620674,-0.04252669255409383,9.816696402520204,0.051613205289881524,0.08257199299999998,0.03353874299999998,-0.035892339000000106
47192.0,0.18279595599999998,0.14994367849999998,9.820967709,0.0030124382889422127,-0.004396484385773717,-0.039861574786298495,9.823813119632964,0.040216277846696666,0.0383440015,0.037167203499999996,0.00598205650000061
47202.0,0.1934852045,0.1858360175,9.807826797999999,-0.007646287452987157,0.016920967098085025,-0.031867966812164465,9.811495199475337,0.03688295199803563,0.010689248500000026,0.03589233900000002,-0.013140911000000699
47212.0,0.19476006899999998,0.1858360175,9.800569877,-0.016172220848979457,0.026248006620742722,-0.018811158677994884,9.804266235870838,0.03611590050877068,0.0012748644999999725,0.0,-0.00725692099999975
47222.0,0.16357492199999998,0.1726951065,9.793411022499999,-0.01857030324121967,0.02518161044777419,-0.0022898719786165604,9.796299291596844,0.03137217207801776,-0.031185146999999996,-0.013140911000000005,-0.007158854500000089
47232.0,0.12405412249999999,0.1511204765,9.8185160465,-0.009777334469672236,0.010793116094332932,0.012098622374824694,9.820462523685165,0.018933153137451725,-0.039520799499999995,-0.02157463000000001,0.025105024000000142
47242.0,0.10973641349999999,0.0697252815,9.816162450499998,-0.00018500490071139895,-0.009724974592112405,0.020891591146372127,9.817023426168149,0.02304491133108768,-0.014317708999999998,-0.08139519499999999,-0.002353596000000735
47252.0,0.10610795299999999,0.013435110499999998,9.832931821999999,0.012871803233458181,-0.020916025755900045,0.022225022694895794,9.833513492947686,0.03312272763060089,-0.0036284604999999998,-0.056290171,0.016769371500000574
47262.0,0.07502087249999999,0.007453054,9.810180393999998,0.01980076036387567,-0.022781782726281983,0.018760544129687046,9.81047007243519,0.03553924241197447,-0.031087080500000003,-0.005982056499999998,-0.022751428000001184
47272.0,0.059428299,0.030204481999999998,9.812533989999999,0.018467328815352003,-0.015053464798451092,0.013964379345206631,9.81276043416735,0.027616171467264795,-0.015592573499999991,0.022751427999999997,0.002353596000000735
47282.0,0.09414383999999999,0.039814999,9.813808854499998,0.012072442436044778,0.0025324727446437724,0.00836885376331281,9.81434116634519,0.01490620669002323,0.034715540999999996,0.009610516999999999,0.0012748644999991399
47292.0,0.07864933299999999,0.05295591,9.830480159499999,0.004345869837465881,0.02171713188256544,0.005171410573659199,9.830937402522121,0.022743436177725878,-0.015494507000000005,0.013140911000000005,0.016671305000000913
47302.0,0.069038816,0.0385401345,9.819790910999998,0.0016807520696705393,0.03530801076784529,0.0067701321684860045,9.820109227286636,0.0359904882084246,-0.009610516999999985,-0.014415775499999998,-0.010689248500000303
47312.0,0.022359162,0.027752819499999998,9.837737080499998,0.003811799086355616,0.03743905778453036,0.009168214560726213,9.837801635332976,0.03873330631768552,-0.046679654,-0.010787315000000006,0.017946169500000053
47322.0,-0.0291257505,0.0230456275,9.8712758235,0.010740756216773104,0.026780332042600993,0.00836885376331281,9.871345693161832,0.030043098071467704,-0.051484912499999994,-0.004707191999999999,0.03353874300000115
47332.0,-0.060212830999999994,0.0026477955,9.92629113,0.02086541120759221,0.009459684545809267,0.001973967384005587,9.926474106819335,0.022994511601711724,-0.031087080499999996,-0.020397831999999998,0.05501530649999964
47342.0,-0.07825706699999999,-0.0355981395,9.955024614500001,0.028326693759867967,-0.005195845183187119,-0.009484119155337187,9.95539584704557,0.030320733874456687,-0.01804423599999999,-0.038245935,0.028733484500001794
47352.0,-0.0518771785,-0.0355981395,9.972970784000001,0.02539628594576949,-0.018250907988104706,-0.024939009681746976,9.973169241906135,0.04000026482582112,0.026379888499999983,0.0,0.017946169500000053
47362.0,-0.001569064,0.00980665,9.956201412499999,0.011540117014186507,-0.022514747350726852,-0.0414602963811253,9.956206365810877,0.048569994080490994,0.0503081145,0.0454047895,-0.01676937150000235
47372.0,0.03912853349999999,0.064920023,9.852054789499999,-0.014041173832294382,-0.009192649170254133,-0.0523843121693578,9.852346381793021,0.0550070497555796,0.040697597499999995,0.05511337299999999,-0.1041466230000001
47382.0,0.14925721299999997,0.11277647499999999,9.811357192,-0.036955601581727934,0.02305056343108911,-0.0523843121693578,9.813140485999172,0.06812606787577574,0.11012867949999998,0.047856451999999994,-0.04069759749999946
47392.0,0.1348414375,0.17740229849999997,9.8065519335,-0.045483280306972226,0.061953952458042715,-0.04652349654116085,9.809083270785948,0.08984128640592491,-0.014415775499999978,0.06462582349999998,-0.004805258499999354
47402.0,0.09532063799999999,0.19299487199999998,9.825772967499999,-0.04468391950955883,0.08220500776893293,-0.03613006084553462,9.828130414961981,0.10029804216299085,-0.03952079950000001,0.015592573500000012,0.019221033999999193
47412.0,0.0665871535,0.124740588,9.8759830155,-0.03136007599983411,0.0851354155830314,-0.02813645287140059,9.876995220498504,0.09499028020484719,-0.02873348449999999,-0.06825428399999998,0.050210048000000285
47422.0,0.06305675949999999,0.06246836049999999,9.995722211999999,-0.011109020688943906,0.06168691708248759,-0.027871162825097447,9.996116295364533,0.06859655820106557,-0.003530394000000006,-0.062272227500000006,0.11973919649999942
47432.0,0.012748645,-0.0008825985,10.0268092925,0.009142034621946299,0.015856316254368483,-0.034266049204404674,10.02681743601098,0.038847930321525455,-0.05030811449999999,-0.063350959,0.031087080500000752
