timestamp,ax,ay,az,gx,gy,gz,acc_mag,gyro_mag,dax,day,daz
257922.0,0.7416769395,-2.0847957235,9.511077569,-0.13598732866913818,0.1576904979176877,-0.05867098813504138,9.765093671585793,0.21633569178671982,0.0,0.0,0.0
257932.0,0.3729468995,-1.3569461605,9.336323066,-0.11760203032862993,0.17554347083633767,-0.09597565556716818,9.441785883246135,0.2320712695536262,-0.36873004000000004,0.7278495630000001,-0.17475450299999906
257942.0,0.5357372895,-1.4071562085,9.592472764,-0.11440284180972432,0.14356729361054954,-0.07918733349223472,9.709924652980717,0.1999255156162138,0.16279039,-0.05021004800000006,0.25614969799999976
257952.0,0.6004611795,-1.3940152975,9.670337564999999,-0.11653563415566137,0.0972026220313202,-0.05653819578910431,9.788731322229692,0.1619428026832713,0.06472389,0.013140911000000033,0.0778648009999987
257962.0,0.559763582,-1.3904849035,9.636798822,-0.1274596499438939,0.05749987220695319,-0.03948458366786772,9.752675277599241,0.1452970406273327,-0.040697597500000016,0.0035303939999999923,-0.03353874299999937
257972.0,0.467581072,-1.3832279825,9.5494215705,-0.1447802974406856,0.03937986391274806,-0.025363124689981597,9.66040392745533,0.1521689728651656,-0.09218251,0.007256920999999972,-0.08737725149999953
257982.0,0.42325501399999993,-1.5197365504999998,9.569721336,-0.1525086153685165,0.041245620883129996,-0.02642777553369814,9.698881916927096,0.16018272791820137,-0.04432605800000006,-0.13650856799999977,0.020299765500000788
257992.0,0.375398562,-1.5879908344999998,9.604436877,-0.14637901903551243,0.03245265211158256,-0.038952258246009445,9.742065833029727,0.15491052341702977,-0.04785645199999994,-0.068254284,0.03471554099999885
258002.0,0.316754795,-1.6298652299999998,9.630816765499999,-0.12879308149241755,0.0047403142484166,-0.05280842717759243,9.772892398811843,0.13927978460802318,-0.05864376700000001,-0.04187439550000005,0.026379888499999282
258012.0,0.33823135849999997,-1.640652545,9.683478476,-0.10241242984852326,-0.03416307477853701,-0.06479883913879347,9.827303629197736,0.1259139032019016,0.02147656349999999,-0.010787315000000186,0.05266171050000068
258022.0,0.3478418755,-1.592796093,9.681026813499999,-0.08189608449132993,-0.0682702990210102,-0.07412587866145116,9.817345543879638,0.12985548995233656,0.00961051700000004,0.047856451999999994,-0.0024516625000003955
258032.0,0.44002438549999995,-1.5220901464999999,9.641604080499999,-0.07923096672353458,-0.08985304055117208,-0.07812268264851818,9.770921610524837,0.14301842024172096,0.09218250999999994,0.07070594650000017,-0.03942273300000032
258042.0,0.4963145565,-1.48864947,9.5602088855,-0.08589288847839693,-0.08745495815893185,-0.07572460025627797,9.688137040624385,0.14408390986406477,0.056290171000000055,0.03344067649999993,-0.08139519499999892
258052.0,0.5118090635,-1.4826674134999998,9.4931313995,-0.09575050809366092,-0.06773797359915193,-0.0719930863155141,9.621839478223919,0.13762120964715682,0.01549450699999999,0.005982056500000166,-0.06707748600000052
258062.0,0.564470774,-1.5197365504999998,9.447628543499999,-0.10454522219446034,-0.03363074935667874,-0.06959500392327389,9.585713929258567,0.13001613498739817,0.052661710500000014,-0.03706913700000003,-0.04550285600000059
258072.0,0.5573119194999999,-1.5712214629999999,9.4452749475,-0.11147243399562583,-0.0032532937257174306,-0.0642665137169352,9.591274800321372,0.1287123624455086,-0.007158854500000089,-0.05148491250000009,-0.0023535959999989586
258082.0,0.547799469,-1.5951496889999999,9.474008432,-0.12346284595682688,0.01539903999034597,-0.06772924695289195,9.622963294025421,0.1416596472436285,-0.009512450499999936,-0.023928225999999997,0.028733484500000017
258092.0,0.4543420945,-1.5317006635,9.523041682,-0.13358924627689797,0.02072753019668466,-0.07545756488072285,9.656130515817937,0.15482106228356873,-0.09345737449999997,0.06344902549999998,0.049033250000000805
258102.0,0.43884758749999997,-1.4933566619999998,9.5721729985,-0.14131581887547687,0.00793775743807021,-0.07945436886778985,9.697896536786047,0.1623150189901447,-0.015494507000000046,0.03834400150000006,0.04913131649999869
258112.0,0.45198849849999995,-1.5280722029999998,9.535005795,-0.14131581887547687,-0.014444344889505072,-0.08371820823041201,9.66724540761437,0.1648864401733635,0.013140910999999977,-0.03471554099999996,-0.037167203499999246
258122.0,0.4843504435,-1.5280722029999998,9.4356644305,-0.13465564244986652,-0.03576179637336381,-0.09251117700195945,9.570860110497009,0.16724044365441063,0.03236194500000006,0.0,-0.09934136450000075
258132.0,0.5465246045,-1.501790381,9.353092437499999,-0.12399691670793714,-0.042956043550084436,-0.10183647119536515,9.488645932703342,0.166105761176656,0.06217416099999995,0.026281821999999844,-0.08257199300000018
258142.0,0.6028147755,-1.481392549,9.315925234,-0.11387051638786605,-0.03363074935667874,-0.0999724595542352,9.452215216724161,0.15521602518443195,0.056290171,0.020397832000000005,-0.037167203499999246
258152.0,0.6542996879999999,-1.5125776959999997,9.313571637999999,-0.10374586139704695,-0.01337969404578853,-0.09410989859678624,9.458256500238909,0.14070853912848208,0.05148491249999998,-0.031185146999999747,-0.002353596000000735
258162.0,0.6734226554999999,-1.5185597524999999,9.3219072905,-0.09761626506404285,0.0018099064343181197,-0.08638158066895535,9.468763241708528,0.1303609928054466,0.019122967499999977,-0.005982056500000166,0.008335652500001345
258172.0,0.63154826,-1.5137544939999998,9.427328778,-0.0917537041065939,0.006606071218798537,-0.08265181205744347,9.568951549742593,0.12366771781919153,-0.04187439549999994,0.00480525850000002,0.10542148749999924
258182.0,0.6866616329999999,-1.5687698005,9.447628543499999,-0.08962265708990882,0.006072000467688272,-0.08531692982523881,9.601574244942906,0.12388732125742212,0.055113372999999966,-0.05501530650000008,0.020299765499999012
258192.0,0.6351767205,-1.4826674134999998,9.489502939,-0.09202073948214903,0.008470082859928481,-0.09117949078268776,9.62561261191253,0.12982009989938323,-0.05148491249999998,0.08610238700000017,0.041874395500000716
258202.0,0.6494944294999999,-1.46707484,9.5266701425,-0.10054841820739333,0.010602875205865553,-0.09597565556716818,9.660827894342882,0.1394049203872938,0.014317708999999956,0.015592573499999762,0.03716720350000102
258212.0,0.6626353405000001,-1.4358896929999998,9.5637392795,-0.10640923383559028,0.009536479032897017,-0.09863902800571153,9.69360478930281,0.14540814050022702,0.013140911000000144,0.03118514700000019,0.037069136999999586
258222.0,0.6662638009999999,-1.3724406674999998,9.582862247,-0.1096066770252439,0.000476474885794452,-0.09410989859678624,9.703543150999469,0.14446634103046396,0.003628460499999875,0.06344902549999998,0.019122967499999532
258232.0,0.7046078024999999,-1.3270358779999998,9.581685449,-0.10987371240079903,-0.01071457627799319,-0.08558221987154195,9.698772727537307,0.13968303826768438,0.03834400149999995,0.04540478950000004,-0.0011767979999994793
258242.0,0.6973508815,-1.340176789,9.5494215705,-0.11227179479303923,-0.017376498032855545,-0.07305948248848264,9.668186200566984,0.13507252337696607,-0.007256920999999861,-0.013140911000000255,-0.03226387850000023
258252.0,0.712943455,-1.3748923299999998,9.5290237385,-0.11946604196975986,-0.01124690169985146,-0.06160139594913986,9.654061875605349,0.13488276377895456,0.015592573499999984,-0.03471554099999974,-0.02039783200000045
258262.0,0.699802544,-1.434712895,9.5158828275,-0.1266602891464805,-0.005651376117957639,-0.05360778797500583,9.648841934573163,0.13765377521255945,-0.013140911000000033,-0.059820565000000325,-0.013140910999998923
258272.0,0.677051116,-1.4873746055,9.487149342999999,-0.1330569208550397,-0.0011222467090323538,-0.049343948612383684,9.626873017088593,0.14191627422449404,-0.022751427999999962,-0.05266171049999979,-0.028733484500001794
258282.0,0.6710690595,-1.548470035,9.497936658,-0.14105052882917374,-0.00272096830385916,-0.05227435642648216,9.64670378374351,0.15045020336079,-0.005982056500000055,-0.06109542950000013,0.01078731500000174
258292.0,0.6207609449999999,-1.5328774615,9.465574712999999,-0.14051645807806348,0.003940953451003196,-0.05920331355689965,9.608962592819111,0.1525301230610653,-0.050308114500000056,0.015592573499999984,-0.03236194500000167
258302.0,0.5680992345,-1.505320775,9.474008432,-0.1322575600576263,0.008204792813625343,-0.06373244296582493,9.60965988708722,0.1470415080985749,-0.0526617104999999,0.027556686500000094,0.008433719000001005
258312.0,0.548976267,-1.5365059220000001,9.477538826,-0.12319755591052374,0.0026092672317315226,-0.06666459610917541,9.616962492825257,0.14010215712904886,-0.019122967499999977,-0.03118514700000019,0.0035303940000002143
258322.0,0.5441710085,-1.5532752935,9.478715624,-0.11466987718527945,-0.012313297872819996,-0.06986203929882902,9.620542401785416,0.13483880217942829,-0.00480525850000002,-0.016769371499999908,0.0011767979999994793
258332.0,0.572904493,-1.5424879785,9.428505576,-0.11413755176342118,-0.026169466804402977,-0.06746395690658882,9.571008625979797,0.13514291397209277,0.028733484500000017,0.010787314999999964,-0.050210048000000285
258342.0,0.599186315,-1.4826674134999998,9.4021256875,-0.12079947351828352,-0.02110626664436743,-0.060802035151726455,9.537153366843032,0.1368753987119285,0.026281821999999955,0.059820565000000325,-0.026379888499999282
258352.0,0.63154826,-1.5125776959999997,9.3303410095,-0.12905837153872068,0.000476474885794452,-0.05067563483165536,9.473225841533768,0.13865175894352924,0.032361945,-0.02991028249999994,-0.07178467800000021
258362.0,0.6136020904999999,-1.4981619204999999,9.314748436,-0.1351879678717248,0.02392497338633827,-0.04428074845234814,9.454392370293643,0.14425316527661922,-0.017946169500000053,0.014415775499999839,-0.015592573499999318
258372.0,0.559763582,-1.548470035,9.4033024855,-0.13039180308724438,0.03485073450382277,-0.04508010924976154,9.546370637621234,0.142298321345577,-0.05383850849999994,-0.05030811450000017,0.08855404949999901
258382.0,0.5058270069999999,-1.6107422625,9.462044319,-0.11920075192345672,0.032185616736027434,-0.05893627818134452,9.611484499906057,0.1368145389557146,-0.05393657500000004,-0.062272227500000055,0.05874183350000095
258392.0,0.459147353,-1.6275116339999998,9.555403627,-0.11094010857376756,0.01806415775814131,-0.08265181205744347,9.703883185893007,0.1395182551577008,-0.04667965399999996,-0.016769371499999686,0.09335930800000014
258402.0,0.4615990155,-1.5712214629999999,9.580508651,-0.10134777900480672,0.0010105456369047167,-0.10556798513612903,9.719462770585022,0.1463454577272331,0.002451662500000007,0.05629017099999989,0.025105024000000142
258412.0,0.5573119194999999,-1.5233650109999999,9.620029450499999,-0.09628457884477118,-0.027501153023674653,-0.11143054609357797,9.755829240041212,0.1498125500205491,0.09571290399999993,0.047856451999999994,0.039520799499998205
258422.0,0.655476486,-1.46707484,9.557757223,-0.09308713565511756,-0.04615348673973805,-0.09890606338126666,9.691887388102927,0.14344953306403116,0.09816456650000005,0.05629017099999989,-0.06227222749999939
258432.0,0.6961740835,-1.4252004444999997,9.4536106,-0.09761626506404285,-0.042423718128226165,-0.07678925109999452,9.585750259524415,0.1312451757184799,0.040697597500000016,0.04187439550000027,-0.1041466230000001
258442.0,0.7201023094999999,-1.4144131295,9.384179518,-0.10854202618152736,-0.010447540902438057,-0.05653819578910431,9.51745433732676,0.12282951657312088,0.023928225999999886,0.010787314999999742,-0.06943108199999948
258452.0,0.6662638009999999,-1.479038953,9.381825921999999,-0.12266348515941349,0.03378433833085424,-0.0472129015956986,9.52103572662793,0.1357084013058602,-0.05383850849999994,-0.06462582350000012,-0.002353596000000735
258462.0,0.6051683715,-1.5508236309999999,9.433310834499999,-0.13865244643693353,0.06576051555664235,-0.0541401133968641,9.57907281487238,0.16272706654962912,-0.06109542949999991,-0.07178467799999977,0.051484912499999425
258472.0,0.5297552329999999,-1.5664162045,9.500290254,-0.15277390541481964,0.07402115890633151,-0.07066140009624243,9.643122691475954,0.18388048184919978,-0.07541313850000009,-0.015592573500000206,0.06697941950000086
258482.0,0.493862894,-1.5293470675,9.548146705999999,-0.1578371055748552,0.04684114646502382,-0.08664861604451048,9.68245364203927,0.18605006734971852,-0.03589233899999994,0.03706913700000003,0.04785645199999955
258492.0,0.5381889519999999,-1.5089492355,9.5374574575,-0.14957646222516605,0.005272639670274869,-0.0922441416264043,9.671073875066474,0.17581211688982423,0.044326057999999946,0.020397832000000005,-0.010689248499998527
258502.0,0.5692760324999999,-1.5029671789999999,9.474008432,-0.13492093249616965,-0.02510307063143444,-0.08877966306119557,9.609361129229,0.16344922989730531,0.031087080499999975,0.005982056500000166,-0.06344902550000064
258512.0,0.6291946639999999,-1.511400898,9.433310834499999,-0.12639499910017735,-0.032032027761851926,-0.0813201258381718,9.574318351714462,0.15367078273505988,0.059918631499999986,-0.008433719000000117,-0.04069759750000124
258522.0,0.6662638009999999,-1.5328774615,9.385356316,-0.11920075192345672,-0.01817585883026895,-0.0719930863155141,9.533023336947137,0.1404356990959507,0.03706913700000003,-0.021476563500000045,-0.04795451849999921
258532.0,0.655476486,-1.5268954049999999,9.336323066,-0.11173946937118096,0.0018099064343181197,-0.06533116456065174,9.483036823414357,0.1294493948981803,-0.010787314999999964,0.005982056500000166,-0.04903324999999903
258542.0,0.6614585424999999,-1.549646833,9.361428089999999,-0.10267946522407839,0.01832944780444445,-0.0642665137169352,9.511848852600329,0.12251214642168179,0.005982056499999944,-0.022751428000000073,0.025105023999998366
258552.0,0.633901856,-1.5185597524999999,9.430859172,-0.0925530649040073,0.02126160094779492,-0.06719692153103368,9.573346332764194,0.11633379457937647,-0.027556686499999872,0.031087080500000086,0.06943108200000125
258562.0,0.6112484945,-1.525718607,9.465574712999999,-0.09042201788732222,0.013267992973660893,-0.0727924471129275,9.607213260730687,0.11683715724482809,-0.02265336150000008,-0.007158854500000089,0.03471554099999885
258572.0,0.6255662034999999,-1.48864947,9.500290254,-0.09974905740997993,0.0047403142484166,-0.08052076504075839,9.63654114450512,0.12828070250860896,0.014317708999999956,0.03706913700000003,0.03471554100000063
258582.0,0.6423355749999999,-1.4383413555,9.512254366999999,-0.1112053986200707,-0.0005881759579220891,-0.0829188474329986,9.64180501713049,0.13871741740972257,0.01676937150000002,0.050308114499999945,0.011964112999999443
258592.0,0.6949972855,-1.4730568965,9.4823440845,-0.12372988133238201,-5.585053606381855e-05,-0.07918733349223472,9.621214433949111,0.14690037589951263,0.052661710500000014,-0.03471554099999996,-0.029910282499999497
258602.0,0.7153951175,-1.4610927835,9.4464517455,-0.12452924212979541,0.004473278872861466,-0.06986203929882902,9.585511612647423,0.14285743559327505,0.020397832000000005,0.011964112999999887,-0.035892339000000106
258612.0,0.7046078024999999,-1.4599159855,9.444000082999999,-0.11706795957751964,0.011669271378834088,-0.06106907052728159,9.582116906392152,0.132553802017229,-0.010787315000000075,0.0011767980000001454,-0.0024516625000003955
258622.0,0.6949972855,-1.470605234,9.421346721499999,-0.10667626921114541,0.02126160094779492,-0.05200906638017903,9.560725653831897,0.1205687566221445,-0.00961051699999993,-0.010689248500000081,-0.022653361499999747
258632.0,0.6099736299999999,-1.4754104925,9.462044319,-0.09654986889107432,0.027389451951547013,-0.048012262393112015,9.59579004800515,0.11125302962703884,-0.08502365550000002,-0.00480525850000002,0.04069759750000124
258642.0,0.5932042585,-1.501790381,9.500290254,-0.09468585724994437,0.025523694981165072,-0.04881162319052541,9.636533637725446,0.10954197883524942,-0.016769371499999908,-0.02637988849999995,0.038245934999999065
258652.0,0.548976267,-1.4933566619999998,9.5494215705,-0.1010807436292516,0.01353328301996403,-0.05467243881872237,9.681060964212534,0.11571318873977968,-0.04422799150000001,0.008433719000000117,0.049131316500000466
258662.0,0.53936575,-1.5137544939999998,9.569721336,-0.1112053986200707,-5.585053606381855e-05,-0.05893627818134452,9.703707256975136,0.12585757302363662,-0.00961051700000004,-0.020397832000000005,0.020299765500000788
258672.0,0.552506661,-1.5209133485,9.546969908,-0.1181343557504882,-0.010981611653548322,-0.05920331355689965,9.683133555226446,0.13259469875982535,0.013140911000000033,-0.007158854500000089,-0.022751428000001184
258682.0,0.5920274605,-1.5712214629999999,9.420071857,-0.12426220675424028,-0.01151393707540659,-0.06053499977617133,9.568541539378996,0.1387016689600779,0.03952079949999998,-0.050308114499999945,-0.1268980509999995
258692.0,0.5884970665,-1.5580805519999998,9.392613236999999,-0.12319755591052374,0.0036739180754480636,-0.06613052535806514,9.539136607873237,0.13987273444272627,-0.0035303939999999923,0.013140911000000033,-0.027458620000000877
258702.0,0.6099736299999999,-1.55925735,9.359074494,-0.11387051638786605,0.02525840493486194,-0.06533116456065174,9.507661473625665,0.13368860304881522,0.021476563499999934,-0.0011767980000001454,-0.03353874299999937
258712.0,0.6124252925,-1.5400363160000001,9.3997720915,-0.10667626921114541,0.03937986391274806,-0.059470348932454786,9.544762541081619,0.1283250657383165,0.0024516625000000625,0.01922103399999986,0.04069759749999946
258722.0,0.552506661,-1.5185597524999999,9.499113455999998,-0.09761626506404285,0.041512656258685124,-0.05200906638017903,9.63558217142703,0.11814050457164592,-0.059918631499999986,0.021476563500000267,0.09934136449999897
258732.0,0.48072198299999996,-1.5161080899999997,9.5853139095,-0.09521818267180264,0.02339264796448,-0.04961098398793881,9.716373814811629,0.10988615937579395,-0.07178467800000005,0.0024516625000001735,0.08620045350000183
258742.0,0.44482964399999997,-1.5233650109999999,9.58894237,-0.09815033581515312,-0.0011222467090323538,-0.05600587036724604,9.719379102808029,0.11301064274614152,-0.035892338999999995,-0.007256921000000194,0.003628460499999875
258752.0,0.4903325,-1.5413111805,9.558934021,-0.10214713980222012,-0.01924050967398549,-0.06826331770400222,9.694807152982559,0.12435479856542156,0.045502856000000036,-0.017946169500000053,-0.030008348999999157
258762.0,0.507003805,-1.5280722029999998,9.533828997,-0.1088073162278305,-0.02057394122250916,-0.08185245126003006,9.668813415300958,0.13770309691290886,0.01667130499999997,0.013238977500000138,-0.025105024000000142
258772.0,0.4963145565,-1.4850210095,9.487149342999999,-0.11466987718527945,-0.012313297872819996,-0.08851437301489243,9.615488453221474,0.14538085248206306,-0.01068924849999997,0.04305119349999975,-0.04667965400000185
258782.0,0.5357372895,-1.5101260334999997,9.477538826,-0.12026540276717326,0.00021118483949131387,-0.09091245540713264,9.612036063121732,0.1507610236431841,0.03942273299999999,-0.025105023999999698,-0.009610516999998708
258792.0,0.5297552329999999,-1.514931292,9.476362027999999,-0.11920075192345672,0.010869910581420684,-0.09197885158010116,9.611300365303954,0.15095391135429326,-0.005982056500000055,-0.004805258500000242,-0.0011767980000012557
258802.0,0.5237731765,-1.5197365504999998,9.499113455999998,-0.1104060378226573,0.011402236003278955,-0.0898460592341641,9.634162857939799,0.14279992483710008,-0.005982056499999944,-0.004805258499999798,0.022751427999999407
258812.0,0.514260726,-1.4754104925,9.481167286499998,-0.09921498665886966,0.003141592653589793,-0.08558221987154195,9.609049553950843,0.1310641046978986,-0.009512450500000047,0.04432605799999978,-0.017946169500000053
258822.0,0.5082786695,-1.477862155,9.497936658,-0.08829097087063714,-0.01604306648433188,-0.07998669428964814,9.625654497977274,0.1202104270971783,-0.005982056499999944,-0.0024516624999999515,0.01676937150000235
258832.0,0.5094554675,-1.5209133485,9.49675986,-0.08162904911577479,-0.03549476099780868,-0.07945436886778985,9.631260048691361,0.11931544933501254,0.0011767980000000344,-0.04305119349999997,-0.0011767980000012557
258842.0,0.528578435,-1.5424879785,9.463221117,-0.07949625676983772,-0.043490114301194704,-0.08771501221747902,9.602667245874908,0.12611490098580516,0.019122967499999977,-0.02157463000000015,-0.03353874299999937
258852.0,0.5441710085,-1.525718607,9.4572390605,-0.07709817437759751,-0.04082499653339937,-0.09757437716199499,9.5949627410264,0.1308876155824597,0.015592573499999984,0.01676937150000013,-0.00598205650000061
258862.0,0.5848686059999999,-1.4694284359999998,9.499113455999998,-0.07363544114164076,-0.03576179637336381,-0.10237054194647541,9.629872671264662,0.13107559700565571,0.040697597499999905,0.05629017100000011,0.04187439549999894
258872.0,0.6279197995,-1.444323412,9.5398110535,-0.0754994527827707,-0.0325643531837102,-0.09917309875682179,9.668937290599015,0.1288251061936359,0.043051193500000084,0.02510502399999992,0.04069759750000124
258882.0,0.6375303164999999,-1.399997354,9.557757223,-0.07816457055056605,-0.04002563573598596,-0.08584925524709708,9.680762399184903,0.12280816842500941,0.00961051699999993,0.044326058,0.017946169500000053
258892.0,0.6662638009999999,-1.420395186,9.594924426499999,-0.07896393134797945,-0.046952847537151454,-0.07305948248848264,9.722345637097114,0.11737785279711119,0.028733484500000017,-0.020397832000000005,0.037167203499999246
258902.0,0.6591049465000001,-1.4658980419999998,9.6080653375,-0.07176968417125883,-0.05574581630869888,-0.0642665137169352,9.741570506325413,0.11130439518408274,-0.007158854499999867,-0.045502855999999925,0.013140911000000699
258912.0,0.6387071145,-1.4599159855,9.5721729985,-0.05897991141264438,-0.0722671030080772,-0.060802035151726455,9.703906294685858,0.11134653836565912,-0.020397832000000116,0.005982056499999944,-0.035892339000000106
258922.0,0.663910205,-1.5101260334999997,9.543439514,-0.047254789497746474,-0.09438391528934935,-0.060802035151726455,9.684962320769975,0.12181225748837916,0.025203090500000025,-0.05021004799999984,-0.028733484500000017
258932.0,0.656653284,-1.4838442115,9.5266701425,-0.04139222854029752,-0.10664136262610553,-0.06533116456065174,9.663872473464817,0.1317340421802038,-0.007256920999999972,0.026281821999999844,-0.016769371499998798
258942.0,0.7333412869999999,-1.5293470675,9.4715567695,-0.04352502088623458,-0.10184519784162512,-0.07572460025627797,9.622218015299328,0.13416812904158726,0.0766880029999999,-0.04550285600000015,-0.055113373000001076
258952.0,0.7667819634999999,-1.491003066,9.429682373999999,-0.06324375077526653,-0.06880262444286847,-0.08957902385860897,9.577575601210182,0.12945259618026847,0.033440676500000044,0.03834400150000006,-0.041874395500000716
258962.0,0.6806795765,-1.4071562085,9.421346721499999,-0.08855626091694029,-0.027235862977371513,-0.0999724595542352,9.550140696749086,0.13630295759459718,-0.08610238699999995,0.08384685749999998,-0.008335652499999568
