timestamp,ax,ay,az,gx,gy,gz,acc_mag,gyro_mag,dax,day,daz
147252.0,-0.30086802199999996,0.6934282214999999,9.982581301,0.026727972165041164,0.053160983686495286,-0.0499862297771176,10.011158459244848,0.07771163265497535,0.0,0.0,0.0
147262.0,-0.7689394264999999,0.24810824499999998,10.052012383,0.005944591432292687,-0.026511551337793864,-0.057714547704948486,10.084432482338729,0.0637900426275147,-0.46807140449999995,-0.4453199765,0.06943108199999948
147272.0,-0.057859234999999995,0.227710413,10.147725287,-0.0025830872929516074,-0.04516388505385727,-0.060644955519046966,10.150444730339782,0.07565883611996833,0.7110801914999999,-0.020397831999999977,0.09571290400000088
147282.0,-0.0842391235,0.4300216025,10.111832948,0.015536921001253522,-0.036103880906754704,-0.06357710866239745,10.121323054660547,0.07474580173226195,-0.026379888500000004,0.2023111895,-0.035892339000000106
147292.0,-0.09139797799999999,0.6180150830000001,10.109479352,0.027260297586899435,-0.05182580680871962,-0.059580304675330424,10.128764436085593,0.08353951628484715,-0.007158854499999992,0.1879934805000001,-0.002353596000000735
147302.0,-0.024320492,0.6527306239999999,9.992093751499999,0.010740756216773104,-0.05688900696875517,-0.04252669255409383,10.01342030939498,0.07183482816565823,0.06707748599999999,0.03471554099999985,-0.11738560050000046
147312.0,0.059428299,0.6718535915,9.941883703499999,-0.004447098934081553,-0.03876899867455004,-0.027871162825097447,9.964736351005596,0.047954287236699346,0.08374879099999999,0.019122967500000088,-0.050210048000000285
147322.0,0.091790244,0.6239971395,9.9430605015,-0.00684518132632176,-0.00279776279094691,-0.006286675965683575,9.963044214269411,0.009705991897901764,0.032361944999999996,-0.047856451999999994,0.0011767980000012557
147332.0,0.10738281749999999,0.5784942835,9.92629113,-0.01137605606449904,0.03690673236267209,0.016362461737446838,9.943713707818276,0.041943434520577166,0.015592573499999998,-0.045502856000000036,-0.016769371500000574
147342.0,0.048640984,0.5125935954999999,9.955024614500001,-0.02203478180642841,0.06461732489658606,0.031017991466443223,9.968331516095008,0.07498697273967135,-0.05874183349999999,-0.06590068800000004,0.028733484500001794
147352.0,-0.026772154499999996,0.44796777199999993,9.9897401555,-0.02922902898314904,0.06461732489658606,0.03741287784575045,9.999815010659766,0.08018390262883052,-0.07541313849999999,-0.06462582350000001,0.03471554099999885
147362.0,-0.050700380499999996,0.3964828595,9.999350672499999,-0.02976135440500731,0.04383394416383758,0.03634648167278191,10.007336461720787,0.0642512226106924,-0.023928226,-0.051484912499999924,0.009610516999998708
147372.0,-0.07698220249999999,0.39412926349999994,9.9658119295,-0.023366468025700082,0.00999375529691953,0.032349677685714895,9.973899515736726,0.04113840807931697,-0.02628182199999999,-0.002353596000000069,-0.03353874299999937
147382.0,-0.0842391235,0.37618309399999994,9.914327017,-0.012974777659325845,-0.02731091213520727,0.02995159529347469,9.921818893235029,0.0425597090872347,-0.007256921000000013,-0.017946169499999998,-0.051484912499999425
147392.0,-0.0854159215,0.35696205999999997,9.902362903999999,0.001413716694115407,-0.05182580680871962,0.02568775593085254,9.909162874554058,0.057859948591655344,-0.0011767980000000067,-0.01922103399999997,-0.01196411300000122
147402.0,-0.0734518085,0.3509800035,9.879611476,0.012072442436044778,-0.05955412473655051,0.023024383492309196,9.88611678303163,0.0649812270945167,0.011964113000000012,-0.005982056499999944,-0.022751427999999407
147412.0,-0.082964259,0.355785262,9.856860048,0.012072442436044778,-0.06141813637768046,0.017161822534860243,9.863627944462747,0.0649034628906425,-0.009512450500000005,0.004805258499999965,-0.022751427999999407
147422.0,-0.0734518085,0.331857036,9.783800505499999,0.0051452306348792835,-0.052092842184274755,0.004904375198104067,9.789702579340021,0.0525755694330136,0.009512450500000005,-0.023928225999999997,-0.07305954250000113
147432.0,-0.044718324,0.32822857549999995,9.74192611,-0.0033824480903650108,-0.033173473092656225,-0.00975115453089232,9.747556517352226,0.034741981618764094,0.028733484499999996,-0.0036284605000000414,-0.04187439549999894
147442.0,-0.0028439284999999996,0.390500803,9.714369423499999,-0.010843730642640768,-0.0065275314024587925,-0.022008601867648494,9.722215398832956,0.02538845636561807,0.041874395499999995,0.062272227500000055,-0.027556686500000538
147452.0,0.0199074995,0.44316251349999997,9.6916179955,-0.013507103081184116,0.021451841836262305,-0.028403488246955717,9.70176523590462,0.03807074331305732,0.022751427999999997,0.05266171049999996,-0.022751427999999407
147462.0,0.0175539035,0.49464742599999995,9.731138795,-0.011643091440054173,0.044633304961250994,-0.02387435883803043,9.74371830787049,0.05193918077879682,-0.0023535959999999995,0.05148491249999998,0.03952079949999998
147472.0,0.022359162,0.5018062805,9.767031134,-0.004714134309636684,0.06035523086321591,-0.01241627229868766,9.779938989983522,0.061799197184401536,0.0048052584999999995,0.007158854500000034,0.035892339000000106
147482.0,0.010395048999999998,0.5102399995,9.8628421045,0.000614355896702004,0.06301860330175926,0.004904375198104067,9.87603702364625,0.06321214037948798,-0.011964113,0.008433719000000006,0.09581097050000054
147492.0,-0.001569064,0.480329717,9.940608839,0.0008813912722571365,0.05289394831094015,0.017428857910415374,9.952206950671798,0.05569839949726265,-0.011964112999999998,-0.029910282499999996,0.07776673449999905
147502.0,-0.000392266,0.44080891749999995,10.011314785499998,-0.0015166911199830724,0.030777136029668008,0.023823744289722597,10.02101473853776,0.03895000957797333,0.001176798,-0.03952079950000004,0.07070594649999862
147512.0,-0.0195152335,0.41325223099999997,9.963360267,-0.006045820528908358,0.0004014257279586958,0.023024383492309196,9.971945951558268,0.0238083036708573,-0.0191229675,-0.027556686499999983,-0.047954518499997434
147522.0,0.006766588499999999,0.42884480449999995,9.887947128499999,-0.014041173832294382,-0.026778586713348998,0.017428857910415374,9.897244670567558,0.03490003376809983,0.026281822,0.015592573499999984,-0.07541313850000186
147532.0,0.0163771055,0.446790974,9.798216281,-0.017770942443806264,-0.03503923006303816,0.014496704767064902,9.80841132259888,0.04187730277674333,0.009610516999999999,0.017946169500000053,-0.08973084749999849
147542.0,0.0163771055,0.46836560399999994,9.7347672555,-0.01457349925415265,-0.027577947510762403,0.019292869551545317,9.74604166148236,0.03667621688438024,0.0,0.021574629999999928,-0.06344902550000064
147552.0,0.006766588499999999,0.48866536949999995,9.701228512499998,-0.006579891280018622,-0.006260496026903661,0.0254224658845494,9.713530474642647,0.026996121043787378,-0.009610516999999999,0.02029976550000001,-0.03353874300000115
147562.0,-0.004020726499999999,0.46954240199999997,9.747908166499998,0.0022130774915288098,0.02518161044777419,0.031817352263856624,9.75921102630919,0.04063686899613827,-0.010787314999999999,-0.019122967499999977,0.04667965400000007
147572.0,-0.060212830999999994,0.42639314199999995,9.816162450499998,0.0022130774915288098,0.04676435197793606,0.03448247003165197,9.825603388655976,0.05814501756284523,-0.05619210449999999,-0.04314926000000002,0.068254284
147582.0,-0.08659271949999998,0.3582369245,9.87725788,-0.006045820528908358,0.05342627373279842,0.030485666044584952,9.884131485424895,0.061808531005207015,-0.02637988849999999,-0.06815621749999995,0.061095429500001686
147592.0,-0.128467115,0.3390158905,9.9191322755,-0.015105824676010923,0.04623202655607779,0.024356069711580868,9.925755420748274,0.05439489268690259,-0.04187439550000001,-0.019221034000000026,0.041874395500000716
147602.0,-0.14523648649999998,0.32469818149999996,9.9226626695,-0.02256710722828668,0.025448645823329317,0.012897983172238095,9.929036055870132,0.036376721578580754,-0.01676937149999999,-0.014317709000000012,0.003530393999998438
147612.0,-0.164359454,0.3115572705,9.902362903999999,-0.01990198946049134,-0.0065275314024587925,0.0009075712110370514,9.908626193647425,0.020964768927863177,-0.019122967500000004,-0.013140910999999977,-0.020299765500000788
147622.0,-0.15121854299999998,0.3509800035,9.864018902499998,-0.006045820528908358,-0.028909633730034075,-0.01001818990644745,9.87141949870844,0.031187866186613972,0.013140911000000005,0.03942273300000004,-0.0383440015000005
147632.0,-0.127290317,0.3929524655,9.834108619999999,0.010473720841217971,-0.04383219883458559,-0.016146040910199545,9.842779425289523,0.047871234786751087,0.023928225999999997,0.04197246199999999,-0.029910282499999497
147642.0,-0.0722750105,0.39893452199999996,9.812533989999999,0.019533724988320535,-0.046497316602380934,-0.018544123302439753,9.820906054682096,0.05373501067458233,0.055015306499999986,0.005982056499999944,-0.021574629999999928
147652.0,-0.0171616375,0.41688069149999996,9.812533989999999,0.015536921001253522,-0.03184178687338455,-0.018811158677994884,9.82140047740914,0.0401142742212537,0.055113373,0.017946169499999998,0.0
147662.0,0.0187307015,0.43237519849999995,9.774288055,-0.00018500490071139895,-0.008126252997285598,-0.01561371548834127,9.78386458070492,0.01760279312893407,0.035892338999999995,0.01549450699999999,-0.038245934999999065
147672.0,0.021182364,0.44443737799999994,9.811357192,-0.016971581646392862,0.016121606300671623,-0.010817550703860855,9.821440995318266,0.02578682176082649,0.0024516625,0.012062179499999992,0.037069136999999586
147682.0,-0.012356378999999999,0.48150651499999997,9.795764618499998,-0.02203478180642841,0.038505453957498895,-0.0036215581978882336,9.80759938339377,0.044511990266788426,-0.033538742999999996,0.03706913700000003,-0.015592573500001095
147692.0,-0.047071919999999996,0.5090632015,9.793411022499999,-0.017238617021947993,0.045165630383109265,0.0035726889788323924,9.806745666346119,0.04847543905187975,-0.034715540999999996,0.027556686499999983,-0.0023535959999989586
147702.0,-0.056682437,0.46954240199999997,9.828126563499998,-0.004181808887778414,0.03743905778453036,0.007834783012202546,9.839499718690705,0.03847797289639364,-0.009610517000000006,-0.03952079949999998,0.03471554099999885
147712.0,-0.07825706699999999,0.4192342875,9.893929185,0.007808603073422631,0.022251202633675707,0.007302457590344274,9.903116493010966,0.024686356301851002,-0.021574629999999984,-0.050308114499999945,0.06580262150000138
147722.0,-0.09492837199999998,0.409721837,9.925114332,0.013938199406426715,-0.0009320058205649721,0.0009075712110370514,9.934021234263446,0.013998775769544431,-0.016671304999999997,-0.009512450500000047,0.031185147000000413
147732.0,-0.11414940599999998,0.409721837,9.958653075,0.012339477811599909,-0.02491282974296706,-0.007086036763096978,9.967731594440723,0.028690132719682435,-0.019221033999999998,0.0,0.03353874300000115
147742.0,-0.055505638999999996,0.389324005,9.914327017,0.004345869837465881,-0.044099234210140725,-0.014547319315372738,9.922123475186456,0.0466396134399553,0.058643766999999986,-0.020397832000000005,-0.04432605800000111
147752.0,-0.018338435499999996,0.4192342875,9.8485243955,-0.003115412714809878,-0.04782900282165261,-0.017477727129471217,9.85746044652429,0.05101754848000349,0.037167203499999996,0.02991028250000005,-0.0658026214999996
147762.0,0.013925443,0.4384553215,9.8030215395,-0.008178612874845429,-0.037170277079723237,-0.014547319315372738,9.812831818125456,0.04074486109932641,0.032263878499999996,0.01922103399999997,-0.04550285600000059
147772.0,0.022359162,0.47915291899999995,9.7335904575,-0.007646287452987157,-0.021715386553313447,-0.007620107514207243,9.74540253895377,0.024250562127538674,0.008433719,0.04069759749999996,-0.06943108199999948
147782.0,0.0187307015,0.4994526845,9.7216263445,-0.0017837264955382049,0.0004014257279586958,0.0009075712110370514,9.734465707233724,0.0020412026673153833,-0.0036284604999999998,0.020299765500000067,-0.011964112999999443
147792.0,0.006766588499999999,0.48866536949999995,9.7490849645,0.004878195259324152,0.019586084865880368,0.010499900779997887,9.76132661450832,0.02275213013656877,-0.011964112999999998,-0.010787315000000075,0.0274586199999991
147802.0,-0.004020726499999999,0.45512662649999996,9.7814469095,0.005677556056737553,0.027846728215569525,0.015296065564478304,9.792030435806353,0.032274518382804915,-0.010787314999999999,-0.03353874299999998,0.03236194499999989
147812.0,-0.012356378999999999,0.41089863499999996,9.830480159499999,0.000614355896702004,0.0291784144348412,0.012365657750379825,9.839071629715376,0.03169647920035742,-0.008335652499999999,-0.04422799150000001,0.04903324999999903
147822.0,-0.038736267500000005,0.375006296,9.854506451999999,-0.0057805304826052195,0.027312657464459263,0.009168214560726213,9.861715248016903,0.029384552891999607,-0.026379888500000004,-0.03589233899999994,0.024026292500000324
147832.0,-0.080610663,0.37971348799999993,9.859213644,-0.01137605606449904,0.018254398646608695,0.00836885376331281,9.866852288850492,0.02307976245206284,-0.041874395499999995,0.004707191999999916,0.00470719200000147
147842.0,-0.09620323649999998,0.3929524655,9.864018902499998,-0.013507103081184116,0.0097267199213644,0.006236061417375739,9.872311563749033,0.017774683571745598,-0.015592573499999984,0.013238977500000082,0.004805258499997578
147852.0,-0.11532620399999999,0.40011132,9.843719136999999,-0.009245009047813963,0.0020001473227855017,0.006503096792930872,9.852522298876629,0.011478721597165594,-0.019122967500000004,0.007158854499999978,-0.020299765499999012
147862.0,-0.1356259695,0.3833419485,9.830480159499999,-0.000450294947014537,-0.012390092359907744,0.004637339822548933,9.83888640138739,0.013237147534727762,-0.02029976550000001,-0.01676937150000002,-0.01323897750000036
147872.0,-0.10571568699999999,0.3845187465,9.795764618499998,0.008607963870836033,-0.03130771612227429,-0.0025569073541716926,9.80387856585057,0.03257004614691771,0.02991028250000001,0.0011767980000000344,-0.03471554100000063
147882.0,-0.059036033,0.3725546335,9.809003596,0.014470524828284986,-0.028644343683730936,-0.011616911501274257,9.81625354982621,0.034129857115231914,0.04667965399999999,-0.011964112999999998,0.013238977500002136
147892.0,-0.069823348,0.38569554449999993,9.847249531,0.015004595579395251,-0.014788174752147954,-0.02227563724320363,9.855047421436023,0.030659941545803284,-0.010787314999999992,0.013140910999999922,0.038245934999999065
147902.0,-0.024320492,0.45159623249999997,9.850877991499999,0.011007791592328238,-0.003063052837250048,-0.035330700048121215,9.861253867889133,0.03713235966531389,0.045502855999999994,0.06590068800000004,0.003628460499999875
147912.0,0.011571847,0.48748857149999997,9.884416734499998,0.005677556056737553,0.01718800247364016,-0.04172733175668043,9.896437399198245,0.045484418071943374,0.035892338999999995,0.035892338999999995,0.03353874299999937
147922.0,0.010395048999999998,0.5437787424999999,9.9179554775,-0.0009843656981248017,0.03237585762449481,-0.03932750403518823,9.932856801117735,0.05094916786746325,-0.0011767980000000015,0.056290170999999944,0.03353874300000115
147932.0,0.0199074995,0.573689025,9.889221993,-0.007112216701876893,0.03743905778453036,-0.029735174466227393,9.905868312913142,0.04833681076307002,0.0095124505,0.02991028250000005,-0.028733484500000017
147942.0,0.035500073,0.561724912,9.893929185,-0.01137605606449904,0.03210882224893968,-0.01561371548834127,9.90992582463356,0.03747237955010994,0.015592573500000002,-0.011964112999999998,0.004707191999999694
147952.0,0.04511059,0.5329914275,9.914327017,-0.012974777659325845,0.01718800247364016,0.0022392574303087246,9.92874589397547,0.021651479353198805,0.009610516999999999,-0.028733484500000017,0.02039783200000045
147962.0,0.00196133,0.54132708,9.885593532499998,-0.010309659891530504,-0.004661774432076854,0.02142566189748239,9.90040394853475,0.024229738250336648,-0.04314926,0.008335652500000013,-0.028733484500001794
147972.0,-0.010002783,0.5222041125,9.8485243955,-0.006579891280018622,-0.023048818101837117,0.03661351704833704,9.862364318941898,0.043761771168421726,-0.011964112999999998,-0.019122967499999977,-0.03706913699999781
147982.0,-0.018338435499999996,0.45041943449999994,9.832931821999999,-0.0015166911199830724,-0.027844982886317534,0.045406485819884476,9.843259733507601,0.05328594916489826,-0.008335652499999997,-0.07178467800000005,-0.015592573500001095
147992.0,-0.07462860649999999,0.3929524655,9.809003596,0.0011484266478122688,-0.02065073570959691,0.04673817203915615,9.817155016367604,0.05110996472973528,-0.056290170999999986,-0.05746696899999992,-0.023928225999998887
148002.0,-0.112972608,0.365395779,9.813808854499998,8.203047484373349e-05,-0.012390092359907744,0.033948399280541705,9.821258632076232,0.03613882858362916,-0.038344001500000016,-0.02755668650000004,0.004805258499997578
148012.0,-0.12366185649999999,0.3582369245,9.814985652499999,-0.0015166911199830724,-0.0014643312424232424,0.013432053923348359,9.82229959365978,0.013596495524241177,-0.010689248499999984,-0.007158854499999978,0.0011767980000012557
148022.0,-0.1201314625,0.37020103749999994,9.7922342245,-0.003115412714809878,0.011857766938049475,-0.0038885935734433662,9.799965891977255,0.012862099094631612,0.0035303939999999923,0.011964112999999943,-0.022751427999999407
148032.0,-0.112972608,0.40128811799999997,9.7922342245,-0.003115412714809878,0.025980971245187588,-0.01561371548834127,9.801104329170025,0.03047137631577759,0.007158854499999992,0.03108708050000003,0.0
148042.0,-0.0734518085,0.386970409,9.777818449,-0.0017837264955382049,0.03210882224893968,-0.02387435883803043,9.785748560392214,0.04005175597089259,0.03952079950000001,-0.014317708999999956,-0.014415775499999839
148052.0,-0.047071919999999996,0.42766800650000003,9.843719136999999,-0.000450294947014537,0.030777136029668008,-0.02413964888433357,9.853117381700889,0.0391172278668479,0.026379888499999997,0.040697597500000016,0.06590068799999926
148062.0,-0.0722750105,0.45993188499999993,9.8532315875,0.0016807520696705393,0.02464928502591592,-0.017744762505026348,9.864224943344013,0.0304185597319849,-0.025203090500000004,0.0322638784999999,0.009512450500000824
148072.0,-0.0842391235,0.45394982849999993,9.873629419499999,0.0008813912722571365,0.008127998326537593,-0.008951793733478916,9.884418272733056,0.012123358380323556,-0.011964112999999998,-0.005982056499999999,0.020397831999998672
148082.0,-0.0638412915,0.44796777199999993,9.855683249999998,-0.0036477381366681488,-0.009992009967667536,-0.004687954370856769,9.866065231873423,0.01162424934741619,0.020397832000000005,-0.005982056499999999,-0.017946169500000053
148092.0,-0.0518771785,0.41442902899999995,9.812533989999999,-0.0025830872929516074,-0.025446900494077326,-0.0054873151682701725,9.821418734919732,0.026159658110808878,0.011964112999999992,-0.03353874299999998,-0.043149259999999856
148102.0,-0.047071919999999996,0.42766800650000003,9.8185160465,0.0035465090400524776,-0.032641147670797954,-0.007086036763096978,9.827938392400217,0.033589197142027294,0.004805258500000006,0.013238977500000082,0.00598205650000061
148112.0,-0.067469752,0.446790974,9.7718363925,0.012339477811599909,-0.032641147670797954,-0.008152432936065514,9.78227789544287,0.03583530935692967,-0.020397831999999998,0.019122967499999977,-0.04667965400000007
148122.0,-0.0279489525,0.4778780545,9.801746675,0.016336281798666925,-0.020916025755900045,-0.011082840750163993,9.813428883921874,0.02876079963284098,0.039520799499999995,0.031087080499999975,0.029910282500001273
148132.0,-0.011179581,0.4707192,9.807826797999999,0.016336281798666925,0.0012007865253720988,-0.013747958517959333,9.819122570161088,0.02138509655569743,0.016769371499999998,-0.007158854499999978,0.006080122999998494
148142.0,-0.011179581,0.4982758865,9.819790910999998,0.00967436004380457,0.02864608901298293,-0.014547319315372738,9.832430898707443,0.03355318401076596,0.0,0.027556686499999983,0.011964112999999443
148152.0,-0.0028439284999999996,0.517398854,9.887947128499999,-0.00124965574442794,0.04836307357276287,-0.01561371548834127,9.901475045570796,0.05083637119459772,0.008335652499999999,0.019122967499999977,0.06815621750000034
148162.0,0.011571847,0.5198505165,9.9083449605,-0.010309659891530504,0.059021799314692244,-0.01214923692313253,9.921979556692003,0.061134816915054596,0.014415775499999998,0.0024516625000000625,0.02039783200000045
148172.0,-0.013533176999999999,0.518575652,9.9322731865,-0.012707742283770713,0.05422563453021183,-0.0022898719786165604,9.945810902334399,0.055741812563221235,-0.025105023999999997,-0.001274864500000028,0.023928226000000663
148182.0,-0.014808041499999999,0.49709908849999995,9.916680612999999,-0.010309659891530504,0.035573300814148424,0.007834783012202546,9.92914302254382,0.037856738406011996,-0.0012748645000000003,-0.021476563500000045,-0.015592573500001095
148192.0,-0.043541526000000004,0.48268331299999995,9.938255242999999,-0.003914773512223281,0.005996951309852516,0.01822821870782878,9.950065141502945,0.01958460706588687,-0.028733484500000003,-0.014415775500000005,0.021574629999999928
148202.0,-0.053053976499999995,0.4731708625,9.911973420999999,0.004345869837465881,-0.022514747350726852,0.024356069711580868,9.923402767607081,0.03345173485346679,-0.009512450499999991,-0.009512450499999936,-0.02628182199999962
148212.0,-0.0661948875,0.44316251349999997,9.8712758235,0.013405873984568445,-0.044099234210140725,0.026221826681962806,9.881440237137417,0.05302871024030164,-0.013140910999999998,-0.030008349000000045,-0.04069759749999946
148222.0,-0.0854159215,0.3976596575,9.8400906765,0.019266689612765404,-0.051026446011306216,0.024089034336025737,9.848492961087546,0.05962537292480121,-0.019221034000000012,-0.04550285599999998,-0.031185147000000413
148232.0,-0.093751574,0.389324005,9.777818449,0.016336281798666925,-0.03850370862824691,0.017694147956718514,9.786015336187731,0.045414673323152265,-0.008335652499999999,-0.008335652500000013,-0.06227222749999939
148242.0,-0.0842391235,0.365395779,9.782623707499999,0.007009242276009227,-0.017985617941801566,0.005970771371072602,9.7898078074996,0.02020549531186676,0.009512450500000005,-0.023928225999999997,0.004805258499999354
148252.0,-0.067469752,0.3713778355,9.750359828999999,-0.005246459731494954,0.010526080718777801,-0.007086036763096978,9.757663165897483,0.013730827798074878,0.016769371500000005,0.005982056499999999,-0.03226387850000023
148262.0,-0.0422666615,0.40011132,9.764677537999999,-0.015372860051566056,0.0409035363497391,-0.013215633096101064,9.772962854743092,0.04565169296105266,0.025203090499999997,0.028733484500000017,0.014317709000000178
148272.0,-0.0422666615,0.4157038934999999,9.752713425,-0.01750390706825113,0.06062052090951905,-0.013215633096101064,9.761660481082131,0.06446617156405497,0.0,0.015592573499999929,-0.011964112999999443
148282.0,-0.050700380499999996,0.412075433,9.798216281,-0.012974777659325845,0.06328563867731439,-0.008419468311620645,9.807008666271201,0.06514832587837477,-0.008433719,-0.0036284604999999304,0.04550285600000059
148292.0,-0.050700380499999996,0.40844697249999995,9.842542339,-0.0023160519173964756,0.04649906193163293,-0.0014905111812031574,9.851144052998862,0.046580559041162255,0.0,-0.0036284605000000414,0.044326057999999335
148302.0,-0.045895122,0.389324005,9.891575588999999,0.008874999246391164,0.01718800247364016,0.004105014400690663,9.899340744513914,0.01977483713933396,0.0048052584999999995,-0.019122967499999977,0.04903324999999903
148312.0,-0.07825706699999999,0.36892617299999997,9.9310963885,0.015004595579395251,-0.009192649170254133,0.006503096792930872,9.938254684165505,0.018759876203397755,-0.03236194499999999,-0.020397832000000005,0.03952079950000176
148322.0,-0.127290317,0.37373143149999993,9.920309073499999,0.012072442436044778,-0.02438050432110879,0.0067701321684860045,9.928162474569975,0.028035469443224742,-0.04903325,0.004805258499999965,-0.01078731500000174
148332.0,-0.128467115,0.38569554449999993,9.8975576455,0.00727627765156436,-0.03237411229524282,0.005171410573659199,9.9059028966914,0.03358229966349835,-0.0011767980000000067,0.011964112999999998,-0.022751427999999407
148342.0,-0.11532620399999999,0.37971348799999993,9.872452621499999,0.0011484266478122688,-0.028110272932620674,-0.00042411500823462205,9.880425255527232,0.02813691883721531,0.013140911000000005,-0.005982056499999999,-0.025105024000000142
148352.0,-0.080610663,0.425216344,9.804198337499999,-0.004447098934081553,-0.013454743203624287,-0.006553711341238708,9.813746076765577,0.01561274914770823,0.03471554099999999,0.04550285600000009,-0.068254284
148362.0,-0.071000146,0.4384553215,9.7910574265,-0.003914773512223281,0.012924163111018011,-0.010550515328305723,9.80112695656497,0.017136884707116922,0.009610516999999999,0.013238977499999971,-0.013140910999998923
148372.0,-0.08178746099999999,0.4778780545,9.819790910999998,-0.00018500490071139895,0.041702897147152515,-0.01214923692313253,9.831752140870298,0.043436963695609246,-0.010787314999999992,0.03942273299999999,0.02873348449999824
148382.0,-0.082964259,0.483860111,9.9095217585,0.003811799086355616,0.058489473892833974,-0.014014993893514467,9.921674513784117,0.060265814707597676,-0.0011767980000000067,0.005982056499999999,0.08973084750000204
148392.0,-0.060212830999999994,0.436003659,9.998075808,0.005944591432292687,0.057423077719865434,-0.01561371548834127,10.007759221633645,0.059804148129284994,0.022751428000000004,-0.047856451999999994,0.08855404949999901
148402.0,-0.0661948875,0.436003659,10.042401866,0.003811799086355616,0.042235222569010786,-0.016146040910199545,10.052080192280243,0.04537662916967783,-0.005982056499999999,0.0,0.04432605800000111
148412.0,-0.0734518085,0.41442902899999995,10.0375966075,-0.0023160519173964756,0.011325441516191205,-0.014814354690927869,10.04641688579293,0.018790817622694328,-0.0072569209999999995,-0.02157463000000004,-0.0048052585000011305
148422.0,-0.049523582499999996,0.43718045699999997,9.998075808,-0.009510299094117103,-0.016652186393277896,-0.00975115453089232,10.007751955345476,0.021513393856418282,0.023928225999999997,0.022751428000000018,-0.03952079949999998
148432.0,-0.056682437,0.46591394149999993,9.92629113,-0.015372860051566056,-0.03583859086045156,-0.000158824961931484,9.937381158890153,0.038996854314116286,-0.007158854500000006,0.02873348449999996,-0.07178467800000021
148442.0,-0.056682437,0.46591394149999993,9.855683249999998,-0.014840534629707783,-0.043032838037172186,0.008101818387757679,9.866852640223165,0.04623533366179223,0.0,0.0,-0.07060788000000073
148452.0,-0.0518771785,0.46110868299999996,9.814985652499999,-0.010843730642640768,-0.031574751497829415,0.012098622374824694,9.825948087485907,0.03550954927577138,0.0048052584999999995,-0.004805258499999965,-0.04069759749999946
148462.0,-0.059036033,0.495824224,9.776641651,-0.007112216701876893,-0.007326892199872196,0.016095426361891707,9.789384499873606,0.01906120996930896,-0.007158854499999999,0.034715541000000016,-0.038344001499998726
148472.0,-0.0626644935,0.483860111,9.7490849645,-0.007911577499290296,0.00999375529691953,0.01849350875413192,9.761286036727052,0.022460589250977755,-0.0036284604999999998,-0.011964112999999998,-0.027556686500000538
148482.0,-0.045895122,0.42884480449999995,9.779093313499999,-0.014041173832294382,0.025448645823329317,0.01822821870782878,9.78859950466411,0.034308251108011965,0.016769371500000005,-0.05501530650000003,0.030008348999999157
148492.0,-0.0661948875,0.37373143149999993,9.834108619999999,-0.020701350257904743,0.042767547990869056,0.019292869551545317,9.84143024646217,0.051281808462501445,-0.020299765499999997,-0.05511337300000002,0.05501530649999964
148502.0,-0.09492837199999998,0.32822857549999995,9.799393079,-0.025499260371637154,0.04410097953939272,0.018760544129687046,9.805348036165693,0.054286892449986635,-0.02873348449999999,-0.04550285599999998,-0.03471554099999885
148512.0,-0.138077632,0.273213269,9.816162450499998,-0.023898793447558353,0.028379053637427796,0.011566296952966421,9.820934587778423,0.03886260720550362,-0.04314926000000002,-0.05501530649999997,0.016769371499998798
148522.0,-0.1799520275,0.2899826405,9.8053751355,-0.015905185473424326,0.0025324727446437724,-0.0006911503837897546,9.811312563152514,0.016120360789988682,-0.041874395499999995,0.01676937150000002,-0.010787314999998188
148532.0,-0.17396997099999997,0.3258749795,9.775464852999999,-0.004714134309636684,-0.028110272932620674,-0.014014993893514467,9.782442084945464,0.031762093137432994,0.005982056500000027,0.035892338999999995,-0.029910282500001273
148542.0,-0.11532620399999999,0.37971348799999993,9.729961996999998,0.0051452306348792835,-0.037170277079723237,-0.02094220569467996,9.738051290138205,0.04297300170837248,0.058643766999999986,0.05383850849999994,-0.04550285600000059
148552.0,-0.0985568325,0.45159623249999997,9.728785199,0.010208430794914833,-0.021183061131455176,-0.019610519475408286,9.739759445423799,0.030618729762824915,0.01676937149999999,0.07188274450000004,-0.001176797999997703
148562.0,-0.09492837199999998,0.5281861689999999,9.751536627,0.011273081638631374,0.009459684545809267,-0.01587900553464441,9.766291958192527,0.02164973020863628,0.0036284605000000136,0.07658993649999996,0.022751427999999407
148572.0,-0.09492837199999998,0.46709073949999996,9.831755023999998,0.01180715238974164,0.03983714017677058,-0.013480923142404202,9.843301885378017,0.0436822832941418,0.0,-0.061095429499999965,0.08021839699999767
148582.0,-0.1009104285,0.4419857155,9.8952040495,0.009142034621946299,0.061953952458042715,-0.014547319315372738,9.90558415584499,0.06429225086638123,-0.005982056500000013,-0.025105023999999976,0.06344902550000242
148592.0,-0.112972608,0.44796777199999993,9.959829872999999,0.004078834461910748,0.06808180346179481,-0.019610519475408286,9.970539054334632,0.07096718486225513,-0.012062179500000006,0.005982056499999944,0.06462582349999835
148602.0,-0.138077632,0.4527730305,10.0232788985,-0.003115412714809878,0.056091391500593765,-0.027337092073987185,10.034450095880802,0.06247612824045785,-0.025105024000000004,0.004805258500000076,0.06344902550000064
148612.0,-0.10699055149999999,0.4396321195,10.028084157,-0.01137605606449904,0.03424161459487675,-0.032400292234022736,10.038286469237702,0.04849414148633601,0.031087080500000017,-0.013140911000000033,0.0048052585000011305
148622.0,-0.09620323649999998,0.4707192,9.9658119295,-0.01457349925415265,0.005462880558742251,-0.03293261765588101,9.977386383323351,0.036425090942622466,0.010787315000000006,0.03108708050000003,-0.062272227500001165
148632.0,-0.09738003449999999,0.49229383,9.914327017,-0.01137605606449904,-0.021715386553313447,-0.030002209841782528,9.927019506689378,0.03874409968153608,-0.0011767980000000067,0.021574629999999984,-0.051484912499999425
148642.0,-0.0661948875,0.48513497549999995,9.798216281,-0.0023160519173964756,-0.044898595007554123,-0.022008601867648494,9.810442395572078,0.05005623324127676,0.031185146999999996,-0.007158854500000034,-0.11611073599999955
148652.0,-0.0171616375,0.49229383,9.751536627,0.008874999246391164,-0.054490924576514964,-0.010550515328305723,9.763970213216563,0.05620800518182175,0.049033249999999994,0.007158854500000034,-0.04667965400000007
148662.0,-0.0399130655,0.5006294825,9.670141432,0.018467328815352003,-0.05155877143316449,0.0014398966328953218,9.68317397584226,0.05478523932214819,-0.022751427999999997,0.008335652499999957,-0.0813951950000007
148672.0,-0.0303025485,0.4647371435,9.656902454499999,0.029393089932836503,-0.03477219468748303,0.010232865404442754,9.668126182085246,0.04666659183580347,0.009610516999999999,-0.03589233899999994,-0.01323897750000036
