timestamp,ax,ay,az,gx,gy,gz,acc_mag,gyro_mag,dax,day,daz
263882.0,0.1267999845,-0.18073655949999998,9.807434532,-0.016203636775515357,0.004529129408925285,-0.02146231381177427,9.809919267734836,0.027270896063582184,0.0,0.0,0.0
263892.0,0.2860599805,-0.682346707,9.8349912185,-0.01700299757292876,0.006661921754862355,-0.02199463923363254,9.862782549005606,0.028587537196312966,0.159259996,-0.5016101475,0.027556686500000538
263902.0,0.30518294799999995,-0.7996342409999999,9.785859901999999,-0.02020044076258237,0.025047220095370623,-0.0020106192982974674,9.823217679187458,0.03224071387967741,0.019122967499999977,-0.11728753399999992,-0.04913131650000224
263912.0,0.2034879875,-0.8128732185,9.7583032155,-0.018601719167755566,0.039969785199922135,0.020371483029277816,9.79421522512391,0.048565471332378866,-0.10169496049999996,-0.013238977500000138,-0.02755668649999876
263922.0,0.06099736299999999,-0.8319961859999999,9.782329507999998,-0.02020044076258237,0.04183379684105209,0.0265010793622819,9.817836265435425,0.0534830026504401,-0.1424906245,-0.019122967499999866,0.024026292499998547
263932.0,-0.0610954295,-0.8499423555,9.763108474,-0.01700299757292876,0.025579545517228894,0.01957212223186441,9.800225596090597,0.03642091492524655,-0.12209279249999999,-0.017946169500000053,-0.019221033999999193
263942.0,-0.08865211599999999,-0.8140500165,9.767913732499999,-0.00847706417693646,0.0037297686115118824,0.008915141819187036,9.802177070049133,0.012855020210467824,-0.02755668649999999,0.035892338999999995,0.004805258499999354
263952.0,-0.087475318,-0.7829629359999999,9.7428087085,0.004579743957233121,-0.012524482712311309,0.0006544984694978735,9.774610192781726,0.013351595042217734,0.0011767979999999928,0.031087080500000086,-0.025105023999998366
263962.0,-0.07305954249999999,-0.749424193,9.739180248,0.015238469699162491,-0.023181463124988685,-0.0036093408931242737,9.768244787106708,0.027975320070917558,0.014415775500000005,0.033538742999999926,-0.003628460499999875
263972.0,-0.041972461999999995,-0.7577598455,9.7463391025,0.014971434323607358,-0.027712337863165966,-0.00840550567760469,9.775842039023495,0.03260015400645517,0.031087080499999996,-0.008335652500000013,0.007158854500000089
263982.0,0.003530394,-0.7709007564999999,9.761931676,0.013639748104335684,-0.02744530248761083,-0.012137019618368569,9.79232405953491,0.032963534431290124,0.045502855999999994,-0.013140910999999922,0.015592573499999318
263992.0,0.0418743955,-0.763741902,9.749967563,0.012308061885064012,-0.025047220095370623,-0.0108035880698449,9.779924469924152,0.029926061168409693,0.0383440015,0.007158854499999867,-0.011964112999999443
264002.0,0.06580262149999999,-0.7949270489999999,9.7331981915,0.011508701087650609,-0.01918465913792167,-0.007873180255746421,9.765827462803497,0.023716836093851282,0.02392822599999999,-0.031185146999999858,-0.016769371500000574
264012.0,0.1016949605,-0.8152268144999999,9.764285272,0.0091106186954104,-0.017320647496791724,-0.0036093408931242737,9.798785817491217,0.019900641808847725,0.03589233900000001,-0.02029976550000001,0.031087080500000752
264022.0,0.11483587149999999,-0.7996342409999999,9.785859901999999,0.007244861725028463,-0.01625425132382319,-0.0009442231253289323,9.819147428281859,0.017820781824128714,0.013140910999999991,0.015592573499999984,0.02157462999999815
264032.0,0.12444638849999999,-0.805714364,9.784683103999999,0.009909979492823802,-0.015187855150854655,0.001186823891356144,9.818588798074277,0.018173805011076363,0.009610516999999999,-0.006080123000000048,-0.0011767979999994793
264042.0,0.11483587149999999,-0.806891162,9.800275677499998,0.013107422682477415,-0.010658725741929371,0.001986184688769547,9.834107177557856,0.017010523020668526,-0.009610516999999999,-0.0011767980000000344,0.015592573499999318
264052.0,0.0801203305,-0.8200320729999999,9.864901501,0.011773991133953747,-0.004263839362622147,0.00012042771838760874,9.899250147993037,0.012522846967364231,-0.03471554099999999,-0.013140910999999922,0.0646258235000019
264062.0,0.0909076455,-0.822385669,9.880396008,0.0077771871468867325,0.0005323254218582705,-0.003077015471266003,9.914978954263557,0.008380694152805429,0.010787314999999992,-0.002353596000000069,0.015494506999999658
264072.0,0.11964113,-0.8009091055,9.890006524999999,0.003248057737961447,0.0031974431896536117,-0.007339109504636156,9.923104275366809,0.008639215840644003,0.028733484500000003,0.021476563499999934,0.009610516999998708
264082.0,0.10885381499999999,-0.7685471604999999,9.8708835575,0.0016493361431346415,0.0013316862192716736,-0.008672541053159824,9.901356275615806,0.00892785899409208,-0.010787315000000006,0.032361945000000114,-0.019122967499999532
264092.0,0.12444638849999999,-0.772175621,9.827734297500001,-0.002881538595042638,0.0002670353755551324,-0.004941027112395947,9.858808422701765,0.005726108756559729,0.015592573499999998,-0.003628460500000097,-0.04314925999999808
264102.0,0.128074849,-0.7745292169999999,9.8373448145,-0.009541715020653,0.0005323254218582705,-0.0017435839227423352,9.8686195424843,0.0097143080446194,0.0036284604999999998,-0.002353595999999847,0.009610516999998708
264112.0,0.09571290399999999,-0.7577598455,9.854114185999999,-0.018336429121452426,0.0013316862192716736,0.001186823891356144,9.883669730124065,0.01842299031269735,-0.032361945,0.016769371499999908,0.016769371499998798
264122.0,0.08737725149999999,-0.7709007564999999,9.80861133,-0.023664919327791117,-0.0037297686115118824,0.002518510110627818,9.839246870744546,0.02408905298810261,-0.008335652499999999,-0.013140910999999922,-0.045502855999998815
264132.0,0.08610238699999999,-0.7649187,9.738003449999999,-0.02153387231110604,-0.0085259333959923,0.0027855454861829498,9.768378853774493,0.023327204303977583,-0.0012748645000000003,0.005982056499999944,-0.07060788000000073
264142.0,0.117287534,-0.7781576775,9.698482650499999,-0.01780235837034216,-0.0063948863793072235,0.004117231705454623,9.730357211260719,0.01935898066187219,0.03118514700000001,-0.013238977500000026,-0.03952079949999998
264152.0,0.11964113,-0.7805112734999999,9.690146998,-0.01220683278844834,0.0034644785652087444,0.0035849062835963527,9.722266232257613,0.013185633527293898,0.0023535959999999995,-0.002353595999999958,-0.008335652499999568
264162.0,0.12209279249999999,-0.805714364,9.6865185375,-0.0023474678439323734,0.011725121914897906,0.0027855454861829498,9.720736786050093,0.012277962080618666,0.002451662499999993,-0.025203090500000025,-0.003628460499999875
264172.0,0.110030613,-0.8164036125,9.6996594485,0.008044222522441864,0.016786576745681462,0.0033178709080412204,9.734578317070316,0.01890785398165643,-0.012062179499999992,-0.010689248500000081,0.013140911000000699
264182.0,0.0789435325,-0.817678477,9.712898425999999,0.018170622842512963,0.020783380732748477,0.004916592502868027,9.747575391186563,0.028040922435014378,-0.031087080500000003,-0.001274864499999917,0.013238977499998583
264192.0,0.0646258235,-0.797280645,9.751144361,0.023499113048851654,0.014655529728996385,0.004916592502868027,9.783897448001833,0.02812766871888719,-0.014317708999999998,0.020397832000000005,0.03824593500000084
264202.0,0.026281822,-0.7816880715,9.764285272,0.026963591614060395,0.006927211801165493,0.004916592502868027,9.795559904787941,0.028270026846596602,-0.0383440015,0.015592573499999984,0.013140911000000699
264212.0,0.0346174745,-0.773352419,9.8469553315,0.025897195441091862,0.0013316862192716736,0.007049384848805097,9.877337780701346,0.02687251284579226,0.008335652500000002,0.008335652500000013,0.08267005949999984
264222.0,0.038245934999999995,-0.7314780235,9.868431894999999,0.021368066032166576,0.0015987215948268059,0.005717698629533424,9.895578351802422,0.02217751641439963,0.003628460499999993,0.04187439549999994,0.02147656349999849
264232.0,0.058643767,-0.761388306,9.886476131,0.010974630336540345,-0.0021310470166850766,0.0030525808617380824,9.915924643357988,0.011588879252476644,0.020397832000000005,-0.02991028249999994,0.01804423600000149
264242.0,0.07413827399999999,-0.7218675064999999,9.913934751,-0.00021642082724729686,-0.0034644785652087444,0.001186823891356144,9.940457304757043,0.0036685147747216426,0.01549450699999999,0.03952079950000009,0.0274586199999991
264252.0,0.08610238699999999,-0.7434421365,9.935509381,-0.010608111193621535,-0.0026651177677953415,0.001186823891356144,9.963657284918513,0.01100197376662709,0.011964112999999998,-0.02157463000000015,0.021574629999999928
264262.0,0.096889702,-0.7661935645,9.905599098499998,-0.01700299757292876,-0.0013316862192716736,0.001186823891356144,9.935659700937771,0.017096311461853787,0.010787315000000006,-0.022751427999999962,-0.029910282500001273
264272.0,0.11365907349999999,-0.797280645,9.856467782,-0.019935150716279233,-0.0010663961729685354,-0.0017435839227423352,9.889314028257191,0.020039648693880235,0.01676937149999999,-0.031087080499999975,-0.04913131649999869
264282.0,0.13160524299999998,-0.8152268144999999,9.8265574995,-0.020999801559995774,-0.0007993607974134029,-0.0036093408931242737,9.861193994139077,0.021322710543606353,0.017946169499999998,-0.017946169499999942,-0.029910282499999497
264292.0,0.1460210185,-0.8319961859999999,9.8014524755,-0.016735962197373624,-0.0013316862192716736,0.0003874630939427412,9.837784833022493,0.016793330417391446,0.014415775500000005,-0.01676937150000002,-0.025105024000000142
264302.0,0.14955141249999998,-0.809244758,9.785859901999999,-0.009276424974349861,-0.0,0.004117231705454623,9.820402065338396,0.010149071741846276,0.0035303939999999923,0.022751427999999962,-0.015592573500001095
264312.0,0.110030613,-0.809244758,9.809788128000001,-0.009541715020653,0.004796164784480418,0.006517059426946826,9.843725256750993,0.012510778782697808,-0.03952079949999998,0.0,0.02392822600000244
264322.0,0.0693330155,-0.772175621,9.8589194445,-0.01913578991886583,0.007194247176720627,0.006782349473249964,9.889355634713782,0.021539171586577185,-0.0406975975,0.03706913699999992,0.04913131649999869
264332.0,0.025105024,-0.7434421365,9.8600962425,-0.03192556267748028,0.0037297686115118824,0.008115781021773632,9.888115815660552,0.03315144985913168,-0.044227991499999994,0.028733484500000017,0.0011767979999994793
264342.0,0.017946169499999998,-0.752954587,9.818221846999998,-0.03858748443234263,-0.00559552558189382,0.007581710270663368,9.847067731664698,0.03972135687488779,-0.007158854500000002,-0.009512450499999936,-0.041874395500000716
264352.0,0.019122967499999997,-0.7781576775,9.7583032155,-0.03752108825937409,-0.014655529728996385,0.006517059426946826,9.789299091588521,0.04080549815134713,0.0011767979999999997,-0.025203090500000025,-0.059918631499998654
264362.0,0.043051193499999994,-0.8020859035,9.692500594,-0.029527480285240066,-0.014123204307138116,0.004916592502868027,9.725726860576826,0.033098487484108145,0.023928225999999997,-0.023928225999999997,-0.0658026214999996
264372.0,0.045404789499999994,-0.798457443,9.6745544245,-0.01700299757292876,-0.011458086539342773,0.0051836278784231585,9.7075537184094,0.021148514642642283,0.0023535959999999995,0.003628460499999986,-0.017946169500000053
264382.0,0.050210048,-0.7936521845,9.609928601,-0.004745550236172582,-0.007726572598578897,0.005982988675836562,9.642776185062038,0.010863531868611442,0.004805258500000006,0.00480525850000002,-0.06462582350000012
264392.0,0.0765899365,-0.8044394995,9.6661207055,0.006712536303170191,0.0005323254218582705,0.0022532200643246795,9.699839092481106,0.007100599596823471,0.026379888499999997,-0.010787315000000075,0.05619210449999912
264402.0,0.117287534,-0.8319961859999999,9.680536480999999,0.0091106186954104,0.006927211801165493,0.0003874630939427412,9.716931644254897,0.01145162713331759,0.0406975975,-0.027556686499999872,0.014415775499999839
264412.0,0.11248227549999999,-0.8116964204999999,9.681713279,0.008311257897996997,0.010658725741929371,0.0006544984694978735,9.716330344225597,0.013531955163067174,-0.004805258500000006,0.02029976550000001,0.0011767980000012557
264422.0,0.106500219,-0.8271909274999999,9.6661207055,0.016570155918434165,0.01119105116378764,0.001986184688769547,9.702034663949679,0.020093646332351778,-0.005982056499999999,-0.01549450699999999,-0.015592573500001095
264432.0,0.0885540495,-0.8439602989999999,9.727216134999999,0.026164230816646997,0.013856168931582983,-0.00014486232791552936,9.764161230898194,0.02960711699543532,-0.017946169499999998,-0.01676937150000002,0.06109542949999991
264442.0,0.07178467799999999,-0.8535708160000001,9.814593386499999,0.025897195441091862,0.009859364944515966,-0.003077015471266003,9.851902330019922,0.027880814784250297,-0.016769371500000005,-0.009610517000000152,0.08737725149999953
264452.0,0.0669794195,-0.8319961859999999,9.893634985499999,0.018170622842512963,0.0013316862192716736,-0.0036093408931242737,9.928782257782908,0.018573428987514153,-0.0048052584999999925,0.02157463000000015,0.07904159899999996
264462.0,0.082571993,-0.7864933299999999,9.934332583,0.011241665712095476,-0.0037297686115118824,0.0009197885158010117,9.96575906601288,0.011879908787180218,0.015592573499999998,0.045502856000000036,0.04069759750000124
264472.0,0.08610238699999999,-0.7805112734999999,9.9426682355,0.005379104754646523,-0.005328490206338688,0.008915141819187036,9.97362838240569,0.011696466538947806,0.0035303939999999923,0.005982056499999944,0.008335652499999568
264482.0,0.082571993,-0.7577598455,9.97140172,0.0016493361431346415,-0.0007993607974134029,0.010513863414013842,10.00049350677751,0.0106724229341809,-0.0035303939999999923,0.022751427999999962,0.028733484500000017
264492.0,0.04903325,-0.775706015,9.97140172,-0.007677703379523056,0.0031974431896536117,0.011578514257730382,10.001648681239093,0.014255972942997183,-0.033538742999999996,-0.017946169500000053,0.0
264502.0,0.008335652499999999,-0.7697239585,9.9318809205,-0.018336429121452426,0.002398082392240209,0.009714502616600437,9.961666681554018,0.020888920344861242,-0.0406975975,0.005982056500000055,-0.03952079949999998
264512.0,0.002353596,-0.7793344754999999,9.9091294925,-0.026063001720031325,-0.004796164784480418,0.00731642022436023,9.939729124239266,0.027492058129533942,-0.005982056499999999,-0.00961051699999993,-0.022751427999999407
264522.0,-0.016769371499999998,-0.7912985884999999,9.8373448145,-0.02579596634447619,-0.0085259333959923,0.004651302456564889,9.869133075774823,0.027563708648523543,-0.019122967499999997,-0.011964112999999998,-0.07178467800000021
264532.0,0.0346174745,-0.798457443,9.7870367,-0.023397883952235982,-0.01119105116378764,-0.00041189770347066176,9.819614046640007,0.025939742853600904,0.051386846,-0.007158854500000089,-0.050308114499999945
264542.0,0.07776673449999999,-0.8080679599999999,9.7331981915,-0.02286555853037771,-0.009592329568960835,-0.005208062487951079,9.76699383269961,0.025337136151193027,0.04314925999999999,-0.00961051699999993,-0.05383850850000016
264552.0,0.10532342099999999,-0.8032627014999999,9.691323795999999,-0.023397883952235982,-0.004796164784480418,-0.007606144880191288,9.725126267023377,0.02506626438104913,0.027556686499999997,0.00480525850000002,-0.041874395500000716
264562.0,0.12209279249999999,-0.8356246464999999,9.62424631,-0.02233323310851944,-0.0013316862192716736,-0.007606144880191288,9.661226228350484,0.023630491514239124,0.016769371500000005,-0.032361945,-0.06707748599999874
264572.0,0.1364105015,-0.8464119615,9.599141286,-0.013538519007720013,0.0013316862192716736,-0.005208062487951079,9.63735100855414,0.01456670175391112,0.014317709000000012,-0.010787315000000075,-0.025105024000000142
264582.0,0.14121576,-0.8643581309999999,9.608653736499999,0.002181661564992912,0.004796164784480418,-0.0020106192982974674,9.648486072822699,0.0056396306427587625,0.0048052584999999925,-0.017946169499999942,0.009512450499999048
264592.0,0.12562318649999998,-0.8356246464999999,9.691323795999999,0.01630486587213103,0.00799360797413403,0.002518510110627818,9.72809368035385,0.01833273882238158,-0.015592573500000012,0.028733484500000017,0.08267005949999984
264602.0,0.1016949605,-0.8200320729999999,9.7583032155,0.022966787626993383,0.012524482712311309,0.004117231705454623,9.793226031874145,0.026481835246651656,-0.023928225999999983,0.015592573499999984,0.06697941950000086
264612.0,0.0801203305,-0.805714364,9.810964925999999,0.02269975225143825,0.011990411961201045,0.0027855454861829498,9.844319564241985,0.025822625639767602,-0.021574629999999997,0.014317708999999956,0.052661710499998904
264622.0,0.026281822,-0.7829629359999999,9.875688815999998,0.017369516715847567,0.007194247176720627,0.0017191493132144146,9.906712435706652,0.01887889768347152,-0.05383850850000001,0.022751428000000073,0.06472388999999978
264632.0,0.019122967499999997,-0.821208871,9.912757953,0.010709340290237207,0.003996803987067015,-0.0009442231253289323,9.94673413399895,0.011469785040424195,-0.007158854500000002,-0.038245935000000064,0.03706913700000136
264642.0,0.047856451999999994,-0.7912985884999999,9.943845033499999,0.002181661564992912,0.0005323254218582705,-0.003342305517569141,9.975394616075231,0.004026664092235287,0.028733484499999996,0.02991028250000005,0.031087080499998976
264652.0,0.08492558899999998,-0.7805112734999999,9.9187400095,-0.010875146569176666,-0.003996803987067015,-0.0022776546738526,9.949764498709689,0.011808088999725247,0.03706913699999999,0.010787314999999964,-0.025105023999998366
264662.0,0.0801203305,-0.7829629359999999,9.8840244685,-0.02153387231110604,-0.007461282552275759,0.0027855454861829498,9.915310883699808,0.02295947860234435,-0.004805258499999979,-0.0024516624999999515,-0.03471554100000063
264672.0,0.047856451999999994,-0.7805112734999999,9.854114185999999,-0.02473131550075965,-0.006927211801165493,0.005450663253978291,9.885092537694579,0.02625517015074536,-0.03226387850000001,0.0024516624999999515,-0.029910282500001273
264682.0,0.072961476,-0.8009091055,9.8157701845,-0.023931954703346248,-0.004263839362622147,0.004651302456564889,9.848660979400808,0.024749816091755292,0.025105024000000004,-0.020397832000000116,-0.038344001499998726
264692.0,0.07776673449999999,-0.8260141295,9.761931676,-0.022598523154822577,-0.0021310470166850766,0.0033178709080412204,9.79712493816531,0.022939984253019897,0.0048052584999999925,-0.02510502399999992,-0.05383850850000016
264702.0,0.08610238699999999,-0.8368014444999999,9.7428087085,-0.020734511513692634,-0.0015987215948268059,0.0027855454861829498,9.779057818061402,0.020981781194760664,0.008335652499999999,-0.010787314999999964,-0.019122967499999532
264712.0,0.107677017,-0.8571012100000001,9.712898425999999,-0.016203636775515357,0.0007993607974134029,0.0030525808617380824,9.751236468159652,0.01650803054136758,0.02157463000000001,-0.020299765500000122,-0.029910282500001273
264722.0,0.0909076455,-0.8643581309999999,9.6757312225,-0.009009389598794729,0.002930407814098479,0.005450663253978291,9.714687533250748,0.010930055846521064,-0.016769371500000005,-0.007256920999999861,-0.037167203499999246
264732.0,0.043051193499999994,-0.8726937834999999,9.6637671095,-0.00048345620280242926,0.0031974431896536117,0.004916592502868027,9.703187238823917,0.005884747631831674,-0.047856452,-0.008335652500000013,-0.011964112999999443
264742.0,0.0226533615,-0.8846578964999999,9.6757312225,0.008044222522441864,0.004263839362622147,0.001986184688769547,9.716115862765758,0.009318517678188391,-0.020397831999999994,-0.011964112999999998,0.011964112999999443
264752.0,0.0226533615,-0.8464119615,9.7008362465,0.01630486587213103,0.006127851003752092,-0.003876376268679406,9.737717918730535,0.017844480995779885,0.0,0.03824593499999995,0.025105024000000142
264762.0,0.0669794195,-0.8559244119999999,9.773895789,0.018969983639926368,0.004529129408925285,-0.007073819458333018,9.811530550119386,0.02074637834010931,0.044326058,-0.009512450499999936,0.07305954249999935
264772.0,0.0812971285,-0.8080679599999999,9.8014524755,0.01443910890174909,0.004263839362622147,-0.007606144880191288,9.835042129069198,0.01686776902631987,0.014317708999999998,0.047856451999999994,0.027556686500000538
264782.0,0.10532342099999999,-0.772175621,9.850485725499999,0.0077771871468867325,0.0063948863793072235,-0.005208062487951079,9.881265973596557,0.011335921956345342,0.02402629249999999,0.035892338999999884,0.04903324999999903
264792.0,0.1005181625,-0.7661935645,9.87921921,0.0037803831598197174,0.0037297686115118824,-0.0014782938764391971,9.909395979498782,0.0055125151714607926,-0.0048052584999999925,0.005982056500000055,0.028733484500001794
264802.0,0.0909076455,-0.7661935645,9.87921921,0.0008499753457212385,0.0013316862192716736,0.001186823891356144,9.9093031529732,0.0019759547626465954,-0.009610516999999999,0.0,0.0
264812.0,0.0909076455,-0.772175621,9.872060355499999,-0.0026145032194875057,-0.0007993607974134029,0.004916592502868027,9.90263071372006,0.00562560988768418,0.0,-0.005982056500000055,-0.0071588545000018655
264822.0,0.09453610599999998,-0.7805112734999999,9.8134165885,-0.0050125856117277144,-0.002930407814098479,0.00838107106807677,9.844860591336234,0.010195864687214255,0.003628460499999986,-0.008335652499999902,-0.05864376699999774
264832.0,0.059820565,-0.8044394995,9.759578079999999,-0.002881538595042638,-0.004263839362622147,0.009447467241045306,9.792857892769057,0.010758170293111675,-0.03471554099999998,-0.023928226000000108,-0.053838508500001936
264842.0,0.0669794195,-0.8140500165,9.752321159,-0.0007487462491055673,-0.001865756970381938,0.0078487456462185,9.786466760801842,0.00810212800670986,0.007158854499999999,-0.00961051699999993,-0.00725692099999975
264852.0,0.05138684599999999,-0.8260141295,9.782329507999998,-0.00048345620280242926,0.003996803987067015,0.004117231705454623,9.817276126969382,0.0057584519558179625,-0.015592573500000005,-0.011964112999999998,0.030008348999999157
264862.0,0.0346174745,-0.8464119615,9.752321159,0.002181661564992912,0.00559552558189382,-0.0012112585008840647,9.789043853532894,0.006126720238248146,-0.01676937149999999,-0.020397832000000005,-0.030008348999999157
264872.0,0.047856451999999994,-0.865534929,9.745162304499999,0.006445500927615059,0.0005323254218582705,-0.006274458660919614,9.783640901748427,0.009010920266556149,0.013238977499999992,-0.019122967499999977,-0.007158854500000089
264882.0,0.08737725149999999,-0.8260141295,9.755949619499999,0.01017526953912694,-0.006127851003752092,-0.008937831099462962,9.791245431733161,0.014865109918214442,0.039520799499999995,0.03952079949999998,0.010787314999999964
264892.0,0.08610238699999999,-0.785316532,9.775072586999999,0.009375908741713538,-0.0037297686115118824,-0.005208062487951079,9.80694548560348,0.011355296275604736,-0.0012748645000000003,0.040697597500000016,0.019122967499999532
264902.0,0.128074849,-0.7793344754999999,9.797824015,0.004579743957233121,0.0002670353755551324,-0.0014782938764391971,9.829604306408267,0.004819825244832926,0.041972462,0.005982056500000055,0.022751428000001184
264912.0,0.0897308475,-0.7709007564999999,9.819398645,0.0005829399701661061,0.004263839362622147,0.0009197885158010117,9.850021794432395,0.004400699493587664,-0.03834400149999999,0.008433719000000006,0.021574629999999928
264922.0,0.038245934999999995,-0.7901217905,9.8373448145,-0.00021642082724729686,0.004529129408925285,0.0027855454861829498,9.86909865158602,0.005321570711063841,-0.05148491250000001,-0.01922103400000008,0.017946169500000053
264932.0,0.045404789499999994,-0.7889449924999999,9.843326871,0.002981022362406315,0.001865756970381938,0.001986184688769547,9.87499770559219,0.0040388702647643805,0.007158854499999999,0.0011767980000000344,0.00598205650000061
264942.0,0.063350959,-0.7924753865,9.8396984105,0.0037803831598197174,-0.0026651177677953415,0.0006544984694978735,9.87176252711798,0.004671457780804831,0.017946169500000005,-0.0035303940000001033,-0.003628460499999875
264952.0,0.0765899365,-0.797280645,9.83018596,-0.00021642082724729686,-0.004796164784480418,-0.0014782938764391971,9.862762212151614,0.005023483592037912,0.013238977499999999,-0.004805258499999909,-0.009512450500000824
264962.0,0.1016949605,-0.8236605334999999,9.845680467000001,-0.003946189438759179,-0.002930407814098479,-0.0036093408931242737,9.88059625719531,0.006098117965920555,0.025105024000000004,-0.02637988849999995,0.015494507000001434
264972.0,0.0789435325,-0.8164036125,9.8612730405,-0.006611307206554521,0.0026651177677953415,-0.0022776546738526,9.895324801092622,0.007483311199527971,-0.022751428000000004,0.007256920999999861,0.015592573499999318
264982.0,0.035892338999999995,-0.8140500165,9.868431894999999,-0.009541715020653,0.00559552558189382,-0.00041189770347066176,9.902015641050857,0.01106905107907212,-0.0430511935,0.002353596000000069,0.007158854499998313
264992.0,-9.80665e-05,-0.7949270489999999,9.8396984105,-0.015671311353657087,0.001865756970381938,-0.0017435839227423352,9.871756370192951,0.015878007857141142,-0.035990405499999996,0.019122967500000088,-0.02873348449999824
265002.0,0.013140911,-0.806891162,9.784683103999999,-0.020999801559995774,-0.00559552558189382,-0.003876376268679406,9.81790555447335,0.022075503733170167,0.0132389775,-0.01196411300000011,-0.055015306500001415
265012.0,0.07178467799999999,-0.8404299049999999,9.7343749895,-0.021266836935550905,-0.01119105116378764,-0.004408701690537677,9.770851134953238,0.024432654992652247,0.05864376699999999,-0.033538742999999926,-0.050308114499999945
265022.0,0.1028717585,-0.8128732185,9.706818303,-0.014871950556243681,-0.009327039522657697,-0.0014782938764391971,9.7413380515978,0.01761686499890639,0.031087080500000003,0.027556686499999872,-0.02755668649999876
265032.0,0.110030613,-0.8260141295,9.716428819999999,-0.00847706417693646,0.0015987215948268059,0.0030525808617380824,9.752096958708798,0.00915067088879906,0.007158854500000006,-0.013140910999999922,0.009610516999998708
265042.0,0.0920844435,-0.8319961859999999,9.736826652,-0.0015481070465189703,0.010658725741929371,0.004651302456564889,9.772742217481785,0.011731994050952979,-0.017946169499999998,-0.005982056499999944,0.02039783200000045
265052.0,0.062174161,-0.8271909274999999,9.724862539,0.004846779332788253,0.014388494353441254,0.004651302456564889,9.760177347737073,0.015879378268754754,-0.029910282500000003,0.00480525850000002,-0.011964112999999443
265062.0,0.02745862,-0.8451370970000001,9.7583032155,0.009909979492823802,0.010925761117484502,0.004117231705454623,9.794870715541657,0.015314422824936148,-0.034715541,-0.017946169500000164,0.03344067649999971
265072.0,0.0299102825,-0.8451370970000001,9.797824015,0.010974630336540345,0.007461282552275759,0.0027855454861829498,9.834251713609712,0.01355995988210144,0.0024516625,0.0,0.03952079949999998
265082.0,0.032263878499999996,-0.806891162,9.821752241,0.008044222522441864,0.0010663961729685354,0.001186823891356144,9.85489377866439,0.008200930906755442,0.002353595999999996,0.038245935000000064,0.023928226000000663
265092.0,0.037069136999999995,-0.7864933299999999,9.852937388,0.005113814708343385,-0.004529129408925285,-0.00014486232791552936,9.884347274903927,0.006832649498409102,0.0048052584999999995,0.020397832000000116,0.031185147000000413
265102.0,0.0646258235,-0.784139734,9.875688815999998,-0.0023474678439323734,-0.007461282552275759,-0.0012112585008840647,9.906981437853212,0.007915079895942622,0.027556686500000004,0.002353595999999847,0.02275142799999763
265112.0,0.0897308475,-0.7781576775,9.8612730405,-0.011407471991034937,-0.006127851003752092,-0.003077015471266003,9.89233475855611,0.013309733256562373,0.025105024000000004,0.005982056500000055,-0.014415775499998063
265122.0,0.128074849,-0.7961038469999999,9.8385216125,-0.018868754543310697,-0.0034644785652087444,-0.0017435839227423352,9.871509105591919,0.01926324465504564,0.03834400149999999,-0.017946169499999942,-0.022751428000001184
265132.0,0.1352337035,-0.821208871,9.767913732499999,-0.020734511513692634,-0.0034644785652087444,-0.00041189770347066176,9.8033061183426,0.021025989611867683,0.007158854500000006,-0.02510502400000003,-0.07060788000000073
265142.0,0.1387640975,-0.842783501,9.738003449999999,-0.01407258975883028,-0.0037297686115118824,0.0009197885158010117,9.775390053421127,0.014587493524576235,0.0035303939999999923,-0.02157463000000004,-0.029910282499999497
265152.0,0.1113054775,-0.8798526379999999,9.684164941499999,-0.004480260189869444,-0.0010663961729685354,0.0035849062835963527,9.724689207789355,0.005836221828273797,-0.02745861999999999,-0.03706913699999992,-0.05383850850000016
265162.0,0.117287534,-0.8990736719999999,9.6614135135,0.010442304914682074,0.004796164784480418,0.004651302456564889,9.703865256286061,0.012396755346199669,0.005982056499999999,-0.01922103399999997,-0.022751427999999407
265172.0,0.07776673449999999,-0.875145446,9.702111110999999,0.024565509221820186,0.0085259333959923,0.004916592502868027,9.741811290865728,0.026463723574725602,-0.03952079950000001,0.023928225999999886,0.04069759749999946
265182.0,0.046581587499999993,-0.8391550404999999,9.728392933,0.03122568564743055,0.01119105116378764,0.005982988675836562,9.764629029570704,0.03370577433909287,-0.031185146999999996,0.0359904055000001,0.026281822000001398
265192.0,0.007158854499999999,-0.8319961859999999,9.8230271055,0.025897195441091862,0.014388494353441254,0.002518510110627818,9.85820117557478,0.029732749530617827,-0.039422732999999995,0.007158854499999978,0.09463417249999928
265202.0,-0.0036284604999999998,-0.7912985884999999,9.849308927500001,0.016837191293989296,0.012257447336756176,-0.0028099800957108708,9.881045135572396,0.021015042565315716,-0.010787314999999999,0.040697597500000016,0.026281822000001398
265212.0,0.020299765499999997,-0.763741902,9.875688815999998,0.007511897100583594,0.007726572598578897,-0.004675737066092809,9.905197795289975,0.011746958724797692,0.023928225999999997,0.027556686499999872,0.026379888499997506
265222.0,0.0106892485,-0.775706015,9.923545267999998,5.061454830783555e-05,0.004529129408925285,-0.004675737066092809,9.953822620872135,0.006509845785157011,-0.009610516999999997,-0.011964112999999998,0.04785645199999955
265232.0,0.003530394,-0.7661935645,9.9067758965,-0.005544911033585984,0.001865756970381938,-0.0036093408931242737,9.936361190367245,0.006874185706372174,-0.0071588545,0.009512450500000047,-0.016769371499998798
265242.0,0.026281822,-0.7805112734999999,9.888829727,-0.011140436615479804,-0.0034644785652087444,-0.004141666314982544,9.919619042676342,0.01238003794731563,0.022751428,-0.014317708999999956,-0.017946169500000053
265252.0,0.062174161,-0.7996342409999999,9.8265574995,-0.011407471991034937,-0.008260643349689161,-0.004408701690537677,9.859234901180486,0.01475822809056562,0.035892338999999995,-0.019122967499999977,-0.06227222749999939
265262.0,0.10404855649999999,-0.8152268144999999,9.7428087085,-0.006878342582109653,-0.009592329568960835,-0.003342305517569141,9.77740979971756,0.012267656231293587,0.04187439549999999,-0.015592573499999984,-0.08374879099999966
265272.0,0.0920844435,-0.8236605334999999,9.747613967,-0.0023474678439323734,-0.005328490206338688,-0.0006789330790257941,9.782784586651884,0.005862112527335113,-0.011964112999999985,-0.008433719000000006,0.004805258499999354
265282.0,0.11964113,-0.842783501,9.7188804825,-0.0023474678439323734,0.0002670353755551324,0.0003874630939427412,9.756087118443793,0.0023941680850061587,0.027556686499999997,-0.019122967500000088,-0.028733484500000017
265292.0,0.11483587149999999,-0.8763222439999999,9.715252022,-0.003946189438759179,0.008792968771547434,-0.0012112585008840647,9.755370305820659,0.00971369435693479,-0.004805258500000006,-0.033538742999999926,-0.003628460499999875
265302.0,0.11964113,-0.8583760744999999,9.705641505,-0.0023474678439323734,0.011990411961201045,-0.0028099800957108708,9.744259874861731,0.012537008112620047,0.004805258500000006,0.017946169500000053,-0.009610517000000485
265312.0,0.106500219,-0.8331729839999998,9.741533844,5.061454830783555e-05,0.013589133556027849,-0.0020106192982974674,9.777678720008748,0.013737165013158598,-0.013140911000000005,0.025203090500000025,0.035892339000000106
265322.0,0.0993413645,-0.818855275,9.789488362499998,0.002981022362406315,0.014655529728996385,0.0009197885158010117,9.824178086110763,0.014983893248300415,-0.007158854499999992,0.014317708999999845,0.04795451849999921
265332.0,0.06580262149999999,-0.8080679599999999,9.820575443,0.002181661564992912,0.007461282552275759,0.0038519416591514853,9.853984262450872,0.008675703951528583,-0.03353874300000001,0.010787315000000075,0.031087080500000752
265342.0,0.039422733,-0.8080679599999999,9.833716354,0.002981022362406315,-0.0002670353755551324,0.0033178709080412204,9.866940017593237,0.004468340808330388,-0.02637988849999999,0.0,0.013140911000000699
265352.0,0.0214765635,-0.8044394995,9.8253807015,0.0035150931135165798,-0.003996803987067015,0.0035849062835963527,9.85828028007645,0.0064173105558243855,-0.0179461695,0.003628460499999875,-0.008335652499999568
265362.0,0.0346174745,-0.809244758,9.852937388,-0.0018151424220741027,-0.00506320016003555,0.0022532200643246795,9.886174721283227,0.005831615430673766,0.013140911000000002,-0.004805258499999909,0.027556686500000538
265372.0,0.039422733,-0.8009091055,9.856467782,-0.006878342582109653,-0.0007993607974134029,0.001186823891356144,9.889032646561239,0.007025604978249063,0.0048052584999999995,0.008335652499999902,0.003530393999998438
265382.0,0.037069136999999995,-0.8020859035,9.8230271055,-0.01513724060254682,0.003996803987067015,0.0014538592669112766,9.855789031472774,0.015723364841483855,-0.0023535960000000064,-0.0011767979999999234,-0.03344067649999971
265392.0,0.035892338999999995,-0.8128732185,9.8122397905,-0.018601719167755566,0.008792968771547434,-0.0006789330790257941,9.845917978310855,0.020586432569516474,-0.0011767979999999997,-0.010787315000000075,-0.010787314999999964
265402.0,0.033440676499999995,-0.8140500165,9.7355517875,-0.018336429121452426,0.009060004147102564,-0.0012112585008840647,9.769583630600788,0.020488422468006855,-0.0024516625,-0.0011767979999999234,-0.07668800299999923
265412.0,0.0346174745,-0.8464119615,9.703287909,-0.015404275978101954,0.007726572598578897,-0.003077015471266003,9.740195471501412,0.017505989453357084,0.0011767980000000067,-0.032361945,-0.03226387850000023
265422.0,0.040599530999999994,-0.8379782425,9.668572368,-0.007942993425826194,0.004796164784480418,-0.006539748707222752,9.704903270619132,0.011351768776548872,0.005982056499999992,0.008433719000000006,-0.03471554100000063
265432.0,0.050210048,-0.817678477,9.7116235615,-0.00048345620280242926,0.0037297686115118824,-0.0060074232853644825,9.746114679242757,0.007087597500210266,0.009610517000000006,0.02029976550000001,0.043051193500000196
265442.0,0.0909076455,-0.8464119615,9.703287909,0.004846779332788253,0.0037297686115118824,-0.004141666314982544,9.740558179772155,0.007386192771707472,0.040697597499999995,-0.028733484500000017,-0.008335652499999568
265452.0,0.1005181625,-0.8595528725,9.748790764999999,0.007244861725028463,0.009592329568960835,-0.00041189770347066176,9.787127077000925,0.012027903711473048,0.009610516999999999,-0.013140911000000033,0.045502855999998815
265462.0,0.06099736299999999,-0.8571012100000001,9.783506306,0.009375908741713538,0.014123204307138116,0.0027855454861829498,9.821167893993982,0.017179401278557386,-0.0395207995,0.0024516624999999515,0.03471554100000063
265472.0,0.02745862,-0.8499423555,9.8049828695,0.011773991133953747,0.014123204307138116,0.0014538592669112766,9.841790744304292,0.01844465976621878,-0.033538742999999996,0.007158854500000089,0.021476563500000267
265482.0,0.047856451999999994,-0.8356246464999999,9.8230271055,0.014971434323607358,0.010658725741929371,-0.002542944720155738,9.858621622986854,0.018553135799576424,0.020397831999999994,0.014317709000000067,0.018044235999999714
265492.0,0.062174161,-0.8451370970000001,9.8122397905,0.015238469699162491,0.010925761117484502,-0.0060074232853644825,9.848765001018814,0.01968939687492151,0.014317709000000005,-0.009512450500000158,-0.010787314999999964
265502.0,0.08492558899999998,-0.798457443,9.842150072999999,0.012308061885064012,0.01305680813416958,-0.0060074232853644825,9.874850110427143,0.01892241423678865,0.022751427999999983,0.04667965400000007,0.029910282499999497
265512.0,0.07178467799999999,-0.763741902,9.8697067595,0.008311257897996997,0.01119105116378764,-0.002542944720155738,9.899473028974125,0.014169798934610825,-0.013140910999999991,0.03471554099999996,0.027556686500000538
265522.0,0.0646258235,-0.7864933299999999,9.887652928999998,0.001117010721276371,0.001865756970381938,-0.00014486232791552936,9.919094147126529,0.002179391455894111,-0.007158854499999992,-0.02275142799999985,0.017946169499998277
265532.0,0.07413827399999999,-0.7901217905,9.876865614,-0.006878342582109653,-0.009060004147102564,0.002518510110627818,9.908696346367176,0.011650672298185762,0.009512450499999991,-0.003628460500000097,-0.010787314999998188
265542.0,0.07060788,-0.7949270489999999,9.8230271055,-0.00847706417693646,-0.01305680813416958,0.005717698629533424,9.855392229705403,0.016584116899328247,-0.0035303939999999923,-0.004805258499999909,-0.05383850850000016
265552.0,0.0765899365,-0.821208871,9.739180248,-0.0034138640169009086,-0.014123204307138116,0.006250024051391694,9.774041228233873,0.015817147911998234,0.005982056499999999,-0.026281822000000066,-0.08384685749999932
265562.0,0.040599530999999994,-0.8416067029999998,9.7320213935,0.007511897100583594,-0.009859364944515966,0.004916592502868027,9.768428254739533,0.013334487504143705,-0.0359904055,-0.020397831999999894,-0.007158854500000089
265572.0,0.020299765499999997,-0.8391550404999999,9.740357046,0.01630486587213103,-0.00799360797413403,0.0030525808617380824,9.776458901158321,0.01841370873750782,-0.020299765499999997,0.0024516624999999515,0.008335652499999568
265582.0,0.0058839899999999995,-0.8044394995,9.7547728215,0.01976934443733977,-0.012789772758614447,0.0003874630939427412,9.78788794014159,0.023548999858769813,-0.014415775499999998,0.03471554099999985,0.014415775499999839
265592.0,-0.006080123,-0.8116964204999999,9.759578079999999,0.018435912888816103,-0.021849776905717013,-0.0014782938764391971,9.793275874117132,0.028626578343538333,-0.011964112999999998,-0.007256920999999861,0.004805258499999354
265602.0,0.002353596,-0.8128732185,9.8026292735,0.015505505074717624,-0.028778734036134502,-0.004408701690537677,9.83627516301002,0.03298594959889453,0.008433719,-0.0011767980000001454,0.043051193500000196
265612.0,-9.80665e-05,-0.830819388,9.784683103999999,0.010974630336540345,-0.04503298535995769,-0.009737191896876364,9.81989227592629,0.04736269827079608,-0.0024516625,-0.017946169499999942,-0.017946169500000053
265622.0,-9.80665e-05,-0.817678477,9.806257733999999,0.01204102650950888,-0.06581636609270616,-0.014535102010608775,9.840289063183096,0.06846933295651872,0.0,0.013140911000000033,0.021574629999999928
265632.0,0.04903325,-0.834349782,9.763108474,0.018969983639926368,-0.07833910347576549,-0.01586678822988045,9.79881783142332,0.08215004796966122,0.0491313165,-0.016671305000000025,-0.043149259999999856
265642.0,0.040599530999999994,-0.7685471604999999,9.814593386499999,0.029626964052603743,-0.07114485629904485,-0.017198474449152124,9.844722261301206,0.0789628716560141,-0.008433719000000006,0.06580262150000005,0.051484912499999425
265652.0,0.032263878499999996,-0.785316532,9.868431894999999,0.03389080341522589,-0.04929507939332784,-0.022261674609187675,9.899682372659319,0.06382925320673377,-0.008335652499999999,-0.01676937150000002,0.05383850850000016
265662.0,0.082571993,-0.7697239585,9.935509381,0.026963591614060395,-0.03197617722578811,-0.03238807492925877,9.96562289905934,0.05290083723655155,0.0503081145,0.015592573499999984,0.06707748600000052
265672.0,0.16632078399999997,-0.7589366435,9.960614405,0.009642944117268671,-0.012789772758614447,-0.03292040035111705,9.990870170166906,0.03661034577470677,0.08374879099999998,0.010787314999999964,0.025105024000000142
265682.0,0.23820352849999998,-0.7805112734999999,9.945119897999998,-0.010341075818066403,-0.0005323254218582705,-0.023061035406601076,9.978544410616507,0.025279093604286186,0.07188274450000001,-0.021574629999999928,-0.015494507000001434
265692.0,0.25732649599999996,-0.8020859035,9.875688815999998,-0.023132593905932843,0.011990411961201045,-0.008138470302049559,9.911548229848075,0.027296915186032597,0.019122967499999977,-0.02157463000000004,-0.06943108199999948
265702.0,0.209470044,-0.8128732185,9.8385216125,-0.028728119487826664,0.017053612121236593,0.005450663253978291,9.874266964606411,0.033850262415477714,-0.047856451999999966,-0.010787315000000075,-0.037167203499999246
265712.0,0.177108099,-0.8583760744999999,9.794293621,-0.03325724889675195,0.011458086539342773,0.012112585008840646,9.833430952539745,0.03720278305342179,-0.032361945,-0.045502855999999814,-0.044227991499999675
265722.0,0.110030613,-0.8271909274999999,9.747613967,-0.0281940487367164,0.004529129408925285,0.014510667401080856,9.783267839325925,0.03203087363460325,-0.06707748599999999,0.03118514699999997,-0.04667965400000007
265732.0,0.07178467799999999,-0.8116964204999999,9.7571264175,-0.020734511513692634,0.0005323254218582705,0.015310028198494259,9.79109391468208,0.025779842930182845,-0.03824593500000001,0.01549450699999999,0.009512450500000824
265742.0,0.046581587499999993,-0.8356246464999999,9.753596023499998,-0.01913578991886583,-0.007194247176720627,0.012112585008840646,9.789436847120841,0.023762372858262933,-0.025203090499999997,-0.023928225999999997,-0.0035303940000019907
265752.0,0.0310870805,-0.8128732185,9.749967563,-0.01753706832403902,-0.013589133556027849,0.007049384848805097,9.783843659599265,0.02327889909235696,-0.015494506999999994,0.02275142799999985,-0.0036284604999980985
265762.0,0.020299765499999997,-0.817678477,9.7343749895,-0.010341075818066403,-0.019984019935335072,0.0014538592669112766,9.768677833178424,0.022548006754896342,-0.010787315000000002,-0.004805258499999909,-0.015592573500001095
265772.0,0.043051193499999994,-0.8404299049999999,9.69485419,0.001117010721276371,-0.025314255470925754,-0.004941027112395947,9.731308935381746,0.02581613820702416,0.022751427999999997,-0.022751427999999962,-0.03952079949999998
265782.0,0.062174161,-0.8416067029999998,9.6745544245,0.016570155918434165,-0.02611361626833916,-0.00840550567760469,9.711290891608753,0.0320490802905096,0.019122967500000004,-0.0011767979999999234,-0.020299765499999012
265792.0,0.096889702,-0.818855275,9.705641505,0.029893999428158877,-0.02398082392240209,-0.005740387909809351,9.740605145437712,0.03875155701598454,0.034715540999999996,0.02275142799999985,0.031087080499998976
265802.0,0.05266171049999999,-0.7996342409999999,9.763108474,0.037887607402292904,-0.022116812281272148,-0.004408701690537677,9.795941774542305,0.04409150519943111,-0.0442279915,0.01922103400000008,0.057466969000000034
