timestamp,ax,ay,az,gx,gy,gz,acc_mag,gyro_mag,dax,day,daz
160822.0,1.836001013,-0.926728425,9.667003304,-0.003691371367968007,-0.09697747455781293,0.2195798731934066,9.883353589393982,0.24006994294542586,0.0,0.0,0.0
160832.0,1.9461296924999998,-1.1517910425,9.625128908499999,-0.021277308911062873,-0.12415574166986862,0.2297062735134777,9.887221545553421,0.2619777550776794,0.11012867949999983,-0.2250626175,-0.041874395500000716
160842.0,2.033506944,-1.3433149169999998,9.700542046999999,-0.027939230665925227,-0.0959110783848444,0.22464307335344216,10.00200787157988,0.24585370847889917,0.0873772515000002,-0.19152387449999986,0.07541313850000009
160852.0,1.9951629424999997,-1.3529254339999999,9.678967416999999,-0.02554114827368502,-0.06819874052167843,0.2257094695264107,9.97464248263751,0.23716699411548672,-0.03834400150000028,-0.00961051700000004,-0.021574629999999928
160862.0,1.9018036344999998,-1.3349792645,9.687303069499999,-0.013550736312483973,-0.05807408553085932,0.22544243415085555,9.96207144429242,0.23319629709907247,-0.09335930799999992,0.01794616949999983,0.008335652499999568
160872.0,1.9114141514999998,-1.389994571,9.698090384499999,0.0013718287920675431,-0.06153856409606807,0.22171092021009167,9.981910942895416,0.23009695548973755,0.00961051700000004,-0.05501530649999986,0.010787314999999964
160882.0,1.874246948,-1.374500064,9.725647071,0.017359044740335602,-0.06846577589723356,0.21638243000375298,9.99951313803198,0.2276186611810118,-0.03716720349999991,0.01549450699999988,0.027556686500000538
160892.0,1.8503187219999997,-1.317033095,9.791449692499999,0.028284805857820106,-0.07512769765209591,0.2062560296836819,10.051405007612981,0.22132724861118022,-0.02392822600000022,0.057466969000000034,0.0658026214999996
160902.0,1.8335493504999998,-1.283494352,9.8477398635,0.03281393526674539,-0.09111491360036399,0.20385794729144166,10.09887327336579,0.22569170233301036,-0.016769371499999908,0.03353874300000004,0.056290171000000555
160912.0,1.8311957545,-1.2463271485,9.853721919999998,0.026152013511883034,-0.11190003966236445,0.20652306505923704,10.099625979662585,0.2363415390671439,-0.002353595999999847,0.03716720349999991,0.0059820564999988335
160922.0,1.8718933519999998,-1.2786890935,9.845386267499999,0.013095205377713455,-0.12415574166986862,0.20892114745147722,10.103002587121079,0.24338072735104055,0.040697597499999905,-0.03236194499999989,-0.008335652499999568
160932.0,1.8921931175,-1.296635263,9.8322453565,3.839724354387525e-05,-0.12841958103249076,0.21025457900000089,10.096271913413647,0.24637081454055468,0.020299765500000122,-0.017946169500000053,-0.013140910999998923
160942.0,1.8921931175,-1.2871228125,9.835775750499998,-0.007955210730590153,-0.1278872556106325,0.21131922984371743,10.098493181781928,0.2471320546330023,0.0,0.009512450499999936,0.003530393999998438
160952.0,1.89464478,-1.2463271485,9.859703976499999,-0.014350097109897379,-0.12442277704542376,0.21345202218965453,10.117152401129443,0.24748478440423663,0.0024516624999999515,0.04079566400000001,0.023928226000000663
160962.0,1.8886627235,-1.236814698,9.890889123500001,-0.021012018864759733,-0.12149236923132528,0.21531603383078446,10.14526712973581,0.24811871179504622,-0.005982056499999944,0.009512450499999936,0.03118514700000219
160972.0,1.8778754084999998,-1.1924886399999999,9.884907067,-0.028738591463338632,-0.13108469880028611,0.21771411622302467,10.132118876602497,0.25575093607185706,-0.010787315000000186,0.044326058000000224,-0.00598205650000061
160982.0,1.8514955199999998,-1.1733656725,9.892065921499999,-0.034868187796342716,-0.14813831092152271,0.22304435175861537,10.132018103876595,0.2700176522642616,-0.02637988849999995,0.019122967499999977,0.007158854499998313
160992.0,1.87307015,-1.1768960665,9.870491291499999,-0.03913028182971287,-0.16492488766720417,0.22597475957271382,10.115338574350416,0.2824818392252119,0.02157463000000015,-0.0035303939999999923,-0.021574629999999928
161002.0,1.8838574649999997,-1.2343630355,9.7998834115,-0.04206243497306335,-0.1699880878272397,0.22437603797788702,10.055361054225646,0.28462221427302326,0.010787314999999742,-0.057466969000000034,-0.07060787999999896
161012.0,1.8921931175,-1.2619197219999998,9.7208418125,-0.043661156567890144,-0.15826296591234182,0.21931283781785146,9.983366252038197,0.2739554412745549,0.008335652500000235,-0.027556686499999872,-0.07904159899999996
161022.0,1.8910163194999998,-1.259566126,9.6525875285,-0.04152836422195308,-0.14174342454221547,0.21611539462819787,9.916395289707632,0.2617664364107966,-0.0011767980000001454,0.002353595999999847,-0.068254284
161032.0,1.886211061,-1.2511324069999998,9.637093021499998,-0.037798595610441195,-0.1262885340158057,0.2131849868140994,9.899327571685276,0.25064988780550196,-0.004805258499999798,0.008433719000000117,-0.015494507000001434
161042.0,1.896998376,-1.272707037,9.658667651499998,-0.029804987636307165,-0.11323172588163612,0.21051986904630404,9.925132081877221,0.24089079745272007,0.010787314999999964,-0.02157463000000015,0.021574629999999928
161052.0,1.8778754084999998,-1.26309652,9.677790619,-0.02367539130330308,-0.10470404715639182,0.21025457900000089,9.938886262247372,0.236072975231728,-0.0191229675000002,0.00961051700000004,0.01912296750000131
161062.0,1.8790522065,-1.2476020129999998,9.676613820999998,-0.021012018864759733,-0.10257300013970674,0.20838882202961895,9.936005385383119,0.23321369265402384,0.0011767980000001454,0.015494507000000102,-0.0011767980000012557
161072.0,1.8838574649999997,-1.2343630355,9.689754731999999,-0.017547540299550992,-0.10044195312302168,0.20679010043479215,9.94806100796338,0.2305615921084062,0.004805258499999798,0.013238977499999915,0.013140911000000699
161082.0,1.9041572305,-1.2511324069999998,9.730452329499998,-0.013550736312483973,-0.09964259232560828,0.2070553904810953,9.993640457560147,0.2301829780571463,0.020299765500000344,-0.016769371499999908,0.04069759749999946
161092.0,1.89464478,-1.2463271485,9.796254951,-0.014083061734342244,-0.09937555695005314,0.2062560296836819,10.05532800402162,0.22938043449218248,-0.009512450500000158,0.004805258499999798,0.06580262150000138
161102.0,1.8994500385,-1.2476020129999998,9.844209469499999,-0.01807986572140926,-0.10070724316932482,0.20305858649402828,10.103112456614188,0.22737990219063442,0.00480525850000002,-0.001274864499999806,0.04795451849999921
161112.0,1.8898395215,-1.2451503505,9.874119751999999,-0.021544344286618004,-0.10603747870491549,0.20225922569661486,10.130159608279138,0.22938373970320983,-0.00961051700000004,0.0024516624999999515,0.029910282499999497
161122.0,1.8874859254999998,-1.2416199565,9.887260662999998,-0.027406905244066956,-0.1153627728983212,0.20359265724513853,10.142097744226627,0.2356049191124484,-0.002353596000000069,0.0035303939999999923,0.013140910999998923
161132.0,1.9041572305,-1.2308326415,9.890889123500001,-0.03113667385557884,-0.1278872556106325,0.20439201804255197,10.14743570579375,0.24310643686647795,0.016671305000000247,0.010787314999999964,0.0036284605000034276
161142.0,1.8898395215,-1.2715302389999998,9.860978841,-0.03353475624781905,-0.138811271398865,0.21131922984371743,10.120631712910239,0.25504698752526345,-0.014317709000000178,-0.040697597499999905,-0.029910282500001273
161152.0,1.8815038689999999,-1.272707037,9.829793694,-0.03806563098599633,-0.14867063634338099,0.21691475542561126,10.088839580332985,0.2657140596476984,-0.008335652500000013,-0.0011767980000001454,-0.031185147000000413
161162.0,1.8958215779999998,-1.2679017784999997,9.8226348395,-0.038330921032299466,-0.15160278948673145,0.2174488261767215,10.083941172264595,0.2678369976179106,0.014317708999999956,0.004805258500000242,-0.007158854500000089
161172.0,1.9137677475,-1.2763354974999999,9.780760444,-0.04046371337823654,-0.15373383650341652,0.2171817908011664,10.04762728988615,0.26914556441081633,0.017946169500000053,-0.008433719000000117,-0.04187439549999894
161182.0,1.9054320949999999,-1.273883835,9.7651678705,-0.042861795770476746,-0.15506552272268823,0.21611539462819787,10.030551083204546,0.2694221848126696,-0.008335652500000013,0.0024516624999999515,-0.015592573500001095
161192.0,1.9341655794999997,-1.2320094394999999,9.744770038499999,-0.045792203584575225,-0.15693127969307014,0.21691475542561126,10.010963332826014,0.2716180472218084,0.028733484499999795,0.04187439550000005,-0.02039783200000045
161202.0,1.9521117489999997,-1.202099157,9.735257588,-0.0479232506012603,-0.15559959347379848,0.22171092021009167,10.00155102814336,0.27507017936848077,0.017946169500000053,0.02991028249999994,-0.009512450499999048
161212.0,1.9688811204999999,-1.1876833814999999,9.780760444,-0.05058836836905564,-0.1510687187356212,0.22863987734050917,10.047405612608047,0.278670296775506,0.01676937150000013,0.014415775500000061,0.04550285600000059
161222.0,1.9556421429999997,-1.179347729,9.819006379,-0.05511924310723292,-0.15053639331376292,0.23476772834426127,10.081085434030294,0.2842801838759695,-0.013238977500000138,0.00833565249999979,0.038245934999999065
161232.0,1.9473064905,-1.2188685284999998,9.8465630655,-0.05858197634318967,-0.15373383650341652,0.246225814883604,10.111006243721736,0.29613019493700415,-0.00833565249999979,-0.03952079949999976,0.027556686500000538
161242.0,1.9341655794999997,-1.203275955,9.8824554045,-0.06018069793801648,-0.1641255268697908,0.25875029759591534,10.141587367603504,0.31226690743748037,-0.013140911000000255,0.015592573499999762,0.035892339000000106
161252.0,1.954465345,-1.226027383,9.863332436999999,-0.057250290123917996,-0.17531657803357842,0.2675432663674628,10.129580676980076,0.32495060798719505,0.020299765500000344,-0.02275142799999985,-0.01912296750000131
161262.0,1.9808452335,-1.2511324069999998,9.856173582499999,-0.05831668629688653,-0.1846436175562361,0.2755368743415968,10.13080637596515,0.33677094667865864,0.02637988849999995,-0.02510502399999992,-0.007158854500000089
161272.0,1.9484832884999999,-1.2750606329999998,9.823811637499999,-0.06364517650322522,-0.18411129213437782,0.2808671098771875,10.096021089145493,0.3418099030079161,-0.032361945000000114,-0.023928225999999997,-0.03236194499999989
161282.0,1.9089624889999999,-1.3014405214999998,9.760362612,-0.0759026238399814,-0.17665000958210209,0.2792683882823607,10.030082927530495,0.33905348676127467,-0.03952079949999998,-0.02637988849999995,-0.06344902549999887
161292.0,1.8611060369999999,-1.30624578,9.7220186105,-0.08549495340894224,-0.1643925622453459,0.2726064665274983,9.984369763867623,0.3296188513610761,-0.047856451999999994,-0.004805258500000242,-0.0383440015000005
161302.0,1.8263904959999997,-1.3373328604999999,9.6753389565,-0.09109047899083605,-0.14840534629707786,0.2622147761611241,9.936616393260774,0.3147669153668536,-0.03471554100000018,-0.031087080499999864,-0.04667965400000007
161312.0,1.8311957545,-1.399605088,9.6741621585,-0.09162454974194631,-0.1404099929936918,0.25182134046549787,9.944927639887968,0.30252935685936855,0.004805258500000242,-0.062272227500000055,-0.0011767979999994793
161322.0,1.7845161004999999,-1.401958684,9.6155183915,-0.08336390639225716,-0.1326834203951129,0.2403632539261551,9.879685207629922,0.28693017404011834,-0.04667965400000007,-0.002353596000000069,-0.058643766999999514
161332.0,1.7893213590000001,-1.3828357164999998,9.633464560999998,-0.0665773296465757,-0.1294859772054593,0.22890691271606428,9.89532945346665,0.27128865402910124,0.004805258500000242,0.0191229675000002,0.017946169499998277
161342.0,1.7797108419999998,-1.4032335484999998,9.6969135865,-0.050855403744610776,-0.13348278119252632,0.22064626936637513,9.95824121905151,0.2628472962581472,-0.009610517000000263,-0.020397832000000005,0.06344902550000064
161352.0,1.812072787,-1.3851893124999999,9.7316291275,-0.04046371337823654,-0.13961063219627842,0.21585010458189471,9.995347052106624,0.2602301065799565,0.032361945000000114,0.018044235999999936,0.03471554100000063
161362.0,1.8240368999999999,-1.3768536599999999,9.714859756,-0.03646690939116952,-0.14414150693445568,0.21185330059482768,9.980046928364885,0.25882123265837736,0.011964112999999887,0.008335652500000013,-0.016769371500000574
161372.0,1.8240368999999999,-1.386464177,9.6969135865,-0.03540051321820099,-0.1454731931537274,0.20572370426182363,9.96391121150295,0.2544364139773629,0.0,-0.00961051700000004,-0.017946169500000053
161382.0,1.874246948,-1.4055871445,9.698090384499999,-0.03593283864005926,-0.13774662055514847,0.19559904927100452,9.977045351646062,0.24191793741435844,0.05021004800000006,-0.0191229675000002,0.0011767979999994793
161392.0,1.8790522065,-1.413922797,9.714859756,-0.03540051321820099,-0.1270878948132191,0.18467328815352,9.99542470080072,0.2269553980446398,0.00480525850000002,-0.00833565249999979,0.016769371500000574
161402.0,1.896998376,-1.3912694355,9.689754731999999,-0.030337313058165435,-0.11989364763649847,0.17641264480383084,9.971237648708383,0.21544433284228334,0.017946169500000053,0.02265336149999997,-0.025105024000000142
161412.0,1.918573006,-1.362535951,9.73408079,-0.020744983489204602,-0.12015893768280161,0.17161648001935043,10.014477291569758,0.21052491743083257,0.021574629999999928,0.028733484500000017,0.04432605800000111
161422.0,1.9521117489999997,-1.3145814325,9.7220186105,-0.01807986572140926,-0.12575620859394743,0.1745486331627009,10.002825125241666,0.21589055302026472,0.033538742999999815,0.047954518499999876,-0.01206217950000088
161432.0,1.978393571,-1.2763354974999999,9.7651678705,-0.018879226518822664,-0.12975301258101446,0.18040944879089788,10.044977698481873,0.2230243006509235,0.026281822000000288,0.038245935000000175,0.043149259999999856
161442.0,1.98682729,-1.2619197219999998,9.7424164425,-0.02607347369554329,-0.1294859772054593,0.18653904512390196,10.02270433586443,0.2285678448057426,0.008433718999999895,0.014415775500000061,-0.022751427999999407
161452.0,1.9712347165,-1.2858479479999998,9.771149927,-0.03406882699892931,-0.12389045162356549,0.19293393150320917,10.050599094025328,0.23180386300029385,-0.015592573499999984,-0.023928225999999997,0.028733484500000017
161462.0,1.966429458,-1.3002637235,9.7173114185,-0.03619987401561439,-0.11669620444684486,0.19346625692506744,9.99918355507342,0.22881789173847916,-0.00480525850000002,-0.014415775500000283,-0.05383850850000016
161472.0,1.988004088,-1.32782041,9.737611183999999,-0.03540051321820099,-0.10950195727012424,0.1924016060813509,10.026781081976367,0.22419244635978142,0.02157463000000015,-0.027556686499999872,0.020299765499999012
161482.0,1.9616241995,-1.320563489,9.746044903,-0.034334117045232454,-0.10337236093712014,0.19133520990838238,10.028820901772857,0.22016775229282493,-0.02637988849999995,0.007256920999999972,0.008433719000001005
161492.0,1.9197498039999998,-1.30624578,9.7065241035,-0.03353475624781905,-0.10337236093712014,0.1916022452839375,9.980397162415548,0.22027674702555652,-0.04187439550000027,0.014317708999999956,-0.03952079949999998
161502.0,1.942501232,-1.2715302389999998,9.7065241035,-0.029270916885196903,-0.10417172173453355,0.19133520990838238,9.980316145134852,0.21981286753764426,0.022751428000000073,0.03471554100000018,0.0
161512.0,1.9521117489999997,-1.2750606329999998,9.694559990499998,-0.022343705084031405,-0.10896788651901397,0.19320096687876429,9.971008640444232,0.22293464300595423,0.009610516999999819,-0.0035303939999999923,-0.01196411300000122
161522.0,1.9735883125,-1.2679017784999997,9.737611183999999,-0.012751375515070572,-0.12149236923132528,0.19719777086583132,10.016171789557221,0.23196972688999729,0.021476563500000267,0.007158854500000089,0.043051193500000196
161532.0,1.9916325484999997,-1.2559376654999999,9.688577934,-0.006356489135763348,-0.13374981656808144,0.20279329644772512,9.970582832064427,0.24301139781965667,0.018044235999999714,0.011964112999999887,-0.04903324999999903
161542.0,2.025073225,-1.2655481825,9.6741621585,-0.004223696789826277,-0.13374981656808144,0.20652306505923704,9.964534471704853,0.24608662996601355,0.033440676500000155,-0.00961051700000004,-0.014415775499999839
161552.0,2.0383122025,-1.2775122954999998,9.681321013,-0.0050230575872396805,-0.12175765927762842,0.20892114745147722,9.975707035432096,0.24186402079005812,0.013238977499999915,-0.011964112999999887,0.007158854500000089
161562.0,2.03586054,-1.2906532065,9.683772675499998,-0.010885618544688634,-0.10284003551526187,0.21158626521927257,9.979276881043948,0.2355065120656351,-0.0024516624999999515,-0.013140911000000255,0.002451662499998619
161572.0,2.0190911684999997,-1.270353441,9.7065241035,-0.018879226518822664,-0.0820549094532614,0.21585010458189471,9.995355780741459,0.23169096013299015,-0.01676937150000013,0.020299765500000122,0.022751428000001184
161582.0,1.9616241995,-1.2643713844999998,9.704072441,-0.02261074045958654,-0.07059682291391864,0.22384371255602875,9.98076281845141,0.2357989920261238,-0.05746696899999959,0.005982056500000166,-0.0024516625000003955
161592.0,1.9401476359999998,-1.272707037,9.7663446685,-0.020212658067346328,-0.07086385828947377,0.234235402922403,10.038199252627141,0.24555337900350416,-0.021476563500000267,-0.008335652500000235,0.062272227500001165
161602.0,1.896998376,-1.293104869,9.8322453565,-0.013550736312483973,-0.07859217621730466,0.24436180324247408,10.096720843481508,0.25704677298323736,-0.043149259999999856,-0.020397832000000005,0.06590068799999926
161612.0,1.8335493504999998,-1.3289972079999999,9.876473348,-0.00955393232541696,-0.09164898435147424,0.24835860722954112,10.132761844302129,0.2649015132847166,-0.0634490255000002,-0.035892338999999884,0.044227991499999675
161622.0,1.778534044,-1.3552790299999997,9.864509235,-0.013817771688039106,-0.10550340795380522,0.24356244244506067,10.11476678140554,0.2657904499301909,-0.05501530649999986,-0.026281821999999844,-0.011964112999999443
161632.0,1.767746729,-1.3504737715,9.872942954,-0.02341010125699994,-0.11589684364943145,0.23236964595202106,10.120459993416203,0.26072162083078454,-0.010787314999999964,0.004805258499999798,0.008433719000001005
161642.0,1.7652950665,-1.354102232,9.845386267499999,-0.0308713838092757,-0.12468981242097889,0.22304435175861537,10.093636127917144,0.25738953846514323,-0.0024516624999999515,-0.003628460500000097,-0.027556686500002314
161652.0,1.7605878744999999,-1.3936230314999998,9.827440097999999,-0.03593283864005926,-0.13161702422214439,0.21611539462819787,10.08069609191458,0.2555779210986872,-0.004707192000000138,-0.03952079949999976,-0.017946169500000053
161662.0,1.777357246,-1.4079407405,9.8010602095,-0.03913028182971287,-0.13508150278735315,0.21078690442185916,10.05992431079442,0.25339556118273354,0.01676937150000013,-0.014317709000000178,-0.026379888499999282
161672.0,1.7701003249999998,-1.4127459989999998,9.7567341515,-0.04259476039492161,-0.13348278119252632,0.2070553904810953,10.016135368559175,0.25000780230879094,-0.007256921000000194,-0.004805258499999798,-0.044326057999999335
161682.0,1.7629414705,-1.3936230314999998,9.7065241035,-0.04179539959750821,-0.12815429098618764,0.20145986489920148,9.963270444696482,0.24239730792831088,-0.007158854499999867,0.019122967499999977,-0.050210048000000285
161692.0,1.778534044,-1.39842829,9.672985360499998,-0.03886499178340973,-0.12069300843391187,0.1940003276761777,9.934054097516613,0.23176155205214075,0.015592573499999984,-0.004805258500000242,-0.03353874300000115
161702.0,1.792851753,-1.3840125145,9.688577934,-0.03220307002854737,-0.1153627728983212,0.18653904512390196,9.949791476795857,0.22168090230281517,0.014317709000000178,0.014415775500000061,0.015592573500001095
161712.0,1.812072787,-1.3565538945,9.692108328,-0.027406905244066956,-0.11509748285201805,0.180676484166453,9.952929724244816,0.21596888883512455,0.01922103399999986,0.02745861999999999,0.0035303940000002143
161722.0,1.8455134635,-1.3134046345,9.719665014499999,-0.024474752100716486,-0.11802789066611653,0.17561328400641743,9.980122227306692,0.21300146005368817,0.03344067649999993,0.04314926000000008,0.02755668649999876
161732.0,1.8718933519999998,-1.2918300045,9.700542046999999,-0.022343705084031405,-0.11882725146352995,0.17241584081676384,9.963600026466498,0.21058579964425617,0.02637988849999995,0.021574629999999928,-0.019122967499999532
161742.0,1.9353423774999998,-1.2715302389999998,9.714859756,-0.020744983489204602,-0.11882725146352995,0.1729499115678741,9.987033560852147,0.2108600055526885,0.06344902549999998,0.020299765500000122,0.014317709000000178
161752.0,1.9222014664999998,-1.2823175539999998,9.7412396445,-0.01941329726993293,-0.1153627728983212,0.17508095858455916,10.011540670580617,0.21056777422143336,-0.013140911000000033,-0.010787314999999964,0.02637988850000106
161762.0,1.9448548279999998,-1.2667249805,9.716036553999999,-0.01941329726993293,-0.10603747870491549,0.17774607635235454,9.989415338090703,0.20788095309489815,0.02265336149999997,0.015592573499999762,-0.02520309050000158
161772.0,1.9569170075,-1.260742924,9.7567341515,-0.01941329726993293,-0.09484642754112786,0.1830745665586932,10.030596103806854,0.2070966389125101,0.012062179500000214,0.005982056499999944,0.04069759750000124
161782.0,1.9281835229999997,-1.2583893279999998,9.78311404,-0.01781457567510612,-0.09111491360036399,0.18680433517020506,10.05041072388776,0.2086028432818407,-0.02873348450000024,0.002353596000000291,0.026379888499999282
161792.0,1.918573006,-1.2223989224999998,9.808219064,-0.013817771688039106,-0.10070724316932482,0.19266689612765403,10.068581961353548,0.21783804191337316,-0.009610516999999819,0.03599040549999999,0.025105024000000142
161802.0,1.9222014664999998,-1.2331862375,9.795078153,-0.012484340139515441,-0.11589684364943145,0.20039521405548494,10.05779114903228,0.23183222151582705,0.003628460499999875,-0.010787315000000186,-0.013140910999998923
161812.0,1.9257318604999998,-1.2571144635,9.7628142745,-0.017547540299550992,-0.12202469465318355,0.2062560296836819,10.030021063351096,0.2402904327197463,0.0035303939999999923,-0.023928225999999997,-0.03226387850000023
161822.0,1.9341655794999997,-1.2763354974999999,9.7520269595,-0.02341010125699994,-0.11296469050608099,0.21078690442185916,10.023575141131829,0.2402918500859895,0.008433718999999895,-0.01922103399999986,-0.010787314999999964
161832.0,1.918573006,-1.2942816669999997,9.744770038499999,-0.029270916885196903,-0.10097427854487995,0.21185330059482768,10.015819013746777,0.23650457178642767,-0.015592573499999762,-0.01794616949999983,-0.007256921000001526
161842.0,1.893467982,-1.340961321,9.729275531499999,-0.03353475624781905,-0.09324770594630104,0.2094552182025875,10.00210980899139,0.23171362276124813,-0.02510502399999992,-0.04667965400000029,-0.015494506999999658
161852.0,1.8850342629999999,-1.366066345,9.708877699499999,-0.03619987401561439,-0.08925090195923402,0.20572370426182363,9.98407720400208,0.2271528051213311,-0.008433719000000117,-0.02510502399999992,-0.02039783200000045
161862.0,1.89464478,-1.3768536599999999,9.664649707999999,-0.0385979564078546,-0.07645938387136758,0.20066050410178807,9.944388308075117,0.21817533666121727,0.00961051700000004,-0.010787314999999964,-0.044227991499999675
161872.0,1.8347261485,-1.3876409749999998,9.632287762999999,-0.03913028182971287,-0.03942175181479592,0.19106817453282723,9.90316793075469,0.19897814149179063,-0.059918631499999986,-0.010787314999999964,-0.03236194499999989
161882.0,1.8096211244999998,-1.4366742249999997,9.571192333499999,-0.04392644661419329,0.01680228470894941,0.1790777625716262,9.846140570186126,0.18515046457206066,-0.025105024000000142,-0.04903324999999992,-0.06109542949999991
161892.0,1.71027976,-1.413922797,9.592766963499999,-0.05245412533943758,0.0780877760634783,0.162823511247803,9.846086153866365,0.18804422844301497,-0.09934136449999986,0.02275142799999985,0.021574629999999928
161902.0,1.5989742825,-1.362535951,9.646605472,-0.05431988230981952,0.10260267073699066,0.15376350710070044,9.872700750366345,0.19266855937703775,-0.11130547749999997,0.051386845999999986,0.05383850850000016
161912.0,1.606133137,-1.3457665794999998,9.738787982,-0.044460517365303556,0.08048585845571851,0.15083309928660193,9.961663651148648,0.17665031801880893,0.007158854500000089,0.01676937150000013,0.09218251000000066
161922.0,1.604956339,-1.3565538945,9.841757806999999,-0.02554114827368502,0.026926939699768514,0.15376350710070044,10.063613667586054,0.15817909613043213,-0.0011767980000001454,-0.010787315000000186,0.10296982499999885
161932.0,1.6204508459999998,-1.330174006,9.927958260499999,-0.00449073216538141,-0.038355355641827384,0.15722798566590918,10.146899972541878,0.16190101747163788,0.01549450699999988,0.02637988849999995,0.08620045350000005
161942.0,1.665953702,-1.3145814325,9.969832656,0.013095205377713455,-0.10204067471784847,0.16015839348000765,10.193188375995279,0.1903536043862979,0.04550285600000015,0.015592573499999984,0.041874395500000716
161952.0,1.7461720989999998,-1.2858479479999998,10.011805118,0.028550095904123243,-0.16492488766720417,0.16682031523487,10.243962303011118,0.2363140794011985,0.08021839699999989,0.02873348450000024,0.04197246200000038
161962.0,1.828744092,-1.2775122954999998,10.047697457,0.03574434308084387,-0.210223163073465,0.1729499115678741,10.292354774617072,0.27455984459900395,0.08257199300000018,0.008335652500000013,0.035892339000000106
161972.0,1.8815038689999999,-1.2476020129999998,10.047697457,0.029084166655233508,-0.23687085009291442,0.18174288033942154,10.298193617295603,0.2999736037184582,0.0527597769999999,0.02991028249999994,0.0
161982.0,1.8874859254999998,-1.203275955,10.040538602499998,0.010964158361028377,-0.2443303873159382,0.19426561772248083,10.287025399557171,0.3123406492335238,0.005982056499999944,0.04432605799999978,-0.0071588545000018655
161992.0,1.8766986105,-1.215240068,10.096730706999999,-0.026872834492956695,-0.22834317136767013,0.19906178250696127,10.341314088025852,0.30411896750906503,-0.010787314999999742,-0.011964112999999887,0.056192104500000895
162002.0,1.768923527,-1.1996474945,10.168613451499999,-0.08363094176781229,-0.21128955924643353,0.2009275394773432,10.39081055940589,0.3033303288297144,-0.10777508349999998,0.015592573499999984,0.07188274449999987
162012.0,1.6252561044999998,-1.2092580115,10.2141163075,-0.1419860253082427,-0.21582043398461082,0.2001281786799298,10.413065556632633,0.3267870545322819,-0.1436674225000003,-0.00961051700000004,0.04550285600000059
162022.0,1.5522946284999999,-1.2978120610000001,10.199700531999998,-0.18968238310674373,-0.25658783465269436,0.19426561772248083,10.398453043690107,0.3735717515844968,-0.07296147599999991,-0.08855404950000012,-0.014415775500001615
162032.0,1.5450377075,-1.4379490895,10.143410360999999,-0.21526192862397264,-0.29469186288223453,0.1830745665586932,10.360676273932743,0.4082857931456438,-0.007256920999999972,-0.14013702849999987,-0.05629017099999878
162042.0,1.4720762314999998,-1.443931146,10.060838367999999,-0.2243219327710752,-0.33332996186288505,0.1676196760322834,10.269976351129392,0.4353453213149658,-0.07296147600000014,-0.005982056499999944,-0.08257199300000018
