timestamp,ax,ay,az,gx,gy,gz,acc_mag,gyro_mag,dax,day,daz
90052.0,0.002353596,-0.6469447005,9.8249884355,-0.023406610598495952,0.06973463026343343,-0.05627988705980915,9.846265319532472,0.09261864696243549,0.0,0.0,0.0
90062.0,0.0010787315,-0.19681946549999998,9.906383630499999,-0.0071523592746727625,0.011911872144861299,-0.05414709471387208,9.908338695275798,0.055901313107498234,-0.0012748644999999999,0.450125235,0.08139519499999892
90072.0,0.08610238699999999,-0.10581375349999998,9.992584084,0.012833405989914304,-0.025925120709123773,-0.03975860036043083,9.99351523975858,0.04916863325032594,0.08502365549999999,0.091005712,0.08620045350000183
90082.0,0.10885381499999999,-0.040011132,9.9758147125,0.03095166895486744,-0.03578448565363974,-0.017908823454713816,9.976488822318975,0.050589140950596904,0.022751428000000004,0.06580262149999999,-0.016769371500000574
90092.0,0.19740786449999997,-0.1046369555,10.018865906,0.03867998688269834,-0.023527038316883565,-0.0016545721308906243,10.02135683427309,0.045303427311254744,0.08855404949999998,-0.06462582350000001,0.043051193500000196
90102.0,0.22496455099999998,-0.1609271265,10.0201407705,0.03548254369304472,-0.0014102260356114182,0.003141592653589793,10.02395768396328,0.03564925313104656,0.02755668650000001,-0.056290170999999986,0.0012748644999991399
90112.0,0.22496455099999998,-0.1860321505,10.105066359499999,0.026422539545942154,0.010580185925589625,0.0036739180754480636,10.109282028914063,0.028698233470059197,0.0,-0.025105024000000004,0.08492558899999914
90122.0,0.238105462,-0.20162472399999998,10.099084303,0.0189612569936664,0.0065833819385226105,0.005539675045830002,10.103902736045281,0.020822060035974352,0.013140911000000005,-0.015592573499999984,-0.0059820564999988335
90132.0,0.22378775299999998,-0.1991730615,10.0583867055,0.010168288222118965,-0.0011449359893082802,0.007405432016211941,10.062847210615852,0.012631127706362304,-0.014317709000000012,0.002451662499999979,-0.04069759749999946
90142.0,0.245362383,-0.23987065899999999,9.957868543,-0.0028885199120506156,-0.00913854396344231,0.009269443657341885,9.96377872856024,0.013333383620473703,0.02157463000000001,-0.04069759749999999,-0.10051816250000023
90152.0,0.22496455099999998,-0.17043957699999998,9.888437460999999,-0.019675096657732077,-0.0003455751918948773,0.006871361265101675,9.89246451187583,0.020843331219838463,-0.020397832000000005,0.069431082,-0.06943108200000125
90162.0,0.203389921,-0.16445752049999998,9.805767401499999,-0.03992615196862228,0.018041468477865384,0.0047403142484166,9.809255224956349,0.044068841317115116,-0.021574629999999984,0.005982056499999999,-0.08267005949999984
90172.0,0.18191335749999998,-0.1717144415,9.7783087815,-0.057779124887272285,0.03829252378875559,-0.005119050696099368,9.781508112015068,0.06950503097532333,-0.021476563500000018,-0.007256921000000027,-0.0274586199999991
90182.0,0.1387640975,-0.158475464,9.7435932405,-0.06470808201768977,0.04975061032809836,-0.01577777643802874,9.745869852597165,0.08313361134796664,-0.043149259999999995,0.013238977499999999,-0.03471554100000063
90192.0,0.1387640975,-0.144157755,9.7100544975,-0.05697976408985887,0.048951249530684963,-0.021638592066225697,9.71211590115674,0.07817382562571619,0.0,0.014317709000000012,-0.03353874299999937
90202.0,0.11483587149999999,-0.131016844,9.669356899999999,-0.03406359101117333,0.03749316299134219,-0.02696882760181638,9.670926302602686,0.057388005418278244,-0.023928225999999997,0.013140911000000005,-0.04069759750000124
90212.0,0.1364105015,-0.08904438199999999,9.635818157,-0.0004904375198104066,0.021238911667518998,-0.028035223774784918,9.637195042213067,0.035175356002232275,0.02157463000000001,0.041972462,-0.03353874299999937
90222.0,0.1591619295,-0.0363826715,9.602279414,0.034416147520076185,0.003118903373313867,-0.027235862977371513,9.60366732884453,0.0439998977328115,0.02275142799999999,0.05266171049999999,-0.03353874299999937
90232.0,0.20819517949999997,-0.07354987499999999,9.589138503,0.06692465016772256,-0.008339183166028906,-0.02510307063143444,9.591680355735203,0.07196259397128076,0.04903324999999997,-0.03716720349999999,-0.013140911000000699
90242.0,0.21898249449999999,-0.017259704,9.603456212,0.08797506627602618,-0.006740461571202101,-0.023237313661052503,9.605968063973615,0.09124154127723944,0.01078731500000002,0.056290170999999986,0.014317709000000178
90252.0,0.2405571245,0.018632634999999998,9.6418002135,0.09383762723347513,0.00951378975262109,-0.021638592066225697,9.644818622570535,0.09676900922751167,0.02157463000000001,0.035892338999999995,0.0383440015000005
90262.0,0.24653918099999997,0.00784532,9.7112312955,0.08770977622972305,0.033496359004275174,-0.017908823454713816,9.714363406395329,0.09558104869870117,0.0059820564999999715,-0.010787314999999999,0.06943108199999948
90272.0,0.268113811,0.037853669,9.7902728945,0.07518529351741174,0.05641253208296072,-0.01151393707540659,9.794016605289533,0.0946983256678113,0.02157463000000001,0.030008349,0.07904159899999996
90282.0,0.2536980355,0.015102240999999999,9.842934605,0.05786464602062,0.0678688732930515,-0.002186897552748895,9.846215131166204,0.08921481795120222,-0.014415775500000005,-0.022751428,0.05266171050000068
90292.0,0.24889277699999998,-0.0101008495,9.899224775999999,0.039479347680111736,0.06893526946602004,0.009004153611038746,9.902358345736415,0.07994851500716646,-0.0048052584999999925,-0.025203090499999997,0.05629017099999878
90302.0,0.20466478549999997,0.0066685220000000005,9.926683396,0.02748893571891069,0.06973463026343343,0.019662879352968118,9.928795263677841,0.07749315498407296,-0.04422799150000001,0.0167693715,0.027458620000000877
90312.0,0.175931301,-0.061585761999999995,10.0009197365,0.01736253539883959,0.0694675948878783,0.027656487327102148,10.002656657341984,0.07675992226583152,-0.02873348449999996,-0.068254284,0.07423634050000061
90322.0,0.15671026700000001,-0.122583125,10.057209907499999,0.00883660200284729,0.06680422244933495,0.026857126529688743,10.059177692725887,0.07254098784445015,-0.019221033999999998,-0.060997363000000006,0.05629017099999878
90332.0,0.1267999845,-0.1621039245,10.0583867055,0.005372123437638546,0.06493846547895302,0.02179392636965319,10.060491987760173,0.06870836365098694,-0.029910282500000024,-0.039520799499999995,0.0011767980000012557
90342.0,0.11120741099999999,-0.180050094,10.085943392,0.007770205829878755,0.05827654372409066,0.013000957598105762,10.088163322985965,0.060212594575655656,-0.015592573499999998,-0.017946169499999998,0.027556686500000538
90352.0,0.096889702,-0.20878357849999998,10.0942790445,0.015498523757709647,0.04335572394879114,0.002874557278034661,10.096902872922804,0.04613226763705394,-0.014317708999999998,-0.02873348449999999,0.008335652499999568
90362.0,0.082571993,-0.19564266749999998,10.118207270500001,0.026954864967800425,0.020971876291963863,-0.008848819307611252,10.120435393607016,0.035280106912770885,-0.014317708999999998,0.013140911000000005,0.023928226000000663
90372.0,0.0885540495,-0.14533455299999998,10.084766594,0.03654893986601326,0.002853613327010729,-0.01764178807915868,10.086202516677766,0.04068415909146325,0.005982056499999999,0.0503081145,-0.03344067650000149
90382.0,0.11365907349999999,-0.1034601575,10.053581447,0.038947022258253465,-0.010470230182713983,-0.019774580425095754,10.054756202944027,0.04491692658511361,0.02510502399999999,0.04187439549999998,-0.031185147000000413
90392.0,0.177108099,-0.0914960445,9.997389342499998,0.03015230815745404,-0.020596630502785082,-0.01924050967398549,9.999376604090031,0.041274448364636625,0.0634490255,0.011964112999999998,-0.056192104500000895
90402.0,0.1830901555,-0.042364728,9.927958260499999,0.015498523757709647,-0.017399187313131472,-0.009915215480579788,9.929736753683336,0.025322864290045363,0.005982056499999999,0.0491313165,-0.06943108199999948
90412.0,0.24889277699999998,-0.075903471,9.876473348,-0.0007557275661135447,-0.006473426195646968,-5.585053606381855e-05,9.879900543280126,0.0065176291814624514,0.06580262149999999,-0.033538743,-0.051484912499999425
90422.0,0.25732649599999996,-0.060310897499999995,9.810572659999998,-0.016744688843633598,0.015109315334514912,0.008204792813625343,9.814132169837551,0.02399988832187419,0.008433718999999978,0.015592573500000005,-0.06590068800000104
90432.0,0.222610955,-0.059134099499999995,9.741141577999999,-0.024738296817767628,0.04335572394879114,0.013800318395519163,9.743864311537287,0.05178948654297953,-0.03471554099999996,0.0011767979999999997,-0.06943108199999948
90442.0,0.19387747049999998,-0.085513988,9.759087747499999,-0.02740341458556297,0.06307270850857108,0.018596483179999578,9.761387953519506,0.07123863331240589,-0.028733484500000017,-0.026379888500000004,0.017946169500000053
90452.0,0.154356671,-0.074726673,9.7567341515,-0.021540853628114014,0.06866823409046491,0.01806415775814131,9.758241202213966,0.07420005757168747,-0.03952079949999998,0.010787315000000006,-0.0023535959999989586
90462.0,0.13042844499999998,-0.099831697,9.787821231999999,-0.014611896497696527,0.05721189288037412,0.01539903999034597,9.789199273514715,0.061023263095634876,-0.023928226000000025,-0.025105024000000004,0.031087080499998976
90472.0,0.10404855649999999,-0.12375992299999998,9.795078153,-0.005019566928735692,0.042022292400267475,0.01593136541220424,9.796412539497743,0.04522032192082241,-0.02637988849999999,-0.023928225999999983,0.007256921000001526
90482.0,0.12444638849999999,-0.1285651815,9.780662377499999,0.006438519610607082,0.031897637409448364,0.016997761585172775,9.782298934920602,0.03671290925529039,0.020397832000000005,-0.004805258500000006,-0.014415775500001615
90492.0,0.17230284049999997,-0.1393524965,9.792626490499998,0.0189612569936664,0.02816612346868449,0.016465436163314504,9.79513353505543,0.037735531877545164,0.04785645199999998,-0.01078731500000002,0.011964112999999443
90502.0,0.175931301,-0.17642163349999998,9.781839175499998,0.02775422576521383,0.031630602033893236,0.014332643817377436,9.785011705194064,0.0444546590544658,0.0036284605000000414,-0.037069136999999974,-0.010787314999999964
90512.0,0.14955141249999998,-0.1489630135,9.853721919999998,0.02855358656262723,0.042022292400267475,0.011135200627723822,9.855982512213595,0.0520112781729375,-0.02637988850000003,0.02745861999999999,0.07188274449999987
90522.0,0.17465643649999998,-0.12738838349999998,9.8824554045,0.02295806098073341,0.04975061032809836,0.009269443657341885,9.88481954782144,0.05557084107452394,0.025105024000000004,0.02157463000000001,0.028733484500001794
90532.0,0.14955141249999998,-0.10699055149999999,9.8632343705,0.015498523757709647,0.05374741431516538,0.009269443657341885,9.864948294365439,0.05670018844722626,-0.025105024000000004,0.02039783199999999,-0.019221033999999193
90542.0,0.132782041,-0.0938496405,9.907560428499998,0.00617148423505195,0.05028293574995663,0.011402236003278955,9.908894613922037,0.051927563308634385,-0.01676937149999999,0.013140910999999991,0.04432605799999756
90552.0,0.12444638849999999,-0.0710982125,9.927958260499999,-0.0012897983172238095,0.04521973558992108,0.014332643817377436,9.928992752624083,0.04745432272530392,-0.008335652499999999,0.022751428000000004,0.02039783200000045
90562.0,0.12562318649999998,-0.0375594695,9.9326654525,-0.0074176493209759005,0.038025488413200456,0.017530087007031046,9.933530837019765,0.042523678591879784,0.0011767979999999928,0.033538742999999996,0.00470719200000147
90572.0,0.1375872995,-0.0232417605,9.9399223735,-0.009815731713216109,0.039624210008027266,0.023125612588924867,9.940901731514135,0.046917167065362385,0.011964113000000026,0.014317708999999998,0.00725692099999975
90582.0,0.129251647,-0.0232417605,9.933940317,-0.008484045493944435,0.048417178779574695,0.029522244297484086,9.93480832172425,0.05733903676621145,-0.008335652500000013,0.0,-0.00598205650000061
90592.0,0.107677017,-0.074726673,9.948258026,-0.006085963101704227,0.05321508889330711,0.03538305992568104,9.949121376660408,0.06419381249390177,-0.021574629999999997,-0.051484912499999994,0.014317709000000178
90602.0,0.1016949605,-0.086690786,9.949434823999999,-0.004220206131322289,0.052413982766641706,0.03671649147420471,9.950332179097957,0.06413373897901176,-0.005982056499999999,-0.011964113000000012,0.0011767979999994793
90612.0,0.05854570049999999,-0.09747810099999998,9.962673801500001,-0.0002234021442552742,0.04468741016806281,0.03644945609864958,9.963322681430933,0.057667819327022626,-0.04314926000000001,-0.010787314999999978,0.013238977500002136
90622.0,0.040599530999999994,-0.119052731,9.9889556235,0.006438519610607082,0.03882484921061386,0.036182420723094445,9.98974756052065,0.05346018163442854,-0.017946169499999998,-0.02157463000000001,0.02628182199999962
90632.0,0.011866046499999998,-0.1297419795,9.996114477999999,0.014964453006599382,0.03269699820686177,0.03698178152050785,9.996963461050825,0.05158178661074875,-0.028733484499999996,-0.010689248499999998,0.007158854499998313
90642.0,-0.008433719,-0.14533455299999998,10.0009197365,0.018161896196252993,0.031897637409448364,0.0343184090819645,10.001979245920635,0.05025004425535536,-0.020299765499999997,-0.015592573499999984,0.0048052585000011305
90652.0,-0.009610516999999999,-0.1501398115,10.030830019,0.014699162960296242,0.028700194219794757,0.027122416575991883,10.031958193448864,0.042135401041273175,-0.0011767979999999997,-0.00480525850000002,0.029910282499999497
90662.0,-0.022849494499999998,-0.1848553525,10.052404649,0.006970845032465351,0.020439550870105593,0.02099456557223979,10.054130137808224,0.03011875999780465,-0.013238977499999999,-0.03471554099999999,0.021574629999999928
90672.0,-0.019221033999999998,-0.20996037649999996,10.051227850999998,-0.002621484536495483,0.012978268317829835,0.014599679192932567,10.05343892011913,0.019709344541136285,0.0036284604999999998,-0.025105023999999976,-0.0011767980000012557
90682.0,-0.044326057999999995,-0.21476563499999998,10.0248479625,-0.012213814105456317,0.01164658209855816,0.0034086280291449255,10.027246169743476,0.017217400344482076,-0.025105023999999997,-0.00480525850000002,-0.026379888499997506
90692.0,-0.040795663999999995,-0.23153500649999997,10.005724995,-0.01860870048476354,0.012978268317829835,-0.008049458510197848,10.00848666987192,0.024073075511214206,0.003530393999999999,-0.01676937149999999,-0.01912296750000131
90702.0,-0.037167203499999996,-0.2338886025,9.999742938499999,-0.02287253984738569,0.01164658209855816,-0.014711380265060204,10.002546881443546,0.029584128565024598,0.0036284604999999998,-0.0023535960000000133,-0.00598205650000061
90712.0,0.0010787315,-0.23153500649999997,9.9530632845,-0.020207422079590347,0.010047860503731356,-0.01631010185988701,9.955756042017027,0.02784454758987924,0.038245934999999995,0.0023535960000000133,-0.046679653999998294
90722.0,0.032263878499999996,-0.227906546,9.8967731135,-0.015145967248806793,0.006850417314077744,-0.012046262497264863,9.899449500434962,0.020529027776101674,0.031185146999999996,0.003628460499999986,-0.056290171000000555
90732.0,0.05138684599999999,-0.20878357849999998,9.8967731135,-0.006885323899117631,0.004452334921837535,-0.00618370153981591,9.89910850787532,0.010269816755205328,0.019122967499999997,0.019122967500000004,0.0
90742.0,0.0812971285,-0.21241203899999997,9.833324088,-0.0012897983172238095,0.0033859387488689996,-0.0016545721308906243,9.835953981035876,0.0039831858915353015,0.029910282500000003,-0.003628460499999986,-0.06344902550000064
90752.0,0.0932612415,-0.1979962635,9.828518829499998,0.004040437218366873,0.0025865779514555962,0.002075196480621258,9.830955322925748,0.005227041117850837,0.011964112999999998,0.014415775499999978,-0.0048052585000011305
90762.0,0.0909076455,-0.22074769149999998,9.820183176999999,0.00883660200284729,0.002319542575900464,0.0018099064343181197,9.823084616002589,0.009313515663761233,-0.0023535959999999995,-0.02275142799999999,-0.008335652499999568
90772.0,0.099243298,-0.2076067805,9.7890960965,0.015763813804012785,0.002319542575900464,-0.0016545721308906243,9.791800252967736,0.016019229455417602,0.008335652499999999,0.013140910999999977,-0.031087080499998976
90782.0,0.14121576,-0.192014207,9.777033916999999,0.025356143372973622,0.002319542575900464,-0.004052654523130833,9.779938832156905,0.02578251913983701,0.041972462,0.015592573500000012,-0.01206217950000088
90792.0,0.152003075,-0.1860321505,9.719665014499999,0.037880626085284926,0.0025865779514555962,-0.009382890058721515,9.72263343389662,0.03911100668566561,0.010787314999999992,0.005982056499999999,-0.057368902500000374
90802.0,0.198682729,-0.20642998249999997,9.742318376,0.04960574800018284,-0.0008779006137531477,-0.021638592066225697,9.746530434150664,0.054126976737610216,0.046679654000000015,-0.020397831999999977,0.022653361500001523
90812.0,0.1591619295,-0.20280152199999998,9.733982723499999,0.06346017160251383,0.006316346562967479,-0.03416307477853701,9.73739598858566,0.07234780779020139,-0.03952079950000001,0.003628460499999986,-0.008335652500001345
90822.0,0.152003075,-0.15376827199999998,9.7004439805,0.08184721527227408,-0.0006108652381980154,-0.03283138855926533,9.702853345027018,0.0881886607160732,-0.007158854500000006,0.04903325,-0.03353874299999937
90832.0,0.2070183815,-0.13337043999999998,9.690931529999999,0.1068944353676447,-0.0003455751918948773,-0.023237313661052503,9.694059944300571,0.10939155580282676,0.0550153065,0.020397832000000005,-0.009512450500000824
90842.0,0.2093719775,-0.09747810099999998,9.723195408499999,0.13700485562305087,0.006316346562967479,-0.009648180105024653,9.72593787544483,0.1374893235038107,0.0023535960000000133,0.035892338999999995,0.03226387850000023
