timestamp,ax,ay,az,gx,gy,gz,acc_mag,gyro_mag,dax,day,daz
245932.0,-0.8348401145,-1.0197935335,9.8928504535,-0.12412083508482874,0.22140199693248866,-0.03589095073801139,9.980251848679067,0.25634544328450104,0.0,0.0,0.0
245942.0,-0.4325713315,-1.395682428,9.6486648685,-0.10040530120872979,0.1689094743495072,-0.036156240784314536,9.758677222927796,0.19979716910781276,0.40226878299999996,-0.37588889450000007,-0.24418558500000032
245952.0,-0.4421818485,-1.381364719,9.658177318999998,-0.06150191218177618,0.18143221173256655,-0.02230007185273155,9.766477481635167,0.19286634195945843,-0.009610516999999985,0.014317708999999956,0.009512450499999048
245962.0,-0.460128018,-1.3023231199999998,9.6043388105,-0.014604915180688549,0.17663604694808613,-0.008178612874845429,9.703148318391907,0.17742741146011848,-0.017946169500000053,0.07904159900000018,-0.05383850849999838
245972.0,-0.4625796804999999,-1.3106587724999998,9.524120413499999,0.02323207767329652,0.19182564742819277,0.009407324668249437,9.625002650887431,0.19345621262104057,-0.002451662499999896,-0.008335652500000013,-0.08021839700000122
245982.0,-0.470915333,-1.3298798065,9.516961558999999,0.050412090114604215,0.21207670273908297,0.019533724988320535,9.620961431482545,0.2188594825140635,-0.008335652500000068,-0.01922103400000008,-0.007158854500000089
245992.0,-0.4984720195,-1.277218096,9.534907728499999,0.07812442797777018,0.23339240889368973,0.03152413694952158,9.632975958133773,0.24813144497718392,-0.027556686499999983,0.052661710500000014,0.017946169500000053
246002.0,-0.492489963,-1.3705774039999998,9.6151261255,0.10023949492979033,0.24138776219707575,0.034721580139175194,9.72479712864406,0.26366948289412,0.005982056499999999,-0.09335930799999992,0.08021839700000122
246012.0,-0.5355411565,-1.315464031,9.726431603,0.11223165222024337,0.24671625240341444,0.035255650890285456,9.829584003150757,0.27332730174603603,-0.04305119350000003,0.055113372999999743,0.1113054775000002
246022.0,-0.5774155519999999,-1.2927126029999998,9.814985652499999,0.11569438545620012,0.24005433064855206,0.029925415354694774,9.916574910342145,0.2681544386605659,-0.04187439549999994,0.022751428000000296,0.08855404949999901
246032.0,-0.549956932,-1.278394894,9.9048145665,0.11622845620731037,0.23952200522669378,0.03179117232507671,10.002104664959806,0.26812408257736514,0.02745861999999999,0.014317708999999734,0.0898289140000017
246042.0,-0.5331875604999999,-1.2867305464999998,9.9287427925,0.11516206003434185,0.2363245620370402,0.029925415354694774,10.025961196493274,0.26458860364252884,0.01676937150000002,-0.00833565249999979,0.023928225999998887
246052.0,-0.4912150985,-1.2412276904999997,9.977874109,0.11276397764210164,0.2309943265014495,0.03179117232507671,10.066772580510145,0.2590072820739397,0.04197246199999993,0.04550285600000015,0.049131316500000466
246062.0,-0.4745437935,-1.2520150055,10.016120044,0.11036589524986143,0.22753159326549277,0.038718384126242206,10.105216183821357,0.25583269931262553,0.016671305000000025,-0.010787315000000186,0.038245934999999065
246072.0,-0.44335864649999995,-1.2245563855,10.0579944395,0.10770077748206608,0.22673223246807936,0.04671373742962823,10.141960233392165,0.2553216324067448,0.031185147000000024,0.02745861999999999,0.041874395500000716
246082.0,-0.43737658999999995,-1.1898408445,10.0448535285,0.10450333429241247,0.2293956049066227,0.05337391385523859,10.12452971380594,0.25766657739981236,0.005982056499999999,0.03471554099999996,-0.013140911000000699
246092.0,-0.42658927499999993,-1.2053353515,10.0460303265,0.10050653030534547,0.23525816586407167,0.061102231783069484,10.127069518872592,0.26302366807688304,0.01078731500000002,-0.015494507000000102,0.0011767980000012557
246102.0,-0.43982825249999996,-1.1898408445,10.028084157,0.09864077333496352,0.23925496985113867,0.06696479274051843,10.107998911100658,0.2673148447605735,-0.013238977500000026,0.015494507000000102,-0.017946169500000053
246112.0,-0.44934070299999995,-1.1825839235,10.032889415499998,0.09890780871051866,0.2403213660241072,0.07176095752499885,10.11233315447751,0.2696048008039066,-0.009512450499999991,0.007256920999999972,0.004805258499997578
246122.0,-0.4564995575,-1.1754250689999999,10.050835584999998,0.09411164392603824,0.2371239228344536,0.07762177315319581,10.129625456823842,0.2666643882679266,-0.007158854500000034,0.007158854500000089,0.017946169500000053
246132.0,-0.468561737,-1.1694430125,10.071233417,0.08585100057634908,0.23046200107959122,0.08561712645658183,10.149723621880698,0.26041010077232435,-0.012062179499999992,0.005982056499999944,0.020397832000002225
246142.0,-0.49484355899999993,-1.1622841579999998,10.054464045499998,0.08212123196483719,0.2232677539028706,0.09494242064998754,10.133509848718445,0.2561375605239001,-0.026281821999999955,0.007158854500000089,-0.01676937150000235
246152.0,-0.5104361325,-1.1694430125,10.052012383,0.08078780041631353,0.21660583214800827,0.10107201698299163,10.132674619903275,0.25230994398486833,-0.01559257350000004,-0.007158854500000089,-0.002451662499998619
246162.0,-0.527205504,-1.1658145519999998,10.020925302499998,0.07679099642924651,0.20807989875201596,0.10213666782670817,10.102277620981694,0.2441843572221388,-0.01676937150000002,0.003628460500000097,-0.031087080500000752
246172.0,-0.549956932,-1.174248271,10.041225068,0.07039611004993929,0.2030166985919804,0.10267073857781843,10.124599374554675,0.23814422684051134,-0.022751427999999962,-0.008433719000000117,0.020299765500000788
246182.0,-0.553487326,-1.195822901,10.0005274705,0.06799802765769908,0.20168501237270875,0.10373538942153497,10.086966358565087,0.23677332408773247,-0.0035303939999999923,-0.02157463000000015,-0.04069759749999946
246192.0,-0.553487326,-1.2137690705,9.9742456485,0.06853035307955735,0.20354902401383868,0.10453475021894837,10.063059168720327,0.23886424695532188,0.0,-0.01794616949999983,-0.02628182199999962
246202.0,-0.5833976085,-1.220927925,9.9287427925,0.07039611004993929,0.2054147809842206,0.1040024247970901,10.020526493516646,0.2407640939189913,-0.02991028250000005,-0.007158854500000089,-0.04550285600000059
246212.0,-0.5702566975,-1.2448561509999998,9.8820631385,0.06746570223584081,0.2054147809842206,0.10133730702929475,9.976473896674445,0.23878044941100185,0.013140911000000033,-0.023928225999999775,-0.04667965400000007
246222.0,-0.5918313275,-1.256820264,9.9071681625,0.06266953745136039,0.2091445495957325,0.10133730702929475,10.004091287881426,0.24070347597390201,-0.02157463000000004,-0.01196411300000011,0.025105024000000142
246232.0,-0.609777497,-1.2448561509999998,9.885691599,0.060536745105423326,0.20994391039314592,0.10373538942153497,9.98240421056317,0.24187222667673483,-0.017946169499999942,0.01196411300000011,-0.021476563500000267
246242.0,-0.6049722385,-1.256820264,9.825772967499999,0.06187017665394699,0.21180966736352785,0.10426946017264523,9.924283500294138,0.24405608837423778,0.004805258499999909,-0.01196411300000011,-0.05991863150000043
246252.0,-0.6600856114999999,-1.299969524,9.8234193715,0.0642682590461872,0.2123419927853861,0.1016043424048499,9.931022199461623,0.24401428936932926,-0.055113372999999855,-0.04314926000000008,-0.0023535959999989586
246262.0,-0.6732265225,-1.311933637,9.782721773999999,0.07066314542549443,0.21287606353649638,0.0962741068692592,9.893232491252956,0.2440864646015681,-0.013140911000000144,-0.01196411300000011,-0.04069759750000124
246272.0,-0.6695980619999999,-1.311933637,9.773111257,0.07998843961890012,0.21500711055318147,0.08961393044364885,9.88348294247662,0.24628614372443605,0.003628460500000097,0.0,-0.009610516999998708
246282.0,-0.6768549829999999,-1.3059515805,9.793509088999999,0.08931547914155782,0.21660583214800827,0.08268497331323135,9.903356121787603,0.24845954629803815,-0.007256920999999972,0.005982056500000166,0.020397831999998672
246292.0,-0.6720497244999999,-1.3094819745,9.841365541,0.09704205174013672,0.22033734608877215,0.07495840071465247,9.950822558227193,0.2521596076398382,0.00480525850000002,-0.0035303939999999923,0.047856452000001326
246302.0,-0.6828370395,-1.2891822089999998,9.872452621499999,0.101572926478314,0.22273542848101233,0.06696479274051843,9.979658208289372,0.2537960085595708,-0.010787315000000075,0.020299765500000122,0.031087080499998976
246312.0,-0.7067652655,-1.2891822089999998,9.909619824999998,0.10477036966796761,0.2238000793247289,0.06030287098565608,10.01808729172153,0.2543614399142099,-0.023928225999999997,0.0,0.037167203499999246
246322.0,-0.7102956595,-1.2879073445,9.9036377685,0.1039710088705542,0.22113670688618553,0.05284158843338032,10.012255804841447,0.2500072944659622,-0.0035303939999999923,0.001274864499999806,-0.0059820564999988335
246332.0,-0.6708729265,-1.267607579,9.923937533999998,0.09970716950793206,0.22086967151063042,0.0464467020540731,10.027035236628167,0.246743242209786,0.03942273299999999,0.0202997654999999,0.020299765499999012
246342.0,-0.6612624095,-1.2556434659999998,9.9191322755,0.09491100472345164,0.22300071852731548,0.045647341256659694,10.020134409617071,0.2466193403711801,0.00961051699999993,0.011964113000000332,-0.004805258499997578
246352.0,-0.646846634,-1.230538442,9.946688962,0.09411164392603824,0.2245994401221423,0.04751309822704164,10.043368793981905,0.24811167753407679,0.014415775500000061,0.025105023999999698,0.02755668649999876
246362.0,-0.655280353,-1.2245563855,9.9263891965,0.09491100472345164,0.22486647549769742,0.04884478444631331,10.02308002375959,0.2489153341760576,-0.008433719000000006,0.005982056500000166,-0.020299765499999012
246372.0,-0.64331624,-1.1873891819999998,9.959829872999999,0.09357931850417997,0.2232677539028706,0.05177519226041179,10.050968110250949,0.24756059726487603,0.011964112999999998,0.037167203500000134,0.033440676499997934
246382.0,-0.6169363514999999,-1.1563021015,9.957476277,0.08958251451711295,0.22273542848101233,0.057105427796002466,10.043354958317128,0.24677343433115598,0.02637988850000006,0.031087080499999864,-0.0023535959999989586
246392.0,-0.6289004645,-1.1418863259999998,10.004155931,0.08718268679562075,0.22300071852731548,0.06270095337789629,10.088734116206878,0.2475107086473218,-0.01196411300000011,0.014415775500000061,0.04667965400000007
246402.0,-0.6492982965,-1.1466915845,9.981404502999998,0.08824908296858928,0.22113670688618553,0.06536607114569164,10.068014984112288,0.2469049757179618,-0.020397832000000005,-0.004805258500000242,-0.022751428000001184
246412.0,-0.6373341835,-1.163460956,9.963458333499998,0.09064716536082949,0.22086967151063042,0.0642996749727231,10.05138489069962,0.24725446119891384,0.011964112999999998,-0.016769371499999908,-0.017946169500000053
246422.0,-0.634882521,-1.1574788994999998,9.973068850499999,0.0930452477530697,0.22033734608877215,0.0635003141753097,10.060066377269706,0.24746364199865103,0.0024516625000000625,0.005982056500000166,0.009610517000000485
246432.0,-0.624095206,-1.153850439,9.951494220499999,0.09091420073638462,0.21873862449394532,0.062166882626786026,10.037584514332996,0.2449014067672365,0.010787314999999964,0.003628460499999875,-0.021574629999999928
246442.0,-0.6504750945,-1.140709528,9.980227704999999,0.09144652615824289,0.2176722283209768,0.06296798875345143,10.066244638368588,0.24435350158384153,-0.02637988849999995,0.013140911000000033,0.028733484500000017
246452.0,-0.6408645775,-1.163460956,9.970617188,0.09171356153379803,0.21633879677245313,0.06296798875345143,10.058705478960587,0.243266972616139,0.00961051699999993,-0.022751428000000073,-0.009610516999998708
246462.0,-0.6265468685,-1.1598324955,9.9754224465,0.09171356153379803,0.21607350672615,0.06243391800234115,10.062148149484829,0.24289325185206856,0.014317709000000067,0.003628460500000097,0.004805258499999354
246472.0,-0.631352127,-1.152673641,9.9646351315,0.09038187531452635,0.21527414592873662,0.06270095337789629,10.050931068057707,0.2417503895451147,-0.00480525850000002,0.007158854499999867,-0.010787314999999964
246482.0,-0.630175329,-1.1310990109999999,9.951494220499999,0.08878315371969955,0.2144747851313232,0.06456671034827823,10.035374588853688,0.2409372157362609,0.0011767980000000344,0.02157463000000015,-0.013140911000000699
246492.0,-0.644493038,-1.1335506734999998,9.944335366,0.0861180359519042,0.2168728675235634,0.06616543194310504,10.029462312452306,0.2425448848529365,-0.014317709000000067,-0.0024516624999999515,-0.007158854499998313
246502.0,-0.6624392075,-1.1310990109999999,9.971793986,0.08345291818410887,0.22140199693248866,0.06936287513275864,10.057578534396049,0.24656529002643487,-0.017946169499999942,0.0024516624999999515,0.0274586199999991
246512.0,-0.6983315465,-1.140709528,9.998173874499999,0.07998843961890012,0.2216690323080438,0.07176095752499885,10.087237778541823,0.24634314559564202,-0.035892338999999995,-0.00961051700000004,0.026379888499999282
246522.0,-0.6983315465,-1.143063124,10.001802334999999,0.07865675339962845,0.2192709499158036,0.07389200454168393,10.091100544672873,0.2443903898837617,0.0,-0.002353596000000069,0.003628460499999875
246532.0,-0.7007832089999999,-1.1551253035,9.998173874499999,0.07705803180480164,0.21527414592873662,0.07229328294685712,10.089048141303353,0.23980662403322214,-0.0024516624999999515,-0.012062179499999992,-0.003628460499999875
246542.0,-0.7067652655,-1.16110736,9.9754224465,0.07332826319328975,0.20967862034684276,0.07042752597647518,10.067608476102928,0.23302831250443987,-0.005982056500000055,-0.005982056499999944,-0.022751427999999407
246552.0,-0.6971547484999999,-1.1802303275,10.0005274705,0.07012907467438415,0.20701350257904744,0.06829647895979012,10.094033785238288,0.22899145486903147,0.00961051700000004,-0.019122967499999977,0.025105024000000142
246562.0,-0.723534637,-1.1790535295,9.991015019999999,0.06719866686028568,0.20807989875201596,0.06643072198940818,10.086329893783502,0.2285299672176122,-0.02637988850000006,0.0011767979999999234,-0.009512450500000824
246572.0,-0.723534637,-1.1694430125,9.970617188,0.06080378048097845,0.21127734194166958,0.06456671034827823,10.065004045705338,0.22913767700645532,0.0,0.00961051700000004,-0.020397831999998672
246582.0,-0.736675548,-1.1862123839999998,9.999350672499999,0.05520825489908463,0.21607350672615,0.06083519640751435,10.096375812864844,0.23116364947776444,-0.013140911000000033,-0.016769371499999908,0.02873348449999824
246592.0,-0.7438344025,-1.1921944405,9.992191818,0.05147674095832075,0.21793751836727995,0.05603903162303393,10.090516068566949,0.23083974925698117,-0.007158854499999978,-0.005982056500000166,-0.007158854499998313
246602.0,-0.7139241199999999,-1.185035586,9.943158568,0.050412090114604215,0.21713815756986654,0.04991118061928185,10.038944132606574,0.22843266897133985,0.02991028250000005,0.007158854500000089,-0.049033250000000805
246612.0,-0.73549875,-1.1466915845,9.956299479,0.050944415536462485,0.21527414592873662,0.04697902747593137,10.049067584445352,0.22615331172079498,-0.02157463000000004,0.038344001499999836,0.013140911000000699
246622.0,-0.7426576045,-1.143063124,9.977874109,0.0541418587261161,0.21127734194166958,0.045647341256659694,10.070556357919003,0.22282983608138707,-0.007158854499999978,0.003628460500000097,0.021574629999999928
246632.0,-0.7403040085,-1.1574788994999998,9.971793986,0.057873372666879974,0.2067464672034923,0.04511501583480143,10.066006294803053,0.21938275597397958,0.002353595999999958,-0.014415775499999839,-0.00608012300000027
246642.0,-0.7247114349999999,-1.152673641,9.9611047375,0.057873372666879974,0.2006186161997402,0.04591437663221483,10.053729197572455,0.2137879473012057,0.015592573500000095,0.004805258499999798,-0.010689248500000303
246652.0,-0.739029144,-1.16110736,9.949140624499998,0.05760633729132485,0.19662181221267316,0.0480454236488999,10.04389035897962,0.21044474302657185,-0.014317709000000067,-0.008433718999999895,-0.01196411300000122
246662.0,-0.728241829,-1.1825839235,9.89883251,0.057339301915769705,0.19582245141525978,0.04751309822704164,9.995785409794411,0.20950351435143533,0.010787314999999964,-0.021476563500000045,-0.05030811449999817
246672.0,-0.7426576045,-1.1862123839999998,9.9191322755,0.05653994111835631,0.19582245141525978,0.04484798045924629,10.017376165261163,0.2086972418869543,-0.01441577549999995,-0.003628460499999875,0.020299765500000788
246682.0,-0.739029144,-1.2184762624999999,9.9179554775,0.057339301915769705,0.19715413763453143,0.039252454877352475,10.019814835196785,0.20904139481093725,0.003628460499999986,-0.03226387850000001,-0.0011767980000012557
246692.0,-0.7450112004999999,-1.212494206,9.884416734499998,0.05653994111835631,0.20328373396753555,0.033656929295458646,9.986334566281947,0.2136675696661767,-0.005982056499999944,0.005982056499999944,-0.03353874300000115
246702.0,-0.7498164589999999,-1.2137690705,9.885691599,0.05760633729132485,0.20807989875201596,0.027260297586899435,9.988110855874043,0.21762090475250168,-0.00480525850000002,-0.001274864500000028,0.0012748645000009162
246712.0,-0.7557985155,-1.2029817555,9.897655711999999,0.058938023510596516,0.21127734194166958,0.021664772005005613,9.999099214098441,0.22041136127546074,-0.005982056500000055,0.010787314999999964,0.011964112999999443
246722.0,-0.7750195495,-1.1862123839999998,9.959829872999999,0.060536745105423326,0.21101030656611444,0.014205234781981848,10.060117604738291,0.21998144394538333,-0.01922103399999997,0.01676937150000013,0.06217416099999973
246732.0,-0.7498164589999999,-1.1694430125,9.941883703499999,0.06107081585653358,0.20781286337646085,0.007009242276009227,10.038469667015548,0.21671400557275947,0.025203090500000025,0.016769371499999908,-0.017946169500000053
246742.0,-0.7462860649999999,-1.1335506734999998,9.958653075,0.06160314127839185,0.20568181635977578,0.0024801128670839424,10.050704009591193,0.2147233279274879,0.0035303939999999923,0.035892339000000106,0.01676937150000235
246752.0,-0.7378523459999999,-1.116781302,10.004155931,0.06373418829507693,0.20168501237270875,0.002747148242639075,10.093302851532643,0.21153353823183463,0.008433719000000006,0.016769371499999908,0.045502855999998815
246762.0,-0.7222597724999998,-1.1335506734999998,10.008961189499999,0.0642682590461872,0.1990198946049134,0.004611159883769018,10.098806880086443,0.2091903209157927,0.015592573500000095,-0.016769371499999908,0.004805258499999354
246772.0,-0.6983315465,-1.1204097625,10.011314785499998,0.06160314127839185,0.19582245141525978,0.009142034621946299,10.09799033071003,0.20548711952498663,0.023928225999999886,0.01314091099999981,0.0023535959999989586
246782.0,-0.667244466,-1.1418863259999998,10.006509527,0.05467592947722636,0.19155861205263763,0.013938199406426715,10.093530228460962,0.19969585002804857,0.031087080499999975,-0.021476563499999823,-0.004805258499997578
246792.0,-0.654103555,-1.1370810674999998,9.9646351315,0.04774697234680887,0.19182564742819277,0.015536921001253522,10.050609838146867,0.19828829590707425,0.013140911000000033,0.00480525850000002,-0.041874395500000716
246802.0,-0.632528925,-1.174248271,9.9395301075,0.04028568979453311,0.19688710225897632,0.015004595579395251,10.028619576033737,0.20152569495391687,0.021574629999999928,-0.037167203500000134,-0.025105024000000142
246812.0,-0.6361573854999999,-1.1837607215,9.889221993,0.036555921183021235,0.20728053795460258,0.013405873984568445,9.980115094112255,0.21090584213240476,-0.003628460499999875,-0.009512450499999936,-0.050308114499999945
246822.0,-0.64331624,-1.2018049575,9.889221993,0.03922103895081657,0.2123419927853861,0.01180715238974164,9.982730216095904,0.21625637711754309,-0.007158854500000089,-0.018044236000000158,0.0
246832.0,-0.6695980619999999,-1.2232815209999999,9.872452621499999,0.04774697234680887,0.21607350672615,0.007808603073422631,9.970461373879166,0.2214238197646784,-0.026281821999999955,-0.021476563499999823,-0.016769371500000574
246842.0,-0.6695980619999999,-1.2245563855,9.890398790999999,0.05813866271318312,0.2123419927853861,0.0011484266478122688,9.98838766522992,0.22016027090715445,0.0,-0.001274864500000028,0.017946169500000053
246852.0,-0.679208579,-1.1910176424999999,9.897655711999999,0.06719866686028568,0.20594710640607888,-0.00124965574442794,9.992168729150826,0.21663663841630304,-0.00961051700000004,0.03353874300000004,0.00725692099999975
246862.0,-0.6888190959999999,-1.1658145519999998,9.8928504535,0.07306122781773462,0.19422372982043298,-0.0033824480903650108,9.985093159905137,0.20753852941244302,-0.00961051699999993,0.025203090500000025,-0.004805258499999354
246872.0,-0.6600856114999999,-1.1802303275,9.878434678,0.07838971802407331,0.184364364875917,-0.006045820528908358,9.970563089814588,0.20042883743079926,0.028733484500000017,-0.014415775500000061,-0.014415775499999839
246882.0,-0.6684212639999999,-1.1347274715,9.9287427925,0.08185419658928206,0.17717011769919638,-0.005246459731494954,10.015704012218254,0.19523546154461316,-0.008335652500000013,0.045502855999999925,0.050308114499999945
246892.0,-0.6181131495,-1.129922213,9.897655711999999,0.08025547499445526,0.17317331371212938,-0.0023160519173964756,9.981100974657146,0.19088033409733252,0.050308114499999945,0.00480525850000002,-0.031087080500000752
246902.0,-0.6061490365,-1.1383559319999998,9.913150219,0.07705803180480164,0.17450499993140106,0.00034906585039886593,9.9966903596555,0.19076178106123884,0.011964112999999998,-0.008433718999999895,0.015494507000001434
246912.0,-0.6026186425,-1.1179581,9.886868397,0.07306122781773462,0.1790341293403263,0.002747148242639075,9.968106452142328,0.19338745901001608,0.0035303939999999923,0.020397831999999783,-0.02628182199999962
246922.0,-0.5893796649999999,-1.1107992455,9.864116969,0.06453354909249033,0.18782884344112574,0.0030124382889422127,9.943945239764377,0.19862861871177695,0.013238977500000026,0.007158854500000089,-0.022751428000001184
246932.0,-0.5343643585,-1.1814071254999998,9.911973420999999,0.057339301915769705,0.20248437317012213,0.006209881478595825,9.996423618596188,0.21053807149839499,0.05501530649999997,-0.07060787999999985,0.04785645199999955
246942.0,-0.6385109815,-1.095206672,9.911973420999999,0.053342497928702694,0.2232677539028706,0.0032794736644973454,9.992716899147089,0.22957497025072782,-0.104146623,0.08620045349999983,0.0
246952.0,-0.667244466,-1.092853076,9.929919590499999,0.05201081170943102,0.2245994401221423,0.004611159883769018,10.012134942005424,0.2305890193251347,-0.028733484500000017,0.002353596000000069,0.017946169500000053
246962.0,-0.6648908699999999,-1.1204097625,9.9742456485,0.05760633729132485,0.2184715891183902,0.007543313027119492,10.058974806685612,0.22606465207869564,0.002353596000000069,-0.027556686500000094,0.04432605800000111
246972.0,-0.6600856114999999,-1.1071707849999999,9.994545414,0.06559994526545887,0.20648117715718917,0.011007791592328238,10.077324952296381,0.21693086644087758,0.00480525850000002,0.013238977500000138,0.020299765499999012
246982.0,-0.6624392075,-1.094029874,9.9958202785,0.0727941924421795,0.1926250082256062,0.017135642596080327,10.077308673892524,0.20663256881335168,-0.002353596000000069,0.01314091099999981,0.0012748645000009162
246992.0,-0.646846634,-1.1096224474999998,9.971793986,0.07652570638294337,0.18303093332739334,0.02273116817797415,10.054170669087469,0.19968277917447091,0.015592573499999984,-0.015592573499999762,-0.024026292500000324
247002.0,-0.6600856114999999,-1.1215865605,10.030535819499999,0.07972314957259699,0.17983349013773972,0.027260297586899435,10.114609149812763,0.19859251893619134,-0.013238977499999915,-0.01196411300000011,0.058741833499999174
247012.0,-0.6492982965,-1.1287454149999998,10.0448535285,0.07838971802407331,0.17637075690178297,0.028860764510978233,10.128906007004913,0.19515259544817662,0.010787314999999853,-0.007158854499999867,0.014317709000000178
247022.0,-0.678031781,-1.1478683825,10.026907358999999,0.07785739260221504,0.17530436072881445,0.027527332962454566,10.11514706297232,0.19378118209304945,-0.028733484499999906,-0.0191229675000002,-0.017946169500000053
247032.0,-0.6253700704999999,-1.1227633584999999,9.9885633575,0.07679099642924651,0.17850180391846804,0.026995007540596295,10.070902801192108,0.1961848148223012,0.052661710500000014,0.025105024000000142,-0.038344001499998726
247042.0,-0.55113373,-1.2184762624999999,9.985032963499998,0.07093018080104956,0.19422372982043298,0.022998203553529283,10.074190591447099,0.20804534395299426,0.07423634049999994,-0.09571290399999999,-0.0035303940000019907
247052.0,-0.632528925,-1.0294040505,10.037694673999999,0.06879738845511249,0.22433415007583918,0.026727972165041164,10.110147373238206,0.2361636636837852,-0.08139519500000003,0.1890722119999999,0.05266171050000068
247062.0,-0.6492982965,-1.0880478175,10.008961189499999,0.06773099228214395,0.23072903645514636,0.038186058704383935,10.088842372835526,0.24347802910821084,-0.01676937150000002,-0.05864376699999996,-0.028733484500000017
247072.0,-0.6014418445,-1.1490451805,10.060446101999998,0.06533290988990374,0.2448504954330325,0.04165053726959268,10.143698186085429,0.2568169026433609,0.047856451999999994,-0.06099736300000003,0.051484912499999425
247082.0,-0.6396877794999999,-1.1455147865,10.110754216499998,0.05813866271318312,0.2640368999002062,0.038718384126242206,10.19552624477051,0.27312030660559833,-0.03824593499999984,0.0035303939999999923,0.050308114499999945
247092.0,-0.6971547484999999,-1.1011887285,10.2388290655,0.046947611549395474,0.2741615548910253,0.04511501583480143,10.321446700519221,0.28178715560548884,-0.057466969000000034,0.044326058,0.12807484900000077
247102.0,-0.7534449194999999,-1.0880478175,10.364452252,0.03762231735598977,0.2696324254821,0.05817007863971901,10.448607456684108,0.2783897298456718,-0.056290171,0.013140911000000033,0.12562318650000037
247112.0,-0.807283428,-1.1418863259999998,10.33817043,0.02269975225143825,0.23898967980483554,0.0674971181623767,10.43232374662307,0.24937362884980507,-0.05383850850000005,-0.05383850849999994,-0.02628182199999962
