timestamp,ax,ay,az,gx,gy,gz,acc_mag,gyro_mag,dax,day,daz
194332.0,-0.333229967,-0.37579082799999997,9.921583938,0.057339301915769705,0.20941158497128765,0.024329889772800952,9.934288540006039,0.21847871978920796,0.0,0.0,0.0
194342.0,-0.34637087799999994,-0.8761261109999999,9.809003596,0.044282493781600124,0.18916052966039745,0.014737560203840119,9.854142341870418,0.19483285379442905,-0.013140910999999922,-0.500335283,-0.11258034199999933
194352.0,-0.2338886025,-1.0676499855,9.884416734499998,0.023766148424406785,0.2014179769971536,0.01526988562569839,9.944660605127819,0.20338928358096633,0.11248227549999995,-0.19152387449999997,0.07541313849999831
194362.0,-0.25301156999999996,-1.0305808484999999,9.876081081999999,0.01950230906178464,0.22220135772990207,0.019001399566462265,9.932929541584754,0.22386343297027683,-0.019122967499999977,0.03706913700000003,-0.008335652499999568
194372.0,-0.26742734549999997,-1.050880614,9.8832399365,0.012308061885064012,0.24138776219707575,0.021399481958702473,9.942549929089154,0.24264681731681417,-0.014415775500000005,-0.020299765500000122,0.0071588545000018655
194382.0,-0.29851442599999994,-1.0784373004999999,9.949140624499998,0.013107422682477415,0.25977306053758403,0.01980076036387567,10.011869807369454,0.2608561243701747,-0.031087080499999975,-0.027556686499999872,0.06590068799999749
194392.0,-0.344017282,-1.061667929,9.94786576,0.026429520862950133,0.2728298686717536,0.024862215194659226,10.010270718655024,0.2752322411289727,-0.045502856000000036,0.016769371499999908,-0.0012748644999991399
194402.0,-0.36912230599999996,-1.034209309,9.9658119295,0.042950807562328455,0.26563562149503295,0.029925415354694774,10.026128245029259,0.270744502735438,-0.025105023999999976,0.02745861999999999,0.017946169500000053
194412.0,-0.3739275645,-1.036562905,9.949140624499998,0.056274651072053164,0.2536452095338319,0.036320301734002,10.009979203054877,0.2623392707750629,-0.00480525850000002,-0.002353596000000069,-0.016671305000000913
194422.0,-0.36676871,-1.060491131,9.959829872999999,0.06480058446804547,0.2347258404422134,0.04298222348886435,10.02284250223797,0.24727071693742955,0.007158854499999978,-0.023928225999999997,0.010689248500000303
194432.0,-0.3847148795,-1.048527018,9.9538478165,0.07332826319328975,0.21953798529135873,0.05017647066558498,10.016311736364162,0.23683673570032907,-0.017946169499999998,0.01196411300000011,-0.0059820564999988335
194442.0,-0.378732823,-1.0533322765,9.963458333499998,0.07945611419704186,0.20221733779456702,0.05550670620117566,10.026138309405312,0.22424566934796983,0.005982056499999999,-0.00480525850000002,0.009610516999998708
194452.0,-0.357158193,-1.056960737,9.951494220499999,0.08371995355966401,0.1888934942848423,0.05976880023454582,10.013838684292427,0.21508624383871483,0.021574629999999984,-0.003628460500000097,-0.011964112999999443
194462.0,-0.38589167750000003,-1.0629427935,9.929919590499999,0.08878315371969955,0.18356500407850362,0.06136752182937262,9.994101402468008,0.2129425552637034,-0.028733484500000017,-0.005982056499999944,-0.021574629999999928
194472.0,-0.39550219449999996,-1.0676499855,9.925114332,0.09277995770676657,0.1859630864707438,0.06243391800234115,9.990204851786787,0.2169985810988583,-0.00961051699999993,-0.004707191999999916,-0.004805258499999354
194482.0,-0.3727507665,-1.0556858724999998,9.944335366,0.09571036552086504,0.18942756503595257,0.06136752182937262,10.007158521118809,0.22092815393033582,0.022751427999999962,0.01196411300000011,0.01922103400000097
194492.0,-0.364415114,-1.0556858724999998,9.9526710185,0.09517804009900677,0.18969285508225572,0.06030287098565608,10.015135118369475,0.22063244284433442,0.008335652500000013,0.0,0.008335652499999568
194502.0,-0.355981395,-1.0593143329999999,9.9263891965,0.09464396934789651,0.18916052966039745,0.061102231783069484,9.989097661454577,0.22016509633499953,0.008433719000000006,-0.003628460500000097,-0.02628182199999962
194512.0,-0.36314024949999996,-1.048527018,9.9287427925,0.09704205174013672,0.1875618080655706,0.06190159258048288,9.990556200127378,0.22006453329594344,-0.007158854499999978,0.010787314999999964,0.0023535959999989586
194522.0,-0.364415114,-1.04735022,9.9144250835,0.09810844791310525,0.18676244726815722,0.06323327879975456,9.976250076806398,0.22023607063620884,-0.001274864500000028,0.0011767979999999234,-0.014317709000000178
194532.0,-0.341663686,-1.0317576465,9.943158568,0.10103885572720374,0.184364364875917,0.06616543194310504,10.002382727322232,0.2204017554081197,0.022751427999999962,0.015592573499999984,0.028733484500000017
194542.0,-0.33685842749999995,-1.036562905,9.890398790999999,0.10290461269758566,0.1819662824836768,0.06909583975720351,9.950272584266928,0.2201711206019593,0.004805258500000076,-0.00480525850000002,-0.05275977700000034
194552.0,-0.32969957299999997,-1.0652963895,9.858134912499999,0.10263757732203053,0.1819662824836768,0.07016223593017204,9.92100711414771,0.22038361915121138,0.007158854499999978,-0.028733484500000017,-0.03226387850000023
194562.0,-0.32969957299999997,-1.0593143329999999,9.854506451999999,0.10237228727572739,0.19022692583336598,0.06936287513275864,9.916760866182326,0.22688670512121165,0.0,0.005982056500000166,-0.003628460499999875
194572.0,-0.33087637099999995,-1.0736320419999998,9.886868397,0.09784141253755012,0.20514774560866547,0.0674971181623767,9.950494039699365,0.23709576229002205,-0.001176797999999979,-0.014317708999999956,0.03236194500000167
194582.0,-0.3703971705,-1.061667929,9.905991364499998,0.0930452477530697,0.22300071852731548,0.06243391800234115,9.969603691668496,0.2495690940606472,-0.03952079950000004,0.011964112999999887,0.019122967499997756
194592.0,-0.413448364,-1.0664731875,9.94786576,0.08665036137376247,0.23365944426924487,0.05896943943713241,10.013407900826323,0.2560906398327467,-0.04305119350000003,-0.00480525850000002,0.041874395500000716
194602.0,-0.43502299399999994,-1.0868710195,9.983856165499999,0.08638332599820735,0.23525816586407167,0.05337391385523859,10.052259325730212,0.25623672316134943,-0.021574629999999928,-0.020397832000000005,0.03599040549999977
194612.0,-0.4313945335,-1.09638347,10.020925302499998,0.09038187531452635,0.2277968833117959,0.04777838827334477,10.089950538784004,0.24968595839161048,0.0036284604999999304,-0.009512450499999936,0.037069136999999586
194622.0,-0.42658927499999993,-1.082065761,10.036517875999998,0.09464396934789651,0.21873862449394532,0.040317105721069016,10.10368921710981,0.24172202173809618,0.004805258500000076,0.014317708999999956,0.015592573499999318
194632.0,-0.424235679,-1.0641195915,10.060446101999998,0.09277995770676657,0.20488245556236234,0.0355209409365886,10.125458122356621,0.22769865698847103,0.002353595999999958,0.017946169500000053,0.023928226000000663
194642.0,-0.3847148795,-1.0437217595,10.073587013,0.08425227898152227,0.1960877414615629,0.032323497746934986,10.134817016515134,0.2158556401201347,0.03952079949999998,0.020397832000000005,0.013140911000000699
194652.0,-0.40383784699999997,-1.0329344445,10.074763810999999,0.07545931020997484,0.19155861205263763,0.03152413694952158,10.135625507127783,0.2082848543685074,-0.019122967499999977,0.010787314999999964,0.0011767979999994793
194662.0,-0.391873734,-1.0294040505,10.075940609,0.06959674925252589,0.1904922158796691,0.034721580139175194,10.135966499484901,0.20575854768302235,0.011964112999999998,0.0035303939999999923,0.0011767980000012557
194672.0,-0.3847148795,-1.0090062185,10.016120044,0.06639930606287227,0.18969285508225572,0.036587337109557125,10.07416298375696,0.20428137543999705,0.007158854499999978,0.020397832000000005,-0.05982056500000077
194682.0,-0.36314024949999996,-1.0090062185,10.032889415499998,0.06773099228214395,0.18942756503595257,0.038718384126242206,10.090036393067692,0.20486435263442276,0.02157463000000004,0.0,0.016769371499998798
194692.0,-0.357158193,-0.9875296549999999,9.999350672499999,0.06906442383066762,0.19289029827190932,0.041116466518482414,10.054341881294748,0.2089668050802656,0.005982056499999944,0.021476563500000045,-0.03353874299999937
194702.0,-0.353627799,-0.9875296549999999,9.991015019999999,0.06613227068731714,0.19662181221267316,0.04298222348886435,10.04592696417785,0.21185156548891249,0.0035303939999999923,0.0,-0.008335652499999568
194712.0,-0.341663686,-0.9970421054999999,9.959829872999999,0.061336105902836724,0.19848582385380314,0.04697902747593137,10.01543998701875,0.21299241578242004,0.011964112999999998,-0.009512450500000047,-0.031185147000000413
194722.0,-0.36314024949999996,-0.9970421054999999,9.9885633575,0.0541418587261161,0.20168501237270875,0.04937710986817158,10.044767879236357,0.21458397904091508,-0.021476563499999934,0.0,0.028733484500001794
194732.0,-0.36912230599999996,-1.0078294205,9.976599244500001,0.050412090114604215,0.20488245556236234,0.05097583146299838,10.034166826546691,0.21706389570891418,-0.005982056499999999,-0.010787315000000075,-0.011964112999999443
194742.0,-0.38353808149999996,-1.0222451959999999,9.9263891965,0.04961272931719081,0.20648117715718917,0.05044350604114011,9.986255012821257,0.21826691625677475,-0.014415775500000005,-0.014415775499999839,-0.050210048000000285
194752.0,-0.38952013799999996,-1.0209703314999998,9.897655711999999,0.05121145091201762,0.2046154201868072,0.04884478444631331,9.95779568724911,0.21650841981397506,-0.005982056499999999,0.001274864500000028,-0.028733484500001794
194762.0,-0.3727507665,-1.0533322765,9.879709542499999,0.05281017250684442,0.20008454544862994,0.04671373742962823,9.94269141947031,0.21214361388510325,0.016769371499999963,-0.032361945000000114,-0.017946169500000053
194772.0,-0.3584330575,-1.0437217595,9.867647362999998,0.0541418587261161,0.20035158082418508,0.04511501583480143,9.929163804091631,0.21238517240815816,0.014317709000000012,0.00961051700000004,-0.01206217950000088
194782.0,-0.38589167750000003,-1.0257755899999998,9.874904284,0.056806976493911435,0.2046154201868072,0.04351454891072262,9.93553534370268,0.21676719937183103,-0.027458620000000045,0.017946169500000053,0.007256921000001526
194792.0,-0.390696936,-1.0401913655,9.902362903999999,0.05867273346429337,0.20621414178163405,0.03898541950179733,9.964508681072832,0.21791426033336828,-0.004805258499999965,-0.014415775500000061,0.0274586199999991
194802.0,-0.3799096209999999,-1.0904014135,9.910796623,0.057339301915769705,0.2027496632164253,0.03179117232507671,9.97783524944962,0.21308660238589472,0.010787315000000075,-0.05021004800000006,0.008433719000001005
194812.0,-0.4062895095,-1.050880614,9.9048145665,0.058405698088738245,0.19822053380750002,0.02539628594576949,9.968689624376985,0.20820080915309236,-0.02637988850000006,0.03952079949999998,-0.0059820564999988335
194822.0,-0.390696936,-1.048527018,9.900009308,0.06027145505912018,0.19315733364746446,0.02273116817797415,9.963043576225209,0.2036151021989204,0.015592573499999984,0.002353596000000069,-0.0048052585000011305
194832.0,-0.3380352255,-1.0257755899999998,9.889221993,0.06080378048097845,0.1888934942848423,0.022998203553529283,9.948024678374775,0.19976678720599764,0.052661710500000014,0.022751428000000073,-0.010787314999999964
194842.0,-0.3141069995,-1.0018473639999999,9.9144250835,0.05867273346429337,0.1875618080655706,0.024862215194659226,9.96986389496981,0.19809101756865075,0.023928225999999997,0.023928225999999997,0.025203090499999803
194852.0,-0.286550313,-0.9827243964999999,9.908443027,0.0549412195235295,0.1904922158796691,0.029660125308391638,9.961179726350771,0.20046332569023345,0.027556686499999983,0.019122967499999977,-0.0059820564999988335
194862.0,-0.29851442599999994,-0.9935117115,9.909619824999998,0.05174377633387589,0.19688710225897632,0.036587337109557125,9.963771447571988,0.20683467470904185,-0.011964112999999943,-0.010787315000000075,0.001176797999997703
194872.0,-0.31165533700000003,-1.0066526225,9.878434678,0.05201081170943102,0.19955222002677167,0.040317105721069016,9.93448288734646,0.21012301650702342,-0.013140911000000088,-0.013140911000000144,-0.031185146999998636
194882.0,-0.3044964825,-1.050880614,9.874904284,0.056274651072053164,0.20008454544862994,0.04085117647217927,9.935331035798326,0.21182417307717108,0.007158854500000034,-0.0442279914999999,-0.0035303940000002143
194892.0,-0.318912258,-1.0521554784999998,9.8569581145,0.06533290988990374,0.19848582385380314,0.03791902332882881,9.918082448248128,0.21237434806449088,-0.014415775500000005,-0.001274864499999806,-0.017946169500000053
194902.0,-0.34038882149999994,-1.0425449615,9.874904284,0.07759035722665991,0.19688710225897632,0.035255650890285456,9.93561770423524,0.2145408014578928,-0.021476563499999934,0.009610516999999819,0.017946169500000053
194912.0,-0.30331968449999996,-1.011457881,9.8952040495,0.08558396520079395,0.1987528592293583,0.03791902332882881,9.951387494077567,0.21969334646626895,0.037069136999999974,0.031087080500000086,0.020299765500000788
194922.0,-0.3129302015,-1.0078294205,9.92040714,0.09011483993897122,0.20115094162159847,0.039252454877352475,9.976378264440417,0.22388197986077554,-0.00961051700000004,0.003628460499999875,0.025203090499999803
194932.0,-0.332053169,-0.9946885095,9.935901647,0.09011483993897122,0.20381605938939382,0.04138350189403755,9.991086331166976,0.22665891703451935,-0.019122967499999977,0.013140911000000033,0.015494506999999658
194942.0,-0.34284048399999995,-0.9839011945,9.9503174225,0.08371995355966401,0.20568181635977578,0.04378158428627776,10.004719784507456,0.22634236750486036,-0.010787314999999964,0.010787314999999964,0.014415775499999839
194952.0,-0.36314024949999996,-0.9767423399999999,9.9885633575,0.0751922748344197,0.20568181635977578,0.0464467020540731,10.042773241806632,0.22386644212014287,-0.02029976550000001,0.007158854500000089,0.03824593500000084
194962.0,-0.3607866535,-1.011457881,10.0005274705,0.06613227068731714,0.20328373396753555,0.04484798045924629,10.058019871853796,0.2184241174259777,0.002353595999999958,-0.03471554099999996,0.011964112999999443
194972.0,-0.36559191199999996,-1.013811477,9.977874109,0.06160314127839185,0.20008454544862994,0.04458094508369116,10.035907676541733,0.2140472681612766,-0.004805258499999965,-0.002353596000000069,-0.022653361499999747
194982.0,-0.35235293449999994,-1.0282272525,9.957476277,0.06107081585653358,0.19662181221267316,0.04378158428627776,10.016623067693635,0.2104913506769216,0.013238977500000026,-0.014415775500000061,-0.02039783200000045
194992.0,-0.3511761365,-1.036562905,9.968263592,0.06187017665394699,0.1960877414615629,0.04484798045924629,10.02816365913829,0.21045109280296045,0.0011767979999999234,-0.008335652500000013,0.010787314999999964
195002.0,-0.318912258,-1.0521554784999998,9.9862097615,0.06187017665394699,0.19235797285005105,0.0464467020540731,10.046547744370605,0.20733259418111621,0.03226387850000001,-0.015592573499999762,0.017946169500000053
195012.0,-0.3284247085,-1.0222451959999999,9.9622815355,0.06213546670025012,0.19129157667708252,0.04697902747593137,10.019975120850482,0.20654373036295812,-0.009512450499999991,0.02991028249999994,-0.023928225999998887
195022.0,-0.355981395,-1.0282272525,9.9742456485,0.06080378048097845,0.19475605524229125,0.04937710986817158,10.033421664267431,0.20991693536551764,-0.027556686499999983,-0.005982056500000166,0.011964112999999443
195032.0,-0.3511761365,-1.013811477,9.943158568,0.056274651072053164,0.19635477683711805,0.049644145243726706,10.00087699645065,0.21020603201862692,0.004805258499999965,0.014415775500000061,-0.031087080500000752
195042.0,-0.3823612834999999,-1.016165073,9.951494220499999,0.05520825489908463,0.20008454544862994,0.050710541416695246,10.01054588058762,0.21366641230469877,-0.031185146999999913,-0.002353596000000069,0.008335652499999568
195052.0,-0.3763792269999999,-1.0018473639999999,9.968263592,0.05360953330425783,0.20008454544862994,0.05097583146299838,10.025549286840278,0.21332215726883413,0.005982056499999999,0.014317709000000178,0.016769371500000574
195062.0,-0.400307453,-1.0257755899999998,9.9622815355,0.05147674095832075,0.20008454544862994,0.05097583146299838,10.022949416740136,0.21279618319043914,-0.023928226000000052,-0.023928225999999997,-0.0059820564999988335
195072.0,-0.42658927499999993,-1.0257755899999998,9.9658119295,0.05201081170943102,0.20221733779456702,0.050710541416695246,10.027542140761582,0.21486864650332368,-0.026281821999999955,0.0,0.003530393999998438
195082.0,-0.433846196,-1.0317576465,9.955122680999999,0.05307720788239956,0.20115094162159847,0.04671373742962823,10.017844776031195,0.2132160045036287,-0.007256921000000083,-0.005982056500000166,-0.010689248500000303
195092.0,-0.42060721849999994,-1.0413681635,9.9503174225,0.05227610175573416,0.19688710225897632,0.04351454891072262,10.013499632631575,0.20830467545788822,0.013238977500000082,-0.00961051700000004,-0.004805258499999354
195102.0,-0.42178401649999997,-1.036562905,9.9646351315,0.05281017250684442,0.19342436902301957,0.04378158428627776,10.02727867950826,0.20522847749465073,-0.0011767980000000344,0.00480525850000002,0.014317709000000178
195112.0,-0.412271566,-1.060491131,9.9503174225,0.05227610175573416,0.19102628663077936,0.04324925886441949,10.015159813581048,0.202717368252062,0.009512450499999991,-0.023928225999999997,-0.014317709000000178
195122.0,-0.38353808149999996,-1.0556858724999998,9.905991364499998,0.05281017250684442,0.1920909374744959,0.04298222348886435,9.969465333452208,0.20380214453258347,0.028733484500000017,0.004805258500000242,-0.04432605800000111
195132.0,-0.3763792269999999,-1.050880614,9.885691599,0.050944415536462485,0.1944890198667361,0.03951774492365561,9.948512943045172,0.20489744870770485,0.007158854500000034,0.004805258499999798,-0.020299765499999012
195142.0,-0.3476457425,-1.091676278,9.911973420999999,0.05067738016090735,0.20328373396753555,0.036854372485112266,9.977967315883367,0.21272216181448583,0.028733484499999906,-0.04079566400000001,0.02628182199999962
195152.0,-0.4278641395,-1.013811477,9.900009308,0.053876568679812956,0.2168728675235634,0.03578797631214373,9.960977147411475,0.22631240480610482,-0.080218397,0.07786480100000004,-0.011964112999999443
195162.0,-0.42305888099999994,-1.0772605025,9.915601881499999,0.05467592947722636,0.2192709499158036,0.037119662531415396,9.982916892343933,0.22901326618260273,0.004805258500000076,-0.06344902549999998,0.015592573499999318
195172.0,-0.41707682449999994,-1.140709528,9.945512163999998,0.057873372666879974,0.22486647549769742,0.03392221934176179,10.019400356761722,0.2346592764662559,0.005982056499999999,-0.06344902549999998,0.029910282499999497
195182.0,-0.47807418749999997,-1.1179581,9.957476277,0.06719866686028568,0.2224683931054572,0.025661575992072628,10.031436539655084,0.23380839001438938,-0.06099736300000003,0.02275142799999985,0.01196411300000122
195192.0,-0.49484355899999993,-1.1096224474999998,9.963458333499998,0.07918907882148672,0.20781286337646085,0.01980076036387567,10.03726228048616,0.22326926904593666,-0.016769371499999963,0.008335652500000235,0.0059820564999988335
195202.0,-0.48886150249999993,-1.1119760435,10.011314785499998,0.09038187531452635,0.19395669444487784,0.011540117014186507,10.084735991800446,0.21429245671757888,0.005982056499999999,-0.002353596000000069,0.04785645199999955
195212.0,-0.46728687249999995,-1.085596155,10.0340662135,0.10023949492979033,0.17663604694808613,0.006209881478595825,10.103433119977774,0.20319156491647028,0.021574629999999984,0.02637988849999995,0.022751428000001184
195222.0,-0.4410050505,-1.0556858724999998,10.0340662135,0.10850013827947949,0.16437859961132995,0.0051452306348792835,10.099081289546332,0.1970255755355994,0.026281821999999955,0.029910282500000163,0.0
195232.0,-0.40511271149999994,-1.0209703314999998,10.037694673999999,0.11835950322399547,0.15905010940499126,0.0054105206811824215,10.097614128855888,0.19833099364247683,0.03589233900000005,0.03471554099999996,0.003628460499999875
195242.0,-0.367945508,-0.9970421054999999,10.104674093499998,0.12182398178920421,0.1603817956242629,0.006209881478595825,10.160409213847997,0.20149929412932793,0.03716720349999997,0.023928225999999886,0.06697941949999908
195252.0,-0.3763792269999999,-0.9647782269999999,10.181362096500001,0.1258207857762712,0.16251458797020002,0.011273081638631374,10.233894297375622,0.20583717790067338,-0.00843371899999995,0.03226387850000001,0.07668800300000278
195262.0,-0.3943253965,-0.9528141139999999,10.328559913,0.13274799757743672,0.15505330541792425,0.016868607220525196,10.379908339219236,0.20481237338452868,-0.017946169500000053,0.011964112999999998,0.14719781649999852
195272.0,-0.468561737,-0.919275371,10.546463675999998,0.14074335088082274,0.1297390499469985,0.022198842756115878,10.596816190644011,0.1927010651709609,-0.0742363405,0.033538742999999926,0.21790376299999892
195282.0,-0.5439748754999999,-0.9036827974999999,10.661397613999998,0.15246672746646864,0.0716510017821232,0.027260297586899435,10.71344717387814,0.17065489405593545,-0.07541313849999992,0.015592573500000095,0.11493393800000007
