timestamp,ax,ay,az,gx,gy,gz,acc_mag,gyro_mag,dax,day,daz
354382.0,0.3849110125,-1.292320337,9.6786732175,-0.10001434745628307,0.009004153611038746,-0.014969688994355365,9.772152454404269,0.10152849879686503,0.0,0.0,0.0
354392.0,0.3046926155,-1.3234074174999997,9.671514363,-0.13971709728065007,0.007670722062515079,-0.014437363572497095,9.766393134435535,0.1406703405711931,-0.080218397,-0.031087080499999642,-0.007158854500000089
354402.0,0.29998542349999996,-1.376069128,9.725352871499998,-0.16689710972195776,-0.00618370153981591,-0.003511602455012591,9.826802428793428,0.16704854010160872,-0.004707192000000027,-0.052661710500000236,0.05383850849999838
354412.0,0.375398562,-1.5472932369999999,9.661903846,-0.17089391370902476,-0.01897521962768235,-0.0019128808601857853,9.792212537060621,0.1719547842192582,0.07541313850000003,-0.17122410899999996,-0.06344902549999887
354422.0,0.43041386849999996,-1.6921374574999999,9.68700887,-0.14797774063033925,-0.022972023614749367,-0.004577998627981126,9.843105512018571,0.14982017108004636,0.05501530649999997,-0.1448442205,0.025105024000000142
354432.0,0.42325501399999993,-1.6609523105,9.75173276,-0.10427818681890522,-0.009915215480579788,-0.012039281180256885,9.901222106744633,0.10543811471949843,-0.007158854500000034,0.03118514699999997,0.06472388999999978
354442.0,0.2891981085,-1.514931292,9.793607155499998,-0.0715026487957037,0.005007349623971731,-0.017102481340292436,9.914302470759178,0.07368987178068291,-0.13405690549999993,0.14602101849999993,0.04187439549999894
354452.0,0.17906942899999997,-1.4754104925,9.87137389,-0.06697351938677841,0.0010105456369047167,-0.009641198788016676,9.982631139031191,0.06767145790956114,-0.11012867950000002,0.03952079949999998,0.07776673450000082
354462.0,0.15984839499999998,-1.6262367695,9.920505206499998,-0.08935562171435368,-0.027235862977371513,-0.006976081020221335,10.054184257912297,0.09367435652558027,-0.019221033999999998,-0.15082627699999995,0.04913131649999869
354472.0,0.074922806,-1.665757569,9.926487262999999,-0.12532860292720882,-0.05414709471387208,-0.028825857925938347,10.065560644496705,0.13953528823493141,-0.08492558899999998,-0.03952079949999998,0.00598205650000061
354482.0,0.031773546,-1.632218826,9.82234064,-0.1655636781734341,-0.07546454619773083,-0.0541401133968641,9.957084086336213,0.18983514200951102,-0.043149259999999995,0.03353874300000004,-0.10414662299999833
354492.0,0.0461893215,-1.58083198,9.6535681935,-0.19993793779146243,-0.09145176214599887,-0.07572460025627797,9.78225649167748,0.23253562920955606,0.014415775499999998,0.051386845999999986,-0.16877244650000023
354502.0,0.10483308849999999,-1.5065956394999998,9.4105594065,-0.21592515373973048,-0.10690665267240868,-0.08744797684192389,9.530973126636676,0.2563198257195313,0.05864376699999999,0.07423634050000016,-0.24300878700000084
354512.0,0.18985674399999997,-1.4562875249999998,9.1914788455,-0.20553346337335623,-0.10131112709051486,-0.08158541588447493,9.308066518132911,0.24323677584534778,0.08502365549999998,0.050308114499999945,-0.2190805609999984
354522.0,0.23173113950000002,-1.4826674134999998,9.008290623499999,-0.1756900784935052,-0.07120070683510868,-0.06133436057358473,9.132431326733684,0.19924469408705373,0.04187439550000005,-0.02637988849999995,-0.18318822200000184
354532.0,0.2760571975,-1.546116439,8.946018396,-0.1461119836599573,-0.02510307063143444,-0.044814819203458395,9.08283704361187,0.15487815838397964,0.044326058,-0.0634490255000002,-0.06227222749999939
354542.0,0.2784107935,-1.653793456,9.010742286,-0.1298577323361341,0.030853930516755758,-0.04055097984083625,9.165479906134442,0.13949687323330137,0.002353595999999958,-0.1076770170000001,0.06472388999999978
354552.0,0.20897971149999997,-1.70047311,9.118419303,-0.12213115973755521,0.06496115475922895,-0.05067563483165536,9.277976713862495,0.14732274696082748,-0.069431082,-0.04667965399999985,0.10767701700000032
354562.0,0.18622828349999998,-1.7148888855,9.2944486705,-0.10854202618152736,0.06869092337074083,-0.06959500392327389,9.45316354199725,0.14609339126804083,-0.02275142799999999,-0.014415775500000061,0.17602936749999998
354572.0,0.16230005749999998,-1.7148888855,9.396143631,-0.09042201788732222,0.04737521721613408,-0.0898460592341641,9.552732610758966,0.13598848070700706,-0.023928225999999997,0.0,0.10169496049999971
354582.0,0.14915914649999998,-1.6310420279999998,9.554226829,-0.07709817437759751,0.013800318395519163,-0.10903246370133776,9.693595661470017,0.1342484838683837,-0.013140911000000005,0.0838468575000002,0.15808319799999992
354592.0,0.21133330749999998,-1.5747518569999999,9.603260079,-0.07256904496867222,-0.004584979944989104,-0.12661840124443263,9.733812681724409,0.14601201273339554,0.062174161000000006,0.05629017099999989,0.049033250000000805
354602.0,0.29400336699999996,-1.5712214629999999,9.663080643999999,-0.08109672369391652,-0.008848819307611252,-0.1404745701760156,9.794401584479097,0.16244409827125925,0.08267005949999998,0.0035303939999999923,0.05982056499999899
354612.0,0.34901867349999993,-1.5077724375,9.695442588999999,-0.09548521804735778,-0.002986258350162298,-0.15166562133980324,9.818187141948934,0.17924509840125044,0.05501530649999997,0.06344902549999998,0.03236194499999989
354622.0,0.4280602725,-1.4610927835,9.693088993,-0.10720859463300368,0.004207988826558329,-0.1537966683564883,9.81193161131417,0.18752281229414144,0.07904159900000007,0.04667965399999985,-0.0023535959999989586
354632.0,0.48552724149999993,-1.4383413555,9.721724411,-0.11147243399562583,0.003141592653589793,-0.14313794261455895,9.839536985072696,0.1814509403702252,0.05746696899999992,0.022751428000000073,0.028635418000000357
354642.0,0.5262248389999999,-1.3988205559999998,9.7014246455,-0.1120047594174841,-0.002453932928304027,-0.12235456188181047,9.81586734228736,0.16589673514652087,0.040697597500000016,0.0395207995000002,-0.020299765500000788
354652.0,0.5202427825,-1.3785207904999999,9.666709104499999,-0.11466987718527945,-0.009115854683166382,-0.09783966720829813,9.778355538310482,0.15101284720089947,-0.005982056499999944,0.0202997654999999,-0.03471554100000063
354662.0,0.49150929799999993,-1.4192183879999998,9.623657910999999,-0.12479627750535054,-0.015243705686918473,-0.08318413747930174,9.740151631818195,0.15075172360685374,-0.028733484500000073,-0.040697597499999905,-0.043051193500000196
354672.0,0.4615990155,-1.4503054684999999,9.5637392795,-0.13758605026396498,-0.022172662817335962,-0.07838797269482133,9.684088424282523,0.15989441036775998,-0.02991028249999994,-0.031087080500000086,-0.059918631499998654
354682.0,0.44836003799999996,-1.5365059220000001,9.54579311,-0.14584669361365415,-0.025370106006989575,-0.08078605508706153,9.67905177540341,0.16864544765089493,-0.013238977500000026,-0.08620045350000027,-0.017946169500000053
354692.0,0.44600644199999995,-1.5664162045,9.495484995499998,-0.14824477600589436,-0.03363074935667874,-0.08638158066895535,9.634148471545958,0.17484083731839303,-0.0023535960000000133,-0.02991028249999994,-0.05030811450000172
354702.0,0.435219127,-1.560434148,9.415266598499999,-0.14371390126771708,-0.0410902865797025,-0.0914447808289909,9.55361792932818,0.17522626803550714,-0.010787314999999964,0.005982056500000166,-0.08021839699999944
354712.0,0.46395261149999995,-1.560434148,9.361428089999999,-0.1391847718587918,-0.039491564984875695,-0.09384286322123112,9.501923102204268,0.1724484485285306,0.02873348449999996,0.0,-0.05383850850000016
354722.0,0.5010217485,-1.5747518569999999,9.266891983999999,-0.13651965409099645,-0.024036674458465905,-0.09304350242381772,9.4130841516858,0.16695050468758268,0.037069137000000085,-0.014317708999999956,-0.09453610599999962
354732.0,0.502296613,-1.525718607,9.238158499499999,-0.13172348930651603,0.0047403142484166,-0.08798030226378216,9.376763387068129,0.15847423071491484,0.001274864499999917,0.04903324999999992,-0.028733484500000017
354742.0,0.4903325,-1.5544520915,9.2752276365,-0.12559563830276396,0.02792352270265728,-0.07998669428964814,9.417356050092742,0.1514987087211972,-0.011964112999999943,-0.028733484500000017,0.03706913700000136
354752.0,0.455616959,-1.584362374,9.3446587185,-0.12053243814272839,0.03937986391274806,-0.0719930863155141,9.488963985109933,0.14581442591064256,-0.034715541000000016,-0.02991028249999994,0.06943108199999948
354762.0,0.39569832749999995,-1.5544520915,9.430859172,-0.1181343557504882,0.03458369912826764,-0.07066140009624243,9.566295165488652,0.1419323490876505,-0.05991863150000004,0.02991028249999994,0.08620045350000005
354772.0,0.34901867349999993,-1.535329124,9.4536106,-0.11840139112604332,0.017530087007031046,-0.07412587866145116,9.583830284906274,0.1407865024012904,-0.046679654000000015,0.019122967499999977,0.022751427999999407
354782.0,0.363434449,-1.5280722029999998,9.4799904885,-0.1181343557504882,-0.00618370153981591,-0.07945436886778985,9.60923040198078,0.14250249438341506,0.014415775500000061,0.007256921000000194,0.02637988850000106
354792.0,0.41129090099999993,-1.46707484,9.451257003999999,-0.11387051638786605,-0.02190562744178083,-0.07998669428964814,9.57328197365279,0.14086952218078616,0.04785645199999994,0.060997362999999805,-0.028733484500001794
354802.0,0.46875787,-1.468251638,9.421346721499999,-0.10614394378928714,-0.018441148876572087,-0.07572460025627797,9.546584250919038,0.13168457714935464,0.05746696900000009,-0.0011767979999999234,-0.029910282499999497
354812.0,0.47473992649999996,-1.453933929,9.4380180265,-0.10241242984852326,0.00021118483949131387,-0.06852860775030535,9.561144603877171,0.12322548627094292,0.005982056499999944,0.014317708999999956,0.016671305000000913
354822.0,0.44002438549999995,-1.4526590645,9.474008432,-0.10640923383559028,0.018863518555554713,-0.06479883913879347,9.59482545891877,0.12600653527301003,-0.034715541000000016,0.001274864500000028,0.03599040549999977
354832.0,0.42325501399999993,-1.5220901464999999,9.523041682,-0.11387051638786605,0.030321605094897487,-0.06506587451434862,9.653197713610652,0.1346085519730717,-0.01676937150000002,-0.06943108199999992,0.049033250000000805
354842.0,0.38373421449999995,-1.5293470675,9.5625624815,-0.11706795957751964,0.03565009530123618,-0.07039436472068729,9.691684869662252,0.1411779127167566,-0.03952079949999998,-0.007256921000000194,0.03952079949999998
354852.0,0.3598059885,-1.5293470675,9.5972780225,-0.11333819096600778,0.022060961745208326,-0.07359180791034091,9.725024845386915,0.13692328419988803,-0.02392822599999994,0.0,0.03471554099999885
354862.0,0.34421341499999997,-1.5089492355,9.604436877,-0.10481051224076349,-0.004319689898685966,-0.07039436472068729,9.728340988815077,0.12633000348856635,-0.01559257350000004,0.020397832000000005,0.007158854500000089
354872.0,0.34548827949999994,-1.4933566619999998,9.556580425,-0.1002813828318382,-0.0325643531837102,-0.0642665137169352,9.678724383445623,0.12347865251235993,0.0012748644999999725,0.015592573500000206,-0.04785645199999955
354882.0,0.4196265535,-1.5173829545,9.4248771155,-0.10667626921114541,-0.04775220833456486,-0.05867098813504138,9.555461585778314,0.1307760859728514,0.07413827400000006,-0.0240262925000001,-0.13170330950000064
354892.0,0.4615990155,-1.5448415745,9.327889347,-0.11653563415566137,-0.022704988239194233,-0.05174203100462389,9.466209844034214,0.12951180753694838,0.04197246199999999,-0.02745861999999999,-0.09698776850000002
354902.0,0.42688347449999997,-1.4958083245,9.326712549,-0.12532860292720882,0.027656487327102148,-0.046945866220143476,9.45554012291835,0.13666036132734227,-0.034715541000000016,0.04903324999999992,-0.0011767979999994793
354912.0,0.353823932,-1.5305238654999997,9.3566228315,-0.13572029329358307,0.06815859794888256,-0.04268202685752133,9.487575321896953,0.15775724358240986,-0.07305954249999996,-0.03471554099999974,0.029910282499999497
354922.0,0.272428737,-1.5161080899999997,9.433310834499999,-0.13758605026396498,0.07135604113853616,-0.03948458366786772,9.558250596087232,0.15993948287282791,-0.08139519500000003,0.014415775500000061,0.07668800299999923
354932.0,0.24134165649999997,-1.6023085435,9.4919546015,-0.12799372069500414,0.03724881689606298,-0.04214970143566306,9.629269994172573,0.13980867007672554,-0.031087080500000003,-0.08620045350000027,0.05864376700000129
354942.0,0.260464624,-1.6944910535,9.501467051999999,-0.10774266538411395,-0.0075171330883395775,-0.05014330940979709,9.654896058010596,0.11907703688162383,0.019122967500000004,-0.09218251,0.009512450499999048
354952.0,0.3143031325,-1.7280297965,9.463221117,-0.08962265708990882,-0.03416307477853701,-0.07172605093995897,9.62483388666661,0.1197662837597497,0.05383850850000005,-0.03353874300000004,-0.038245934999999065
354962.0,0.353823932,-1.6849786029999998,9.4356644305,-0.08189608449132993,-0.02989923541591486,-0.09410989859678624,9.591460134537735,0.12828720102708896,0.03952079949999998,0.043051193500000196,-0.027556686500000538
354972.0,0.422078216,-1.6082906,9.454787397999999,-0.08802393549508201,-0.0075171330883395775,-0.11036414992060944,9.599882989695743,0.14136819337322284,0.068254284,0.0766880029999999,0.019122967499999532
354982.0,0.4615990155,-1.5376827199999998,9.474008432,-0.09921498665886966,0.016997761585172775,-0.11222990689099137,9.609077872933712,0.1507583811182206,0.03952079949999998,0.07060788000000007,0.01922103400000097
354992.0,0.493862894,-1.4491286705,9.481167286499998,-0.10907435160338563,0.040713295461271726,-0.09783966720829813,9.603978736770136,0.15207691174023205,0.03226387850000001,0.0885540494999999,0.007158854499998313
355002.0,0.481898781,-1.4491286705,9.500290254,-0.11147243399562583,0.0598979545991934,-0.07865500807037645,9.622251048951163,0.1489982509985509,-0.011964112999999998,0.0,0.01912296750000131
355012.0,0.4496349025,-1.4658980419999998,9.5505983685,-0.10934138697894076,0.06309539778884701,-0.05840395275948625,9.672898108192832,0.13909561397306391,-0.03226387850000001,-0.016769371499999908,0.050308114499999945
355022.0,0.37775215799999995,-1.4503054684999999,9.5996316185,-0.10374586139704695,0.05430242901729958,-0.04667883084458835,9.715915286566654,0.1260589973116232,-0.07188274450000004,0.015592573499999984,0.049033250000000805
355032.0,0.30949787399999995,-1.4526590645,9.660727048,-0.09841562586145625,0.03991393466385833,-0.04161737601380479,9.774234209780493,0.11406473416585558,-0.068254284,-0.002353596000000069,0.06109542949999991
355042.0,0.2568361635,-1.4694284359999998,9.7002478475,-0.10214713980222012,0.013267992973660893,-0.044015458406045,9.814274962845456,0.11201534888584552,-0.05266171049999996,-0.016769371499999908,0.03952079949999998
355052.0,0.2460488485,-1.5041439769999998,9.7122119605,-0.11440284180972432,-0.01631010185988701,-0.05573883499169091,9.831075745058259,0.12829983383875307,-0.010787314999999992,-0.03471554099999996,0.011964112999999443
355062.0,0.2795875915,-1.5436647764999998,9.647586137,-0.12452924212979541,-0.04482180052046637,-0.06986203929882902,9.774302452572364,0.14965704287573245,0.03353874300000001,-0.03952079949999998,-0.06462582350000012
355072.0,0.35019547149999997,-1.560434148,9.536182593,-0.13199052468207118,-0.05734453790352569,-0.07998669428964814,9.669352100608386,0.16464436187310807,0.07060787999999996,-0.01676937150000013,-0.11140354399999985
355082.0,0.40648564249999997,-1.5365059220000001,9.416541463,-0.1354550032472799,-0.04935092992939166,-0.0821194866355852,9.549729532834839,0.1659131769176529,0.056290171,0.023928225999999775,-0.11964112999999976
355092.0,0.435219127,-1.5197365504999998,9.3183768965,-0.1351879678717248,-0.025370106006989575,-0.07092669014254556,9.451516431592195,0.1547579539496082,0.028733484500000017,0.016769371500000352,-0.0981645664999995
355102.0,0.456793757,-1.5424879785,9.280032895,-0.1330569208550397,0.006606071218798537,-0.05547179961613578,9.418436188271027,0.14430836745325915,0.02157463000000004,-0.022751428000000296,-0.0383440015000005
355112.0,0.41844975549999996,-1.5939728909999997,9.259733129499999,-0.12772668531944903,0.03458369912826764,-0.045879470047174936,9.405238296007218,0.1400537902375288,-0.03834400150000006,-0.05148491249999965,-0.020299765500000788
355122.0,0.3609827865,-1.6430061409999999,9.278856097,-0.12000011272087012,0.050572660405787694,-0.046945866220143476,9.430108600665589,0.13842519780986506,-0.05746696899999998,-0.04903325000000014,0.01912296750000131
355132.0,0.272428737,-1.6298652299999998,9.375843865499998,-0.1096066770252439,0.05323603284433104,-0.05600587036724604,9.520353264188275,0.1341057655625275,-0.08855404950000001,0.013140911000000033,0.09698776849999824
355142.0,0.2352615335,-1.6034853414999999,9.4464517455,-0.0941517864988341,0.04097858550757486,-0.07092669014254556,9.584464711688916,0.12479743084575233,-0.03716720349999997,0.02637988849999995,0.07060788000000073
355152.0,0.2664466805,-1.5472932369999999,9.536182593,-0.08162904911577479,0.018596483179999578,-0.08265181205744347,9.664568725082956,0.11764545415182236,0.03118514699999997,0.056192104500000006,0.08973084750000027
355162.0,0.28802131049999996,-1.477862155,9.612870595999999,-0.07629881358018412,-0.0075171330883395775,-0.08798030226378216,9.73007265748436,0.11669854253604871,0.021574629999999984,0.06943108199999992,0.07668800299999923
355172.0,0.30351581749999995,-1.4323592989999998,9.579331853,-0.07976329214539285,-0.02510307063143444,-0.08531692982523881,9.69058170404671,0.11946265292468101,0.01549450699999999,0.04550285600000015,-0.03353874299999937
355182.0,0.36814164099999996,-1.4610927835,9.521864884,-0.09628457884477118,-0.026436502179958108,-0.08318413747930174,9.640343938832592,0.1299584914463124,0.06462582350000001,-0.02873348450000024,-0.057466969000000034
355192.0,0.41129090099999993,-1.455110727,9.4919546015,-0.11466987718527945,-0.013912019467646801,-0.08185245126003006,9.611644478964713,0.14157170902631236,0.04314925999999997,0.005982056499999944,-0.029910282499999497
355202.0,0.40648564249999997,-1.4610927835,9.497936658,-0.1213317989401418,0.008204792813625343,-0.07758861189740791,9.618254699213088,0.1442522677649544,-0.004805258499999965,-0.005982056499999944,0.00598205650000061
355212.0,0.402857182,-1.492179864,9.5266701425,-0.12000011272087012,0.02072753019668466,-0.07146076089365583,9.651235084672688,0.1411959557089942,-0.003628460499999986,-0.031087080499999864,0.028733484500000017
355222.0,0.408937305,-1.4933566619999998,9.5757033925,-0.11094010857376756,0.02392497338633827,-0.06373244296582493,9.700074190463516,0.13016119363423362,0.006080122999999993,-0.0011767979999999234,0.04903324999999903
355232.0,0.3813806185,-1.5209133485,9.6535681935,-0.10214713980222012,0.02286032254262173,-0.05520650956983264,9.780082180450622,0.11834015047907884,-0.027556686499999983,-0.027556686500000094,0.07786480100000048
355242.0,0.331072504,-1.511400898,9.6439576765,-0.09815033581515312,0.0148667145684877,-0.04961098398793881,9.767285259656509,0.1109763819690466,-0.0503081145,0.009512450499999936,-0.009610517000000485
355252.0,0.308321076,-1.525718607,9.652293328999999,-0.10774266538411395,0.007670722062515079,-0.04881162319052541,9.776995738094074,0.11853225923573439,-0.022751427999999962,-0.014317708999999956,0.008335652499999568
355262.0,0.250854107,-1.5448415745,9.647586137,-0.12213115973755521,0.0026092672317315226,-0.05840395275948625,9.773708689342902,0.13540254854418035,-0.057466969000000034,-0.019122967499999977,-0.004707191999999694
355272.0,0.204174453,-1.5712214629999999,9.5853139095,-0.13492093249616965,-0.0032532937257174306,-0.0711937255181007,9.715383000000765,0.1525869866628489,-0.04667965399999999,-0.02637988849999995,-0.06227222749999939
355282.0,0.2005459925,-1.5939728909999997,9.499113455999998,-0.14371390126771708,-0.009648180105024653,-0.08504989444968368,9.634008756603397,0.16727300243263543,-0.0036284605000000136,-0.02275142799999985,-0.08620045350000183
355292.0,0.21731536399999998,-1.58083198,9.426053913499999,-0.14131581887547687,-0.011780972450961725,-0.09331053779937284,9.560164647987492,0.16975219716028742,0.01676937149999999,0.01314091099999981,-0.07305954249999935
355302.0,0.282039254,-1.5747518569999999,9.374569001,-0.12959244228983097,-0.014978415640615335,-0.09517629476975478,9.510096398377462,0.1614839964821451,0.06472389000000003,0.006080123000000048,-0.051484912499999425
355312.0,0.35617752799999997,-1.5868140365,9.357897695999998,-0.11253883016859438,-0.017908823454713816,-0.0890466984367507,9.498162480537363,0.1446202916458595,0.07413827399999995,-0.012062179500000214,-0.016671305000000913
355322.0,0.37775215799999995,-1.5532752935,9.3411283245,-0.09894969661256653,-0.020839231268812295,-0.0813201258381718,9.476921399117296,0.12976239395884348,0.021574629999999984,0.03353874300000004,-0.016769371499998798
355332.0,0.3729468995,-1.5328774615,9.359074494,-0.08988969246546395,-0.020306905846954024,-0.07439116870775431,9.491105208881772,0.11843383476996051,-0.004805258499999965,0.020397832000000005,0.017946169500000053
355342.0,0.399326788,-1.5747518569999999,9.416541463,-0.0832277707106016,-0.01817585883026895,-0.0727924471129275,9.555655834066938,0.11205339806700503,0.026379888500000004,-0.04187439549999983,0.057466969000000034
355352.0,0.43639592499999996,-1.5616109459999998,9.465574712999999,-0.08349480608615673,-0.009915215480579788,-0.07865500807037645,9.603445985551678,0.1151360257953271,0.037069136999999974,0.013140911000000033,0.04903324999999903
355362.0,0.4963145565,-1.5760267215,9.418895058999999,-0.09122137868473564,0.007670722062515079,-0.08318413747930174,9.562728297841073,0.12369228203198318,0.05991863150000004,-0.014415775500000061,-0.04667965400000007
355372.0,0.4735631285,-1.48864947,9.4680263755,-0.1002813828318382,0.038580503115334654,-0.08398349827671514,9.596033697750839,0.13637462720789764,-0.022751428000000018,0.08737725149999997,0.049131316500000466
355382.0,0.42560861,-1.453933929,9.5170596255,-0.10907435160338563,0.06682691172961089,-0.07838797269482133,9.636881781682584,0.1500257463644832,-0.04795451849999999,0.03471554099999996,0.049033250000000805
355392.0,0.38020382049999996,-1.4503054684999999,9.660727048,-0.11360348101231092,0.08761029246235937,-0.07172605093995897,9.776379083947317,0.16039308160546148,-0.04540478950000004,0.003628460500000097,0.14366742250000009
355402.0,0.30949787399999995,-1.5006135829999998,9.757714816499998,-0.11680266953121653,0.08121540608305214,-0.06906267850141562,9.877278395369759,0.1581406315803865,-0.0707059465,-0.050308114499999945,0.09698776849999824
355412.0,0.24732371299999997,-1.514931292,9.8534277205,-0.11786732037493307,0.03538305992568104,-0.07092669014254556,9.972272744044394,0.14203964769263586,-0.06217416099999998,-0.014317709000000178,0.09571290400000088
355422.0,0.24134165649999997,-1.5137544939999998,9.8379332135,-0.1173349949530748,-0.02377138441216277,-0.07652396105369139,9.956637403087138,0.14208622865308157,-0.005982056499999999,0.0011767980000001454,-0.015494506999999658
355432.0,0.259287826,-1.491003066,9.7002478475,-0.12159883431569694,-0.06160837726614784,-0.08504989444968368,9.817592812011588,0.16067156936498334,0.017946169500000025,0.02275142799999985,-0.13768536599999948
355442.0,0.29155170449999995,-1.470605234,9.519511288,-0.12719435989759076,-0.069869020615837,-0.09037838465602237,9.636844779959075,0.17096297155994347,0.032263878499999954,0.020397832000000005,-0.18073655949999967
355452.0,0.33950622299999994,-1.4634463795,9.436841228499999,-0.12905837153872068,-0.05921029487390763,-0.0898460592341641,9.555674343187128,0.16803046343800426,0.04795451849999999,0.007158854500000089,-0.08267005950000161
355462.0,0.3609827865,-1.4861978074999997,9.393790034999999,-0.12479627750535054,-0.04908563988308852,-0.08345117285485687,9.51747780227684,0.1579481217766641,0.021476563500000045,-0.02275142799999985,-0.043051193500000196
355472.0,0.3574523925,-1.5197365504999998,9.3997720915,-0.11413755176342118,-0.04748691828826172,-0.0711937255181007,9.528540642090576,0.14265670220571608,-0.0035303939999999923,-0.03353874300000004,0.00598205650000061
355482.0,0.3478418755,-1.5687698005,9.383002719999999,-0.10081370825369647,-0.0512166868997736,-0.06213372137099813,9.51959939812803,0.12902384322387742,-0.009610516999999985,-0.04903325000000014,-0.016769371500000574
355492.0,0.34303661699999993,-1.620254713,9.4140898005,-0.07789753517501091,-0.061875412641702966,-0.0642665137169352,9.558660273672228,0.11843469703280411,-0.004805258500000076,-0.05148491250000009,0.031087080500000752
355502.0,0.34303661699999993,-1.6394757469999999,9.428505576,-0.05178566423592375,-0.0791960601384947,-0.07332477253478577,9.576130337577235,0.11970920277528363,0.0,-0.01922103399999986,0.014415775499999839
355512.0,0.3729468995,-1.6346704884999999,9.4536106,-0.022474604777930982,-0.10770601346982207,-0.08558221987154195,9.601145263574123,0.13939156916982692,0.02991028250000005,0.00480525850000002,0.025105024000000142
355522.0,0.3968751255,-1.6227063755,9.481167286499998,0.008435176274888595,-0.1375511436789251,-0.0914447808289909,9.627212419019678,0.16538929006145142,0.023928225999999997,0.011964112999999887,0.02755668649999876
