timestamp,ax,ay,az,gx,gy,gz,acc_mag,gyro_mag,dax,day,daz
10972.0,0.34705734349999995,0.930847218,9.6884798675,0.04400847708903702,0.040423570805440664,-0.05521349088684061,9.739279618426018,0.08135933080028376,0.0,0.0,0.0
10982.0,-0.06472388999999999,0.6806795765,9.6155183915,0.047472955654245766,0.048951249530684963,-0.03842691414115916,9.639798120556037,0.07827217947379124,-0.41178123349999995,-0.25016764150000004,-0.07296147599999969
10992.0,0.21898249449999999,0.812382886,9.810572659999998,0.03601486911490299,0.05054997112551177,-0.00778416846389471,9.84658596689749,0.06255368619696172,0.28370638449999996,0.13170330949999998,0.19505426849999807
11002.0,0.117287534,0.8805391034999999,9.960222138999999,0.042409755494210215,0.04735252793585815,0.03538305992568104,9.999756523868474,0.07275170233540419,-0.10169496049999999,0.0681562174999999,0.1496494790000007
11012.0,0.02745862,0.8745570469999999,10.0595635035,0.05466720283096639,0.011911872144861299,0.06682691172961089,10.097545339597087,0.0871563646251652,-0.089828914,-0.005982056499999944,0.09934136450000075
11022.0,0.0106892485,0.7345180849999999,10.017689107999999,0.06905744251365964,-0.02326000294132843,0.07775092751784339,10.044586907472471,0.10656061576981878,-0.016769371499999998,-0.140038962,-0.041874395500000716
11032.0,0.011866046499999998,0.6710690595,9.971009454,0.08637634468119937,-0.04537681522260057,0.06469411938367381,9.993573135642484,0.11706945529496768,0.001176797999999998,-0.06344902549999998,-0.046679653999998294
11042.0,0.0095124505,0.6542996879999999,9.857252314,0.10316466675613283,-0.05976530957604183,0.030586895141200623,9.878948413180918,0.12308695645763143,-0.0023535959999999977,-0.01676937150000002,-0.11375714000000059
11052.0,0.07178467799999999,0.6291946639999999,9.7938032885,0.11328932174695193,-0.05150466622635266,-0.007250097712784445,9.814256050207526,0.1246585936942067,0.06227222749999999,-0.02510502400000003,-0.06344902550000064
11062.0,0.1399408955,0.6986257459999999,9.78311404,0.11835252190698749,-0.026991516882092306,-0.042423718128226165,9.809025522795448,0.12859095335661608,0.0681562175,0.06943108200000003,-0.010689248500000303
11072.0,0.201036325,0.863769732,9.819006379,0.11275699632509366,0.001520181778487061,-0.06374116961208491,9.858975607269324,0.12953527657133945,0.06109542949999999,0.16514398600000002,0.035892339000000106
11082.0,0.24291072049999998,0.9811553325,9.890791057,0.09463698803088853,0.02816612346868449,-0.05921029487390763,9.942304518463422,0.11513187670609218,0.041874395499999995,0.11738560050000002,0.07178467800000021
11092.0,0.2405571245,1.057745269,9.920701339499999,0.06825808171624623,0.046019096387334486,-0.029099874618501456,9.9798300512482,0.08731394879800726,-0.0023535959999999856,0.07658993650000001,0.029910282499999497
11102.0,0.221434157,1.0649041235,9.947081228,0.03574957906859985,0.04521973558992108,0.013267992973660893,10.006371911665266,0.05915147105485681,-0.019122967500000004,0.007158854500000089,0.02637988850000106
11112.0,0.234575068,1.009888817,9.969832656,0.005105088062083414,0.0406906061809958,0.04737521721613408,10.02359536662733,0.06265938526489394,0.013140911000000005,-0.05501530650000008,0.022751427999999407
11122.0,0.226141349,0.873380249,9.938647508999999,-0.02820277538297637,0.03909188458616899,0.054569464392854705,9.979511374672747,0.07281070267429104,-0.008433719000000006,-0.136508568,-0.031185147000000413
11132.0,0.22976980949999998,0.747658996,9.911188888999998,-0.055114007119476935,0.04282165319768087,0.03671649147420471,9.942004492711439,0.07886284619212999,0.003628460499999986,-0.12572125300000003,-0.027458620000000877
11142.0,0.203389921,0.735694883,9.877650145999999,-0.06976953684847333,0.05881061447520093,0.007405432016211941,9.907097800446433,0.09154953342506955,-0.026379888499999976,-0.011964112999999998,-0.03353874299999937
11152.0,0.16867437999999998,0.7308896245,9.881278606499999,-0.06763848983178825,0.06813590866860664,-0.02430370983402104,9.90970824943624,0.09903604227006409,-0.034715541000000016,-0.00480525850000002,0.003628460499999875
11162.0,0.18191335749999998,0.735694883,9.866862831,-0.0548487170731738,0.061473986913744276,-0.045354125942324644,9.895924492248243,0.0940448274581676,0.013238977499999999,0.00480525850000002,-0.014415775499998063
11172.0,0.18063849299999998,0.782374537,9.890791057,-0.03299894016745679,0.04255636315137774,-0.050949651524218466,9.923330485000005,0.0741339401845513,-0.0012748645000000003,0.04667965400000007,0.023928225999998887
11182.0,0.1699492445,0.825523797,9.893242719499998,-0.004487241506877421,0.015109315334514912,-0.045621161317879785,9.929079705192176,0.048267143132889705,-0.01068924849999997,0.04314925999999997,0.002451662499998619
11192.0,0.1842669535,0.8710266529999999,9.8836322025,0.024024457153701946,-0.011269590980127387,-0.033096678605568475,9.923649895813714,0.04242131960594488,0.014317708999999984,0.045502855999999925,-0.009610516999998708
11202.0,0.2393803265,0.8913264184999999,9.888437460999999,0.047472955654245766,-0.032587042463986124,-0.019774580425095754,9.931412847381756,0.060882106452456126,0.05511337299999999,0.02029976550000001,0.004805258499999354
11212.0,0.2740958675,0.9391828704999999,9.919524541499998,0.05226912043872618,-0.04191233665739183,-5.585053606381855e-05,9.967655699222458,0.06699782111981696,0.03471554099999999,0.047856451999999994,0.031087080499998976
11222.0,0.25134443949999996,0.989490985,9.919524541499998,0.03468318289563132,-0.03685088182660828,0.02392497338633827,9.971922260330983,0.05597602181923484,-0.022751428000000018,0.050308114500000056,0.0
11232.0,0.22378775299999998,0.9846857265,9.920701339499999,0.001907644872429802,-0.016598081186466072,0.04284434247795681,9.971960790432476,0.045986662092396755,-0.027556686499999983,-0.00480525850000002,0.0011767980000012557
11242.0,0.19985952699999998,0.8913264184999999,9.919524541499998,-0.0369957441545238,0.00898146433076282,0.051104985827645964,9.961494553743904,0.06372653578781481,-0.023928225999999997,-0.09335930800000003,-0.0011767980000012557
11252.0,0.1962310665,0.7608979735,9.864509235,-0.07216761924071353,0.03269699820686177,0.039114573866444916,9.89575741441434,0.08835841129946657,-0.003628460499999986,-0.13042844499999995,-0.05501530649999786
11262.0,0.1950542685,0.6914668915,9.816554716499999,-0.09615018849236762,0.053480378939610246,0.006871361265101675,9.842810530114816,0.11023713205756792,-0.0011767980000000067,-0.06943108200000003,-0.04795451850000099
11272.0,0.17230284049999997,0.6494944294999999,9.797431749,-0.09668251391422589,0.06467143010339789,-0.023504349036607638,9.820448063052373,0.1186691063083726,-0.022751428000000018,-0.041972462000000044,-0.019122967499999532
11282.0,0.1591619295,0.6494944294999999,9.809395862,-0.07723081940074908,0.06840294404416176,-0.04988500068050193,9.8321626670421,0.11459526827977463,-0.013140910999999977,0.0,0.01196411300000122
11292.0,0.18191335749999998,0.6710690595,9.8022370075,-0.04712039914534291,0.06413910468153962,-0.06560518125321485,9.82686503944456,0.1031416335542205,0.02275142799999999,0.02157463000000004,-0.007158854500000089
11302.0,0.202213123,0.759623109,9.811749458,-0.019675096657732077,0.05827654372409066,-0.06773797359915193,9.843187737791224,0.09149698379857313,0.02029976550000001,0.08855404950000001,0.009512450499999048
11312.0,0.18063849299999998,0.8278773929999999,9.817829580999998,-0.0012897983172238095,0.054014449690720515,-0.05867796945204936,9.854328435999705,0.07976420534366357,-0.02157463000000001,0.06825428399999989,0.006080122999998494
11322.0,0.178284897,0.8877960245,9.817829580999998,0.002707005669843205,0.048417178779574695,-0.03922627493857256,9.85950023921978,0.06237188249705428,-0.0023535959999999856,0.0599186315000001,0.0
11332.0,0.1711260425,0.916529509,9.852545122,-0.0012897983172238095,0.03749316299134219,-0.012845623294678265,9.896562829807907,0.03965363651196755,-0.007158854500000006,0.028733484500000017,0.0347155410000024
11342.0,0.1471978165,0.8770087094999999,9.884809000499999,-0.00928340629135784,0.015109315334514912,0.012201596800692358,9.924729741916755,0.021525612807418416,-0.023928225999999997,-0.03952079950000009,0.032263878499998455
11352.0,0.17230284049999997,0.8064008294999999,9.869216427,-0.01727701426549187,-0.0062063908200918365,0.024724334183751674,9.90360557825428,0.030794597087339223,0.025105023999999976,-0.07060787999999996,-0.015592573499999318
11362.0,0.19142580799999998,0.7692336259999999,9.808219064,-0.021540853628114014,-0.01579872038905267,0.022326251791511462,9.840199460313322,0.03481478795019826,0.019122967500000004,-0.03716720350000002,-0.06099736300000025
11372.0,0.22496455099999998,0.744128602,9.784290838,-0.019675096657732077,-0.014467034169780997,0.013000957598105762,9.815125247702744,0.027666394861428092,0.03353874300000001,-0.02510502399999992,-0.023928225999998887
11382.0,0.23339827,0.720200376,9.760362612,-0.014079571075838257,0.0049846603436958055,-0.001387536755335492,9.789680365147628,0.015000213954107514,0.008433719000000006,-0.023928225999999997,-0.023928226000000663
11392.0,0.2321234055,0.712943455,9.7243722065,-0.009016370915802705,0.026567401873857685,-0.014444344889505072,9.75323456377206,0.031555679141881274,-0.0012748645000000003,-0.007256920999999972,-0.03599040549999977
11402.0,0.270467407,0.744128602,9.799785344999998,-0.0015550883635269475,0.0406906061809958,-0.025902431428847843,9.831717693396232,0.04826053962733358,0.0383440015,0.03118514699999997,0.07541313849999831
11412.0,0.2644853505,0.8003207065,9.857252314,0.0037734018428117405,0.05134933192292517,-0.028567549196643185,9.89322439428825,0.05888206278231688,-0.005982056499999999,0.056192104500000006,0.05746696900000181
11422.0,0.25487483349999995,0.8542572815,9.893242719499998,0.004839798015780276,0.052948053517751975,-0.022172662817335962,9.933326139349656,0.057606831127597624,-0.00961051700000004,0.05393657500000004,0.03599040549999799
11432.0,0.26330855249999996,0.8710266529999999,9.907560428499998,0.004040437218366873,0.05054997112551177,-0.006983062337229313,9.94925989551158,0.05118972429415173,0.008433719000000006,0.016769371499999908,0.014317709000000178
11442.0,0.2093719775,0.8697517885,9.943452767499998,0.0013753194505715315,0.04815188873327156,0.013800318395519163,9.983614462611454,0.05010932727537049,-0.05393657499999996,-0.001274864499999917,0.035892339000000106
11452.0,0.198682729,0.7979671104999999,9.9518864865,0.001907644872429802,0.040957641556550926,0.026323055778578477,9.98580347175048,0.04872443715792281,-0.010689248499999998,-0.0717846780000001,0.008433719000001005
11462.0,0.19142580799999998,0.7489338604999999,9.9650273975,-0.0004904375198104066,0.033496359004275174,0.02872288350007068,9.994964572238239,0.044127662889198616,-0.007256921000000027,-0.04903325000000003,0.013140911000000699
11472.0,0.179461695,0.7285360284999999,9.937470710999998,-0.006885323899117631,0.025502751030141144,0.02126160094779492,9.9657561367303,0.03390949233126912,-0.01196411299999997,-0.020397832000000005,-0.027556686500002314
11482.0,0.16632078399999997,0.7333412869999999,9.885985798499998,-0.01780933968735014,0.023904029435314337,0.010602875205865553,9.914543219662358,0.03163852344808394,-0.013140911000000033,0.00480525850000002,-0.051484912499999425
11492.0,0.1830901555,0.7512874565,9.8585271785,-0.029534461602248045,0.0313635666583381,0.000476474885794452,9.888807459777869,0.043083462766860724,0.01676937150000002,0.017946169500000053,-0.0274586199999991
11502.0,0.19985952699999998,0.7381465455,9.880003742,-0.04046022271973255,0.03935891996172413,-0.00618370153981591,9.90955488884845,0.05678373330292127,0.01676937149999999,-0.013140910999999922,0.021476563500000267
11512.0,0.2058415835,0.7405001414999999,9.901578371999998,-0.040725512766035685,0.03935891996172413,-0.01124690169985146,9.931362719884792,0.0577424000926188,0.005982056500000027,0.002353595999999847,0.02157462999999815
11522.0,0.179461695,0.770410424,9.884809000499999,-0.02980149697780318,0.0305642058609247,-0.009115854683166382,9.91641002065495,0.04365087294237771,-0.026379888500000004,0.029910282500000163,-0.016769371499998798
11532.0,0.22378775299999998,0.7728620865,9.8632343705,-0.010882127886184645,0.013777629115243238,0.0012758356832078548,9.895998636345626,0.01760316812562506,0.044326057999999974,0.0024516624999999515,-0.02157462999999815
11542.0,0.2393803265,0.7776673449999999,9.820183176999999,0.009635962800260694,0.006850417314077744,0.016730726209617644,9.853835145263412,0.020486512537916522,0.015592573500000012,0.004805258499999909,-0.04305119350000197
11552.0,0.23692866399999998,0.803949167,9.819006379,0.024291492529257077,0.005784021141109208,0.03644945609864958,9.854712361392771,0.04418251192210707,-0.002451662500000007,0.026281822000000066,-0.0011767979999994793
11562.0,0.198682729,0.7908082559999999,9.835775750499998,0.03361678672266278,0.006316346562967479,0.056700511409539786,9.869515547314592,0.06621882343838388,-0.03824593499999998,-0.013140911000000033,0.016769371499998798
11572.0,0.14955141249999998,0.7620747714999999,9.878826944,0.03601486911490299,0.0007208209810736581,0.06202900161587847,9.909305998496459,0.0717299618131294,-0.04913131650000002,-0.028733484500000017,0.04305119350000197
11582.0,0.11483587149999999,0.697448948,9.902755169999999,0.034416147520076185,-0.007005751617505238,0.051637311249504235,9.927949550104048,0.06244968918199673,-0.03471554099999999,-0.0646258234999999,0.023928225999998887
11592.0,0.13042844499999998,0.6459640354999999,9.8608807745,0.028288296516324092,-0.004874704600820162,0.026857126529688743,9.882876644142042,0.03931024942902858,0.015592573499999984,-0.05148491250000009,-0.04187439549999894
11602.0,0.1579851315,0.6363535185,9.769875062499999,0.018695966947363255,0.0049846603436958055,-0.0032532937257174306,9.791851910601068,0.01962065082775557,0.02755668650000001,-0.00961051699999993,-0.09100571200000118
11612.0,0.1830901555,0.673520722,9.7938032885,0.009368927424705562,0.02336995868420407,-0.028035223774784918,9.818642218852759,0.03768163401569883,0.025105024000000004,0.03716720350000002,0.023928226000000663
11622.0,0.177108099,0.7189255115,9.819006379,0.002441715623540067,0.0406906061809958,-0.03656115717077722,9.846883133289417,0.05475769918677562,-0.005982056499999999,0.04540478949999993,0.025203090499999803
11632.0,0.19024901,0.7763924805,9.888437460999999,-0.003687880709464018,0.045486770965476216,-0.027768188399229784,9.920694299780184,0.05342021231676309,0.013140911000000005,0.057466969000000034,0.06943108199999948
11642.0,0.1950542685,0.8243469989999999,9.9399223735,-0.010615092510629512,0.039624210008027266,-0.0064507369153710414,9.975953635298545,0.04152553689623774,0.0048052584999999925,0.047954518499999876,0.0514849125000012
11652.0,0.16867437999999998,0.8411163705,9.9662041955,-0.01887573586031867,0.02470339023272774,0.023125612588924867,10.003057225748199,0.0387471915223799,-0.026379888500000004,0.01676937150000013,0.02628182199999962
11662.0,0.1711260425,0.7860029974999999,9.973363049999998,-0.02580469299073616,0.013777629115243238,0.04897393881096089,10.005751114314506,0.05704517444134155,0.002451662500000007,-0.05511337300000008,0.007158854499998313
11672.0,0.154356671,0.6961740835,9.9542400825,-0.03166550861893312,0.008449138908904549,0.058566268379921724,9.979748491643909,0.06711259327687101,-0.01676937149999999,-0.08982891399999993,-0.019122967499997756
11682.0,0.1711260425,0.5920274605,9.921976204,-0.032731904791901655,0.012978268317829835,0.042044981680543395,9.941096138210817,0.05484153101758675,0.01676937149999999,-0.104146623,-0.03226387850000023
11692.0,0.10522535449999999,0.5453478064999999,9.887260662999998,-0.0260699830370393,0.0220382724649324,0.012201596800692358,9.902848076356173,0.03625201281690136,-0.065900688,-0.04667965400000007,-0.0347155410000024
11702.0,0.1375872995,0.5381889519999999,9.866862831,-0.016477653468078467,0.028965484266097893,-0.01950754504954062,9.882487527885269,0.03861420278140544,0.03236194500000002,-0.007158854499999978,-0.020397831999996896
11712.0,0.16632078399999997,0.60408964,9.8620575725,-0.005286602304290824,0.03029891581462156,-0.04881860450753339,9.881941431705123,0.05769946801772281,0.02873348449999996,0.06590068800000004,-0.0048052585000011305
11722.0,0.19985952699999998,0.673520722,9.901578371999998,0.00324107642095347,0.026035076451999414,-0.05681221248166742,9.926471087468808,0.06257760996786345,0.03353874300000001,0.06943108200000003,0.039520799499998205
11732.0,0.2070183815,0.768056828,9.8944195175,0.0013753194505715315,0.01964019007269219,-0.042423718128226165,9.926344014268356,0.04676965286920337,0.007158854500000006,0.09453610599999995,-0.007158854499998313
11742.0,0.20819517949999997,0.825523797,9.871668089499998,-0.0028885199120506156,0.017242107680451983,-0.015243705686918473,9.908312956373193,0.023194921591072577,0.001176797999999979,0.057466969000000034,-0.022751428000001184
11752.0,0.1962310665,0.8195417405000001,9.856075515999999,-0.008751080869499567,0.020971876291963863,0.013800318395519163,9.892036184374586,0.02658664701325953,-0.01196411299999997,-0.005982056499999944,-0.015592573499999318
11762.0,0.1842669535,0.7644283675,9.816554716499999,-0.013547245653979986,0.029499555017208155,0.0343184090819645,9.84799733657708,0.047238806218400924,-0.011964112999999998,-0.05511337300000008,-0.03952079949999998
11772.0,0.11120741099999999,0.685484835,9.8153779185,-0.013812535700283124,0.03776019836689732,0.03751585227161812,9.839913629207,0.05499143474073853,-0.0730595425,-0.07894353249999997,-0.0011767979999994793
11782.0,0.096889702,0.6136020904999999,9.76153941,-0.015945328046220193,0.03749316299134219,0.02898817354637382,9.781285538864651,0.0500030495385193,-0.014317708999999998,-0.0718827445000001,-0.05383850850000016
11792.0,0.099243298,0.5860454039999999,9.7579109495,-0.014611896497696527,0.028965484266097893,0.009803514408452148,9.775997368356817,0.033891233273306676,0.0023535959999999995,-0.027556686499999983,-0.003628460499999875
11802.0,0.0920844435,0.572904493,9.7710518605,-0.005553637679845957,0.024436354857172608,-0.014978415640615335,9.788266116295306,0.029194712968064924,-0.007158854499999992,-0.013140910999999922,0.013140911000000699
11812.0,0.12081792799999999,0.6207609449999999,9.7890960965,0.006438519610607082,0.020172515494550458,-0.04002563573598596,9.809502714667804,0.04528174502185055,0.02873348449999999,0.04785645199999988,0.018044235999999714
11822.0,0.165143986,0.6327250579999999,9.809395862,0.016563174601426187,0.007915068157794285,-0.05681221248166742,9.831167820384097,0.05970439300321197,0.044326058,0.011964112999999998,0.020299765500000788
11832.0,0.2178056965,0.6926436895,9.786644434,0.024291492529257077,-0.004607669225265031,-0.057878608654635955,9.813541862119669,0.06293838705261605,0.052661710500000014,0.0599186315000001,-0.022751428000001184
11842.0,0.27164420499999997,0.7608979735,9.774680320999998,0.032018065127835976,-0.01020319480715885,-0.0410902865797025,9.8080136458883,0.05308176080354964,0.053838508499999965,0.068254284,-0.01196411300000122
11852.0,0.32911117399999995,0.7860029974999999,9.774680320999998,0.0376135907097298,-0.00407534380340676,-0.01710946265730041,9.811752659676825,0.04152257633645334,0.05746696899999998,0.02510502399999992,0.0
11862.0,0.33754489299999996,0.7860029974999999,9.8010602095,0.03867998688269834,0.011112511347447897,0.006072000467688272,9.838318885719934,0.04070010421820171,0.008433719000000006,0.0,0.02637988850000106
11872.0,0.318323859,0.7740388844999999,9.817829580999998,0.03361678672266278,0.027633798046826218,0.02179392636965319,9.853438179411553,0.0486691932402381,-0.01922103399999997,-0.011964112999999998,0.016769371499998798
11882.0,0.2860599805,0.7489338604999999,9.844111403,0.02295806098073341,0.04282165319768087,0.027122416575991883,9.87670296984382,0.05564523364583139,-0.03226387850000001,-0.02510502400000003,0.026281822000001398
11892.0,0.2405571245,0.7333412869999999,9.8751984835,0.011234684395087501,0.056944857504818994,0.02605776573227534,9.905311820527773,0.06362343974243695,-0.04550285599999998,-0.015592573499999984,0.031087080500000752
11902.0,0.203389921,0.7261824325,9.914719283,0.0008429940287132612,0.0662701516982247,0.019928169399271254,9.943357926069444,0.06920675964560262,-0.037167203499999996,-0.007158854499999867,0.03952079949999998
11912.0,0.18789541399999998,0.7034310045,9.936293913,-0.005818927726149095,0.06600486165192156,0.008470082859928481,9.962934135595546,0.06680002982952557,-0.015494507000000018,-0.022751428000000073,0.021574629999999928
11922.0,0.17465643649999998,0.720200376,9.956691745,-0.005019566928735692,0.05481381048813391,-0.0008552113334772215,9.98423276758673,0.05504980707328613,-0.013238977499999999,0.01676937150000002,0.02039783200000045
11932.0,0.1711260425,0.7381465455,9.942275969499999,0.002707005669843205,0.0398912453835824,-0.006983062337229313,9.971108057721189,0.04058820638504956,-0.0035303939999999923,0.017946169500000053,-0.014415775500001615
11942.0,0.20466478549999997,0.7512874565,9.949434823999999,0.014165092209185978,0.030031880439066426,-0.004319689898685966,9.979858407499671,0.03348467411849683,0.03353874299999998,0.013140910999999922,0.007158854500000089
11952.0,0.21064684199999997,0.768056828,9.980619971,0.026954864967800425,0.027633798046826218,0.006871361265101675,10.012345299109796,0.03920978379895343,0.005982056499999999,0.01676937150000002,0.031185147000000413
11962.0,0.26330855249999996,0.7883565935,9.925506597999998,0.03095166895486744,0.025502751030141144,0.018596483179999578,9.960246921601696,0.044206620633804136,0.052661710499999986,0.02029976550000001,-0.055113373000001076
11972.0,0.330287972,0.8278773929999999,9.8249884355,0.020827013964048336,0.04708549256030302,0.03165329131416916,9.865336734242632,0.06043789350502441,0.06697941950000003,0.03952079949999987,-0.10051816249999845
11982.0,0.28360831799999997,0.8470984269999999,9.7794855795,0.013098696036217442,0.10863801929038704,0.06256307236698874,9.820200997062795,0.12604734466534706,-0.046679654000000015,0.01922103400000008,-0.04550285600000059
11992.0,0.2764494635,0.768056828,9.8249884355,0.013898056833630846,0.18697886809540454,0.10253285756691087,9.85884036561175,0.21369894706999834,-0.007158854499999978,-0.07904159899999996,0.04550285600000059
