timestamp,ax,ay,az,gx,gy,gz,acc_mag,gyro_mag,dax,day,daz
82892.0,-0.4541459614999999,-0.032067745499999994,10.215979571,-0.022834142603841815,0.04836307357276287,0.00836885376331281,10.226119278090666,0.05413337849394561,0.0,0.0,0.0
82902.0,-0.29851442599999994,-0.06080122999999999,9.76350074,-0.035356879986901124,-0.020116664958486644,0.015296065564478304,9.768252369389325,0.043459852659816424,0.15563153549999997,-0.028733484499999996,-0.4524788310000005
82912.0,0.1575928655,-0.0703136805,9.823321305,-0.027897342763877363,0.0022654373690886398,0.017961183332273645,9.824836944508997,0.03325654892579909,0.45610729149999996,-0.009512450500000012,0.05982056500000077
82922.0,0.04511059,0.10444082249999999,9.8269497655,-0.0015166911199830724,0.0291784144348412,0.02195798731934066,9.827608281997971,0.03654905509040022,-0.1124822755,0.174754503,0.003628460499999875
82932.0,-0.045895122,0.218099896,9.880788274,0.007543313027119492,0.009459684545809267,0.02968455991791956,9.88330161648801,0.03205558142745019,-0.09100571199999999,0.1136590735,0.05383850850000016
82942.0,0.0032361944999999997,0.1056176205,9.923937533999998,-0.0009843656981248017,-0.008393288372840731,0.031817352263856624,9.924500074736706,0.03292051291550073,0.049131316499999994,-0.11248227549999999,0.04314925999999808
82952.0,-0.008825985,0.0157887065,9.905893297999999,-0.009777334469672236,-0.03503923006303816,0.020092230348958722,9.905909812461724,0.041557690421123936,-0.012062179499999999,-0.089828914,-0.018044235999999714
82962.0,0.027164420499999998,0.013435110499999998,9.820967709,-0.013507103081184116,-0.06221749717509386,0.005436700619962337,9.821014466395818,0.06389848591328001,0.035990405499999996,-0.002353596000000001,-0.08492558899999914
82972.0,0.0893385815,0.1067944185,9.725156738499999,-0.012707742283770713,-0.07607366610667683,-0.008419468311620645,9.72615340298307,0.07758593194330574,0.062174161000000006,0.093359308,-0.09581097050000054
82982.0,0.125328987,0.20495898499999998,9.604240744,-0.0036477381366681488,-0.05928708936099538,-0.00735307213865211,9.607244964568373,0.05985259082352724,0.0359904055,0.09816456649999998,-0.1209159944999989
82992.0,0.13248784149999998,0.2193747605,9.5839409785,0.009142034621946299,-0.023314108148140257,0.009168214560726213,9.587366843563528,0.026667969439077226,0.007158854499999978,0.014415775500000005,-0.020299765500000788
83002.0,0.128859381,0.230064009,9.647390003999998,0.013938199406426715,0.02118480646070717,0.027820548276789616,9.650993113539556,0.03764375557635179,-0.003628460499999986,0.010689248500000026,0.06344902549999887
83012.0,0.0642335575,0.18818961349999996,9.737120851499999,0.008607963870836033,0.054492669905766955,0.04087735641095919,9.739151079907039,0.06866226316259233,-0.0646258235,-0.04187439550000005,0.08973084750000027
83022.0,-0.0171616375,0.09483030549999999,9.822144506999999,-0.0009843656981248017,0.06968052505662162,0.04860392900953809,9.82261726959944,0.0849628534311221,-0.081395195,-0.09335930799999997,0.08502365550000057
83032.0,-0.0842391235,0.044522190999999996,9.928644726,-0.005513495107050087,0.05209458751352675,0.04220904263023087,9.929101900501731,0.06727442274936744,-0.06707748599999999,-0.050308114499999994,0.10650021900000084
83042.0,-0.1309187775,0.0157887065,9.958653075,-0.0023160519173964756,0.016388641676226754,0.026754152103821077,9.959526097047089,0.03146007513135063,-0.046679654,-0.028733484499999996,0.030008349000000933
83052.0,-0.1189546645,0.046973853499999996,9.933449984500001,0.008607963870836033,-0.025979225915935593,0.008101818387757679,9.934273267314627,0.02854219126803418,0.011964112999999998,0.031185146999999996,-0.025203090499999803
83062.0,-0.0889463155,0.0612915625,9.885593532499998,0.024862215194659226,-0.055557320749483496,-0.010283479952750588,9.88618367179573,0.06172921183026037,0.030008349000000004,0.014317709000000005,-0.0478564520000031
83072.0,-0.053053976499999995,0.10081236199999999,9.8748062175,0.039784780299210745,-0.06168517175323559,-0.023340288086920166,9.875463315203552,0.07702375091920069,0.035892339,0.03952079949999999,-0.010787314999998188
83082.0,0.0199074995,0.1391563635,9.8269497655,0.04458094508369116,-0.04782900282165261,-0.03293261765588101,9.82795515332154,0.0732095040355908,0.072961476,0.0383440015,-0.04785645199999955
83092.0,0.03912853349999999,0.16063292699999998,9.842542339,0.038718384126242206,-0.02384817889925052,-0.040393900208156766,9.843930804022245,0.06082364737652971,0.019221033999999994,0.02147656349999999,0.015592573499999318
83102.0,0.06187996149999999,0.20495898499999998,9.856860048,0.028061403713564827,-0.00039793506945470715,-0.04359134339781037,9.859184921738004,0.05184405414240863,0.022751427999999997,0.044326058,0.014317709000000178
83112.0,0.081002929,0.21574629999999997,9.884416734499998,0.01526988562569839,0.013723523908431413,-0.042259657178538704,9.887102817394684,0.046982796216645265,0.01912296750000001,0.010787314999999992,0.02755668649999876
83122.0,0.11571846999999999,0.225356817,9.9047165,0.007808603073422631,0.021451841836262305,-0.035330700048121215,9.907955662226177,0.042064404976376306,0.03471554099999999,0.009610517000000013,0.020299765500000788
83132.0,0.116895268,0.239674526,9.928644726,0.002747148242639075,0.026780332042600993,-0.02813645287140059,9.932225051680097,0.03894089094979136,0.0011767980000000067,0.014317709000000012,0.023928226000000663
83142.0,0.116895268,0.274390067,9.905893297999999,-0.000450294947014537,0.02411521427480565,-0.017212437083168077,9.910382255186242,0.02963130633976701,0.0,0.034715541000000016,-0.022751428000001184
83152.0,0.12287732449999998,0.2803721235,9.9047165,-0.00124965574442794,0.011325441516191205,-0.0033562681515850955,9.90944581245008,0.011878206974185688,0.005982056499999985,0.005982056499999999,-0.0011767979999994793
83162.0,0.1109132115,0.2552670995,9.901186106,0.0008813912722571365,-0.004928809807631987,0.011299261577411289,9.90509713926218,0.012358937207113861,-0.011964112999999985,-0.02510502400000003,-0.003530393999998438
83172.0,0.113364874,0.2205515585,9.889221993,0.0035465090400524776,-0.020916025755900045,0.01902757950524218,9.892330676410321,0.028497484829734715,0.002451662500000007,-0.03471554099999999,-0.01196411300000122
83182.0,0.10140076099999999,0.17387190449999998,9.893929185,0.006743952229706089,-0.025979225915935593,0.020626301100068987,9.895976367761829,0.033850337781748716,-0.011964113000000012,-0.046679654000000015,0.004707191999999694
83192.0,0.0881617835,0.178677163,9.925114332,0.00967436004380457,-0.01931730416107324,0.023556708914167463,9.927114008205981,0.03196357328546664,-0.013238977499999999,0.00480525850000002,0.031185147000000413
83202.0,0.0665871535,0.16190779149999998,9.9179554775,0.008607963870836033,-0.013454743203624287,0.02568775593085254,9.919500432765346,0.030248767932597558,-0.021574629999999997,-0.01676937150000002,-0.007158854500000089
83212.0,0.04265892749999999,0.1415099595,9.929919590499999,0.00727627765156436,-0.008393288372840731,0.023823744289722597,9.931019480724464,0.026286161723507832,-0.023928226000000004,-0.020397831999999977,0.011964112999999443
83222.0,0.03912853349999999,0.1067944185,9.940608839,0.004611159883769018,-0.006794566778013924,0.01955990492710045,9.941259486602366,0.021213646879586257,-0.003530393999999999,-0.034715541,0.010689248500000303
83232.0,0.0403053315,0.0960071035,9.903539702,0.0022130774915288098,-0.009992009967667536,0.014231414720761764,9.904087061045052,0.017529151152631248,0.0011767980000000067,-0.010787315000000006,-0.037069136999999586
83242.0,0.0199074995,0.08286619249999999,9.893929185,-0.000450294947014537,-0.013988813954734551,0.01076693615555302,9.894296227230644,0.017658329354082108,-0.020397832,-0.013140911000000005,-0.009610517000000485
83252.0,0.024712757999999998,0.0685484835,9.843719136999999,-0.004181808887778414,-0.0174515471906913,0.009168214560726213,9.843988828881214,0.02015192752950298,0.0048052584999999995,-0.014317708999999998,-0.050210048000000285
83262.0,0.022359162,0.08649465299999999,9.8389138785,-0.006579891280018622,-0.014254104001037689,0.004637339822548933,9.839319466592334,0.016370075465893915,-0.0023535959999999995,0.017946169499999998,-0.004805258499999354
83272.0,0.006766588499999999,0.07090207949999999,9.846072732999998,-0.006045820528908358,-0.005995205980600523,-0.0014905111812031574,9.846330339528702,0.008643845452047928,-0.015592573499999998,-0.015592573499999998,0.007158854499998313
83282.0,0.0044129925,0.097281968,9.850877991499999,-0.002848377339254746,0.0017331119472303693,-0.008684758357923783,9.851359320379082,0.009302793033489437,-0.0023535959999999995,0.026379888500000004,0.0048052585000011305
83292.0,0.0175539035,0.09483030549999999,9.835285418,-0.00124965574442794,0.003331833542057175,-0.017212437083168077,9.835758241228419,0.017576425819078763,0.013140910999999998,-0.002451662500000007,-0.015592573499999318
83302.0,0.021182364,0.09365350749999998,9.858036846,-0.0007173303225696694,-0.002530727415391778,-0.027337092073987185,9.85850445702112,0.02746335280158536,0.0036284604999999998,-0.0011767980000000067,0.022751427999999407
83312.0,0.067862018,0.0816893945,9.849701193499998,0.0016807520696705393,-0.011590731562494343,-0.03719645701850315,9.850273702384928,0.03899674858757916,0.046679654,-0.011964112999999985,-0.008335652500001345
83322.0,0.09532063799999999,0.11875853149999999,9.809003596,0.0054105206811824215,-0.017985617941801566,-0.042259657178538704,9.810185582300353,0.046245376110888914,0.02745861999999999,0.03706913699999999,-0.040697597499997684
83332.0,0.15043401099999998,0.18701281549999998,9.7718363925,0.0099413954193597,-0.016652186393277896,-0.04465773957077891,9.774783407657388,0.048687168310880935,0.05511337299999999,0.068254284,-0.03716720350000102
83342.0,0.185149552,0.23732092999999999,9.751536627,0.01180715238974164,-0.008393288372840731,-0.0414602963811253,9.756181023748196,0.043918245790047175,0.034715541000000016,0.0503081145,-0.020299765499999012
83352.0,0.20074212549999998,0.2803721235,9.7443777725,0.010740756216773104,0.0035988689176123076,-0.031333896061054196,9.750477121750414,0.033318594567587234,0.015592573499999984,0.04305119350000003,-0.007158854500000089
83362.0,0.1911316085,0.29831829299999996,9.7586954815,0.00727627765156436,0.013723523908431413,-0.01907644872429802,9.765124812123743,0.02460061423742739,-0.009610516999999985,0.017946169499999942,0.014317709000000178
83372.0,0.1660265845,0.305575214,9.8412674745,0.0030124382889422127,0.01532224550325822,-0.008684758357923783,9.84741014393244,0.01786815657650024,-0.025105024000000004,0.007256921000000027,0.08257199300000018
83382.0,0.17318543899999997,0.285177382,9.8532315875,-0.006045820528908358,0.00786096295098246,0.0025062928058638572,9.858878843580225,0.010228792109199088,0.007158854499999978,-0.020397832000000005,0.011964112999999443
83392.0,0.16475172,0.236144132,9.804198337499999,-0.012707742283770713,-0.0033300882128051807,0.012365657750379825,9.80842557301419,0.01804122204994237,-0.008433718999999978,-0.04903324999999997,-0.049033250000000805
83402.0,0.1768138995,0.214569502,9.7610490775,-0.012707742283770713,-0.010524335389525807,0.023823744289722597,9.765008055276171,0.028979633215830206,0.01206217950000002,-0.02157463000000001,-0.043149259999999856
83412.0,0.1348414375,0.183384355,9.76350074,-0.004981169685191816,-0.01079137076508094,0.02995159529347469,9.76615373291381,0.032223652726626334,-0.041972462000000016,-0.031185146999999996,0.0024516625000003955
83422.0,0.091790244,0.16063292699999998,9.807826797999999,0.004878195259324152,-0.008925613794699,0.032349677685714895,9.809571595421335,0.03391113411506395,-0.0430511935,-0.022751428000000018,0.044326057999999335
83432.0,0.0379517355,0.15465087049999998,9.822144506999999,0.012871803233458181,-0.008126252997285598,0.029152234496061285,9.823435241419578,0.03288726322408271,-0.05383850849999999,-0.005982056499999999,0.014317709000000178
83442.0,0.015200307499999998,0.124740588,9.835285418,0.013671164030871583,-0.004661774432076854,0.019292869551545317,9.836088171481899,0.024100781778762008,-0.022751428000000004,-0.029910282499999982,0.013140911000000699
83452.0,0.024712757999999998,0.11993532949999999,9.864018902499998,0.009407324668249437,-0.0006649704450098396,0.004904375198104067,9.86477896926979,0.010629808991245764,0.0095124505,-0.004805258500000006,0.02873348449999824
83462.0,0.0414821295,0.111599677,9.913150219,0.004078834461910748,0.0035988689176123076,-0.010283479952750588,9.913865165485866,0.01163351657893906,0.0167693715,-0.008335652499999999,0.04913131650000224
83472.0,0.069038816,0.13199750899999999,9.9095217585,0.00034906585039886593,0.007061602153569058,-0.019343484099853155,9.910641310363411,0.020595107405995183,0.027556686500000004,0.02039783199999999,-0.003628460499999875
83482.0,0.07266727649999999,0.1511204765,9.892752387,0.000614355896702004,0.0043982297150257105,-0.02387435883803043,9.894173422878017,0.02428388082084471,0.003628460499999986,0.019122967500000004,-0.016769371500000574
83492.0,0.09532063799999999,0.19064127599999997,9.866470565,0.0030124382889422127,0.00013439035240356338,-0.02040988027282169,9.86877254425063,0.02063143373501755,0.022653361499999997,0.03952079949999998,-0.02628182199999962
83502.0,0.079826131,0.1893664115,9.858036846,0.0054105206811824215,-0.00119729586686811,-0.011616911501274257,9.860178614309602,0.012870892908526598,-0.01549450699999999,-0.0012748644999999725,-0.008433719000001005
83512.0,0.059428299,0.19417167,9.901186106,0.004878195259324152,-0.003063052837250048,-0.002022836603061428,9.903268181050137,0.006104993824285434,-0.020397831999999998,0.0048052584999999925,0.04314926000000163
83522.0,0.035500073,0.1978001305,9.878434678,0.0008813912722571365,-0.008126252997285598,0.000640535835481919,9.880478573142183,0.008198970941968312,-0.023928225999999997,0.0036284605000000136,-0.022751428000001184
83532.0,0.07737446849999999,0.14866881399999998,9.913150219,-0.002049016541841343,-0.009992009967667536,-0.0025569073541716926,9.914566883585564,0.010515536467557143,0.04187439549999999,-0.04913131650000002,0.03471554100000063
83542.0,0.09532063799999999,0.12836904849999997,9.916680612999999,-0.003115412714809878,-0.008925613794699,-0.00975115453089232,9.917969500703839,0.013581509219562528,0.017946169499999998,-0.02029976550000001,0.003530393999998438
83552.0,0.12405412249999999,0.1762255005,9.887947128499999,-0.00124965574442794,-0.002530727415391778,-0.016146040910199545,9.890295408548074,0.01639087727378967,0.028733484500000003,0.04785645200000002,-0.028733484500000017
83562.0,0.0989490985,0.16063292699999998,9.8975576455,0.003811799086355616,0.009194394499506129,-0.016146040910199545,9.899355595559038,0.018967375663520965,-0.02510502399999999,-0.015592573500000012,0.009610517000000485
83572.0,0.13003617899999997,0.239674526,9.8712758235,0.004611159883769018,0.0020001473227855017,-0.014280283939817605,9.875041249021589,0.015139018930840246,0.031087080499999975,0.07904159900000002,-0.02628182199999962
83582.0,0.138469898,0.236144132,9.898734443499999,0.0011484266478122688,0.012391837689159739,-0.01214923692313253,9.902518949573558,0.017391966044535963,0.008433719000000034,-0.0035303939999999923,0.0274586199999991
83592.0,0.125328987,0.251638639,9.9179554775,-0.005513495107050087,0.021984167258120576,-0.0038885935734433662,9.921938833377903,0.022996160512309682,-0.013140911000000005,0.01549450699999999,0.01922103400000097
83602.0,0.079826131,0.25409030149999995,9.92629113,-0.011109020688943906,0.01665567705178189,0.00277332818141899,9.92986352826782,0.02021171115770484,-0.04550285600000001,0.0024516624999999515,0.008335652499999568
83612.0,0.069038816,0.22653361499999997,9.916680612999999,-0.015639895427121187,0.00732863752912419,0.007569492965899407,9.919507962449028,0.018857690228799878,-0.010787314999999992,-0.027556686499999983,-0.009610517000000485
83622.0,0.0546230405,0.20741064749999996,9.880788274,-0.016704546270837728,-0.005461135229490257,0.012365657750379825,9.883115893728341,0.021488958925663822,-0.014415775500000005,-0.019122967500000004,-0.03589233899999833
83632.0,0.081002929,0.20378218699999998,9.7945878205,-0.013507103081184116,-0.019050268785518104,0.016095426361891707,9.797042371437005,0.02836225174800649,0.026379888500000004,-0.003628460499999986,-0.08620045350000005
83642.0,0.09659550249999999,0.15465087049999998,9.774288055,-0.010309659891530504,-0.022514747350726852,0.01822821870782878,9.775988674551813,0.03074851041280754,0.015592573499999984,-0.049131316499999994,-0.020299765500000788
83652.0,0.103754357,0.13072264449999998,9.712015827499998,-0.010309659891530504,-0.02065073570959691,0.017161822534860243,9.713449686388046,0.028762303891459923,0.00715885450000002,-0.023928225999999997,-0.062272227500001165
83662.0,0.092967042,0.124740588,9.716821086,-0.010576695267085637,-0.007859217621730466,0.013697343969651499,9.718066428180403,0.019006604542144256,-0.010787315000000006,-0.005982056499999985,0.0048052585000011305
83672.0,0.081002929,0.087671451,9.670141432,-0.012442452237467575,0.007061602153569058,0.009433504607029351,9.67087809212328,0.01713685653285914,-0.011964112999999998,-0.037069137,-0.04667965400000007
83682.0,0.06541035549999999,0.08051259649999999,9.683282342999998,-0.01430646387859752,0.018519688692911828,0.00010821041362364843,9.683837964725418,0.023402253897554362,-0.015592573500000012,-0.007158854500000006,0.013140910999998923
83692.0,0.048640984,0.064920023,9.717997883999999,-0.011109020688943906,0.020652481038848904,-0.010817550703860855,9.718336453742443,0.025825466442215478,-0.01676937149999999,-0.015592573499999998,0.03471554100000063
83702.0,0.04746418599999999,0.075707338,9.751536627,-0.0007173303225696694,0.015856316254368483,-0.02067517031912483,9.751946012858266,0.0260653025241421,-0.0011767980000000067,0.010787315000000006,0.03353874300000115
83712.0,0.04746418599999999,0.11042287899999999,9.8065519335,0.013138838609013314,0.010259045343222669,-0.030801570639195926,9.80728845734599,0.03502304734299079,0.0,0.03471554099999999,0.05501530649999964
83722.0,0.07266727649999999,0.1415099595,9.880788274,0.02086541120759221,0.006529276731710786,-0.041193261005570164,9.882068736723477,0.04663562577873488,0.025203090499999997,0.031087080500000017,0.07423634050000061
83732.0,0.12170052649999999,0.182207557,9.9322731865,0.01873436419090713,0.005729915934297384,-0.05105262595008613,9.9346897919988,0.05468252878800565,0.04903325,0.04069759749999999,0.051484912499999425
83742.0,0.1683801805,0.239674526,9.9454140975,0.008874999246391164,0.005197590512439114,-0.05478239456159801,9.94972649545455,0.055739495087962936,0.046679654000000015,0.05746696900000001,0.013140911000000699
83752.0,0.20191892349999999,0.285177382,9.916680612999999,-0.0036477381366681488,0.004663519761328849,-0.050785590574531005,9.92283486565819,0.051129547426922335,0.03353874299999998,0.04550285599999998,-0.028733484500001794
83762.0,0.240262925,0.322246519,9.885593532499998,-0.01137605606449904,0.005729915934297384,-0.03746349239405829,9.893762104575941,0.03956968347809221,0.0383440015,0.03706913700000003,-0.031087080500000752
83772.0,0.240262925,0.355785262,9.852054789499999,-0.015105824676010923,0.005729915934297384,-0.01561371548834127,9.86140421041019,0.022467887909355513,0.0,0.03353874299999998,-0.03353874299999937
83782.0,0.242616521,0.3498032055,9.832931821999999,-0.012707742283770713,0.0038641589639154456,0.01076693615555302,9.842142717667755,0.017098109621443446,0.0023535960000000133,-0.005982056499999999,-0.019122967499999532
83792.0,0.21388303649999998,0.30076995549999996,9.849701193499998,-0.007112216701876893,0.0022654373690886398,0.028619909074203014,9.856613116109875,0.0295772721579149,-0.028733484500000017,-0.04903325000000003,0.016769371499998798
83802.0,0.15641606749999998,0.23732092999999999,9.8651957005,-0.002848377339254746,0.0004014257279586958,0.03901159944057725,9.869289408014739,0.03911750614486939,-0.05746696900000001,-0.06344902549999998,0.015494507000001434
83812.0,0.10738281749999999,0.19064127599999997,9.864018902499998,0.00034906585039886593,-0.004396484385773717,0.04087735641095919,9.866445361653122,0.04111458608658067,-0.04903324999999999,-0.046679654000000015,-0.0011767980000012557
83822.0,0.0846313895,0.16190779149999998,9.859213644,-0.000450294947014537,-0.008658578419143869,0.03688055242389218,9.860906159328,0.03788599863895936,-0.02275142799999999,-0.02873348449999999,-0.004805258499997578
83832.0,0.070215614,0.1522972745,9.849701193499998,-0.004447098934081553,-0.007059856824317063,0.031285026841998353,9.851128782708345,0.03237856037278253,-0.014415775500000005,-0.009610516999999985,-0.0095124505000026
83842.0,0.033146477,0.16063292699999998,9.847249531,-0.009245009047813963,0.00013439035240356338,0.024089034336025737,9.848615382476554,0.02580251592971523,-0.037069136999999995,0.008335652499999985,-0.002451662499998619
83852.0,0.025889555999999998,0.125917386,9.825772967499999,-0.010309659891530504,0.009459684545809267,0.018760544129687046,9.826613855548649,0.023403690624070182,-0.007256921000000003,-0.03471554099999999,-0.021476563500000267
83862.0,0.009218250999999998,0.097281968,9.8651957005,-0.0057805304826052195,0.008660323748395862,0.011032226201856158,9.865679650516386,0.015169896342964213,-0.016671304999999997,-0.028635417999999996,0.03942273300000032
83872.0,-0.0063743225,0.0720788775,9.8651957005,8.203047484373349e-05,-0.0035971235883603134,0.0009075712110370514,9.865461074158302,0.0037107563395950057,-0.015592573499999998,-0.025203090499999997,0.0
83882.0,-0.008825985,0.060114764499999994,9.8412674745,0.0035465090400524776,-0.019584339536628373,-0.00735307213865211,9.841455034067561,0.02121772257650055,-0.0024516625,-0.011964113000000005,-0.023928225999998887
83892.0,-0.013533176999999999,0.09247670949999999,9.814985652499999,0.0032794736644973454,-0.033173473092656225,-0.01534668011278614,9.815430629751324,0.03669815874167945,-0.004707191999999999,0.032361944999999996,-0.026281822000001398
83902.0,0.03667687099999999,0.08649465299999999,9.7694827965,-0.00018500490071139895,-0.03583859086045156,-0.020142844897266556,9.769934525316605,0.04111171392962676,0.05021004799999999,-0.005982056499999999,-0.045502855999998815
83912.0,0.0499158485,0.10326402449999998,9.7228031425,-0.004181808887778414,-0.026778586713348998,-0.021209241070235092,9.723479624007823,0.03441528931613973,0.013238977500000006,0.01676937149999999,-0.04667965400000007
83922.0,0.07266727649999999,0.14268675749999998,9.72035148,-0.010044369845227366,-0.012390092359907744,-0.021209241070235092,9.72167027514192,0.026537438856266898,0.02275142799999999,0.039422733,-0.0024516625000003955
83932.0,0.06187996149999999,0.157102533,9.717997883999999,-0.010309659891530504,0.00999375529691953,-0.02094220569467996,9.719464656499284,0.02539173509967418,-0.010787314999999999,0.014415775500000005,-0.002353596000000735
83942.0,0.03667687099999999,0.1511204765,9.725156738499999,-0.004714134309636684,0.025980971245187588,-0.02227563724320363,9.726399959886281,0.0345461711876057,-0.025203090499999997,-0.005982056499999999,0.007158854500000089
83952.0,0.0403053315,0.14396162199999998,9.797039482999999,0.0054105206811824215,0.030510100654112873,-0.026804766652128914,9.798180040181803,0.04097115438013291,0.0036284605000000067,-0.007158854500000006,0.07188274449999987
83962.0,0.0546230405,0.1403331615,9.9322731865,0.013938199406426715,0.028379053637427796,-0.03772878244036142,9.933414706133885,0.04922504558130386,0.014317708999999998,-0.003628460499999986,0.13523370350000086
83972.0,0.060605097,0.13199750899999999,10.0017042685,0.019266689612765404,0.019053759444022093,-0.0523843121693578,10.002758849172347,0.05897768424617934,0.005982056499999999,-0.008335652500000013,0.06943108199999948
83982.0,0.07266727649999999,0.16063292699999998,10.019650438,0.016603317174222056,0.0012007865253720988,-0.06277774786498404,10.021201443441006,0.0649473452611178,0.012062179499999992,0.028635417999999996,0.017946169500000053
83992.0,0.12650578499999998,0.218099896,10.005332729,0.005944591432292687,-0.015852825595864494,-0.06970495966614954,10.008509094579084,0.07173166419879938,0.05383850849999999,0.05746696900000001,-0.014317709000000178
84002.0,0.17553903499999998,0.24085132399999998,9.9442372995,-0.005246459731494954,-0.026778586713348998,-0.0678392026957676,9.948702366733478,0.07312164842559275,0.04903325,0.02275142799999999,-0.06109542949999991
84012.0,0.22467035149999998,0.2815489215,9.880788274,-0.011908381486357311,-0.03344050846821135,-0.05584879073456655,9.887351691816008,0.06617525657487502,0.049131316499999994,0.040697597500000016,-0.06344902549999887
84022.0,0.2270239475,0.333033834,9.823321305,-0.010576695267085637,-0.029176669105589206,-0.038262853191471685,9.831586487876416,0.04926652450926441,0.0023535960000000133,0.05148491249999998,-0.057466969000000034
84032.0,0.21388303649999998,0.3390158905,9.810180393999998,-0.004447098934081553,-0.028909633730034075,-0.018811158677994884,9.818366314725475,0.03477647627553625,-0.013140911000000005,0.005982056499999999,-0.013140911000002475
84042.0,0.195936867,0.297141495,9.7802701115,0.0030124382889422127,-0.027577947510762403,-0.0006911503837897546,9.78674449333387,0.027750597510757567,-0.017946169499999998,-0.041874395499999995,-0.02991028249999772
84052.0,0.16239812399999998,0.2587974935,9.8065519335,0.007808603073422631,-0.017186257144388165,0.013964379345206631,9.811310316046129,0.023480749713076288,-0.03353874300000001,-0.0383440015,0.02628182199999962
84062.0,0.12170052649999999,0.2313388735,9.822144506999999,0.004878195259324152,-0.008393288372840731,0.020092230348958722,9.825622189405253,0.022314609543825182,-0.04069759749999999,-0.02745861999999999,0.015592573499999318
84072.0,0.10738281749999999,0.16788984799999998,9.843719136999999,-0.0023160519173964756,-0.0019984019935335075,0.019826940302655582,9.84573636244114,0.020061537049211927,-0.014317708999999998,-0.0634490255,0.021574629999999928
84082.0,0.10140076099999999,0.1522972745,9.822144506999999,-0.007112216701876893,0.0038641589639154456,0.013165018547793228,9.823848496925315,0.015454224803483494,-0.005982056499999999,-0.015592573499999984,-0.021574629999999928
84092.0,0.113364874,0.090025047,9.793411022499999,-0.003115412714809878,0.014522884705844815,0.003837979025135531,9.794480872377507,0.015341123151850407,0.011964113000000012,-0.0622722275,-0.028733484500000017
84102.0,0.082179727,0.099635564,9.816162450499998,0.0011484266478122688,0.02118480646070717,-0.005754350543825304,9.8170120712847,0.021982435231890213,-0.03118514700000001,0.009610516999999999,0.022751427999999407
84112.0,0.08698498549999999,0.1152281375,9.812533989999999,0.005677556056737553,0.02518161044777419,-0.014280283939817605,9.813596038979771,0.02950041791098323,0.0048052584999999925,0.015592573499999998,-0.003628460499999875
