timestamp,ax,ay,az,gx,gy,gz,acc_mag,gyro_mag,dax,day,daz
155062.0,0.04511059,0.4707192,9.5168634925,0.0030124382889422127,0.07714180760889737,-0.028935813668813988,9.528604423810346,0.08244522168257626,0.0,0.0,0.0
155072.0,-0.48160458149999996,0.49464742599999995,9.74192611,-0.020701350257904743,0.11391414961916589,-0.0052220251219670345,9.766357733652292,0.11589757949298432,-0.5267151714999999,0.02392822599999994,0.225062617499999
155082.0,-0.012356378999999999,0.51386846,9.849701193499998,-0.048413688121070705,0.1224400830151582,0.007302457590344274,9.863104332588195,0.13186654243249843,0.4692482025,0.019221034000000026,0.1077750834999982
155092.0,0.0032361944999999997,0.495824224,9.990916953500001,-0.0755937005623784,0.14988538550276903,0.006503096792930872,10.003213169066916,0.1679950196283403,0.015592573499999998,-0.01804423599999999,0.14121576000000324
155102.0,0.000784532,0.5090632015,10.090258318,-0.10250667762813095,0.16081114662025356,0.011299261577411289,10.103091550737332,0.19103799922495265,-0.0024516624999999996,0.013238977499999971,0.09934136449999897
155112.0,0.07737446849999999,0.45993188499999993,10.0938867785,-0.11316540337006034,0.15414922486539118,0.013165018547793228,10.104656077491823,0.19168127128092913,0.07658993649999998,-0.04913131650000002,0.003628460499999875
155122.0,-0.050700380499999996,0.5078864035,10.097515239,-0.09824283826550881,0.16027882119839526,0.00890117918517108,10.110407169312234,0.18820251535539212,-0.128074849,0.0479545185000001,0.003628460499999875
155132.0,-0.07462860649999999,0.433650063,10.194404940999998,-0.060938170833382016,0.1434904991234618,0.010232865404442754,10.203896996105616,0.15622962439180377,-0.02392822599999999,-0.07423634050000005,0.09688970199999858
155142.0,-0.16318265599999998,0.43482686099999995,10.2435362575,-0.02309943265014495,0.09153030196233862,0.009967575358139616,10.254059588133055,0.09492487832278566,-0.0885540495,0.001176797999999979,0.04913131650000224
155152.0,-0.23143693999999998,0.44914456999999997,10.3010032265,0.006209881478595825,0.013723523908431413,0.007302457590344274,10.313387482991244,0.016739881221271336,-0.068254284,0.014317709000000012,0.057466969000000034
155162.0,-0.24340105299999998,0.424039546,10.2219616275,0.013405873984568445,-0.06781302275698768,0.012365657750379825,10.233648084786571,0.07022273851345721,-0.011964112999999998,-0.025105023999999976,-0.07904159899999996
155172.0,-0.12366185649999999,0.367749375,10.053189180999999,0.000614355896702004,-0.12616985162667008,0.011299261577411289,10.060673166669384,0.1266762890396562,0.11973919649999999,-0.056290171,-0.168772446500002
155182.0,-0.128467115,0.42884480449999995,9.9179554775,-0.008710938296703698,-0.14295642837235153,0.01183158699926956,9.928053813293687,0.14370945449033456,-0.004805258500000006,0.061095429499999965,-0.13523370349999908
155192.0,-0.138077632,0.4707192,9.7610490775,-0.01430646387859752,-0.13442874964710727,0.023823744289722597,9.773367950254967,0.13727102546559616,-0.009610517000000013,0.04187439550000005,-0.15690640000000045
155202.0,-0.12493672099999999,0.47552445849999997,9.6186565195,-0.016971581646392862,-0.10485240014281134,0.0347477600779551,9.631214146461796,0.11175628496743945,0.013140911000000019,0.004805258499999965,-0.14239255799999917
155212.0,-0.082964259,0.39412926349999994,9.6437615435,-0.013774138456739249,-0.053956853825404695,0.03954392486243552,9.652168546627642,0.06829927494847554,0.04197246199999999,-0.08139519500000003,0.025105024000000142
155222.0,-0.11414940599999998,0.343821149,9.685635938999999,-0.009245009047813963,0.0014660765716752368,0.04087735641095919,9.692408710544466,0.041935400796424535,-0.031185146999999983,-0.050308114499999945,0.04187439549999894
155232.0,-0.1775984315,0.309105608,9.776641651,-0.008710938296703698,0.03797138320638864,0.032883748436825164,9.783139038766459,0.050980852286635944,-0.0634490255,-0.034715541000000016,0.09100571200000118
155242.0,-0.2050570515,0.2672312125,9.847249531,-0.011109020688943906,0.04942946974573141,0.017161822534860243,9.853008892774014,0.053490288583345647,-0.027458620000000017,-0.041874395499999995,0.07060787999999896
155252.0,-0.2350654005,0.238497728,9.879611476,-0.015105824676010923,0.039037779379357165,-0.0022898719786165604,9.885285014883703,0.04192108862723149,-0.03000834899999999,-0.02873348449999999,0.03236194499999989
155262.0,-0.20986230999999997,0.24565658249999997,9.861665306499999,-0.015639895427121187,0.0198531202414355,-0.02094220569467996,9.866956570448146,0.0328226856251963,0.025203090500000025,0.007158854499999978,-0.017946169500000053
155272.0,-0.1560238015,0.28282378599999997,9.809003596,-0.015372860051566056,-0.002530727415391778,-0.03293261765588101,9.81432036704034,0.03643194632577975,0.053838508499999965,0.037167203499999996,-0.052661710499998904
155282.0,-0.10699055149999999,0.3929524655,9.750359828999999,-0.011643091440054173,-0.013721778579179418,-0.036664131596644875,9.758861378932979,0.040842469702425964,0.049033250000000014,0.11012867950000005,-0.05864376700000129
155292.0,-0.0854159215,0.43718045699999997,9.726333536499999,-0.0023160519173964756,-0.01318945315732115,-0.035330700048121215,9.736528472452232,0.037783384403247376,0.021574629999999984,0.04422799149999995,-0.024026292500000324
155302.0,-0.069823348,0.46591394149999993,9.7239799405,0.008607963870836033,-0.007059856824317063,-0.030801570639195926,9.735385815880969,0.032751723225241926,0.015592573500000012,0.02873348449999996,-0.0023535959999989586
155312.0,-0.09620323649999998,0.4863117735,9.767031134,0.022198842756115878,0.00786096295098246,-0.02653773127657378,9.779603845569774,0.035480058336129036,-0.02637988849999999,0.02039783200000006,0.043051193500000196
155322.0,-0.08776951749999999,0.5449555405,9.898734443499999,0.029660125308391638,0.011592476891746337,-0.02413964888433357,9.914112346158735,0.03996037039435538,0.008433718999999992,0.05864376699999996,0.13170330949999887
155332.0,-0.09973363049999999,0.525832573,9.951396154000001,0.025129250570214357,0.02411521427480565,-0.018811158677994884,9.965778048187032,0.039583866467907236,-0.011964112999999998,-0.019122967499999977,0.05266171050000246
155342.0,-0.0985568325,0.48748857149999997,9.976599244500001,0.006476916854150957,0.02305056343108911,-0.009218829109034049,9.988988489428424,0.025656689898890323,0.0011767979999999928,-0.0383440015,0.025203090499999803
155352.0,-0.09492837199999998,0.45159623249999997,9.949042558,-0.015905185473424326,0.013723523908431413,-0.001223475805648025,9.959738870769351,0.02104297807954765,0.0036284605000000136,-0.035892338999999995,-0.027556686500000538
155362.0,-0.09492837199999998,0.424039546,9.850877991499999,-0.0281626328101805,-0.0009320058205649721,0.00277332818141899,9.860457298513163,0.0283141991031439,0.0,-0.027556686499999983,-0.09816456650000127
155372.0,-0.08776951749999999,0.4192342875,9.797039482999999,-0.026563911215353696,-0.017186257144388165,0.005171410573659199,9.806398090403974,0.03205857609145455,0.007158854499999992,-0.004805258499999965,-0.05383850850000016
155382.0,-0.0854159215,0.43482686099999995,9.753890222999999,-0.013774138456739249,-0.027045622088904132,0.008634143809615948,9.763951288337513,0.03155536410384725,0.0023535959999999856,0.015592573499999929,-0.043149259999999856
155392.0,-0.0722750105,0.386970409,9.726333536499999,-0.003914773512223281,-0.029176669105589206,0.00836885376331281,9.734296781885632,0.030604594182259037,0.013140911000000005,-0.04785645199999994,-0.027556686500000538
155402.0,-0.0422666615,0.36059052049999996,9.708387366999998,0.00034906585039886593,-0.022249457304423712,0.0033056536032772606,9.715173557990303,0.022496389555974272,0.030008349000000004,-0.02637988850000006,-0.017946169500000053
155412.0,-0.035107807,0.340290755,9.685635938999999,-0.0017837264955382049,-0.004661774432076854,-0.004687954370856769,9.691675494923425,0.006847681158588327,0.007158854499999999,-0.020299765499999955,-0.022751427999999407
155422.0,-0.044718324,0.3390158905,9.7239799405,-0.00631285590446349,0.008927359123950995,-0.01561371548834127,9.729990615913216,0.019061427070116727,-0.009610516999999999,-0.001274864500000028,0.0383440015000005
155432.0,-0.033931009,0.3509800035,9.765854335999999,-0.007379252077432025,0.018519688692911828,-0.024673719635443837,9.772218232735012,0.03172104461005561,0.010787314999999999,0.011964113000000054,0.04187439549999894
155442.0,-0.035107807,0.3594137225,9.7945878205,-0.0033824480903650108,0.020652481038848904,-0.034266049204404674,9.801242847492384,0.04015131450180317,-0.0011767979999999997,0.00843371899999995,0.028733484500001794
155452.0,-0.024320492,0.40128811799999997,9.8053751355,8.203047484373349e-05,0.018254398646608695,-0.03906221398888509,9.81361325852312,0.04311712375218879,0.010787314999999999,0.041874395499999995,0.010787314999999964
155462.0,-0.0028439284999999996,0.446790974,9.798216281,0.0032794736644973454,0.014789920081399949,-0.04092797095926703,9.808398062458041,0.043641671489219276,0.0214765635,0.045502856000000036,-0.007158854500000089
155472.0,0.0187307015,0.5078864035,9.8759830155,0.005677556056737553,0.010793116094332932,-0.03453133925070781,9.889051519760796,0.036621569986151875,0.021574629999999997,0.06109542950000002,0.07776673449999905
155482.0,0.023535959999999998,0.565255306,9.9071681625,0.004611159883769018,0.005462880558742251,-0.019875809521711425,9.923308344621157,0.021122349860186466,0.0048052584999999995,0.05736890249999993,0.031185147000000413
155492.0,0.012748645,0.5832995419999999,9.9214858715,-0.0017837264955382049,-0.009457939216557272,-0.0022898719786165604,9.938625799476549,0.009893321389373254,-0.010787314999999999,0.018044235999999936,0.014317709000000178
155502.0,0.0044129925,0.5796710815,9.9095217585,-0.00631285590446349,-0.028644343683730936,0.014496704767064902,9.926462588425704,0.03271857307166158,-0.008335652499999999,-0.003628460499999875,-0.011964112999999443
155512.0,-0.010002783,0.5365218214999999,9.9106985565,-0.007112216701876893,-0.047029642024239204,0.031017991466443223,9.925215443426133,0.05678456348300027,-0.014415775499999998,-0.04314926000000008,0.0011767979999994793
155522.0,-0.048248717999999996,0.45993188499999993,9.878434678,-0.002049016541841343,-0.066481336537716,0.044340089646915944,9.889253610113418,0.07993753890711382,-0.038245934999999995,-0.07658993650000001,-0.03226387850000023
155532.0,-0.047071919999999996,0.42041108549999995,9.813808854499998,0.0054105206811824215,-0.07314325829257837,0.046472881992853016,9.822922451039014,0.08682706218926205,0.0011767979999999997,-0.03952079949999998,-0.0646258235000019
155542.0,-0.049523582499999996,0.37618309399999994,9.809003596,0.013938199406426715,-0.0656819757403026,0.04007799561354579,9.816339330512978,0.0781961704448652,-0.0024516625,-0.04422799150000001,-0.004805258499997578
155552.0,-0.043541526000000004,0.3509800035,9.765854335999999,0.018202038769048863,-0.0462302812268258,0.027820548276789616,9.772256327957901,0.0569432702264503,0.005982056499999992,-0.025203090499999914,-0.04314926000000163
155562.0,-0.069823348,0.3498032055,9.798216281,0.015803956376808655,-0.019584339536628373,0.010499900779997887,9.804707026309226,0.02726828393272698,-0.02628182199999999,-0.0011767980000000344,0.03236194500000167
155572.0,-0.08178746099999999,0.3617673185,9.8269497655,0.008342673824532895,0.008127998326537593,-0.00735307213865211,9.833946637803766,0.013774332405418643,-0.011964112999999998,0.011964112999999998,0.028733484500000017
155582.0,-0.0985568325,0.3713778355,9.905893297999999,0.004078834461910748,0.03210882224893968,-0.019875809521711425,9.913342371637045,0.03798237961114376,-0.016769371500000005,0.009610516999999985,0.07894353249999853
155592.0,-0.11414940599999998,0.445614176,9.969342323500001,0.0035465090400524776,0.04569970113421952,-0.02653773127657378,9.97994932070653,0.0529650034592258,-0.015592573499999984,0.0742363405,0.06344902550000242
155602.0,-0.1213082605,0.47915291899999995,10.01847364,0.0016807520696705393,0.04436626958569585,-0.022008601867648494,10.030658866157626,0.04955370178542672,-0.00715885450000002,0.03353874299999998,0.04913131649999869
155612.0,-0.16082906,0.5437787424999999,10.055542777,-0.0025830872929516074,0.027579692840014398,-0.013480923142404202,10.071519341559753,0.030806607828255915,-0.039520799499999995,0.06462582349999996,0.037069136999999586
155622.0,-0.164359454,0.5700605645,10.053189180999999,-0.007646287452987157,0.0020001473227855017,0.0014398966328953218,10.070680006151157,0.008033654426223356,-0.0035303939999999923,0.026281822000000066,-0.002353596000000735
155632.0,-0.15720059949999998,0.585653138,9.986111695,-0.012974777659325845,-0.02145009650701031,0.02195798731934066,10.004505405643409,0.03332573633973182,0.007158854500000006,0.015592573499999984,-0.06707748599999874
155642.0,-0.18240368999999998,0.553291193,9.9191322755,-0.01430646387859752,-0.037170277079723237,0.04007799561354579,9.93622601138092,0.05650265603750332,-0.025203090499999997,-0.032361945,-0.06697941949999908
155652.0,-0.2242780855,0.4898421675,9.847249531,-0.01137605606449904,-0.04569795580496753,0.05153608215288856,9.861975934592232,0.0698117868271875,-0.04187439550000002,-0.06344902549999998,-0.07188274450000165
155662.0,-0.2613472225,0.4419857155,9.804198337499999,-0.007911577499290296,-0.046497316602380934,0.05313480374771537,9.817635091224988,0.0710485811192423,-0.037069136999999974,-0.047856451999999994,-0.043051193500000196
155672.0,-0.24222425499999997,0.38569554449999993,9.7239799405,-0.0036477381366681488,-0.04143411644234538,0.044340089646915944,9.734640184721972,0.06079585141083298,0.019122967500000004,-0.056290171000000055,-0.08021839699999944
155682.0,-0.266152481,0.367749375,9.689264399499999,0.00034906585039886593,-0.025712190540380465,0.027820548276789616,9.699892852468702,0.037884317280029306,-0.023928226000000025,-0.017946169499999942,-0.03471554100000063
155692.0,-0.2805682565,0.38569554449999993,9.680928747,0.000614355896702004,-0.00279776279094691,0.01076693615555302,9.692670478464311,0.011141446224793907,-0.014415775500000005,0.017946169499999942,-0.008335652499999568
155702.0,-0.29253236949999994,0.367749375,9.656902454499999,-0.003914773512223281,0.02171713188256544,-0.0052220251219670345,9.668328697647091,0.022676613839619008,-0.011964112999999943,-0.017946169499999942,-0.024026292500000324
155712.0,-0.2697809415,0.322246519,9.6414079475,-0.00897797367225883,0.04436626958569585,-0.01561371548834127,9.650563288509142,0.04788275263141502,0.022751427999999962,-0.04550285599999998,-0.015494506999999658
155722.0,-0.25899362649999996,0.32950344,9.685635938999999,-0.010309659891530504,0.05022883054314481,-0.027604127449542316,9.694699260853213,0.05823411677926922,0.01078731500000002,0.007256920999999972,0.044227991499999675
155732.0,-0.2697809415,0.322246519,9.767031134,-0.004181808887778414,0.032642893000049945,-0.03799581781591656,9.776068828927585,0.05026657100386831,-0.01078731500000002,-0.007256920999999972,0.0813951950000007
155742.0,-0.279293392,0.284000584,9.824498102999998,0.006476916854150957,-0.004396484385773717,-0.04652349654116085,9.832569557667913,0.047177486763342345,-0.009512450499999991,-0.03824593500000001,0.05746696899999826
155752.0,-0.24340105299999998,0.28282378599999997,9.800569877,0.018202038769048863,-0.04569795580496753,-0.05638111615642482,9.807670634788296,0.07482277486933368,0.035892338999999995,-0.0011767980000000344,-0.023928225999998887
155762.0,-0.2134907705,0.28282378599999997,9.779093313499999,0.027260297586899435,-0.08326791328339747,-0.06570815567908252,9.785511414185589,0.10951817625327889,0.02991028249999997,0.0,-0.021476563500000267
155772.0,-0.16082906,0.344997947,9.753890222999999,0.030724776152108176,-0.10458536476725622,-0.07716624221842529,9.761314668235507,0.1335542561328911,0.052661710500000014,0.06217416100000006,-0.025203090499999803
155782.0,-0.0889463155,0.3713778355,9.728785199,0.03019245073024991,-0.10565176094022474,-0.0888896188040712,9.736277234755756,0.14133379992769618,0.0718827445,0.02637988849999995,-0.025105023999998366
155792.0,-0.020790097999999996,0.45394982849999993,9.703680175,0.026727972165041164,-0.08939750961640154,-0.0928881681203902,9.714314778390603,0.1316605901491851,0.0681562175,0.08257199299999995,-0.025105024000000142
155802.0,0.081002929,0.49709908849999995,9.701228512499998,0.017935003393493732,-0.05981941478285365,-0.09182177194742168,9.714293779273769,0.11104622701943563,0.101793027,0.04314926000000002,-0.002451662500002172
155812.0,0.16239812399999998,0.5233809105,9.7108390295,0.006209881478595825,-0.023581143523695385,-0.08302880317587424,9.72628888040115,0.0865356291632608,0.08139519499999998,0.026281822000000066,0.009610517000002261
155822.0,0.20074212549999998,0.5569196535,9.752713425,-0.0036477381366681488,0.010526080718777801,-0.06703984189835419,9.770664053767279,0.0679591404490099,0.0383440015,0.033538742999999926,0.04187439549999894
155832.0,0.2162366325,0.518575652,9.859213644,-0.01137605606449904,0.026248006620742722,-0.04732285733857425,9.875210006177992,0.055297606908728245,0.015494507000000018,-0.03834400149999995,0.10650021900000084
155842.0,0.20074212549999998,0.4767012565,9.950219356,-0.016439256224534588,0.023849924228502514,-0.0321332568584676,9.963654285522757,0.04326215698798969,-0.015494507000000018,-0.041874395499999995,0.0910057119999994
155852.0,0.138469898,0.390500803,10.0375966075,-0.02256710722828668,0.007595672904679321,-0.019343484099853155,10.046144058527693,0.030677988080204027,-0.06227222749999997,-0.0862004535,0.08737725149999953
155862.0,0.09777230049999999,0.33421063199999995,10.028084157,-0.03322583297021605,-0.0353045201093413,-0.016146040910199545,10.034128164876176,0.0510985298593748,-0.040697597500000016,-0.056290171000000055,-0.009512450499999048
155872.0,0.090613446,0.409721837,9.946688962,-0.034557519189487726,-0.07953814467188558,-0.024939009681746976,9.955536353561433,0.09023576228017295,-0.007158854499999992,0.07551120500000003,-0.0813951950000007
155882.0,0.128859381,0.46591394149999993,9.832931821999999,-0.014041173832294382,-0.10458536476725622,-0.027337092073987185,9.844807197556284,0.10900720017113731,0.038245934999999995,0.05619210449999995,-0.11375714000000059
155892.0,0.1768138995,0.5365218214999999,9.7228031425,0.01606924642311179,-0.09872280380980725,-0.021741566492093363,9.739200160578381,0.10235774707469142,0.047954518500000015,0.07060788000000001,-0.11012867949999894
155902.0,0.23418280199999997,0.6024225095,9.717997883999999,0.036320301734002,-0.05848772856358198,-0.013747958517959333,9.739468021310676,0.07020673097351651,0.05736890249999996,0.06590068800000004,-0.0048052585000011305
155912.0,0.23781126249999998,0.5904583965,9.8053751355,0.03498861551473033,-0.002530727415391778,-0.0025569073541716926,9.826015309496055,0.035173080219202596,0.0036284605000000136,-0.011964112999999998,0.08737725150000131
155922.0,0.21751149699999997,0.6167402184999999,9.887947128499999,0.008075638448977763,0.04250225794456591,0.010232865404442754,9.9095498467112,0.044456376383264364,-0.02029976550000001,0.026281821999999955,0.0825719929999984
155932.0,0.174362237,0.6143866225,9.956201412499999,-0.0196366994141882,0.07047988585403502,0.022225022694895794,9.976663754876455,0.07646545564939515,-0.04314925999999997,-0.002353595999999958,0.068254284
155942.0,0.08580818750000001,0.550937597,9.983758099,-0.02949606435870417,0.07287796824627522,0.03927863481613239,9.999316029618138,0.08788644503777022,-0.0885540495,-0.06344902549999998,0.027556686500000538
155952.0,0.03667687099999999,0.552114395,10.013668381499999,-0.024698154244971758,0.05928883469024737,0.05553288613995558,10.028944608117316,0.08490621994335378,-0.049131316500000015,0.0011767980000000344,0.029910282499999497
155962.0,-0.0028439284999999996,0.5018062805,9.9885633575,-0.012974777659325845,0.035573300814148424,0.06912201969598343,10.001160711530948,0.07881407357175972,-0.039520799499999995,-0.050308114500000056,-0.025105023999998366
155972.0,-0.0722750105,0.46356034549999997,10.019650438,0.001413716694115407,0.0097267199213644,0.07924667468680253,10.030628433491913,0.07985388609351331,-0.069431082,-0.03824593500000001,0.031087080499998976
155982.0,-0.1560238015,0.40727017449999997,9.990916953500001,0.009142034621946299,-0.013988813954734551,0.08004603548421593,10.000431690352448,0.0817718258914976,-0.083748791,-0.056290171,-0.02873348449999824
155992.0,-0.1703415105,0.36892617299999997,9.976599244500001,0.0099413954193597,-0.027844982886317534,0.06992138049339683,9.984871317983114,0.07591557063558013,-0.014317708999999984,-0.0383440015,-0.014317709000000178
156002.0,-0.1703415105,0.34264435099999996,9.9442372995,0.0032794736644973454,-0.03024306527855774,0.053400093794018506,9.951596698532285,0.06145704159955318,0.0,-0.02628182200000001,-0.03236194500000167
156012.0,-0.19073934249999996,0.3582369245,9.920309073499999,-0.00631285590446349,-0.021715386553313447,0.03821223864316385,9.928607520927542,0.04440253759586777,-0.020397831999999977,0.01559257350000004,-0.023928226000000663
156022.0,-0.220649625,0.3964828595,9.852054789499999,-0.017238617021947993,-0.008393288372840731,0.024089034336025737,9.862498085688017,0.030787964885345787,-0.029910282500000024,0.03824593500000001,-0.068254284
156032.0,-0.2146675685,0.39412926349999994,9.834108619999999,-0.02256710722828668,0.0014660765716752368,0.014496704767064902,9.844344182893598,0.026862206876398786,0.005982056499999999,-0.002353596000000069,-0.017946169500000053
156042.0,-0.221826423,0.3845187465,9.819790910999998,-0.020169024836046472,0.009459684545809267,0.0057037359955174685,9.829819691332547,0.022995821334534754,-0.007158854500000006,-0.00961051699999993,-0.014317709000000178
156052.0,-0.2242780855,0.386970409,9.779093313499999,-0.010309659891530504,0.018254398646608695,-0.001223475805648025,9.789316257595193,0.021000215476878997,-0.002451662500000007,0.002451662500000007,-0.04069759749999946
156062.0,-0.20388025349999997,0.39893452199999996,9.7455545705,-0.0036477381366681488,0.01798736327105356,-0.00788539756051038,9.755846954375823,0.019975753443759084,0.020397832000000032,0.011964112999999943,-0.03353874299999937
156072.0,-0.184757286,0.3929524655,9.788605764,-0.0015166911199830724,0.01718800247364016,-0.02094220569467996,9.798231967956598,0.027134917732427006,0.019122967499999977,-0.005982056499999944,0.043051193500000196
156082.0,-0.1309187775,0.39530606149999997,9.8389138785,-0.0015166911199830724,0.02118480646070717,-0.031333896061054196,9.84772221973694,0.03785379002287623,0.05383850849999999,0.002353595999999958,0.050308114499999945
156092.0,-0.1009104285,0.41442902899999995,9.849701193499998,-0.0057805304826052195,0.025713935869632457,-0.03586477079923148,9.858932393311825,0.04450733439613414,0.030008349000000004,0.019122967499999977,0.010787314999998188
156102.0,-0.0889463155,0.43482686099999995,9.866470565,-0.00897797367225883,0.02891137905928607,-0.035330700048121215,9.876448109320453,0.046526661348734344,0.011964112999999998,0.020397832000000005,0.01676937150000235
156112.0,-0.09973363049999999,0.47915291899999995,9.881965071999998,-0.006579891280018622,0.027846728215569525,-0.03559773542367635,9.894077420409992,0.04567202654648383,-0.010787314999999992,0.044326058,0.015494506999997881
156122.0,-0.07462860649999999,0.48748857149999997,9.911973420999999,-0.0009843656981248017,0.018786724068466962,-0.034798374626262944,9.924234561660747,0.039558018829083205,0.025105024000000004,0.008335652500000013,0.030008349000000933
156132.0,-0.0614876955,0.5006294825,9.872452621499999,0.008342673824532895,0.0043982297150257105,-0.032400292234022736,9.885329098174138,0.03374497841188753,0.013140910999999984,0.013140910999999977,-0.03952079949999998
156142.0,-0.050700380499999996,0.5042579429999999,9.878434678,0.016336281798666925,-0.008126252997285598,-0.030269245217337655,9.891426504259858,0.03534313648798969,0.010787315000000006,0.003628460499999986,0.00598205650000061
156152.0,-0.008825985,0.5090632015,9.820967709,0.01606924642311179,-0.017718582566246435,-0.026804766652128914,9.8341562923493,0.03592581751385298,0.041874395499999995,0.00480525850000002,-0.057466969000000034
156162.0,0.0175539035,0.5006294825,9.774288055,0.014205234781981848,-0.015053464798451092,-0.024939009681746976,9.78711627602288,0.03240909905498304,0.026379888499999997,-0.008433719000000006,-0.04667965400000007
156172.0,0.0283412185,0.5078864035,9.764677537999999,0.009407324668249437,-0.004928809807631987,-0.017477727129471217,9.777917940167423,0.020451451516846374,0.010787315000000002,0.007256921000000083,-0.009610517000000485
156182.0,0.024712757999999998,0.51386846,9.716821086,0.0008813912722571365,0.0025324727446437724,-0.009484119155337187,9.730430798886808,0.009855901020698634,-0.0036284605000000032,0.005982056499999944,-0.04785645199999955
156192.0,0.0534462425,0.47552445849999997,9.737120851499999,-0.006045820528908358,0.01718800247364016,-0.002822197400474831,9.74887185720405,0.01843757503222365,0.0287334845,-0.0383440015,0.020299765499999012
156202.0,0.0499158485,0.45159623249999997,9.786252167999999,-0.007379252077432025,0.03184353220263654,0.005436700619962337,9.796793467498658,0.03313640925015464,-0.003530393999999999,-0.023928225999999997,0.049131316500000466
156212.0,0.021182364,0.4311984005,9.768305998499999,-0.0036477381366681488,0.03424161459487675,0.009168214560726213,9.77784141993873,0.03563495926487487,-0.0287334845,-0.02039783199999995,-0.017946169500000053
156222.0,0.0283412185,0.3929524655,9.810180393999998,0.0016807520696705393,0.027047367418156127,0.009967575358139616,9.818088114680503,0.028874514200114738,0.007158854500000002,-0.03824593500000001,0.04187439549999894
156232.0,0.012748645,0.36059052049999996,9.8389138785,0.004345869837465881,0.011857766938049475,0.011566296952966421,9.845527632380284,0.017125199169805157,-0.015592573500000002,-0.03236194500000006,0.028733484500001794
156242.0,0.030694814499999997,0.319892923,9.7802701115,0.0051452306348792835,-0.009192649170254133,0.011299261577411289,9.785548380531512,0.015448349725722723,0.017946169499999998,-0.04069759749999996,-0.058643766999999514
156252.0,0.046287388,0.3031235515,9.7706595945,0.007009242276009227,-0.023581143523695385,0.008634143809615948,9.775470081860858,0.02607198202082161,0.015592573500000002,-0.01676937150000002,-0.009610517000000485
156262.0,-0.013533176999999999,0.4037397805,9.830480159499999,0.01180715238974164,-0.018784978739214968,0.003038618227722128,9.838776810333743,0.022394585830534695,-0.059820565,0.100616229,0.05982056499999899
156272.0,-0.09620323649999998,0.46110868299999996,9.824498102999998,0.013671164030871583,-0.01132369618693921,-0.001223475805648025,9.835783611695696,0.017793923522936267,-0.08267005949999999,0.057368902499999985,-0.00598205650000061
156282.0,-0.07698220249999999,0.40491657849999996,9.8400906765,0.00967436004380457,-0.006794566778013924,-0.008152432936065514,9.848719115539243,0.014360415827374172,0.019221033999999998,-0.056192104500000006,0.015592573500001095
156292.0,-0.0722750105,0.355785262,9.899911241499998,0.005677556056737553,0.0009337511498169663,-0.025473080432857242,9.906565975118584,0.026114830283308302,0.004707191999999985,-0.049131316499999966,0.05982056499999899
156302.0,-0.09620323649999998,0.36059052049999996,9.940608839,0.001413716694115407,-0.006794566778013924,-0.04012861016185362,9.947612008728148,0.040724318117239644,-0.023928225999999983,0.004805258499999965,0.04069759750000124
156312.0,-0.08659271949999998,0.33421063199999995,9.9526710185,0.0008813912722571365,-0.031042426075971144,-0.05851390850236189,9.958657311510526,0.06624414355608897,0.009610516999999999,-0.026379888500000004,0.01206217950000088
156322.0,-0.07825706699999999,0.43237519849999995,9.9214858715,0.0024801128670839424,-0.06115284633137732,-0.07423408907507482,9.931211123482749,0.09621081828499677,0.008335652499999999,0.0981645665,-0.031185147000000413
156332.0,0.015200307499999998,0.48268331299999995,9.8604885085,0.005944591432292687,-0.08646535647305109,-0.07983135998622064,9.872307119222805,0.117833111112956,0.09345737449999998,0.0503081145,-0.06099736300000025
156342.0,0.15043401099999998,0.4934706279999999,9.858036846,0.009407324668249437,-0.08166919168857066,-0.07689920684287016,9.871526432596829,0.11256927929742147,0.13523370349999997,0.010787314999999964,-0.0024516625000003955
156352.0,0.24742177949999997,0.5784942835,9.8975576455,0.0030124382889422127,-0.05129348138686135,-0.06757391264946445,9.917536010471988,0.08489010359274177,0.09698776849999999,0.08502365550000007,0.03952079949999998
156362.0,0.27252680349999997,0.5904583965,9.9191322755,-0.015639895427121187,-0.007859217621730466,-0.04892157893340106,9.940427409095099,0.051958584622119906,0.025105024000000004,0.011964112999999998,0.021574630000001704
156372.0,0.26419115099999996,0.6132098245,9.8975576455,-0.03589095073801139,0.023315853477392248,-0.031333896061054196,9.920053961502706,0.05304340119772235,-0.008335652500000013,0.022751427999999962,-0.021574630000001704
156382.0,0.22584714949999998,0.619191881,9.8952040495,-0.03589095073801139,0.039570104801215436,-0.013215633096101064,9.917130063767178,0.05503277656986148,-0.038344001499999975,0.005982056500000055,-0.0023535959999989586
156392.0,0.1791674955,0.5868299359999999,9.929919590499999,-0.014041173832294382,0.042235222569010786,0.010499900779997887,9.948857896212267,0.045729820734750175,-0.04667965399999999,-0.032361945000000114,0.03471554099999885
156402.0,0.14445195449999998,0.564078508,9.9681655255,0.011007791592328238,0.040636500974183976,0.031817352263856624,9.985157729055313,0.05277158887362905,-0.034715541000000016,-0.02275142799999985,0.03824593500000084
156412.0,0.08698498549999999,0.5245577084999999,10.025632494499998,0.019001399566462265,0.039570104801215436,0.043807764225057666,10.03972280952136,0.06201585753548658,-0.05746696899999999,-0.03952079950000009,0.05746696899999826
156422.0,0.025889555999999998,0.46356034549999997,10.083099463499998,0.011007791592328238,0.03797138320638864,0.049403289806951495,10.093782901066572,0.06327465892516673,-0.06109542949999999,-0.06099736299999997,0.057466969000000034
156432.0,-0.0375594695,0.4192342875,10.097515239,-0.00684518132632176,0.03210882224893968,0.047272242790266414,10.106284287679719,0.05755430402694591,-0.06344902549999999,-0.044326057999999946,0.014415775500001615
156442.0,-0.11414940599999998,0.3929524655,10.111832948,-0.02256710722828668,0.020917771085152036,0.03954392486243552,10.120109055503852,0.05010538363638939,-0.07658993649999998,-0.02628182200000001,0.014317709000000178
156452.0,-0.128467115,0.389324005,10.054365979,-0.0273632720127671,0.004663519761328849,0.02702118747937621,10.06272091534781,0.03873811617263526,-0.014317709000000012,-0.0036284605000000414,-0.057466969000000034
156462.0,-0.148864947,0.37020103749999994,9.994545414,-0.024698154244971758,-0.014521139376592822,0.01849350875413192,10.002507066386897,0.034100911687842086,-0.020397832000000005,-0.019122967500000032,-0.05982056500000077
156472.0,-0.127290317,0.340290755,9.923937533999998,-0.018303267865664535,-0.029176669105589206,0.012897983172238095,9.930585924379004,0.03677833063871508,0.02157463000000001,-0.02991028249999994,-0.07060788000000073
156482.0,-0.15720059949999998,0.343821149,9.9106985565,-0.013507103081184116,-0.04036772026937685,0.0057037359955174685,9.917906577942444,0.042947960111033835,-0.029910282499999996,0.0035303939999999923,-0.013238977499998583
156492.0,-0.18112882549999998,0.3235213835,9.849701193499998,-0.015372860051566056,-0.04942772441647941,-0.0033562681515850955,9.856677297053203,0.051871854632949216,-0.023928225999999997,-0.02029976550000001,-0.060997363000002025
156502.0,-0.11532620399999999,0.2336924695,9.739572514,-0.020968385633459874,-0.046497316602380934,-0.014814354690927869,9.743058301123643,0.05311439307950485,0.06580262149999999,-0.08982891399999998,-0.11012867949999716
156512.0,-0.07943386499999999,0.285177382,9.692892859999999,-0.02230007185273155,-0.029176669105589206,-0.030269245217337655,9.697412431857902,0.047589898410916494,0.035892338999999995,0.05148491249999998,-0.04667965400000185
156522.0,-0.0518771785,0.36892617299999997,9.6437615435,-0.020968385633459874,-0.004396484385773717,-0.04545710036819231,9.650955106654628,0.050252863051887385,0.02755668649999999,0.08374879099999999,-0.04913131649999869
156532.0,-0.018338435499999996,0.44796777199999993,9.638956284999999,-0.016971581646392862,0.013990559283986546,-0.05291838292046807,9.649377683929064,0.05730729084135986,0.03353874300000001,0.07904159899999996,-0.0048052585000011305
156542.0,0.000784532,0.51386846,9.7467313685,-0.008710938296703698,0.0470313873534912,-0.04519006499263718,9.760268120260587,0.06580253655021122,0.019122967499999997,0.06590068800000004,0.10777508350000176
156552.0,-0.011179581,0.5437787424999999,9.822144506999999,-0.00018500490071139895,0.07527605063851543,-0.027871162825097447,9.837191825933683,0.08027029178823708,-0.011964112999999998,0.02991028249999994,0.07541313849999831
156562.0,-0.044718324,0.530539765,9.9442372995,-0.0033824480903650108,0.0726126781999721,-0.009484119155337187,9.958480187233123,0.073307506482006,-0.033538742999999996,-0.013238977499999915,0.12209279250000016
156572.0,-0.0410898635,0.46836560399999994,10.056817641499999,-0.015105824676010923,0.053960344483908684,0.0035726889788323924,10.067801934398506,0.05614863152832797,0.0036284604999999998,-0.06217416100000006,0.11258034199999933
156582.0,-0.0661948875,0.41325223099999997,10.029260954999998,-0.02976135440500731,0.02971073985669947,0.00836885376331281,10.037989563306244,0.0428777797018996,-0.025105023999999997,-0.055113372999999966,-0.027556686500000538
156592.0,-0.08659271949999998,0.3809883525,9.998075808,-0.03882135855210987,0.0004014257279586958,0.007302457590344274,10.005706885888968,0.0395042391308239,-0.02039783199999999,-0.032263878499999954,-0.031185146999998636
156602.0,-0.09738003449999999,0.3964828595,9.9083449605,-0.04361752333659029,-0.027844982886317534,0.0017069320084504543,9.91675256247035,0.05177591168524981,-0.010787315000000006,0.01549450699999999,-0.08973084750000027
156612.0,-0.043541526000000004,0.375006296,9.836462216,-0.036423276159869664,-0.04170115181790052,-0.0030892327760299633,9.843704308507121,0.05545434580176936,0.053838508499999986,-0.02147656349999999,-0.07188274449999987
156622.0,-0.0279489525,0.3713778355,9.787428966,-0.016172220848979457,-0.0454309204294124,-0.010550515328305723,9.794512157588164,0.0493641836957179,0.015592573500000005,-0.0036284605000000414,-0.04903324999999903
