timestamp,ax,ay,az,gx,gy,gz,acc_mag,gyro_mag,dax,day,daz
139232.0,-0.4814084485,-0.25291350349999997,10.043578663999998,0.1268714739859718,0.060337777570695965,-0.01857204857047166,10.058289701261135,0.14171075930093613,0.0,0.0,0.0
139242.0,-0.44424124499999995,-0.11287454149999998,10.0387734055,0.10715274409693987,0.040619047681664036,-0.022568852557538675,10.049231932483798,0.11679456625988,0.03716720350000002,0.140038962,-0.004805258499997578
139252.0,-0.4550285599999999,-0.10453888899999998,10.061524833499998,0.09249721436794348,0.04408352624687277,-0.022835887933093806,10.072351331484928,0.10497890135584782,-0.010787314999999964,0.008335652499999999,0.02275142799999763
139262.0,-0.5184775855,-0.0542307745,10.0603480355,0.08743575953715992,0.03875503604053409,-0.025233970325334015,10.073845471266546,0.09891267928189482,-0.06344902550000009,0.05030811449999998,-0.001176797999997703
139272.0,-0.5435826094999999,-0.0218688295,10.010039920999999,0.07517831220040376,0.021701423919297493,-0.022835887933093806,10.024812193705586,0.08151201263077273,-0.02510502399999992,0.032361945,-0.05030811450000172
139282.0,-0.5065134725,-0.029027683999999998,9.974147581999999,0.06345319028550585,0.005447172595474302,-0.012177162191164437,9.987042529787226,0.06484028320206062,0.03706913699999992,-0.007158854499999999,-0.035892339000000106
139292.0,-0.48258524649999995,-0.09610516999999999,9.925114332,0.0514627783243048,-0.008676031711663812,0.004344124508213886,9.937304424596842,0.052369480586131424,0.023928226000000052,-0.06707748599999999,-0.04903324999999903
139302.0,-0.48376204449999993,-0.176323567,9.819790910999998,0.043734460396473905,-0.014271557293557632,0.020598375832037077,9.833280696275104,0.050405093598483594,-0.001176797999999979,-0.080218397,-0.10532342100000136
139312.0,-0.5327952945,-0.2397725925,9.648566802,0.0405370172068203,-0.020933479048419988,0.027792623008757705,9.666240378482836,0.053421813922812575,-0.04903325000000003,-0.0634490255,-0.17122410899999885
139322.0,-0.571139296,-0.29841635949999995,9.556384291999999,0.0514627783243048,-0.017201965107656113,0.026459191460234035,9.578086090416859,0.06036898184623355,-0.03834400150000006,-0.05864376699999996,-0.09218251000000066
139332.0,-0.5747677565,-0.36549384549999997,9.513333098499999,0.07437895140299035,0.0014503686084072877,0.0168668618912732,9.537685797300412,0.07628121007802602,-0.003628460499999986,-0.06707748600000002,-0.043051193500000196
139342.0,-0.5687857,-0.33313190049999997,9.5611895505,0.0980927399498373,0.03502352209977021,-0.00045204027626653137,9.583884372019813,0.1041587109729708,0.005982056500000055,0.032361945,0.047856452000001326
139352.0,-0.5639804414999999,-0.269682875,9.626992172,0.11168361883511715,0.06966481709335366,-0.01590693080267632,9.647268062576684,0.13258751036322874,0.00480525850000002,0.06344902549999998,0.0658026214999996
139362.0,-0.561528779,-0.1919161405,9.739572514,0.11488106202477076,0.09417796643761402,-0.022568852557538675,9.7576338899394,0.1502547865461447,0.0024516624999999515,0.07776673449999999,0.11258034200000111
139372.0,-0.569962498,-0.1356259695,9.872452621499999,0.10848617564546353,0.10110692356803151,-0.016706291600089723,9.889821657466399,0.1492345820465128,-0.008433719000000006,0.056290171,0.13288010749999835
139382.0,-0.571139296,-0.1248386545,9.956201412499999,0.09835977532539245,0.08138819367899958,-0.006314601233715485,9.973351059265873,0.12782236760885346,-0.0011767980000000344,0.010787315000000006,0.08374879099999966
139392.0,-0.5950675219999999,-0.1595541955,9.974147581999999,0.09303128511905376,0.041418408479077434,0.0008796459430051422,9.993156802760442,0.101838491489355,-0.023928225999999886,-0.034715541,0.017946169500000053
139402.0,-0.5902622635,-0.21221590599999998,9.934626782499999,0.09169785357053008,0.0006510078109938849,-0.0012514010736799342,9.954408793998658,0.09170870277819634,0.004805258499999909,-0.052661710499999986,-0.03952079949999998
139412.0,-0.5316184964999999,-0.22300322099999997,9.858036846,0.09303128511905376,-0.024930283035487,-0.01350884841043611,9.874879195184663,0.09725650625283794,0.05864376700000007,-0.010787314999999992,-0.07658993649999957
139422.0,-0.44669290749999996,-0.220649625,9.8077287315,0.09542936751129395,-0.023331561440660196,-0.028164378139432494,9.820374925699834,0.10219764253076413,0.08492558899999997,0.0023535959999999856,-0.050308114499999945
139432.0,-0.361669252,-0.18465921949999997,9.743102908,0.09782744990353417,0.0003839724354387525,-0.03722438228653506,9.751561821116995,0.10467097031208687,0.08502365549999996,0.03599040550000002,-0.06462582350000012
139442.0,-0.305379081,-0.14994367849999998,9.714369423499999,0.09729337915242389,0.029695031893431523,-0.03722438228653506,9.72032472636929,0.10832105604481214,0.056290171,0.03471554099999999,-0.028733484500000017
139452.0,-0.283804451,-0.164359454,9.708387366999998,0.10022553229577437,0.049413761782463456,-0.027632052717574223,9.713925275821909,0.11511041445000604,0.021574629999999984,-0.014415775500000005,-0.00598205650000061
139462.0,-0.280274057,-0.18828767999999999,9.7598722795,0.11008489724029034,0.04914672640690833,-0.011644836769306168,9.765711070353225,0.12111848554330824,0.0035303939999999923,-0.023928225999999997,0.0514849125000012
139472.0,-0.30655587900000003,-0.20388025349999997,9.795764618499998,0.12020955223110945,0.037955675243120685,0.0022113321622768156,9.802680660195614,0.12607878378496912,-0.02628182200000001,-0.015592573499999984,0.03589233899999833
139482.0,-0.330484105,-0.20388025349999997,9.824498102999998,0.125272752391145,0.024631831733395972,0.01393645407717472,9.832169133882688,0.12842980331076062,-0.02392822599999994,0.0,0.028733484500000017
139492.0,-0.34372308249999994,-0.18230562349999999,9.891575588999999,0.12420635621817647,0.019036306151502154,0.02299645822427729,9.899224642905306,0.12774363768012556,-0.013238977499999971,0.021574629999999984,0.06707748600000052
139502.0,-0.361669252,-0.15474893699999998,9.893929185,0.11887786601183778,0.024631831733395972,0.031257101573966446,9.901746643857315,0.12536219749540148,-0.017946169500000053,0.02755668650000001,0.002353596000000735
139512.0,-0.420313019,-0.1464132845,9.937078445000001,0.11168361883511715,0.02942799651787639,0.036318556404750006,9.947041163376303,0.1210713642216395,-0.05864376700000001,0.008335652499999985,0.04314926000000163
139522.0,-0.4753283255,-0.1595541955,9.94786576,0.10528873245580993,0.02676287875008105,0.038184313375131944,9.960493348087967,0.11515211960304049,-0.05501530649999997,-0.013140911000000005,0.010787314999998188
139532.0,-0.49572615749999993,-0.165536252,9.9430605015,0.10155721851504605,0.013707815945163465,0.03791727799957681,9.956786570497801,0.10926798626037033,-0.02039783199999995,-0.005982056499999999,-0.004805258499999354
139542.0,-0.5065134725,-0.1799520275,9.940608839,0.0996932068739161,-0.0049462631001519295,0.03498687018547833,9.955131476782729,0.10576994894976961,-0.010787315000000075,-0.014415775500000005,-0.0024516625000003955
139552.0,-0.5148491249999999,-0.189464478,9.8759830155,0.1004925676713295,-0.01613731426393957,0.03232175241768299,9.891208567833434,0.10678887932823287,-0.008335652499999902,-0.009512450499999991,-0.06462582350000012
139562.0,-0.5065134725,-0.221826423,9.8389138785,0.0996932068739161,-0.01613731426393957,0.026459191460234035,9.854440073809617,0.10439941197721327,0.008335652499999902,-0.032361945,-0.037069136999999586
139572.0,-0.466992673,-0.26487761649999997,9.850877991499999,0.10102489309318777,-0.009208357133522083,0.019799015034623675,9.865497428501893,0.10335774698555382,0.03952079949999998,-0.04305119349999997,0.011964112999999443
139582.0,-0.43825918849999995,-0.2744881335,9.8065519335,0.10369001086098312,0.0006510078109938849,0.012337732482347916,9.82017696766049,0.10442347344503894,0.028733484500000073,-0.00961051700000004,-0.044326057999999335
139592.0,-0.407172108,-0.28047019,9.793411022499999,0.1098178618647352,0.01024333737995472,0.008606218541584039,9.805883545537153,0.11062981398704033,0.031087080499999975,-0.005982056499999999,-0.013140911000000699
139602.0,-0.40952570399999993,-0.225356817,9.795764618499998,0.11568042282218416,0.01876927077594702,0.009672614714552575,9.806910902942958,0.11759168858893175,-0.002353595999999958,0.05511337300000002,0.0023535959999989586
139612.0,-0.395207995,-0.176323567,9.8389138785,0.11727914441701097,0.02649758870377791,0.015535175672001527,9.848426557990441,0.12123473761864065,0.014317708999999956,0.04903325,0.04314926000000163
139622.0,-0.39393313049999995,-0.142784824,9.866470565,0.11274826967883368,0.03449119667791194,0.025659830662820633,9.875363903537007,0.12066582728133944,0.001274864500000028,0.03353874299999998,0.027556686500000538
139632.0,-0.47415152749999995,-0.1271922505,9.885593532499998,0.10848617564546353,0.037421604492010416,0.036585591780305134,9.897775357595444,0.12044970865406837,-0.080218397,0.015592573500000012,0.019122967499997756
139642.0,-0.5327952945,-0.18465921949999997,9.905893297999999,0.1058210578776682,0.024898867108951107,0.04431216437888403,9.921929846786309,0.11739513527228992,-0.05864376700000001,-0.05746696899999998,0.020299765500000788
139652.0,-0.5424058115,-0.2397725925,9.864018902499998,0.10555402250211306,0.001715658654710426,0.043247513535167495,9.881829985854868,0.11408305123010415,-0.00961051700000004,-0.05511337300000002,-0.041874395500000716
139662.0,-0.571139296,-0.28047019,9.809003596,0.1098178618647352,-0.01613731426393957,0.03498687018547833,9.829619278957601,0.11638065467065702,-0.028733484500000017,-0.040697597500000016,-0.05501530649999786
139672.0,-0.548387868,-0.2517367055,9.799393079,0.11701210904145583,-0.017201965107656113,0.02246238747316702,9.817953215381435,0.12038396951791072,0.022751428000000073,0.028733484500000017,-0.009610517000000485
139682.0,-0.5208311815,-0.23261373800000001,9.76350074,0.12100891302852285,-0.002281145332356589,0.0083409284952809,9.780149332740761,0.12131748325997918,0.027556686499999983,0.019122967499999977,-0.035892339000000106
139692.0,-0.5148491249999999,-0.185934084,9.7910574265,0.12500571701558988,0.0131737451940532,-0.002584832622203602,9.806347262570656,0.1257245330423,0.005982056500000055,0.046679654000000015,0.027556686500000538
139702.0,-0.46463907699999996,-0.1691647125,9.8412674745,0.12873723095635375,0.024364796357840838,-0.01057844059633763,9.853682137986908,0.1314489305445992,0.05021004799999995,0.01676937149999999,0.050210048000000285
139712.0,-0.4394359865,-0.1464132845,9.873629419499999,0.13353339574083417,0.024898867108951107,-0.012177162191164437,9.884487783882642,0.1363796342582622,0.02520309049999997,0.022751428000000018,0.032361944999998116
139722.0,-0.43463072799999997,-0.06374322499999999,9.9226626695,0.13726316435234603,0.019303341527057285,-0.005782275811857213,9.932381462728063,0.13873438649337722,0.00480525850000002,0.0826700595,0.049033250000000805
139732.0,-0.407172108,-0.053053976499999995,9.999350672499999,0.13486508196010583,0.01637118838370681,0.0022113321622768156,10.007777861322753,0.13587308832558712,0.02745861999999999,0.010689248499999991,0.07668800299999923
139742.0,-0.39275633249999997,-0.06374322499999999,9.987288493000001,0.12314170537445993,0.015039502164435139,0.011004300933824247,9.995211462388502,0.12454381103421602,0.014415775500000005,-0.010689248499999991,-0.012062179499997328
139752.0,-0.3688281065,-0.060212830999999994,9.9669887275,0.10715274409693987,0.015571827586293408,0.019799015034623675,9.973992382755938,0.11007358165437693,0.023928225999999997,0.0035303939999999923,-0.020299765500000788
139762.0,-0.374810163,-0.082964259,9.9442372995,0.0956946575575971,0.013440780569608332,0.027792623008757705,9.951644145332295,0.10055124047515805,-0.005982056499999999,-0.022751428000000004,-0.022751428000001184
139772.0,-0.397561591,-0.141608026,9.887947128499999,0.09463000671388055,0.008377580409572781,0.03418750938806493,9.89694935157685,0.1009643888821547,-0.022751428000000018,-0.058643767,-0.056290171000000555
139782.0,-0.443064447,-0.1726951065,9.824498102999998,0.10155721851504605,0.0046478117980608994,0.03685262715586027,9.835999831224838,0.10813688970611211,-0.04550285599999998,-0.031087080500000003,-0.06344902550000064
139792.0,-0.4394359865,-0.17151830849999997,9.8065519335,0.10768681484805014,0.007311184236604247,0.037117917202163404,9.817890982324794,0.11413870195725226,0.003628460499999986,0.0011767980000000344,-0.017946169499998277
139802.0,-0.44669290749999996,-0.18112882549999998,9.78507537,0.11221594425697541,0.01583886296184854,0.03525390556103346,9.796940451060138,0.11868498465566357,-0.007256920999999972,-0.009610517000000013,-0.021476563500000267
139812.0,-0.4550285599999999,-0.1799520275,9.7910574265,0.1159457128684873,0.03129375348825833,0.03498687018547833,9.803276964956046,0.1250871233394593,-0.008335652499999957,0.001176797999999979,0.00598205650000061
139822.0,-0.47062113349999996,-0.18112882549999998,9.8400906765,0.11941019143369605,0.0419524792301877,0.03578623098289173,9.853003421519047,0.13152740649671515,-0.01559257350000004,-0.001176797999999979,0.04903324999999903
139832.0,-0.5065134725,-0.2193747605,9.864018902499998,0.12234234457704651,0.04168544385463256,0.036585591780305134,9.879450900340855,0.1343273279414194,-0.03589233900000005,-0.03824593500000001,0.023928225999998887
139842.0,-0.549564666,-0.25409030149999995,9.899911241499998,0.12207530920149139,0.03315951045864027,0.034719834809923196,9.918408430439335,0.13117698418443974,-0.04305119349999997,-0.03471554099999996,0.035892339000000106
139852.0,-0.5412290135,-0.2733113355,9.94786576,0.12234234457704651,0.02303311013856917,0.02965663464988765,9.966326359805167,0.12797534691502563,0.008335652500000013,-0.019221034000000026,0.04795451850000099
139862.0,-0.549564666,-0.225356817,9.9465908955,0.11861083063628264,0.019036306151502154,0.02246238747316702,9.964310184831039,0.12221075626603958,-0.008335652500000013,0.04795451849999999,-0.0012748644999991399
139872.0,-0.5508395304999999,-0.20741064749999996,9.963360267,0.11221594425697541,0.021701423919297493,0.017400932642383467,9.980730994025045,0.11561212048238903,-0.001274864499999917,0.017946169500000025,0.016769371500000574
139882.0,-0.5268132379999999,-0.202605389,9.9801296385,0.10688745405063674,0.02676287875008105,0.015002850250143257,9.996077667397849,0.11120370959660808,0.02402629249999999,0.004805258499999965,0.016769371499998798
139892.0,-0.5113187309999999,-0.19064127599999997,10.025632494499998,0.10608809325322333,0.027829274923049586,0.015535175672001527,10.040472989633537,0.11077226076959534,0.01549450699999999,0.011964113000000026,0.045502855999998815
139902.0,-0.5040618099999999,-0.185934084,10.0017042685,0.1098178618647352,0.022766074763014035,0.016601571844970065,10.01612390430672,0.11337490521442965,0.007256920999999972,0.004707191999999971,-0.023928225999998887
139912.0,-0.48493884249999997,-0.1726951065,10.052012383,0.11221594425697541,0.014507176742576868,0.0168668618912732,10.065184659446622,0.1144000321354162,0.019122967499999977,0.013238977499999999,0.050308114499999945
139922.0,-0.4753283255,-0.1691647125,10.056817641499999,0.10928553644287693,0.008377580409572781,0.0168668618912732,10.069465467012806,0.1108963631467936,0.009610516999999985,0.0035303939999999923,0.004805258499999354
139932.0,-0.46218741449999995,-0.1595541955,10.044755462,0.10315594010987285,0.007845254987714512,0.015268140296446395,10.056648897063209,0.10457443336631522,0.013140911000000033,0.009610517000000013,-0.012062179499999104
139942.0,-0.44904650349999997,-0.16318265599999998,10.071135350499999,0.09463000671388055,0.011575023599226394,0.012870057904206186,10.082461930977747,0.09620009216445351,0.013140910999999977,-0.003628460499999986,0.026379888499999282
139952.0,-0.4394359865,-0.1583773975,10.0723121485,0.09036616735125841,0.014240141367021734,0.009939650090107707,10.083137378965477,0.0920196852408341,0.009610516999999985,0.0048052584999999925,0.0011767980000012557
139962.0,-0.42992353599999994,-0.14759008249999997,10.063976496,0.08557000256677799,0.01024333737995472,0.007541567697867498,10.074236447061363,0.08651026842693003,0.009512450500000047,0.01078731500000002,-0.008335652499999568
139972.0,-0.395207995,-0.12248505849999998,10.04004827,0.0794404062337739,0.0049131018443640375,0.010471975511965976,10.048570107870953,0.0802781351517543,0.03471554099999996,0.02510502399999999,-0.023928226000000663
139982.0,-0.38442067999999996,-0.141608026,9.9813064365,0.07038214741592334,0.002515019452123829,0.01899965423721027,9.989710219598745,0.07294490289838536,0.01078731500000002,-0.019122967500000018,-0.058741833499999174
139992.0,-0.38079221950000003,-0.128467115,9.934626782499999,0.05945638629843883,0.004380776422505767,0.029124309228029378,9.942751923971272,0.06635117528531838,0.0036284604999999304,0.013140911000000005,-0.04667965400000185
140002.0,-0.373633365,-0.16788984799999998,9.884416734499998,0.05412789609210014,0.008644615785127915,0.03978303496995875,9.892900640043157,0.06772922846785302,0.007158854500000034,-0.03942273299999999,-0.050210048000000285
140012.0,-0.4058972435,-0.1942697365,9.8030215395,0.057857664703612026,0.011307988223671262,0.04377983895702576,9.8133442111597,0.07343060847987977,-0.03226387850000001,-0.02637988850000003,-0.08139519499999892
140022.0,-0.43345393,-0.20025179299999998,9.764677537999999,0.067717029648128,0.014507176742576868,0.04617792134926597,9.776344434969232,0.08323733958713964,-0.027556686499999983,-0.0059820564999999715,-0.0383440015000005
140032.0,-0.4359055925,-0.20623384949999998,9.743102908,0.07517831220040376,0.01956863157336042,0.044579199754439164,9.755029490582302,0.08956570223976075,-0.002451662500000007,-0.005982056499999999,-0.021574629999999928
140042.0,-0.47062113349999996,-0.18711088199999998,9.752713425,0.07917511618747078,0.027829274923049586,0.04298047815961236,9.765854488145667,0.09428939001219114,-0.03471554099999996,0.019122967500000004,0.009610517000000485
140052.0,-0.48493884249999997,-0.221826423,9.7814469095,0.08130616320415585,0.033424800504943404,0.038716638796990215,9.795972452302697,0.09605668942615449,-0.014317709000000012,-0.034715541000000016,0.028733484500000017
140062.0,-0.5304416985,-0.20741064749999996,9.809003596,0.08423831634750632,0.027296949501191315,0.03232175241768299,9.825524877508828,0.09426512118744206,-0.045502856000000036,0.014415775500000033,0.027556686500000538
140072.0,-0.537600553,-0.178677163,9.831755023999998,0.08903448113198674,0.015039502164435139,0.02725855225764744,9.848063095609858,0.09432048625287641,-0.007158854499999978,0.02873348449999996,0.02275142799999763
140082.0,-0.512495529,-0.164359454,9.835285418,0.09143256352422693,0.002515019452123829,0.02672622683578917,9.85000025131409,0.09529181599872265,0.02510502400000003,0.014317709000000012,0.0035303940000019907
140092.0,-0.47297472949999997,-0.13199750899999999,9.811357192,0.09143256352422693,0.0011833332328521555,0.028857273852474243,9.82363773691487,0.0958856412835022,0.03952079949999998,0.032361945,-0.023928226000000663
140102.0,-0.4633642125,-0.140431228,9.767031134,0.09063320272681354,0.009176941206986186,0.03578623098289173,9.779024721093032,0.09787363288647787,0.009610516999999985,-0.008433719000000006,-0.044326057999999335
140112.0,-0.49092089899999997,-0.16073099349999997,9.786252167999999,0.08929977117828988,0.020367992370773826,0.041648791940340685,9.799875982737289,0.10061772267250249,-0.027556686499999983,-0.020299765499999983,0.019221033999999193
140122.0,-0.5076902704999999,-0.2146675685,9.819790910999998,0.09063320272681354,0.025963517952667648,0.044579199754439164,9.835249112833099,0.10428704019073685,-0.016769371499999963,-0.053936575000000014,0.03353874299999937
140132.0,-0.5352469569999999,-0.2637008185,9.797039482999999,0.09729337915242389,0.024898867108951107,0.042181117362198955,9.815192818183258,0.10892750741722736,-0.027556686499999983,-0.04903325,-0.022751427999999407
140142.0,-0.571139296,-0.2840986505,9.8173392485,0.0996932068739161,0.01876927077594702,0.0355191956073366,9.838041576390589,0.10748318137670884,-0.035892339000000106,-0.020397832000000005,0.020299765500000788
140152.0,-0.5879086675,-0.290080707,9.816162450499998,0.10209128926615632,0.014240141367021734,0.025394540616517497,9.838029714963326,0.1061616487405067,-0.01676937150000002,-0.005982056499999999,-0.0011767980000012557
140162.0,-0.5531931265,-0.25409030149999995,9.799393079,0.09995849692021924,0.014772466788880006,0.01580221104755666,9.81828341581543,0.10227236555184184,0.03471554100000007,0.035990405500000044,-0.016769371499998798
140172.0,-0.5424058115,-0.1954465345,9.823321305,0.09915913612280584,0.021701423919297493,0.010739010887521109,9.840225854799469,0.10207258413300063,0.010787314999999964,0.05864376699999996,0.023928226000000663
140182.0,-0.4933725615,-0.14396162199999998,9.844895935,0.09862681070094757,0.03129375348825833,0.010204940136410845,9.858301953380687,0.10397445647663736,0.04903325000000003,0.05148491250000001,0.021574629999999928
140192.0,-0.48013358399999995,-0.14523648649999998,9.884416734499998,0.09596169293315222,0.04035375763536089,0.010204940136410845,9.897136761546703,0.10460025367597238,0.013238977500000026,-0.0012748645000000003,0.039520799499998205
140202.0,-0.5040618099999999,-0.1583773975,9.934626782499999,0.09676105373056562,0.03875503604053409,0.007274532322312365,9.948666795903138,0.10448719135884968,-0.023928225999999997,-0.013140911000000005,0.050210048000000285
140212.0,-0.477779988,-0.142784824,9.950219356,0.09862681070094757,0.022766074763014035,0.0038100537571036214,9.962706783571171,0.10129194666303788,0.026281821999999955,0.015592573499999984,0.015592573500001095
140222.0,-0.4058972435,-0.16190779149999998,9.940608839,0.09729337915242389,0.001715658654710426,0.0016790067404185449,9.950209585492871,0.09732298893453266,0.07188274449999998,-0.019122967499999977,-0.009610517000000485
140232.0,-0.36402284799999995,-0.10453888899999998,9.9095217585,0.09542936751129395,-0.012405800323175694,0.00514348530562729,9.916756652019062,0.09636972297538951,0.04187439550000005,0.0573689025,-0.031087080499998976
140242.0,-0.325776913,-0.09012311349999999,9.844895935,0.09249721436794348,-0.01347219649614423,0.015268140296446395,9.850696865887727,0.09471193616631422,0.03824593499999995,0.014415775499999992,-0.06462582350000012
140252.0,-0.329307307,-0.0912999115,9.76350074,0.08770104958346306,-0.005745623897565333,0.030190705400997914,9.7694792940189,0.09292989284736727,-0.0035303939999999923,-0.0011767980000000067,-0.0813951950000007
140262.0,-0.33646616149999997,-0.109246081,9.704856973,0.08423831634750632,0.007311184236604247,0.04351280358147063,9.711302335445804,0.09509422396509562,-0.007158854499999978,-0.017946169499999998,-0.058643766999999514
140272.0,-0.3580407915,-0.16073099349999997,9.662884511,0.08343895555009292,0.020635027746328957,0.05523792549636853,9.670851293116504,0.10217187522270749,-0.02157463000000004,-0.05148491249999998,-0.04197246200000038
140282.0,-0.408348906,-0.220649625,9.6221869135,0.08610232798863626,0.033424800504943404,0.06030112565640409,9.633375113861948,0.11030436949317736,-0.0503081145,-0.059918631500000014,-0.04069759749999946
140292.0,-0.44669290749999996,-0.24575464899999996,9.60071035,0.09516233213573883,0.040886083057219164,0.05870240406157728,9.614237833843774,0.11905256607013213,-0.03834400149999995,-0.025105023999999976,-0.021476563500000267
140302.0,-0.48493884249999997,-0.2613472225,9.650920398,0.10848617564546353,0.04781504018763665,0.050708796087443254,9.666629846032494,0.12894537748582371,-0.03824593500000001,-0.015592573500000012,0.050210048000000285
140312.0,-0.5316184964999999,-0.267329279,9.72035148,0.12287466999890478,0.05207713422100681,0.039250709548100476,9.738547944327726,0.13910726305999213,-0.04667965399999996,-0.005982056499999999,0.06943108199999948
140322.0,-0.581926611,-0.290080707,9.812533989999999,0.13486508196010583,0.04808033023393979,0.023261748270580425,9.834053523449466,0.1450566007464487,-0.050308114500000056,-0.022751428000000018,0.09218250999999889
140332.0,-0.5975191845,-0.25409030149999995,9.905893297999999,0.1361985135086295,0.03475823205346707,0.009672614714552575,9.927150300490228,0.14089616479116518,-0.015592573499999984,0.035990405500000044,0.09335930800000014
140342.0,-0.616642152,-0.22663168149999996,9.974147581999999,0.13353339574083417,0.011842058974781525,-0.0007190756518216638,9.995760573873262,0.13405938687251062,-0.019122967500000088,0.02745861999999999,0.068254284
140352.0,-0.6189957479999999,-0.20388025349999997,9.992093751499999,0.13033595255118055,-0.015070918090971037,-0.004982915014443811,10.01332414498675,0.13129898149479116,-0.002353595999999847,0.02275142799999999,0.017946169500000053
140362.0,-0.6309598609999999,-0.175146769,10.0375966075,0.12580507781300326,-0.03745302041854632,-0.007648032782239152,10.05893296487156,0.13148436693176135,-0.011964112999999998,0.02873348449999996,0.04550285600000059
140372.0,-0.605854837,-0.1691647125,10.013668381499999,0.11967722680925118,-0.05024453850641276,-0.01057844059633763,10.03340576465062,0.13022693911754812,0.02510502399999992,0.005982056499999999,-0.023928226000000663
140382.0,-0.5687857,-0.2146675685,10.030437753,0.11168361883511715,-0.05797111110499165,-0.016706291600089723,10.048844752223902,0.12693691589873393,0.03706913700000003,-0.04550285599999998,0.016769371500000574
140392.0,-0.49092089899999997,-0.25291350349999997,10.052012383,0.10555402250211306,-0.06916216226877929,-0.024167574152365482,10.06717048218182,0.12848785155212003,0.07786480099999998,-0.03824593499999998,0.021574629999999928
140402.0,-0.4359055925,-0.20986230999999997,10.042401866,0.09995849692021924,-0.0910119391744963,-0.028698448890542762,10.054048493665206,0.13819723277828247,0.05501530649999997,0.0430511935,-0.009610516999998708
140412.0,-0.3832438819999999,-0.141608026,10.0603480355,0.0964940183550105,-0.10939898284425656,-0.02630036649830255,10.068640985828562,0.1482259839016091,0.05266171050000007,0.06825428399999997,0.017946169500000053
140422.0,-0.35568719549999994,-0.097281968,10.0460303265,0.08317192017453777,-0.1259185242143829,-0.02097013096271187,10.052795754579833,0.15235743972133786,0.027556686499999983,0.044326058,-0.014317709000000178
140432.0,-0.2970434285,-0.13082071099999998,10.0221021005,0.06478662183402951,-0.13577788915889885,-0.01564164075637318,10.027356549444528,0.15125343790692233,0.05864376699999996,-0.03353874299999998,-0.023928226000000663
140442.0,-0.273017136,-0.17396997099999997,9.990916953500001,0.04613254278871412,-0.13657724995631226,-0.01883908394602679,9.996160536880804,0.1453838635946472,0.02402629249999999,-0.043149259999999995,-0.031185146999998636
