timestamp,ax,ay,az,gx,gy,gz,acc_mag,gyro_mag,dax,day,daz
391952.0,0.4531652965,-1.941128301,9.4356644305,-0.10054841820739333,-0.027501153023674653,-0.09171181620454603,9.643915237697703,0.13884291502693563,0.0,0.0,0.0
391962.0,0.2568361635,-1.5209133485,9.350640775,-0.10401115144335006,-0.010182250856134918,-0.11889008331660172,9.477005071836752,0.15829355567456707,-0.196329133,0.42021495250000007,-0.0850236554999988
391972.0,0.32391364949999996,-1.48864947,9.427328778,-0.10374586139704695,0.008204792813625343,-0.10343519279019195,9.549634819477165,0.1467288706753854,0.06707748599999996,0.03226387850000001,0.07668800299999923
391982.0,0.43639592499999996,-1.5568056875,9.524218479999998,-0.1002813828318382,0.02179392636965319,-0.09783966720829813,9.660477369507287,0.14178833326018783,0.1124822755,-0.06815621750000012,0.09688970199999858
391992.0,0.388539473,-1.511400898,9.569721336,-0.11014074777635416,0.03298497753344083,-0.09650798098902645,9.696126136001324,0.15010923841720852,-0.04785645199999994,0.04540478950000004,0.04550285600000237
392002.0,0.3598059885,-1.4958083245,9.609242135499999,-0.12000011272087012,0.029787534343787225,-0.09357757317492797,9.731620487445682,0.15506155699145047,-0.028733484500000017,0.015592573499999984,0.039520799499998205
392012.0,0.3968751255,-1.5173829545,9.590119168,-0.11920075192345672,0.016465436163314504,-0.08798030226378216,9.717527800438175,0.14906529922685605,0.037069136999999974,-0.021574629999999928,-0.019122967499999532
392022.0,0.375398562,-1.481392549,9.520688086,-0.10854202618152736,-5.585053606381855e-05,-0.07865500807037645,9.64255928659434,0.13404471217256106,-0.02147656349999999,0.03599040549999999,-0.06943108199999948
392032.0,0.34548827949999994,-1.477862155,9.5374574575,-0.0949511472962475,-0.018441148876572087,-0.06772924695289195,9.657459989773475,0.11808068105142097,-0.02991028250000005,0.0035303939999999923,0.016769371500000574
392042.0,0.3466650775,-1.4742336944999999,9.495484995499998,-0.08615817852470008,-0.0325643531837102,-0.060802035151726455,9.615496709048514,0.11036555759637734,0.0011767980000000344,0.003628460500000097,-0.04197246200000215
392052.0,0.32146198699999995,-1.4873746055,9.511077569,-0.08988969246546395,-0.04082499653339937,-0.061868431324694995,9.632041193314489,0.11650982768876735,-0.025203090500000025,-0.013140911000000033,0.015592573500001095
392062.0,0.35617752799999997,-1.5268954049999999,9.520688086,-0.10134777900480672,-0.044554765144911246,-0.06959500392327389,9.648926035583683,0.13076683057031643,0.034715541000000016,-0.03952079949999998,0.009610517000000485
392072.0,0.36461124699999997,-1.5137544939999998,9.5374574575,-0.11466987718527945,-0.03869220418746229,-0.07865500807037645,9.663720235145803,0.14433598890478538,0.008433719000000006,0.013140911000000033,0.016769371500000574
392082.0,0.402857182,-1.4610927835,9.49675986,-0.12639499910017735,-0.03389603940298187,-0.08371820823041201,9.616939943120782,0.15534920557908546,0.03824593500000001,0.05266171049999979,-0.04069759750000124
392092.0,0.493862894,-1.4969851225,9.433310834499999,-0.13199052468207118,-0.028834584572198316,-0.08025372966520326,9.564110952689301,0.15714195174578693,0.09100571200000002,-0.035892338999999884,-0.06344902550000064
392102.0,0.49268609599999996,-1.4873746055,9.394966833,-0.12479627750535054,-0.00778416846389471,-0.0679962823284471,9.524727009182365,0.142331298625273,-0.0011767980000000344,0.00961051700000004,-0.038344001499998726
392112.0,0.4963145565,-1.5161080899999997,9.3878079785,-0.11307115559045265,0.01539903999034597,-0.054939474194277506,9.522386807977583,0.12665134221131774,0.0036284605000000414,-0.028733484499999795,-0.007158854500000089
392122.0,0.4531652965,-1.5328774615,9.4344876325,-0.10587690841373201,0.03724881689606298,-0.046945866220143476,9.568940849734732,0.1216606281858097,-0.04314926000000002,-0.016769371500000352,0.04667965400000007
392132.0,0.35019547149999997,-1.5783803175,9.513431164999998,-0.11227179479303923,0.042577307102401665,-0.0525413918020373,9.649833875571316,0.13106632229004417,-0.10296982500000001,-0.045502855999999925,0.07894353249999853
392142.0,0.29155170449999995,-1.5472932369999999,9.556580425,-0.12079947351828352,0.029522244297484086,-0.06399947834138008,9.685419359901562,0.13985710185265385,-0.05864376700000001,0.031087080500000086,0.04314926000000163
392152.0,0.2436952525,-1.5400363160000001,9.544616312,-0.12319755591052374,0.0012758356832078548,-0.0719930863155141,9.671132290170908,0.1426964260808596,-0.047856451999999966,0.00725692099999975,-0.011964112999999443
392162.0,0.282039254,-1.562787744,9.5158828275,-0.12106476356458666,-0.021373302019922557,-0.08025372966520326,9.647480378850371,0.14681333775021813,0.03834400150000003,-0.02275142799999985,-0.028733484500000017
392172.0,0.33823135849999997,-1.5268954049999999,9.483520882499999,-0.11546923798269285,-0.03069859621332826,-0.08611629062265222,9.611606440054462,0.1472805630094407,0.05619210449999995,0.035892339000000106,-0.03236194500000167
392182.0,0.4315906665,-1.5568056875,9.428505576,-0.11333819096600778,-0.022172662817335962,-0.08664861604451048,9.56590988085845,0.14437851353400033,0.09335930800000003,-0.029910282500000163,-0.05501530649999964
392192.0,0.4531652965,-1.5616109459999998,9.421346721499999,-0.11440284180972432,0.0063390358432434055,-0.08185245126003006,9.560636044706321,0.14081199297942745,0.021574629999999984,-0.004805258499999798,-0.007158854500000089
392202.0,0.4149193615,-1.458641121,9.4237003175,-0.1213317989401418,0.04017922471016146,-0.07598989030258112,9.54494209885368,0.14869512083642475,-0.03824593500000001,0.10296982499999974,0.002353596000000735
392212.0,0.36461124699999997,-1.4610927835,9.5386342555,-0.1274596499438939,0.056700511409539786,-0.06373244296582493,9.656773630133031,0.15337123147551318,-0.0503081145,-0.0024516624999999515,0.11493393800000007
392222.0,0.286746446,-1.4406949515,9.602083280999999,-0.12639499910017735,0.04550946024575214,-0.05174203100462389,9.71379579787587,0.1439584820074072,-0.07786480099999998,0.020397832000000005,0.06344902549999887
392232.0,0.2101565095,-1.4730568965,9.602083280999999,-0.12106476356458666,0.012468632176247491,-0.044015458406045,9.716690059586707,0.12941987615505626,-0.07658993649999998,-0.03236194499999989,0.0
392242.0,0.22329742049999998,-1.5448415745,9.5505983685,-0.11546923798269285,-0.02377138441216277,-0.050942670207210494,9.677309875409614,0.1284265521028077,0.013140910999999977,-0.07178467799999999,-0.051484912499999425
392252.0,0.24732371299999997,-1.6142726565,9.485972545,-0.1120047594174841,-0.04215668275267104,-0.06906267850141562,9.625524419637063,0.13817346197684902,0.02402629249999999,-0.06943108200000014,-0.06462582350000012
392262.0,0.2760571975,-1.6454578034999998,9.4452749475,-0.11014074777635416,-0.04055796115784423,-0.0898460592341641,9.59150445932554,0.14781152490223687,0.028733484500000045,-0.031185146999999747,-0.04069759749999946
392272.0,0.352647134,-1.620254713,9.400948889499999,-0.10907435160338563,-0.026436502179958108,-0.10503391438501875,9.546068581311804,0.1537147552977572,0.07658993649999996,0.025203090499999803,-0.04432605800000111
392282.0,0.39814998999999995,-1.5975032849999997,9.400948889499999,-0.10907435160338563,-0.014444344889505072,-0.11116351071802284,9.544023270252124,0.1564070950824864,0.04550285599999998,0.022751428000000296,0.0
392292.0,0.43884758749999997,-1.5616109459999998,9.43203597,-0.10614394378928714,0.0023422318561763904,-0.10503391438501875,9.570502520301398,0.14934572650146666,0.040697597500000016,0.035892338999999884,0.031087080500000752
392302.0,0.45081170049999997,-1.5233650109999999,9.4536106,-0.09815033581515312,0.01353328301996403,-0.08718094146636875,9.586168448471948,0.1319740683804519,0.011964112999999998,0.03824593499999995,0.021574629999999928
392312.0,0.4615990155,-1.5245418089999998,9.47518523,-0.09282010027956243,0.019662879352968118,-0.07012732934513216,9.608144280833303,0.11798322830571319,0.01078731500000002,-0.0011767979999999234,0.021574629999999928
392322.0,0.434042329,-1.5137544939999998,9.4919546015,-0.0949511472962475,0.026323055778578477,-0.06106907052728159,9.621696709437789,0.11592262511460796,-0.027556686499999983,0.010787314999999964,0.016769371500000574
392332.0,0.3729468995,-1.4873746055,9.5494215705,-0.0994820220344248,0.029522244297484086,-0.05920331355689965,9.671753974231542,0.11947078284055349,-0.06109542950000002,0.02637988849999995,0.057466969000000034
392342.0,0.363434449,-1.5077724375,9.620029450499999,-0.10774266538411395,0.02845584812451555,-0.06506587451434862,9.744251071811108,0.1290417965733413,-0.009512450499999991,-0.020397832000000005,0.07060787999999896
392352.0,0.32626724549999997,-1.4993387185,9.6798500155,-0.11493691256083458,0.01593136541220424,-0.07838797269482133,9.8007123838451,0.140032055387751,-0.03716720350000002,0.008433718999999895,0.05982056500000077
392362.0,0.35019547149999997,-1.4718800985,9.673867958999999,-0.11840139112604332,-0.005918411493512772,-0.08638158066895535,9.791465119214093,0.14668229100357028,0.023928225999999997,0.02745861999999999,-0.00598205650000061
392372.0,0.42443181199999996,-1.4634463795,9.630816765499999,-0.11786732037493307,-0.03549476099780868,-0.08451756902782541,9.750612762249617,0.14931779112025434,0.0742363405,0.008433719000000117,-0.043051193500000196
392382.0,0.481898781,-1.446677008,9.546969908,-0.11786732037493307,-0.046952847537151454,-0.0751905295051677,9.66797472198095,0.14748183220817943,0.057466969000000034,0.016769371499999908,-0.08384685749999932
392392.0,0.5046502089999999,-1.4132363314999998,9.421346721499999,-0.11786732037493307,-0.0325643531837102,-0.06266779212210839,9.540109161264041,0.13740594776100604,0.022751427999999907,0.033440676500000155,-0.12562318650000037
392402.0,0.48072198299999996,-1.4179435235,9.379374259499999,-0.1181343557504882,-0.0005881759579220891,-0.04881162319052541,9.498121864902881,0.12782271518800647,-0.02392822599999994,-0.004707192000000138,-0.04197246200000038
392412.0,0.435219127,-1.4766853569999998,9.3878079785,-0.1189337165479016,0.026323055778578477,-0.044814819203458395,9.513198934810157,0.1297940684995174,-0.04550285599999998,-0.05874183349999984,0.008433719000001005
392422.0,0.3849110125,-1.5340542595,9.4140898005,-0.12372988133238201,0.042577307102401665,-0.04667883084458835,9.546023555937413,0.13892740501296083,-0.0503081145,-0.05736890250000015,0.02628182199999962
392432.0,0.3131263345,-1.5508236309999999,9.4572390605,-0.1282590107413073,0.04550946024575214,-0.05360778797500583,9.588663759005858,0.14627125397620563,-0.07178467799999999,-0.016769371499999908,0.043149259999999856
392442.0,0.2772339955,-1.5700446649999997,9.4919546015,-0.12959244228983097,0.03405137370640937,-0.061868431324694995,9.624920835793553,0.1475852294252891,-0.035892338999999995,-0.01922103399999986,0.03471554100000063
392452.0,0.28802131049999996,-1.58083198,9.512254366999999,-0.12692732452203562,0.015132004614790837,-0.06959500392327389,9.647018667277647,0.14554376608108197,0.010787314999999964,-0.010787315000000186,0.020299765499999012
392462.0,0.31194953649999996,-1.5616109459999998,9.519511288,-0.12079947351828352,-0.002186897552748895,-0.0719930863155141,9.651789286052043,0.14064245376284418,0.023928225999999997,0.01922103400000008,0.007256921000001526
392472.0,0.34548827949999994,-1.5772035194999998,9.506272310499998,-0.1112053986200707,-0.014179054843201934,-0.07146076089365583,9.642413926739197,0.1329448254953746,0.03353874299999998,-0.015592573499999984,-0.013238977500002136
392482.0,0.387362675,-1.562787744,9.5170596255,-0.10267946522407839,-0.01764178807915868,-0.06559819993620689,9.652293991072899,0.12311551120879628,0.04187439550000005,0.014415775499999839,0.01078731500000174
392492.0,0.4053088445,-1.5640626084999998,9.478715624,-0.09921498665886966,-0.010447540902438057,-0.056805231164659443,9.615436390689684,0.11480243453994429,0.017946169499999998,-0.001274864499999806,-0.0383440015000005
392502.0,0.3729468995,-1.5580805519999998,9.474008432,-0.10454522219446034,0.0015428710587629874,-0.05360778797500583,9.608513941602748,0.11749842069732781,-0.032361945,0.005982056499999944,-0.004707191999999694
392512.0,0.33224930199999997,-1.5772035194999998,9.484795747,-0.11360348101231092,0.01806415775814131,-0.05653819578910431,9.62077496373925,0.1281742262575148,-0.040697597500000016,-0.019122967499999977,0.010787314999999964
392522.0,0.298710559,-1.5855391719999998,9.495484995499998,-0.12079947351828352,0.022060961745208326,-0.06826331770400222,9.63158334666581,0.14049583402854182,-0.03353874299999998,-0.008335652500000013,0.010689248499998527
392532.0,0.2544825675,-1.5568056875,9.508723973,-0.11946604196975986,0.013800318395519163,-0.07785564727296305,9.638684397805473,0.14326229714768005,-0.04422799150000001,0.028733484499999795,0.013238977500002136
392542.0,0.260464624,-1.5580805519999998,9.513431164999998,-0.11147243399562583,-0.001921607506445757,-0.08425053365227028,9.643693761109864,0.13974243642147618,0.005982056499999999,-0.001274864499999806,0.004707191999997917
392552.0,0.296356963,-1.560434148,9.555403627,-0.10374586139704695,-0.015243705686918473,-0.08931373381230583,9.6865123060185,0.13774076145999806,0.035892338999999995,-0.002353596000000069,0.04197246200000215
392562.0,0.28802131049999996,-1.5029671789999999,9.5721729985,-0.10054841820739333,-0.01950754504954062,-0.08931373381230583,9.693727999570951,0.13589507631023334,-0.008335652500000013,0.057466969000000034,0.016769371499998798
392572.0,0.328718908,-1.5125776959999997,9.5637392795,-0.10560987303817689,-0.020306905846954024,-0.08504989444968368,9.688191596637866,0.1371105402736027,0.040697597500000016,-0.009610516999999819,-0.008433718999999229
392582.0,0.36215958449999996,-1.5520984955,9.5409878515,-0.11360348101231092,-0.015510741062473608,-0.07785564727296305,9.673190708698407,0.13859233672434285,0.03344067649999999,-0.0395207995000002,-0.022751427999999407
392592.0,0.353823932,-1.5293470675,9.5290237385,-0.1213317989401418,-0.012580333248375127,-0.0711937255181007,9.65745241958889,0.1412381562179209,-0.008335652499999957,0.02275142799999985,-0.01196411300000122
392602.0,0.3347009645,-1.5197365504999998,9.477538826,-0.12799372069500414,-0.004052654523130833,-0.0679962823284471,9.604445122801229,0.14499072713978806,-0.019122967500000032,0.009610517000000263,-0.051484912499999425
392612.0,0.316754795,-1.549646833,9.4560622625,-0.13119116388465776,0.010335839830310419,-0.06772924695289195,9.587432003381252,0.14800406061731816,-0.017946169499999998,-0.029910282500000163,-0.021476563500000267
392622.0,0.28802131049999996,-1.5772035194999998,9.4536106,-0.13145645393096092,0.020462240150381523,-0.07572460025627797,9.588601597399784,0.15308075527657886,-0.028733484500000017,-0.027556686499999872,-0.0024516625000003955
392632.0,0.3011622215,-1.6179011169999997,9.488326140999998,-0.13092412850910265,0.018596483179999578,-0.08851437301489243,9.629986275485162,0.1591280957051631,0.013140911000000033,-0.040697597499999905,0.03471554099999885
392642.0,0.33823135849999997,-1.6059370039999998,9.4499821395,-0.12452924212979541,0.002075196480621258,-0.09863902800571153,9.591433498156478,0.15887572637683184,0.037069136999999974,0.011964112999999887,-0.038344001499998726
392652.0,0.36578804499999995,-1.5520984955,9.4499821395,-0.11466987718527945,-0.01710946265730041,-0.10263583199277855,9.58357830199489,0.1548419466906771,0.027556686499999983,0.05383850849999994,0.0
392662.0,0.42443181199999996,-1.5173829545,9.447628543499999,-0.10694330458670054,-0.030965631588883394,-0.09970542417868006,9.578114558179008,0.14945538580550644,0.05864376700000001,0.03471554099999996,-0.002353596000000735
392672.0,0.481898781,-1.4694284359999998,9.3805510575,-0.10507754761631861,-0.0317649923862968,-0.09197885158010116,9.507164903693376,0.14321457639624355,0.057466969000000034,0.0479545185000001,-0.06707748599999874
392682.0,0.481898781,-1.4491286705,9.405754148,-0.10481051224076349,-0.01897521962768235,-0.08265181205744347,9.52892498823522,0.13482071232740528,0.0,0.0202997654999999,0.025203090499999803
392692.0,0.4903325,-1.443146614,9.409284542,-0.10747563000855881,0.0018099064343181197,-0.07439116870775431,9.53193231734133,0.13072234999701918,0.008433719000000006,0.005982056499999944,0.0035303940000002143
392702.0,0.4998449505,-1.468251638,9.444000082999999,-0.1104060378226573,0.02392497338633827,-0.07012732934513216,9.570514375661007,0.13296518288753514,0.009512450499999991,-0.02510502399999992,0.03471554099999885
392712.0,0.47473992649999996,-1.4969851225,9.506272310499998,-0.10987371240079903,0.03671649147420471,-0.0719930863155141,9.635120948705238,0.13639405375653996,-0.02510502400000003,-0.028733484500000017,0.06227222749999939
392722.0,0.44237798149999996,-1.4754104925,9.5625624815,-0.11067307319821243,0.0404462600857166,-0.07572460025627797,9.685821370048416,0.14006657049428822,-0.032361945,0.021574629999999928,0.05629017100000233
392732.0,0.39452152949999997,-1.4503054684999999,9.609242135499999,-0.1120047594174841,0.03298497753344083,-0.07678925109999452,9.726076681163304,0.13974857408770974,-0.047856451999999994,0.025105024000000142,0.046679653999998294
392742.0,0.3825574165,-1.46707484,9.652293328999999,-0.1120047594174841,0.013000957598105762,-0.07465820408330943,9.770640985735689,0.13523290452985662,-0.011964112999999943,-0.01676937150000013,0.043051193500000196
392752.0,0.39452152949999997,-1.5245418089999998,9.6427808785,-0.11360348101231092,-0.013912019467646801,-0.0711937255181007,9.77052189165928,0.13478813648437066,0.011964112999999943,-0.05746696899999981,-0.009512450499999048
392762.0,0.402857182,-1.5293470675,9.5649160775,-0.1181343557504882,-0.03389603940298187,-0.06986203929882902,9.694782923386052,0.14136962909614828,0.008335652500000013,-0.004805258500000242,-0.07786480100000048
392772.0,0.41129090099999993,-1.5101260334999997,9.499113455999998,-0.12372988133238201,-0.030433306167025123,-0.06826331770400222,9.627190519162902,0.1445515486002788,0.00843371899999995,0.019221034000000303,-0.06580262150000138
392782.0,0.434042329,-1.546116439,9.444000082999999,-0.1306570931335475,-0.01151393707540659,-0.06586523531176201,9.579561908251012,0.14677219067574998,0.022751428000000073,-0.03599040550000021,-0.0551133729999993
392792.0,0.44002438549999995,-1.5472932369999999,9.393790034999999,-0.1399841326562052,0.018863518555554713,-0.060269709729868184,9.53053141449971,0.153570269384176,0.005982056499999944,-0.0011767979999999234,-0.050210048000000285
392802.0,0.3729468995,-1.5233650109999999,9.409284542,-0.13971709728065007,0.048174578013547485,-0.05867098813504138,9.539096704557819,0.15900925158007687,-0.06707748599999996,0.023928225999999997,0.015494507000001434
392812.0,0.29753376099999995,-1.5760267215,9.4715567695,-0.1354550032472799,0.05883155842622486,-0.05813691738393112,9.606392361530842,0.1587107788856351,-0.07541313850000003,-0.052661710500000014,0.06227222749999939
392822.0,0.2197670265,-1.6023085435,9.523041682,-0.1266602891464805,0.04337666789981507,-0.06320011754396668,9.659400244923033,0.14804938035105752,-0.07776673449999996,-0.026281822000000066,0.0514849125000012
392832.0,0.2078029135,-1.6227063755,9.5649160775,-0.11840139112604332,0.01353328301996403,-0.07039436472068729,9.703812529184878,0.13841028052247376,-0.011964112999999998,-0.020397832000000005,0.04187439549999894
392842.0,0.22329742049999998,-1.6215295774999998,9.5745265945,-0.11253883016859438,-0.01684242728174528,-0.07972140424334499,9.713432936788983,0.13893940386725226,0.01549450699999999,0.0011767980000001454,0.009610517000000485
392852.0,0.26762347849999996,-1.5891676325,9.5409878515,-0.11067307319821243,-0.038959239563017424,-0.08664861604451048,9.676131730857156,0.14585723890467167,0.044326057999999974,0.03236194499999989,-0.03353874299999937
392862.0,0.29998542349999996,-1.5508236309999999,9.489502939,-0.1112053986200707,-0.04828627908567512,-0.08744797684192389,9.620068150385949,0.14948362480196345,0.032361945,0.03834400150000006,-0.0514849125000012
392872.0,0.3466650775,-1.5424879785,9.469203173499999,-0.11147243399562583,-0.04055796115784423,-0.08558221987154195,9.600273672182347,0.14627155606040196,0.046679654000000015,0.00833565249999979,-0.020299765500000788
392882.0,0.410114103,-1.560434148,9.433310834499999,-0.11333819096600778,-0.022437952863639102,-0.08185245126003006,9.570292660520838,0.14159389477457612,0.06344902550000003,-0.01794616949999983,-0.035892339000000106
392892.0,0.410114103,-1.5328774615,9.451257003999999,-0.11253883016859438,0.004207988826558329,-0.07758861189740791,9.583536186873467,0.13675777185171875,0.0,0.027556686499999872,0.017946169500000053
392902.0,0.39569832749999995,-1.5280722029999998,9.4572390605,-0.10934138697894076,0.017530087007031046,-0.0719930863155141,9.58806301978739,0.13208272912907887,-0.014415775500000061,0.004805258500000242,0.00598205650000061
392912.0,0.38971627099999995,-1.5520984955,9.426053913499999,-0.11147243399562583,0.027122416575991883,-0.07359180791034091,9.56092991773416,0.13629924142614774,-0.005982056499999999,-0.0240262925000001,-0.031185147000000413
392922.0,0.3478418755,-1.5472932369999999,9.469203173499999,-0.12053243814272839,0.04284434247795681,-0.08451756902782541,9.601089473212909,0.15331968497675807,-0.04187439549999994,0.00480525850000002,0.043149259999999856
392932.0,0.26997707449999997,-1.5161080899999997,9.483520882499999,-0.12932540691427583,0.04630882104316555,-0.09544158481605791,9.607738531524085,0.16726823934074195,-0.07786480100000004,0.03118514700000019,0.014317709000000178
392942.0,0.26281822,-1.5436647764999998,9.494308197499999,-0.13039180308724438,0.024724334183751674,-0.10237054194647541,9.62257047301221,0.16760979348351823,-0.007158854499999978,-0.027556686500000094,0.010787314999999964
392952.0,0.2795875915,-1.5616109459999998,9.4488053415,-0.12079947351828352,-0.012313297872819996,-0.10556798513612903,9.581060502342458,0.16089975013187943,0.01676937150000002,-0.017946169500000053,-0.045502855999998815
392962.0,0.3729468995,-1.5903444305,9.365056550499999,-0.10161306905110987,-0.03762755334374575,-0.10636734593354243,9.50644881075641,0.15183893062573886,0.09335930799999997,-0.02873348450000024,-0.08374879100000143
392972.0,0.443652846,-1.583185576,9.289643412,-0.08269544528874333,-0.03576179637336381,-0.10290286736833368,9.434022426194108,0.13677149872681205,0.0707059465,0.007158854500000089,-0.07541313849999831
392982.0,0.45797055499999995,-1.562787744,9.3099431775,-0.07123735874940056,-0.01950754504954062,-0.09730734178643986,9.451300679288666,0.1221639241388131,0.014317708999999956,0.020397832000000005,0.020299765499999012
392992.0,0.5310300975,-1.5795571154999999,9.404577349999999,-0.06297671539971139,-0.0008552113334772215,-0.09171181620454603,9.5510768386455,0.11125581018759238,0.07305954250000002,-0.016769371499999908,0.09463417249999928
393002.0,0.503473411,-1.5125776959999997,9.488326140999998,-0.0560477582692939,0.015132004614790837,-0.08398349827671514,9.621315384083642,0.10209582143001872,-0.027556686499999983,0.06697941950000019,0.08374879099999966
393012.0,0.48552724149999993,-1.446677008,9.593649562,-0.05151862886036862,0.02392497338633827,-0.07412587866145116,9.714253599025364,0.09338746895875047,-0.017946169500000053,0.06590068799999971,0.10532342100000136
393022.0,0.502296613,-1.4526590645,9.705053106,-0.05071926806295522,0.02365968334003513,-0.06320011754396668,9.826015267410565,0.08441847917466797,0.01676937150000002,-0.005982056499999944,0.11140354399999985
393032.0,0.378928956,-1.4192183879999998,9.740945445,-0.05151862886036862,0.010068804454755286,-0.05547179961613578,9.851080455919483,0.07637192216680963,-0.12336765699999996,0.033440676500000155,0.035892339000000106
393042.0,0.3574523925,-1.4634463795,9.787625099,-0.059779272210057785,-0.01897521962768235,-0.05920331355689965,9.902881025093171,0.08624762421075462,-0.02147656349999999,-0.04422799150000012,0.04667965400000007
393052.0,0.3274440435,-1.546116439,9.7014246455,-0.06803991555974695,-0.06000965567132103,-0.07092669014254556,9.82931003666506,0.11515721539593027,-0.03000834899999999,-0.08267005950000006,-0.08620045350000005
393062.0,0.3586291905,-1.5520984955,9.6104189335,-0.0731013703905305,-0.09811368390086124,-0.0906454200315775,9.74154898942603,0.15227178824152804,0.03118514699999997,-0.005982056499999944,-0.0910057119999994
