timestamp,ax,ay,az,gx,gy,gz,acc_mag,gyro_mag,dax,day,daz
209522.0,0.47836838699999995,-1.1071707849999999,9.944335366,-0.3319616237293215,0.5590097607920118,0.042715188113309224,10.01720865971738,0.6515481713467588,0.0,0.0,0.0
209532.0,0.502296613,-1.1754250689999999,9.439096758,-0.3226363295359158,0.5523495843664015,0.06882880438164837,9.525254515610122,0.6433674446214633,0.023928225999999997,-0.068254284,-0.5052386080000009
209542.0,0.5526047274999999,-1.5082627699999998,9.800667943499999,-0.29332527007792303,0.5568787137753267,0.0821526478913731,9.931430949615061,0.6347461488484296,0.050308114499999945,-0.3328377009999999,0.361571185499999
209552.0,0.316754795,-1.6446732714999999,9.9395301075,-0.23443611578638232,0.4995900264078649,0.09067858128736539,10.079659841881618,0.5592612019222383,-0.23584993249999991,-0.13641050150000011,0.13886216400000073
209562.0,0.1468055505,-1.558472818,9.9503174225,-0.15289956912096325,0.3882083495333427,0.08348433411064476,10.072696074170485,0.42550397756857217,-0.16994924449999999,0.08620045349999983,0.010787314999999964
209572.0,0.0642335575,-1.6434964734999997,9.951494220499999,-0.062035982932886445,0.25231177798530824,0.07629008693392414,10.086498095422462,0.2707948925902085,-0.082571993,-0.08502365549999968,0.0011767979999994793
209582.0,0.074922806,-1.6841940709999998,9.94786576,0.036023595761162965,0.1329364931366521,0.06483200039458137,10.089705460251594,0.152226800972095,0.010689248499999998,-0.04069759750000013,-0.003628460499999875
209592.0,0.11209000949999999,-1.740484242,9.9862097615,0.13141631135816503,0.04367162854340212,0.050710541416695246,10.137368246618937,0.1474754794580897,0.037167203499999996,-0.05629017100000011,0.0383440015000005
209602.0,0.18152109149999998,-1.6531069905,10.038871471999999,0.19670035202901293,-0.010953686385516413,0.03578797631214373,10.175689316210216,0.2002293459568013,0.06943108199999999,0.08737725149999997,0.052661710499998904
209612.0,0.2544825675,-1.5632780764999998,9.981404502999998,0.20362756383017844,-0.04026300051425719,0.015004595579395251,10.106286933099396,0.2081115850939723,0.072961476,0.08982891400000015,-0.057466969000000034
209622.0,0.361080853,-1.5165984225,9.933548050999999,0.17644929671812273,-0.026673866958229337,-0.00124965574442794,10.055139334641693,0.1784584296980813,0.1065982855,0.04667965399999985,-0.04785645199999955
209632.0,0.41374256349999994,-1.498652253,9.8126320565,0.14580480571160628,0.014095279039106205,-0.004447098934081553,9.9350334352998,0.14655202130547032,0.05266171049999996,0.017946169500000053,-0.1209159944999989
209642.0,0.4461045085,-1.41608026,9.715644288,0.1124969422665465,0.06978524481174128,-0.008178612874845429,9.828430010241346,0.13263646603145737,0.03236194500000006,0.08257199299999995,-0.09698776850000002
209652.0,0.48082004949999996,-1.4220623165,9.6714162965,0.08025547499445526,0.12627457138178974,-0.0025830872929516074,9.787223423025363,0.14964251061848485,0.03471554099999996,-0.005982056499999944,-0.044227991499999675
209662.0,0.4819968475,-1.4244159124999998,9.676123488499998,0.05813866271318312,0.18089988631070827,0.009407324668249437,9.792274884697862,0.19024555376333582,0.0011767980000000344,-0.002353595999999847,0.004707191999997917
209672.0,0.45444016099999995,-1.4555029929999999,9.665336173499998,0.04961272931719081,0.22273542848101233,0.02326349359983242,9.784872414565724,0.22937672973819828,-0.02755668650000004,-0.031087080500000086,-0.010787314999999964
209682.0,0.4353171935,-1.4710955665,9.691716062,0.05254313713128929,0.25071305639048147,0.03259053312249011,9.812389283510996,0.25822463235226484,-0.019122967499999977,-0.015592573500000206,0.02637988850000106
209692.0,0.40776050699999994,-1.4710955665,9.7228031425,0.05760633729132485,0.2587066643646155,0.03392221934176179,9.841915044576067,0.26720468792268276,-0.02755668650000004,0.0,0.031087080500000752
209702.0,0.39216793349999995,-1.4950237924999998,9.750359828999999,0.06853035307955735,0.2541775349556902,0.03338989391990352,9.872102543186209,0.2653629845802581,-0.015592573499999984,-0.023928225999999775,0.02755668649999876
209712.0,0.3694165055,-1.4795292855,9.762323942,0.08398524360596714,0.2509800917660366,0.03019245073024991,9.880710713796574,0.26637588420789965,-0.022751427999999962,0.01549450699999988,0.01196411300000122
209722.0,0.3443114815,-1.4795292855,9.7551650875,0.09944013413237693,0.2472485778252727,0.02646093678948603,9.872730280288414,0.2678066106141934,-0.025105023999999976,0.0,-0.007158854500000089
209732.0,0.361080853,-1.5082627699999998,9.795862685,0.11329630306395991,0.23845560905372526,0.017135642596080327,9.917870825391239,0.264557668617495,0.016769371499999963,-0.028733484499999795,0.04069759749999946
209742.0,0.350293538,-1.5082627699999998,9.8114552585,0.1303499151851965,0.22699752251438252,0.007009242276009227,9.932885604681045,0.26185512233626307,-0.010787314999999964,0.0,0.015592573500001095
209752.0,0.33597582899999995,-1.4603082514999999,9.855683249999998,0.14180800172453928,0.22353478927842577,-0.0036477381366681488,9.96894539414284,0.2647463264416918,-0.014317709000000067,0.047954518499999876,0.0442279914999979
209762.0,0.313224401,-1.4244159124999998,9.831755023999998,0.14980160969867332,0.2147400751776263,-0.013241813034880978,9.939339870892544,0.26216248352511656,-0.022751427999999962,0.035892339000000106,-0.023928226000000663
209772.0,0.39461959599999996,-1.4232391145,9.807826797999999,0.1545977744831537,0.20967862034684276,-0.019369664038633067,9.91840716557638,0.2612293620377866,0.08139519499999998,0.0011767979999997014,-0.023928225999998887
209782.0,0.45081170049999997,-1.3777362585,9.8018447415,0.14713823726012998,0.21367542433390976,-0.023633503401255217,9.908458443358608,0.26050986605369064,0.056192104500000006,0.04550285600000015,-0.0059820564999988335
209792.0,0.4580686215,-1.35135637,9.818614112999999,0.1348807899233738,0.22726455788993763,-0.023898793447558353,9.921752566998698,0.2653547796658488,0.007256921000000027,0.02637988849999995,0.016769371499998798
209802.0,0.48680210599999996,-1.3573384265,9.864116969,0.12848590354406655,0.24431817001117423,-0.02230007185273155,9.968959197056293,0.27694275367263393,0.02873348449999996,-0.005982056499999944,0.04550285600000059
209812.0,0.479545185,-1.2939874675,9.901186106,0.11756014242658205,0.2605724213349974,-0.020701350257904743,9.996892189883374,0.2866128394720692,-0.007256920999999972,0.06335095899999987,0.03706913700000136
209822.0,0.49994301699999993,-1.2951642654999997,9.958653075,0.1039710088705542,0.26243817830537935,-0.015905185473424326,10.054957213388937,0.28273086680224885,0.02039783199999995,-0.0011767979999997014,0.057466969000000034
209832.0,0.49396096049999993,-1.28074849,9.968263592,0.09517804009900677,0.25977306053758403,-0.005513495107050087,10.062335373298193,0.27671519822092694,-0.005982056499999999,0.014415775499999839,0.009610516999998708
209842.0,0.48082004949999996,-1.2879073445,10.006509527,0.0922458869556563,0.25177945256344997,0.004345869837465881,10.100501282706714,0.2681810637946506,-0.013140910999999977,-0.007158854500000089,0.03824593500000084
209852.0,0.48915570199999997,-1.3214460875,9.971793986,0.09597740089642018,0.24138776219707575,0.010740756216773104,10.070857379696822,0.25999053264581057,0.008335652500000013,-0.03353874300000004,-0.03471554100000063
209862.0,0.4927841625,-1.3370386609999998,9.9742456485,0.09890780871051866,0.23072903645514636,0.014205234781981848,10.07551908679849,0.251436734751802,0.0036284605000000414,-0.015592573499999762,0.0024516625000003955
209872.0,0.46522747600000003,-1.338215459,9.963458333499998,0.10023949492979033,0.22593287167066597,0.018202038769048863,10.063685169088036,0.2478405395823755,-0.027556686499999983,-0.0011767980000001454,-0.01078731500000174
209882.0,0.43168873299999994,-1.3190924914999997,9.968263592,0.10210525190017226,0.22273542848101233,0.018202038769048863,10.064424434756493,0.2456987337809614,-0.03353874300000009,0.0191229675000002,0.0048052585000011305
209892.0,0.42815833899999994,-1.3190924914999997,9.976599244500001,0.10023949492979033,0.21900391454024848,0.01606924642311179,10.072529823720798,0.24138950186024788,-0.0035303939999999923,0.0,0.008335652500001345
209902.0,0.43286553099999997,-1.2927126029999998,9.998173874499999,0.09597740089642018,0.20994391039314592,0.013405873984568445,10.090686758918704,0.23123110614985945,0.004707192000000027,0.02637988849999995,0.02157462999999815
209912.0,0.4496349025,-1.254466668,9.951494220499999,0.09171356153379803,0.1998192554023268,0.013938199406426715,10.040323470253043,0.22030294051929353,0.01676937150000002,0.03824593499999973,-0.04667965400000007
209922.0,0.456793757,-1.232892038,9.9287427925,0.08958251451711295,0.19289029827190932,0.01606924642311179,10.015418950469254,0.21328364858854412,0.007158854500000034,0.02157463000000015,-0.022751427999999407
209932.0,0.4819968475,-1.2053353515,9.8832399365,0.09144652615824289,0.18809413348742887,0.01980076036387567,9.968128506043856,0.21008079471904265,0.02520309049999997,0.027556686499999872,-0.045502855999998815
209942.0,0.5047482755,-1.1921944405,9.865293767,0.09357931850417997,0.1840973295003619,0.022464132802419014,9.949880376908478,0.20773433236573174,0.022751428000000018,0.013140911000000033,-0.017946169500000053
209952.0,0.5059250734999999,-1.185035586,9.873727485999998,0.09357931850417997,0.18329796870294848,0.026995007540596295,9.95744766433016,0.2075667714602959,0.0011767979999999234,0.007158854500000089,0.008433718999997453
209962.0,0.497589421,-1.1825839235,9.8700990255,0.09277995770676657,0.18676244726815722,0.03019245073024991,9.953137934399775,0.21071287654711368,-0.008335652499999957,0.0024516624999999515,-0.0036284604999980985
209972.0,0.476014791,-1.1802303275,9.9036377685,0.09251292233121143,0.19129157667708252,0.0285937291354231,9.985067588998142,0.2144031470191957,-0.021574629999999984,0.002353596000000069,0.03353874299999937
209982.0,0.498766219,-1.163460956,9.8820631385,0.09011483993897122,0.19582245141525978,0.027260297586899435,9.962809895338385,0.2172791768210532,0.022751428000000018,0.016769371499999908,-0.021574629999999928
209992.0,0.502296613,-1.1251169545,9.87725788,0.08558396520079395,0.19848582385380314,0.02619564674318289,9.953814006538234,0.21773251773381785,0.0035303939999999367,0.03834400150000006,-0.004805258499999354
210002.0,0.5202427825,-1.1131528414999998,9.855683249999998,0.07972314957259699,0.20248437317012213,0.033656929295458646,9.93198137964492,0.22020102371576625,0.017946169500000053,0.01196411300000011,-0.021574630000001704
210012.0,0.5262248389999999,-1.0904014135,9.879709542499999,0.07759035722665991,0.21180966736352785,0.04404861966183289,9.953619867561194,0.22983446133537463,0.005982056499999944,0.02275142799999985,0.024026292500000324
210022.0,0.5250480409999999,-1.1000119305,9.879709542499999,0.07785739260221504,0.21873862449394532,0.052042227635966914,9.954615127505724,0.23794275127776526,-0.0011767980000000344,-0.00961051700000004,0.0
210032.0,0.47836838699999995,-1.1131528414999998,9.864116969,0.07865675339962845,0.2253988009195557,0.059503510188242674,9.938246784032597,0.24603286779628805,-0.04667965399999996,-0.01314091099999981,-0.015592573499999318
210042.0,0.455616959,-1.150320045,9.8604885085,0.07625867100738824,0.2285962441092093,0.06296798875345143,9.937809449044481,0.2490714663150018,-0.022751427999999962,-0.037167203500000134,-0.003628460499999875
210052.0,0.47483799299999996,-1.1814071254999998,9.873727485999998,0.06906442383066762,0.23339240889368973,0.06083519640751435,9.955485341437166,0.25088410131015115,0.01922103399999997,-0.031087080499999864,0.013238977499998583
210062.0,0.387362675,-1.200530093,9.910796623,0.06187017665394699,0.2488472994200995,0.050710541416695246,9.990756330160892,0.2613894722414077,-0.08747531799999997,-0.0191229675000002,0.03706913700000136
210072.0,0.37667342649999996,-1.1551253035,9.921583938,0.060004419683565055,0.25444457033124535,0.050710541416695246,9.995700334433641,0.2662970686346131,-0.010689248500000026,0.04540478950000004,0.010787314999999964
210082.0,0.352647134,-1.2484846115,9.980227704999999,0.06639930606287227,0.25470986037754845,0.05177519226041179,10.064194894273474,0.2682660085675854,-0.02402629249999999,-0.09335930799999992,0.058643766999999514
210092.0,0.313224401,-1.2400508925,10.037694673999999,0.07865675339962845,0.2472485778252727,0.05044350604114011,10.11885122480906,0.2643166498609432,-0.03942273299999999,0.008433718999999895,0.057466969000000034
210102.0,0.3323473685,-1.2472097469999999,10.048481988999999,0.09491100472345164,0.2245994401221423,0.04751309822704164,10.131040282696445,0.2484159854436251,0.019122967500000032,-0.007158854499999867,0.010787314999999964
210112.0,0.2748803995,-1.1418863259999998,9.981404502999998,0.1116975814691331,0.22593287167066597,0.04884478444631331,10.050268626660866,0.25672519388446097,-0.057466969000000034,0.10532342100000003,-0.06707748600000052
210122.0,0.38500907900000003,-1.163460956,9.910796623,0.12608782115182635,0.2501807309686232,0.06136752182937262,9.98627874082819,0.2868004698850546,0.11012867950000005,-0.02157463000000015,-0.07060787999999896
210132.0,0.35392199849999995,-1.140709528,9.8449940015,0.13994224475415734,0.3114662223231521,0.08668177730029837,9.91717630668444,0.35229074644535613,-0.031087080500000086,0.022751428000000073,-0.0658026214999996
210142.0,0.29645502949999997,-1.1071707849999999,9.789880628499999,0.1615267316135712,0.3732857844287912,0.1125283581930824,9.856747711692377,0.42201397284925446,-0.05746696899999998,0.03353874300000004,-0.055113373000001076
210152.0,0.25693423,-1.1443379885,9.819790910999998,0.19590099123159951,0.39673428292933505,0.11466115053901949,9.889581293777209,0.4570803748356613,-0.03952079949999998,-0.037167203500000134,0.029910282499999497
