timestamp,ax,ay,az,gx,gy,gz,acc_mag,gyro_mag,dax,day,daz
204712.0,0.503865677,-0.17406803749999997,9.7100544975,-0.0012897983172238095,0.0305642058609247,-0.05681221248166742,9.724676788796517,0.06452489245764169,0.0,0.0,0.0
204722.0,0.44885037049999993,-0.28900197549999995,9.6896566655,-0.032199579370043384,0.06174102228929941,-0.0512166868997736,9.70435134834933,0.08644024387936981,-0.05501530650000003,-0.11493393799999999,-0.02039783200000045
204732.0,0.568589567,-0.2793914585,9.730354262999999,-0.056180403292445474,0.0662701516982247,-0.04135732195525763,9.750956248813049,0.09622057368109155,0.11973919650000003,0.00961051699999993,0.04069759749999946
204742.0,0.4727785965,-0.2434991195,9.7794855795,-0.05085191308610679,0.07000166563898856,-0.026701792226261248,9.793934328049898,0.09054908041964942,-0.09581097049999998,0.03589233900000002,0.049131316500000466
204752.0,0.4368862575,-0.292630436,9.8477398635,-0.02820277538297637,0.05054997112551177,-0.01577777643802874,9.861768735537906,0.05999695283446574,-0.035892338999999995,-0.049131316499999994,0.068254284
204762.0,0.430904201,-0.31528379749999996,9.809395862,0.003506366467256608,0.017774433102310253,-0.00618370153981591,9.823916198788964,0.019143229681658363,-0.005982056499999999,-0.02265336149999997,-0.038344001499998726
204772.0,0.46444294399999997,-0.3476457425,9.864509235,0.03175102975228084,-0.011801916401985657,-0.002186897552748895,9.881553888832972,0.03394400745339154,0.03353874299999998,-0.03236194500000006,0.0551133729999993
204782.0,0.491901564,-0.328522775,9.844111403,0.05226912043872618,-0.034185764058812934,-0.0011222467090323538,9.86186714963419,0.062465885516806874,0.027458620000000045,0.019122967500000032,-0.02039783200000045
204792.0,0.5182814525,-0.31773545999999997,9.7794855795,0.06772401096513597,-0.03844960342143508,-0.0035203291012725624,9.798362602302252,0.07795708038050653,0.026379888500000004,0.01078731500000002,-0.06462582350000012
204802.0,0.5325991615,-0.29733762799999996,9.7435932405,0.07625168969038026,-0.024326399114296963,-0.008049458510197848,9.762667707556805,0.0804418277814068,0.014317708999999956,0.020397832000000005,-0.035892339000000106
204812.0,0.5290687675,-0.24467591749999998,9.78311404,0.07358657192258491,-0.0014102260356114182,-0.01151393707540659,9.800464294358381,0.07449525522988495,-0.0035303939999999923,0.052661710499999986,0.03952079949999998
204822.0,0.5445632745,-0.2076067805,9.792626490499998,0.06159615996138388,0.025502751030141144,-0.014978415640615335,9.809953278058263,0.0683288384739327,0.01549450699999999,0.037069136999999974,0.009512450499999048
204832.0,0.5529969935,-0.156121868,9.856075515999999,0.041078069274938546,0.05614549670740558,-0.012845623294678265,9.872811367061688,0.0707441489715349,0.008433719000000006,0.05148491250000001,0.06344902550000064
204842.0,0.48591950749999996,-0.1728912395,9.914719283,0.021359339385906603,0.07612951664274066,-0.004584979944989104,9.928125080253418,0.07920193636746276,-0.06707748600000002,-0.01676937149999999,0.05864376700000129
204852.0,0.42374534649999995,-0.15975032849999998,9.992584084,0.012034045192500903,0.07586422659643753,0.008204792813625343,10.002840444691017,0.07724971032881153,-0.062174161000000006,0.013140911000000005,0.07786480100000048
204862.0,0.39618865999999997,-0.18966061099999998,10.0224943665,0.013098696036217442,0.054546775112578785,0.01593136541220424,10.032114927980128,0.058315820468622756,-0.027556686499999983,-0.029910282499999996,0.029910282499999497
204872.0,0.36980877149999997,-0.21241203899999997,10.063191964,0.02215870018332001,0.027101472624967947,0.02072753019668466,10.07222467512042,0.04068326830910501,-0.026379888500000004,-0.02275142799999999,0.04069759749999946
204882.0,0.36147311899999995,-0.1944658695,10.060838367999999,0.0306863789085643,0.001254891732183923,0.025523694981165072,10.069207935939195,0.03993353990408357,-0.008335652500000013,0.01794616949999997,-0.002353596000000735
204892.0,0.372260434,-0.180050094,10.03808694,0.03335149667635964,-0.011269590980127387,0.027389451951547013,10.046600682921056,0.044603902179279106,0.01078731500000002,0.014415775500000005,-0.022751427999999407
204902.0,0.3566678605,-0.1632807225,10.006901793,0.0298870181111509,-0.017132151937576338,0.029522244297484086,10.014587163323329,0.04536857271227291,-0.015592573499999984,0.01676937149999999,-0.031185146999998636
204912.0,0.385401345,-0.18720894849999997,9.978168308499999,0.018428931571808128,-0.02032959512722995,0.026857126529688743,9.987363224589362,0.03839561436345548,0.028733484500000017,-0.02392822599999997,-0.028733484500001794
204922.0,0.3829496825,-0.223199354,9.978168308499999,0.006438519610607082,-0.012335987153095921,0.019928169399271254,9.9880083702261,0.024305617651554767,-0.002451662500000007,-0.03599040550000002,0.0
204932.0,0.36980877149999997,-0.2219244895,9.909914024499999,-0.004754276882432553,-0.003543018381548489,0.016997761585172775,9.919294580740102,0.018002222830339545,-0.013140911000000033,0.0012748645000000003,-0.068254284
204942.0,0.38422454699999997,-0.24232232149999997,9.856075515999999,-0.01567829267066506,0.0001884955592153876,0.013000957598105762,9.866538054814827,0.020368340386752615,0.014415775500000005,-0.020397831999999977,-0.05383850850000016
204952.0,0.39020660349999997,-0.28537351499999997,9.809395862,-0.023938936020354223,-0.0016772614111665509,0.008204792813625343,9.821300647770702,0.02536147647008193,0.005982056499999999,-0.0430511935,-0.046679653999998294
204962.0,0.39373699749999996,-0.29616083,9.737611183999999,-0.023938936020354223,-0.003543018381548489,0.002874557278034661,9.750067262905855,0.024369832100022873,0.0035303939999999923,-0.01078731500000002,-0.07178467800000199
204972.0,0.40815277299999997,-0.30096608849999995,9.733982723499999,-0.016210618092523332,0.0001884955592153876,-0.002986258350162298,9.747183641130961,0.016484459604469988,0.014415775500000005,-0.004805258499999965,-0.003628460499999875
204982.0,0.4368862575,-0.30331968449999996,9.705249238999999,-0.006618288523562497,0.007915068157794285,-0.006717772290926175,9.719811480893423,0.012311722522717266,0.028733484500000017,-0.0023535960000000133,-0.028733484500000017
204992.0,0.4368862575,-0.30812494299999993,9.7100544975,0.001907644872429802,0.016708036929341717,-0.010182250856134918,9.724760610262397,0.019658988770758647,0.0,-0.004805258499999965,0.0048052585000011305
205002.0,0.4608144834999999,-0.3225407185,9.706426037,0.009101892049150427,0.021238911667518998,-0.01364498409209167,9.722709957365044,0.026835077763414383,0.02392822599999994,-0.014415775500000061,-0.003628460499999875
205012.0,0.481114249,-0.3141069995,9.701620778499999,0.015231488382154514,0.022570597886790666,-0.01817585883026895,9.7186202651173,0.03273823409288859,0.020299765500000067,0.008433719000000006,-0.0048052585000011305
205022.0,0.4727785965,-0.29135557149999997,9.729177465,0.021359339385906603,0.02336995868420407,-0.01924050967398549,9.745014202956115,0.037048259883812024,-0.008335652500000013,0.022751428000000018,0.027556686500000538
205032.0,0.48238911349999997,-0.271055806,9.7663446685,0.024024457153701946,0.01937315469713706,-0.01870818425212722,9.782006884618719,0.03609002386340033,0.009610516999999985,0.020299765499999955,0.03716720350000102
205042.0,0.48837116999999997,-0.25664003049999995,9.811749458,0.02802126114076896,0.01937315469713706,-0.01657713723544214,9.827247729222332,0.037885507489817984,0.005982056499999999,0.014415775500000061,0.045404789499999154
205052.0,0.4847427095,-0.227906546,9.796254951,0.03335149667635964,0.020971876291963863,-0.013112658670233398,9.810888234666372,0.04152208741333595,-0.003628460499999986,0.02873348449999996,-0.015494506999999658
205062.0,0.5146529919999999,-0.22074769149999998,9.850093459499998,0.03628190449045813,0.020439550870105593,-0.010447540902438057,9.86599910837021,0.04293370405793654,0.02991028249999994,0.007158854500000006,0.05383850849999838
205072.0,0.512299396,-0.1825017565,9.8751984835,0.03548254369304472,0.027633798046826218,-0.010447540902438057,9.890161912263533,0.04617129857746823,-0.002353595999999958,0.03824593499999998,0.02510502400000192
205082.0,0.4943532265,-0.18367855449999998,9.929135058499998,0.03281742592524938,0.03669380219392878,-0.009115854683166382,9.943130590204873,0.05006513128326949,-0.017946169499999942,-0.001176797999999979,0.053936574999998044
205092.0,0.47640705699999997,-0.23869386099999998,9.947081228,0.02775422576521383,0.04015828075913753,-0.014179054843201934,9.961343453554267,0.05083335674144196,-0.017946169500000053,-0.0550153065,0.01794616950000183
205102.0,0.45846088749999997,-0.25310963649999996,9.999742938499999,0.021359339385906603,0.03429571980168858,-0.019774580425095754,10.013446445132518,0.04498279456310886,-0.017946169499999998,-0.014415775499999978,0.052661710499998904
205112.0,0.477583855,-0.223199354,10.028476423,0.013632766787327708,0.0220382724649324,-0.02963394536961172,10.042322622623193,0.039366337163690944,0.019122967500000032,0.02991028249999997,0.028733484500001794
205122.0,0.499158485,-0.20162472399999998,9.9866020275,0.004572762640225144,0.017507397726755122,-0.03389603940298187,10.00110152823891,0.03842343842676146,0.021574629999999984,0.02157463000000001,-0.041874395500000716
205132.0,0.5206350485,-0.16573238499999998,9.980619971,-0.009016370915802705,0.02150594704307413,-0.032032027761851926,9.995564170305167,0.0396213516332658,0.02147656349999999,0.035892338999999995,-0.00598205650000061
205142.0,0.5266171049999999,-0.12022952899999999,9.9650273975,-0.01887573586031867,0.027633798046826218,-0.023504349036607638,9.979656895296941,0.040894677189042286,0.005982056499999944,0.045502855999999994,-0.015592573499999318
205152.0,0.5230867109999999,-0.1393524965,9.925506597999998,-0.02234021442552742,0.027900833422381352,-0.01124690169985146,9.940257544573333,0.037470448143679,-0.0035303939999999923,-0.019122967500000018,-0.03952079950000176
205162.0,0.5026888789999999,-0.180050094,9.920701339499999,-0.0183434104384604,0.01937315469713706,0.0023422318561763904,9.935060604393753,0.026782193328797946,-0.020397832000000005,-0.04069759749999999,-0.004805258499999354
205172.0,0.5194582505,-0.19681946549999998,9.878826944,-0.011414453308042916,0.002853613327010729,0.0148667145684877,9.894432604526274,0.018959220854309112,0.01676937150000013,-0.01676937149999999,-0.04187439549999894
205182.0,0.5266171049999999,-0.20996037649999996,9.859703976499999,-0.0074176493209759005,-0.010737265558269114,0.022060961745208326,9.875989643533881,0.025631941523055007,0.007158854499999867,-0.013140910999999977,-0.01912296750000131
205192.0,0.503865677,-0.2111371745,9.822536773,-0.008484045493944435,-0.007005751617505238,0.029522244297484086,9.83771763082534,0.03150591201710923,-0.022751427999999962,-0.0011767980000000344,-0.037167203499999246
205202.0,0.524263509,-0.260268491,9.729177465,-0.013812535700283124,0.004452334921837535,0.03511776987937791,9.746767980194267,0.03799825246019548,0.020397832000000005,-0.049131316499999994,-0.09335930800000014
205212.0,0.500335283,-0.29733762799999996,9.723195408499999,-0.01727701426549187,0.017507397726755122,0.03511776987937791,9.740599263511193,0.04287495724072203,-0.023928225999999997,-0.037069136999999974,-0.00598205650000061
205222.0,0.48238911349999997,-0.364415114,9.7208418125,-0.01541125729510993,0.02683443724941282,0.029787534343787225,9.739623359031048,0.0429521952429798,-0.017946169499999998,-0.06707748600000002,-0.0023535959999989586
205232.0,0.4608144834999999,-0.38598974399999997,9.706426037,-0.005553637679845957,0.031897637409448364,0.018596483179999578,9.725021567196038,0.037338068381313615,-0.02157463000000004,-0.021574629999999984,-0.014415775499999839
205242.0,0.4847427095,-0.396777059,9.698090384499999,0.007503170454323623,0.03562740602096025,0.008737118235483614,9.718300501368201,0.03744258086336744,0.023928226000000052,-0.01078731500000002,-0.008335652500001345
205252.0,0.4716017985,-0.41109476799999994,9.725647071,0.018695966947363255,0.03909188458616899,-0.001921607506445757,9.745748720045897,0.04337519101979938,-0.013140910999999977,-0.014317708999999956,0.027556686500000538
205262.0,0.4751321925,-0.40393591349999997,9.730354262999999,0.024291492529257077,0.03855955916431072,-0.009382890058721515,9.75031840023941,0.04652907519066961,0.0035303939999999923,0.007158854499999978,0.004707191999999694
205272.0,0.432080999,-0.3692203725,9.811749458,0.03095166895486744,0.03616147677207051,-0.009915215480579788,9.828196431682121,0.04862067164751047,-0.04305119349999997,0.03471554099999996,0.0813951950000007
205282.0,0.39373699749999996,-0.400307453,9.9183477435,0.045874234059418956,0.028433158844239623,-0.008583529261308114,9.934228547860132,0.05464949082086537,-0.03834400150000006,-0.031087080499999975,0.1065982855000005
205292.0,0.38059608649999993,-0.3931485985,10.011707051499998,0.06505889319734062,0.004185299546282402,-0.009382890058721515,10.026649354924926,0.06586512690498016,-0.013140911000000033,0.007158854499999978,0.09335930799999836
205302.0,0.360296321,-0.3225407185,10.073979279,0.08770977622972305,-0.020596630502785082,-0.01071457627799319,10.085579034826806,0.0907305250682111,-0.020299765499999955,0.07060788000000001,0.062272227500001165
