timestamp,ax,ay,az,gx,gy,gz,acc_mag,gyro_mag,dax,day,daz
42372.0,1.1033461915,-0.25997429149999995,9.8118475245,-0.026607544446653555,-0.04581663819410315,0.2358341245172298,9.877110472935657,0.24171234979557465,0.0,0.0,0.0
42382.0,1.3367444614999997,-0.7471686634999999,9.871668089499998,-0.051654764542024174,-0.053543210792682046,0.24142965009912362,9.989743622151664,0.25263286814836033,0.23339826999999969,-0.48719437199999993,0.05982056499999899
42392.0,1.2757470985000001,-0.8884824899999999,9.884907067,-0.05192179991757931,-0.04661599899151655,0.24382773249136383,10.006413918961893,0.25361563003990567,-0.06099736299999958,-0.14131382650000002,0.013238977500002136
42402.0,1.2194569275,-0.9207463684999999,9.7998834115,-0.03966435258082314,-0.0540772815437923,0.24382773249136383,9.918294407413331,0.2528825347403464,-0.05629017100000011,-0.03226387850000001,-0.08502365550000057
42412.0,1.2984985265,-1.0345035084999998,9.772326725,-0.022343705084031405,-0.05860641095271759,0.23343604212498958,9.912349144000663,0.2417154077104331,0.07904159899999996,-0.11375713999999992,-0.027556686500000538
42422.0,1.2912416055,-0.984195394,9.862155639,0.00909840139064644,-0.054342571590095444,0.21931283781785146,9.994901665609548,0.22612831938217998,-0.007256920999999972,0.050308114499999834,0.08982891399999993
42432.0,1.2325978384999998,-0.8572973429999999,9.8681376955,0.03574434308084387,-0.06047216792309953,0.21238562601668595,9.981703148417997,0.22370112939835643,-0.05864376700000018,0.12689805100000007,0.00598205650000061
42442.0,1.191900241,-0.750797124,9.889614258999998,0.04746946499574178,-0.07779281541989126,0.20545666888626848,9.98943405292405,0.2247610175892986,-0.040697597499999905,0.10650021899999995,0.02147656349999849
42452.0,1.2074928145,-0.749620326,9.945904429999999,0.04507138260350156,-0.09351299599260418,0.20119457485289832,10.046939059281442,0.22639648164126255,0.015592573499999984,0.0011767980000000344,0.056290171000000555
42462.0,1.1716004755,-0.7615844390000001,9.990230488,0.03174753909377685,-0.10230596476415162,0.20519137883996535,10.087485501118874,0.2314690446152161,-0.035892338999999884,-0.01196411300000011,0.04432605800000111
42472.0,1.1619899585,-0.77472535,10.0105302535,0.011763519158441782,-0.10870259647271084,0.20758946123220556,10.107479210358349,0.23462314309883714,-0.00961051700000004,-0.013140910999999922,0.020299765500000788
42482.0,1.188369847,-0.7903179234999999,9.992584084,-0.010353293122830362,-0.10976724731642738,0.2046573080888551,10.093986427040324,0.2324664556792862,0.02637988849999995,-0.015592573499999873,-0.017946169500000053
42492.0,1.190723443,-0.7783538105,9.967479059999999,-0.03353475624781905,-0.10896788651901397,0.20145986489920148,10.068480311525077,0.23148360057296902,0.002353596000000069,0.011964112999999887,-0.02510502400000192
42502.0,1.2422083555,-0.8237586,9.930409923000001,-0.053253486136850985,-0.10790323567529743,0.20305858649402828,10.041648324272508,0.2360335391504337,0.05148491250000009,-0.04540478950000004,-0.03706913699999781
42512.0,1.235049501,-0.8418028359999999,9.9159941475,-0.05938133714060307,-0.10390468635897841,0.20812178665406383,10.0280067420137,0.24007708163846733,-0.007158854500000089,-0.018044235999999936,-0.014415775500001615
42522.0,1.1823877905,-0.8333691169999999,9.942374036,-0.05538453315353606,-0.09937555695005314,0.2139843476115128,10.04705660599261,0.24234737228716371,-0.052661710500000014,0.008433719000000006,0.02637988850000106
42532.0,1.1512026434999998,-0.832192319,9.905206832499998,-0.0479232506012603,-0.0975097999796712,0.21798115159857978,10.006544557278932,0.24355816860148563,-0.03118514700000019,0.0011767979999999234,-0.0371672035000028
42542.0,1.1512026434999998,-0.8418028359999999,9.842934605,-0.037798595610441195,-0.10150660396673822,0.21931283781785146,9.945715719816524,0.2446026273585407,0.0,-0.00961051699999993,-0.06227222749999761
42552.0,1.1656184189999999,-0.8345459149999999,9.839404210999998,-0.029005626838893763,-0.1084355610971557,0.21904754777154833,9.943289617143803,0.2461329427027209,0.014415775500000061,0.007256921000000083,-0.0035303940000019907
42562.0,1.1704236774999999,-0.7914947215,9.851368324,-0.02580818364924015,-0.1153627728983212,0.21691475542561126,9.952176311446935,0.24703571166010652,0.00480525850000002,0.04305119349999986,0.01196411300000122
42572.0,1.1978822974999999,-0.7722736874999999,9.8345989525,-0.026340509071098424,-0.12255702007504182,0.21371731223595766,9.937336927144154,0.247768309388349,0.02745861999999999,0.01922103400000008,-0.016769371499998798
42582.0,1.2182801294999999,-0.7292224939999999,9.8334221545,-0.026340509071098424,-0.1270878948132191,0.21238562601668595,9.935399498173263,0.24890321324699696,0.020397832000000005,0.04305119349999997,-0.0011767980000012557
42592.0,1.2625081209999998,-0.7340277525,9.875296549999998,-0.027939230665925227,-0.12895365178360102,0.21158626521927257,9.9826952997411,0.2493559555093288,0.0442279914999999,-0.00480525850000002,0.04187439549999894
42602.0,1.2553492665000001,-0.7735485520000001,9.844209469499999,-0.03220307002854737,-0.12202469465318355,0.21051986904630404,9.954031305084229,0.24544995230746983,-0.007158854499999645,-0.03952079950000009,-0.031087080499998976
42612.0,1.2529956704999998,-0.7914947215,9.8465630655,-0.034334117045232454,-0.11483044747646293,0.2062560296836819,9.957472884588883,0.23855065089367564,-0.002353596000000291,-0.017946169499999942,0.002353596000000735
42622.0,1.2374030969999998,-0.8058124305000001,9.8334221545,-0.03540051321820099,-0.11323172588163612,0.20359265724513853,9.943675948371654,0.23563656372978806,-0.015592573499999984,-0.014317709000000067,-0.013140911000000699
42632.0,1.248190412,-0.8214050039999999,9.860978841,-0.031936034652992246,-0.11296469050608099,0.20279329644772512,9.973544464625135,0.23432040605680657,0.010787315000000186,-0.015592573499999873,0.027556686500000538
42642.0,1.236226299,-0.8381743755,9.876473348,-0.02554114827368502,-0.1145634121009078,0.20385794729144166,9.98876957086499,0.23523432640926578,-0.01196411300000011,-0.01676937150000002,0.015494506999999658
42652.0,1.1823877905,-0.8250334644999999,9.9016764385,-0.021277308911062873,-0.1177608552905614,0.20652306505923704,10.006094013020984,0.23868833091444414,-0.05383850849999994,0.013140911000000033,0.025203090499999803
42662.0,1.1656184189999999,-0.8429796339999999,9.911188888999998,-0.015948818704724182,-0.12229173002873868,0.20572370426182363,10.015036003704022,0.23985802998170466,-0.01676937150000013,-0.017946169499999942,0.009512450499999048
42672.0,1.1716004755,-0.8225818019999999,9.9028532365,-0.011684979342102036,-0.12762022023507738,0.20572370426182363,10.005787860974863,0.24237512630276498,0.005982056500000166,0.020397832000000005,-0.008335652499997792
42682.0,1.1727772735,-0.798653576,9.9028532365,-0.012217304763960306,-0.13055237337842784,0.20652306505923704,10.003987019751387,0.24463229781019874,0.0011767979999999234,0.023928225999999886,0.0
42692.0,1.1608131605,-0.7890430589999999,9.89687118,-0.014083061734342244,-0.13454917736549488,0.2086558574051741,9.995905926731236,0.24867464805852854,-0.011964112999999887,0.00961051700000004,-0.00598205650000061
42702.0,1.1787593299999999,-0.8250334644999999,9.9016764385,-0.015948818704724182,-0.13614789896032167,0.20972050824889063,10.005665898297472,0.25054601730931414,0.01794616949999983,-0.03599040549999999,0.004805258499999354
42712.0,1.1548311039999999,-0.8597490054999999,9.927958260499999,-0.021544344286618004,-0.13508150278735315,0.20652306505923704,10.03180733733729,0.24771545686026916,-0.023928225999999997,-0.03471554099999996,0.02628182199999962
42722.0,1.169148813,-0.8477848924999999,9.912365687,-0.02554114827368502,-0.13348278119252632,0.19932881788251638,10.017017604242568,0.2412508668761039,0.014317709000000178,0.011964112999999998,-0.015592573499999318
42732.0,1.211121275,-0.8513152864999999,9.887260662999998,-0.028738591463338632,-0.13028533800287273,0.19293393150320917,9.99747347472817,0.23457126393295596,0.04197246199999993,-0.0035303939999999923,-0.02510502400000192
42742.0,1.235049501,-0.820228206,9.910012090999999,-0.03220307002854737,-0.12682085943766397,0.1953320138954494,10.020302451702968,0.23510670717830082,0.023928225999999997,0.031087080499999864,0.022751428000001184
42752.0,1.2182801294999999,-0.8010071719999999,9.919622608,-0.03460115242078758,-0.12575620859394743,0.20225922569661486,10.02620225452662,0.24066711060750529,-0.01676937150000013,0.01922103400000008,0.009610517000000485
42762.0,1.193077039,-0.8237586,9.9028532365,-0.03913028182971287,-0.12841958103249076,0.20572370426182363,10.008422117183182,0.2456522140015015,-0.025203090499999803,-0.022751428000000073,-0.016769371499998798
42772.0,1.1608131605,-0.8333691169999999,9.89687118,-0.040729003424539674,-0.13108469880028611,0.20599073963737877,9.999502509238845,0.2475363302545149,-0.03226387850000001,-0.00961051699999993,-0.00598205650000061
42782.0,1.1596363625,-0.8297406565,9.907658495,-0.04179539959750821,-0.13508150278735315,0.20225922569661486,10.009741400447213,0.24678464741997075,-0.0011767980000001454,0.003628460499999986,0.010787314999999964
42792.0,1.189546645,-0.7914947215,9.886083865,-0.038330921032299466,-0.13774662055514847,0.19879649246065811,9.988800693807363,0.24487432776060647,0.029910282500000163,0.03824593499999995,-0.021574629999999928
42802.0,1.211121275,-0.7579559785,9.871668089499998,-0.03406882699892931,-0.13987766757183356,0.19826242170954786,9.974524694307698,0.2450192537751961,0.021574629999999928,0.03353874300000004,-0.014415775500001615
42812.0,1.1967054995,-0.7208868415,9.864509235,-0.029270916885196903,-0.14227574996407374,0.2001281786799298,9.96294757279098,0.24728619756243095,-0.014415775500000061,0.03706913699999992,-0.007158854499998313
42822.0,1.213474871,-0.707647864,9.8669608975,-0.02607347369554329,-0.1380119106014516,0.2009275394773432,9.966453938827302,0.24515095271859452,0.01676937150000013,0.013238977500000026,0.0024516625000003955
42832.0,1.2171033315,-0.7615844390000001,9.851368324,-0.02820626604148036,-0.13188405959769953,0.20225922569661486,9.95544118722952,0.24310037638672327,0.003628460499999875,-0.05393657500000004,-0.015592573500001095
42842.0,1.201510758,-0.742363405,9.863332436999999,-0.0308713838092757,-0.12841958103249076,0.20305858649402828,9.963937890686054,0.24223422689581428,-0.015592573499999984,0.01922103400000008,0.011964112999999443
42852.0,1.1943519034999999,-0.7411866069999999,9.857350380499998,-0.02953795226075203,-0.12841958103249076,0.20199393565031173,9.957067368444068,0.2411755158713695,-0.007158854500000089,0.0011767980000000344,-0.00598205650000061
42862.0,1.2026875559999999,-0.749620326,9.859703976499999,-0.02554114827368502,-0.12602149864025058,0.20066050410178807,9.961031597917932,0.23832416218473682,0.008335652500000013,-0.008433719000000006,0.002353596000000735
42872.0,1.1991571619999999,-0.750797124,9.8801018085,-0.021811379662173138,-0.12495684779653403,0.20145986489920148,9.980886031155126,0.23806727464987318,-0.0035303939999999923,-0.0011767980000000344,0.02039783200000045
42882.0,1.1847413864999998,-0.762761237,9.898047978,-0.019678587316236066,-0.12655556939136084,0.20279329644772512,9.997838297969496,0.23985137070041773,-0.014415775500000061,-0.011964112999999998,0.017946169500000053
42892.0,1.169148813,-0.8022820364999999,9.900401574,-0.021277308911062873,-0.12921894182990418,0.2017269002747566,10.001425735338515,0.24050779841119196,-0.015592573499999762,-0.03952079949999987,0.002353596000000735
42902.0,1.1751308695,-0.8154229475,9.890889123500001,-0.02607347369554329,-0.13721254980403821,0.19906178250696127,9.99377480220222,0.24317216762846566,0.005982056499999944,-0.013140911000000144,-0.009512450499999048
42912.0,1.2074928145,-0.8130693514999999,9.881278606499999,-0.027406905244066956,-0.14440854231001082,0.1940003276761777,9.987932096620016,0.24339493151177935,0.03236194499999989,0.002353596000000069,-0.009610517000002261
42922.0,1.2051392184999998,-0.8046356324999999,9.8801018085,-0.026872834492956695,-0.14813831092152271,0.19186753533024065,9.985800457819114,0.24388575093692685,-0.002353596000000069,0.008433719000000006,-0.0011767979999994793
42932.0,1.2290674444999998,-0.8297406565,9.9016764385,-0.02341010125699994,-0.14813831092152271,0.19266689612765403,10.012106303517,0.24415881075031667,0.023928225999999997,-0.02510502400000003,0.021574629999999928
42942.0,1.2541724685,-0.86690786,9.932763519,-0.02341010125699994,-0.14387447155890054,0.19266689612765403,10.049092941298255,0.24159559033782074,0.025105024000000142,-0.03716720350000002,0.031087080500000752
42952.0,1.2565260644999998,-0.8381743755,9.9148173495,-0.02341010125699994,-0.13348278119252632,0.19346625692506744,10.029207202389374,0.23620939499594645,0.002353595999999847,0.028733484500000017,-0.017946169500000053
42962.0,1.235049501,-0.8058124305000001,9.931586720999999,-0.024474752100716486,-0.12468981242097889,0.19666370011472106,10.040472884272543,0.23414348966986753,-0.021476563499999823,0.03236194499999989,0.016769371499998798
42972.0,1.2410315575,-0.8046356324999999,9.931586720999999,-0.028471556087783498,-0.1116330042868093,0.19932881788251638,10.041116104524589,0.23022713738957876,0.005982056499999944,0.0011767980000001454,0.0
42982.0,1.238579895,-0.786689463,9.929135058499998,-0.03673219943747266,-0.10603747870491549,0.20279329644772512,10.03696585016743,0.23177213475684388,-0.0024516624999999515,0.017946169499999942,-0.0024516625000003955
42992.0,1.1870949825,-0.7878662609999999,9.871668089499998,-0.04552516820902009,-0.10816852572160057,0.20519137883996535,9.97395401092021,0.23638204848822664,-0.05148491250000009,-0.0011767979999999234,-0.057466969000000034
43002.0,1.1523794415,-0.7903179234999999,9.8465630655,-0.04845732135237057,-0.1161621336957346,0.20679010043479215,9.945219203228552,0.24208242178073164,-0.03471554099999996,-0.0024516624999999515,-0.025105023999998366
43012.0,1.1416901929999999,-0.8010071719999999,9.840581009,-0.04499284278716182,-0.12495684779653403,0.20652306505923704,9.93891863238045,0.2455409255394674,-0.010689248500000081,-0.010689248500000081,-0.00598205650000061
43022.0,1.1500258454999999,-0.807087295,9.8226348395,-0.03913028182971287,-0.13508150278735315,0.20145986489920148,9.922605733234974,0.24569140912243342,0.008335652500000013,-0.006080123000000048,-0.017946169500000053
43032.0,1.164441621,-0.8333691169999999,9.804688669999999,-0.028738591463338632,-0.1436091815125974,0.19639841006841793,9.908700635780296,0.24499354916286525,0.014415775500000061,-0.026281821999999955,-0.017946169500000053
43042.0,1.189546645,-0.8154229475,9.785467635999998,-0.015948818704724182,-0.14920470709449124,0.19559904927100452,9.891173472300633,0.2465266669408199,0.025105024000000142,0.017946169499999942,-0.01922103400000097
43052.0,1.2038643539999998,-0.810617689,9.786742500499999,-0.003958406743523139,-0.14787127554596757,0.1953320138954494,9.893771737393404,0.24502281275014104,0.014317708999999734,0.00480525850000002,0.0012748645000009162
43062.0,1.213474871,-0.811794487,9.820183176999999,0.004302236606166022,-0.1409440637448021,0.1953320138954494,9.928118108760886,0.24091146505960714,0.009610517000000263,-0.0011767980000000344,0.03344067649999971
43072.0,1.2458368159999997,-0.7950251155,9.856173582499999,0.005635668154689691,-0.13028533800287273,0.19479968847359108,9.966360017315633,0.23442045278405363,0.03236194499999967,0.01676937150000002,0.03599040549999977
43082.0,1.2649597835,-0.7938483174999998,9.888437460999999,-0.00022689280275926284,-0.11909428683908507,0.1969307354902762,10.000575674688836,0.23014172854742215,0.0191229675000002,0.0011767980000001454,0.03226387850000023
43092.0,1.2792774925000001,-0.8130693514999999,9.930409923000001,-0.006621779182066486,-0.10950195727012424,0.2009275394773432,10.045430499086766,0.22892444763708283,0.014317709000000178,-0.01922103400000008,0.04197246200000215
43102.0,1.2314210405,-0.8130693514999999,9.9016764385,-0.011952014717657168,-0.10363939631267528,0.2046573080888551,10.011027711582901,0.22971414601204562,-0.047856452000000216,0.0,-0.028733484500001794
43112.0,1.201510758,-0.765114833,9.9363919795,-0.014882422531755648,-0.10097427854487995,0.20492434346441024,10.037973619189197,0.22893509554542374,-0.02991028249999994,0.047954518499999876,0.03471554100000063
43122.0,1.1716004755,-0.7795306085,9.920799406,-0.014083061734342244,-0.1052381179075021,0.2041249826669968,10.020108607089554,0.23008781505618317,-0.02991028249999994,-0.01441577549999995,-0.015592573499999318
43132.0,1.1631667565,-0.786689463,9.911188888999998,-0.012217304763960306,-0.11403108667904953,0.20119457485289832,10.010169949009805,0.23158499134257146,-0.008433719000000117,-0.007158854499999978,-0.009610517000002261
43142.0,1.1619899585,-0.7950251155,9.9734611165,-0.009819222371720098,-0.12735493018877422,0.19959585325807153,10.07234889389104,0.23696877433364605,-0.0011767979999999234,-0.008335652500000013,0.062272227500001165
43152.0,1.188369847,-0.7807074064999999,9.999841005,-0.008220500776893291,-0.138811271398865,0.20039521405548494,10.100423113568173,0.2439147136126394,0.02637988849999995,0.014317709000000067,0.02637988850000106
43162.0,1.1978822974999999,-0.7830610025,9.967479059999999,-0.012484340139515441,-0.14307511076148716,0.20066050410178807,10.069694401710443,0.24676098551941844,0.009512450499999936,-0.002353596000000069,-0.03236194500000167
43172.0,1.225438984,-0.7818842045,9.969832656,-0.01807986572140926,-0.14520790310742424,0.20279329644772512,10.075247232767916,0.25007466435745584,0.027556686500000094,0.0011767980000000344,0.002353596000000735
43182.0,1.2458368159999997,-0.7903179234999999,9.9399223735,-0.02341010125699994,-0.14414150693445568,0.20572370426182363,10.048819263152872,0.2522836684317972,0.020397831999999783,-0.008433718999999895,-0.029910282499999497
43192.0,1.24936721,-0.786689463,9.954338149,-0.030070277682610305,-0.13614789896032167,0.20998754362444577,10.063232419121361,0.25206197743540726,0.0035303940000002143,0.003628460499999875,0.014415775499999839
43202.0,1.235049501,-0.798653576,9.981796768999999,-0.03806563098599633,-0.13001830262731756,0.21211859064113084,10.089571920651379,0.2516903807777135,-0.014317708999999956,-0.011964112999999998,0.0274586199999991
43212.0,1.2098464105,-0.8250334644999999,9.9363919795,-0.04339412119233502,-0.12095829848021501,0.21078690442185916,10.043719138089065,0.24687057094970602,-0.025203090500000025,-0.02637988849999995,-0.045404789499999154
43222.0,1.2171033315,-0.8237586,9.910012090999999,-0.04765796055495716,-0.11349876125719126,0.20732242585665042,10.018395999080317,0.24111374551082954,0.007256920999999972,0.001274864499999917,-0.02637988850000106
43232.0,1.2266157819999999,-0.8154229475,9.859703976499999,-0.049256682149783966,-0.10816852572160057,0.20572370426182363,9.969115475515917,0.23758975817234984,0.009512450499999936,0.008335652500000013,-0.050308114499999945
43242.0,1.2422083555,-0.8010071719999999,9.845386267499999,-0.04898964677422884,-0.10470404715639182,0.2046573080888551,9.955718198319346,0.2350479456114607,0.015592573500000206,0.014415775500000061,-0.014317709000000178
43252.0,1.2325978384999998,-0.7903179234999999,9.817829580999998,-0.04739092517940203,-0.10470404715639182,0.20812178665406383,9.926413125255205,0.23774674626662562,-0.009610517000000263,0.010689248500000081,-0.027556686500000538
43262.0,1.1978822974999999,-0.77472535,9.803511872,-0.04259476039492161,-0.11083364348939591,0.20812178665406383,9.906763668880036,0.23961028404956863,-0.03471554099999996,0.015592573499999873,-0.014317708999998402
43272.0,1.1799361279999998,-0.7938483174999998,9.8022370075,-0.03673219943747266,-0.12335638087245522,0.2094552182025875,9.90486217817087,0.24584047593868275,-0.017946169500000053,-0.019122967499999866,-0.0012748644999991399
43282.0,1.1523794415,-0.8130693514999999,9.796254951,-0.028738591463338632,-0.1340151066143846,0.2086558574051741,9.897255741493826,0.24964619418218637,-0.027556686499999872,-0.01922103400000008,-0.00598205650000061
43292.0,1.144043789,-0.7843358669999999,9.815475984999999,-0.019678587316236066,-0.14387447155890054,0.20732242585665042,9.913000946006402,0.25311992933825245,-0.008335652500000013,0.028733484500000017,0.019221033999999193
43302.0,1.146397385,-0.7998303739999999,9.820183176999999,-0.00955393232541696,-0.14867063634338099,0.20492434346441024,9.919170994661883,0.25335394663976335,0.002353596000000069,-0.01549450699999999,0.004707191999999694
43312.0,1.1799361279999998,-0.8034588345,9.839404210999998,-0.002092649773141201,-0.14893767171893613,0.20199393565031173,9.94241774380559,0.25097481801892574,0.033538742999999815,-0.003628460500000097,0.019221033999999193
43322.0,1.213474871,-0.765114833,9.886083865,0.0005724679946541401,-0.14787127554596757,0.19719777086583132,9.989623424135587,0.24648164776641948,0.03353874300000026,0.03834400149999995,0.04667965400000185
43332.0,1.215828467,-0.7292224939999999,9.89687118,-0.0012932889757277981,-0.1409440637448021,0.19559904927100452,9.99790295314161,0.24109311432928654,0.002353595999999847,0.035892339000000106,0.010787314999999964
43342.0,1.2290674444999998,-0.7591327765,9.969832656,-0.006621779182066486,-0.134814467411798,0.19506497851989424,10.073949202975482,0.23721115999891235,0.013238977499999915,-0.02991028250000005,0.07296147599999969
43352.0,1.2290674444999998,-0.726868898,9.966302262,-0.012217304763960306,-0.12655556939136084,0.19373329230062256,10.068074590285661,0.23172864135731147,0.0,0.03226387850000001,-0.0035303940000002143
43362.0,1.2206337255,-0.7136299205,9.9842484315,-0.022343705084031405,-0.12042597305835674,0.1953320138954494,10.083869847294293,0.23055639612985426,-0.008433718999999895,0.013238977500000026,0.017946169500000053
43372.0,1.224262186,-0.70411747,9.981796768999999,-0.029804987636307165,-0.11562980827387632,0.19826242170954786,10.081213520665433,0.2314445456509797,0.003628460500000097,0.009512450499999936,-0.0024516625000003955
43382.0,1.224262186,-0.7232404374999999,9.9614970035,-0.03726627018858293,-0.11243236508422272,0.2009275394773432,10.062470729460244,0.23324169381270518,0.0,-0.019122967499999866,-0.020299765499999012
43392.0,1.2218105235,-0.7591327765,9.957868543,-0.042861795770476746,-0.11429812205460466,0.20252626107217,10.061225047048739,0.23647004179335726,-0.0024516624999999515,-0.035892339000000106,-0.003628460499999875
43402.0,1.193077039,-0.7914947215,9.9363919795,-0.04685859975754376,-0.12202469465318355,0.20545666888626848,10.039013013510008,0.2435122117395391,-0.028733484500000017,-0.032361945,-0.021476563500000267
43412.0,1.2266157819999999,-0.7974767779999999,9.906383630499999,-0.04685859975754376,-0.1294859772054593,0.20785649660776068,10.013840028817071,0.24933244844212,0.033538742999999815,-0.005982056499999944,-0.030008349000000933
43422.0,1.225438984,-0.8214050039999999,9.856173582499999,-0.045792203584575225,-0.13454917736549488,0.20998754362444577,9.965970327693839,0.25356493353042947,-0.0011767979999999234,-0.023928225999999997,-0.050210048000000285
43432.0,1.1978822974999999,-0.832192319,9.844209469499999,-0.04179539959750821,-0.138811271398865,0.21185330059482768,9.951679563463644,0.2567045879368095,-0.027556686500000094,-0.010787315000000075,-0.011964112999999443
43442.0,1.2194569275,-0.832192319,9.8226348395,-0.03673219943747266,-0.14307511076148716,0.21131922984371743,9.932964031143449,0.25782854515485276,0.02157463000000015,0.0,-0.021574629999999928
43452.0,1.2098464105,-0.8285638584999999,9.8345989525,-0.029804987636307165,-0.14653958932669592,0.20838882202961895,9.94331850848228,0.2564918900763322,-0.00961051700000004,0.003628460500000097,0.01196411300000122
43462.0,1.2338727029999998,-0.807087295,9.8226348395,-0.02314306588144481,-0.14440854231001082,0.20359265724513853,9.93267269868076,0.2506778783112533,0.02402629249999988,0.021476563499999934,-0.01196411300000122
43472.0,1.2290674444999998,-0.7938483174999998,9.8489166615,-0.015948818704724182,-0.1404099929936918,0.19906178250696127,9.957005641230683,0.2441207164609622,-0.00480525850000002,0.013238977500000138,0.026281822000001398
43482.0,1.2338727029999998,-0.7783538105,9.870491291499999,-0.012751375515070572,-0.13747958517959333,0.19639841006841793,9.977718919527934,0.24007409147194922,0.00480525850000002,0.01549450699999988,0.02157462999999815
43492.0,1.215828467,-0.7807074064999999,9.850191526,-0.011952014717657168,-0.13694725975773506,0.19639841006841793,9.95560224268797,0.23972846741337603,-0.018044235999999936,-0.002353595999999958,-0.020299765499999012
43502.0,1.1847413864999998,-0.7735485520000001,9.874119751999999,-0.012217304763960306,-0.13961063219627842,0.19799713166324473,9.974980220131956,0.24257628759796843,-0.031087080500000086,0.007158854499999867,0.023928225999998887
43512.0,1.1870949825,-0.786689463,9.892065921499999,-0.014350097109897379,-0.14227574996407374,0.198529457085103,9.994050380299948,0.24466765140780025,0.002353596000000069,-0.013140910999999922,0.017946169500000053
43522.0,1.1560079019999998,-0.7926715194999999,9.929135058499998,-0.018879226518822664,-0.1510687187356212,0.19746306091213447,10.02758223188654,0.2493388124603961,-0.031087080500000086,-0.005982056499999944,0.037069136999999586
43532.0,1.1368849345,-0.8010071719999999,9.9256046645,-0.021012018864759733,-0.16226151522866084,0.19639841006841793,10.022561937939454,0.25562206426378065,-0.019122967499999755,-0.008335652500000013,-0.003530393999998438
43542.0,1.12972608,-0.7974767779999999,9.931586720999999,-0.021012018864759733,-0.17638297420654694,0.19479968847359108,10.027395724914069,0.26362734523590026,-0.007158854500000089,0.0035303939999999923,0.0059820564999988335
43552.0,1.1404153285,-0.8250334644999999,9.944727632000001,-0.020212658067346328,-0.19103850393554334,0.19453265309803597,10.043845628726428,0.2733993684217995,0.010689248500000081,-0.027556686499999983,0.013140911000002475
43562.0,1.1739540714999999,-0.7807074064999999,9.9603202055,-0.017547540299550992,-0.20356298664785463,0.19346625692506744,10.059604903406841,0.28138052219753096,0.033538742999999815,0.044326058,0.015592573499999318
43572.0,1.1596363625,-0.749620326,9.968655858,-0.022076669708476274,-0.2163527594064691,0.19213457070579576,10.063835587966564,0.290192331236563,-0.014317708999999956,0.031087080499999975,0.008335652499999568
43582.0,1.1571847,-0.7615844390000001,9.971107520499999,-0.0308713838092757,-0.22327997120763457,0.19053584911096896,10.066879977083897,0.2951455533753129,-0.0024516624999999515,-0.01196411300000011,0.002451662499998619
43592.0,1.1955287015,-0.766291631,9.947081228,-0.039397317205268,-0.22381404195874485,0.1854726489509334,10.047930965939251,0.293334241931895,0.03834400150000006,-0.004707191999999916,-0.024026292499998547
43602.0,1.269765042,-0.754327518,9.8477398635,-0.041263074175649936,-0.21502107318719743,0.17508095858455916,9.957875962546646,0.2803391611314542,0.07423634049999994,0.011964112999999998,-0.09934136450000075
