timestamp,ax,ay,az,gx,gy,gz,acc_mag,gyro_mag,dax,day,daz
225592.0,0.292826569,-0.515633657,9.790567094,0.05776167159475233,0.058871700999020726,0.004932300466135976,9.808508015486305,0.08262333491106712,0.0,0.0,0.0
225602.0,0.32754211,-0.2223167555,9.6576869865,0.06468888339591783,0.04688128903781969,-0.0043929937272697275,9.665796733989948,0.08001128227160266,0.034715541000000016,0.2933169015,-0.13288010750000012
225612.0,0.34421341499999997,0.0027458619999999995,9.722312809999998,0.07321656212116213,0.03702192409330372,-0.012121311655100619,9.72840463746827,0.08293499881625618,0.01667130499999997,0.22506261749999998,0.06462582349999835
225622.0,0.467581072,-0.03912853349999999,9.812141723999998,0.07055144435336679,0.042350414299642404,-0.0038606683054114572,9.823354229227824,0.0823769910318529,0.12336765700000002,-0.041874395499999995,0.08982891399999993
225632.0,0.5298532994999999,-0.04511059,9.826459432999998,0.05856103239216574,0.04314977509705581,0.010527826048029796,9.840837589997907,0.07349920222057078,0.062272227499999944,-0.005982056500000006,0.014317709000000178
225642.0,0.49866815249999996,-0.022359162,9.827636231,0.047102945852822965,0.041018728080370735,0.02571568119888445,9.840305063731865,0.0675464271510198,-0.03118514699999997,0.022751428,0.0011767980000012557
225652.0,0.5046502089999999,-0.06433162399999999,9.828813028999999,0.04070805947351574,0.039420006485543925,0.03237760295374681,9.841970125454068,0.06526401911045698,0.005982056499999944,-0.04197246199999999,0.0011767979999994793
225662.0,0.4998449505,-0.121798593,9.818123780499999,0.04177271031723229,0.04128576345592586,0.02704911274740812,9.831593687750562,0.06466164312641665,-0.004805258499999909,-0.05746696900000001,-0.010689248500000303
225672.0,0.503473411,-0.161221326,9.791743892,0.043638467287614224,0.041018728080370735,0.01905550477327409,9.806004601164558,0.06284874018393562,0.003628460499999986,-0.039422733,-0.026379888499999282
225682.0,0.471111466,-0.1624961905,9.796549150499999,0.04550422425799616,0.037821284890717115,0.013725269237683408,9.809216394977017,0.060740983131273824,-0.032361945,-0.0012748645000000003,0.004805258499999354
225692.0,0.4843504435,-0.15651413399999997,9.792920689999999,0.05163207526174825,0.03968529653184707,0.0113271868454432,9.80614030426296,0.06609916125403596,0.013238977500000026,0.005982056500000027,-0.003628460499999875
225702.0,0.48552724149999993,-0.1372931,9.778602980999999,0.05536184387326014,0.03968529653184707,0.015058700786207076,9.791611836545007,0.06976117105694526,0.0011767979999999234,0.01922103399999997,-0.014317709000000178
225712.0,0.49268609599999996,-0.11699333449999999,9.7606568115,0.05989271861143741,0.04288448505075267,0.02758143816926639,9.773783731052704,0.0786571836021486,0.007158854500000034,0.02029976550000001,-0.017946169499998277
225722.0,0.45198849849999995,-0.1085596155,9.8096900615,0.05936039318957914,0.04874530067894963,0.04143760710084937,9.820697424092938,0.08727448596323557,-0.040697597500000016,0.008433718999999992,0.04903324999999903
225732.0,0.43639592499999996,-0.11699333449999999,9.8193005785,0.05030038904247658,0.0500787322274733,0.05396208981316068,9.829689348835213,0.08916229974792649,-0.015592573499999984,-0.008433718999999992,0.009610517000000485
225742.0,0.44237798149999996,-0.193583271,9.8528393215,0.03937462792499207,0.04714657908412282,0.0579588938002277,9.864664994647494,0.08445350563542692,0.005982056499999999,-0.07658993650000001,0.03353874299999937
225752.0,0.43286553099999997,-0.20191892349999999,9.86352857,0.03431142776495653,0.04768064983523309,0.05822418384653083,9.87508681839312,0.0827089718747281,-0.009512450499999991,-0.008335652499999985,0.010689248500000303
225762.0,0.42560861,-0.21868829499999998,9.8851032,0.031648055326413176,0.049811696851918164,0.055026740656877224,9.89667785339739,0.08068919838820018,-0.007256920999999972,-0.01676937149999999,0.021574629999999928
225772.0,0.38618587699999996,-0.22113995749999998,9.882749603999999,0.028183576761204435,0.04714657908412282,0.05316272901574728,9.892764130805883,0.0764420674418996,-0.03942273300000004,-0.002451662500000007,-0.002353596000000735
225782.0,0.36578804499999995,-0.22829881199999996,9.861174973999999,0.025518458993409092,0.0407516927048156,0.049965285826093664,9.870597403869201,0.06934278618132718,-0.020397832000000005,-0.007158854499999978,-0.021574629999999928
225792.0,0.3574523925,-0.2485985775,9.858821378,0.020989329584483806,0.0322257593088233,0.049165925028680266,9.868431102710746,0.06242066727744992,-0.008335652499999957,-0.02029976550000004,-0.0023535959999989586
225802.0,0.3586291905,-0.2833141185,9.842052006499998,0.016992525597416794,0.024764476756547544,0.047033132682743194,9.852657990850528,0.05580448732097603,0.001176797999999979,-0.03471554099999999,-0.01676937150000235
225812.0,0.3574523925,-0.310870805,9.843228804499999,0.018324211816688467,0.020500637393925398,0.041704642476404506,9.854621563918311,0.049953278934868735,-0.001176797999999979,-0.027556686499999983,0.0011767980000012557
225822.0,0.352647134,-0.3060655465,9.843228804499999,0.022055725757452342,0.018634880423543457,0.032644638329301943,9.854298017495271,0.04358194831278932,-0.00480525850000002,0.004805258499999965,0.0
225832.0,0.375398562,-0.2833141185,9.846857264999999,0.02498613357155082,0.020233602018370263,0.023584634182199374,9.858082418370033,0.03987405786976469,0.022751428000000018,0.022751428000000018,0.003628460499999875
225842.0,0.3586291905,-0.2462449815,9.909031426,0.02152165500634208,0.020233602018370263,0.01639038700547875,9.91857627326867,0.033782022897380984,-0.01676937150000002,0.037069137,0.062174161000001504
225852.0,0.37177010149999995,-0.225945216,9.917465145,0.009531243045141035,0.017570229579826915,0.0113271868454432,9.927002526004134,0.022975263291308664,0.013140910999999977,0.020299765499999983,0.008433718999999229
225862.0,0.37177010149999995,-0.18642441649999997,9.916288346999998,-0.005391322059410484,0.012239994044236233,0.011859512267301468,9.925005876687663,0.01787545353185475,0.0,0.03952079950000004,-0.0011767980000012557
225872.0,0.378928956,-0.161221326,9.8995189755,-0.01818109481802493,0.005845107664929009,0.018256143975860686,9.908080309320116,0.026419770726938175,0.007158854500000034,0.02520309049999997,-0.016769371499998798
225882.0,0.38020382049999996,-0.18995481049999996,9.858821378,-0.02670702821401723,-0.00028274333882308137,0.02811376359112466,9.86797835113478,0.0387779448021373,0.0012748644999999725,-0.02873348449999996,-0.04069759749999946
225892.0,0.37059330349999997,-0.20790097999999999,9.8851032,-0.03230429912516305,-0.003480186528476693,0.033711034502270476,9.894232031276315,0.04682000947729797,-0.009610516999999985,-0.017946169500000025,0.02628182199999962
225902.0,0.387362675,-0.241439723,9.858821378,-0.037632789331501736,-0.0050789081233034985,0.030513591312616863,9.869382044745015,0.04871448855717934,0.01676937150000002,-0.03353874300000001,-0.02628182199999962
225912.0,0.3825574165,-0.253403836,9.8096900615,-0.042161918740427025,-0.0061453042962720346,0.02545039115258131,9.820416629843692,0.04962977500037191,-0.004805258499999965,-0.011964112999999998,-0.049131316500000466
225922.0,0.3813806185,-0.25467870049999997,9.794097488,-0.04269598949153728,-0.009075712110370514,0.01718974780289215,9.80482830145963,0.04691272213908316,-0.0011767980000000344,-0.0012748644999999725,-0.015592573499999318
225932.0,0.363434449,-0.23310407049999998,9.754674755,-0.04029790709929707,-0.01333955147299266,0.0113271868454432,9.764225605865418,0.043933701322740604,-0.017946169499999998,0.021574629999999984,-0.03942273300000032
225942.0,0.329895706,-0.22467035149999998,9.742710642,-0.03949854630188367,-0.02053379864971329,0.007330382858376184,9.750882965015037,0.04511658852128994,-0.03353874299999998,0.008433719000000006,-0.011964112999999443
225952.0,0.304790682,-0.2103526425,9.755851553,-0.042161918740427025,-0.027195720404575643,0.002001892652037496,9.762877911672012,0.0502119724208132,-0.02510502400000003,0.014317708999999984,0.013140910999998923
225962.0,0.32626724549999997,-0.20191892349999999,9.7151539555,-0.05122192288752959,-0.039186132365776685,-0.008124507668033604,9.722727906622753,0.0650018921180925,0.02147656349999999,0.008433719000000006,-0.04069759749999946
225972.0,0.3849110125,-0.2223167555,9.649253267499999,-0.05788384464239194,-0.04931253268584779,-0.011588986233242348,9.659486003286057,0.07691924305654374,0.05864376700000001,-0.020397832000000005,-0.06590068800000104
225982.0,0.42443181199999996,-0.215157901,9.624148243499999,-0.049890236668257905,-0.04878020726398952,-0.011054915482132083,9.635904975572581,0.07064527933166975,0.03952079949999998,0.007158854499999978,-0.025105024000000142
225992.0,0.47238633049999995,-0.2354576665,9.5570707575,-0.032569589171466184,-0.04131892471171376,-0.012121311655100619,9.571634689112331,0.053990349826338734,0.04795451849999999,-0.020299765499999983,-0.06707748599999874
226002.0,0.4878808375,-0.265367949,9.5906095005,-0.012051498485020845,-0.031726595142752924,-0.01718451181513617,9.60667676415924,0.03804106861552614,0.015494507000000046,-0.029910282499999996,0.03353874299999937
226012.0,0.4843504435,-0.240262925,9.6253250415,0.0036686820876920805,-0.016804030038201405,-0.02864259835447894,9.640498108488751,0.03341007474222899,-0.0035303939999999923,0.025105024000000004,0.03471554100000063
226022.0,0.483075579,-0.18642441649999997,9.729471664499998,0.008199556825869361,-0.008543386688512244,-0.04276405733236507,9.743240474729232,0.04437326658897129,-0.001274864500000028,0.05383850850000002,0.10414662299999833
226032.0,0.47238633049999995,-0.102577559,9.839600343999999,0.002336995868420407,-0.003480186528476693,-0.04915894371167229,9.851467196844263,0.04933735901737515,-0.010689248500000026,0.08384685749999997,0.11012867950000071
226042.0,0.481898781,-0.0248108245,9.940216572999999,-0.003525565089028546,-0.005612978874413764,-0.041432371113093384,9.951921800852611,0.04195922445773619,0.009512450500000047,0.0777667345,0.10061622899999989
226052.0,0.49513775849999997,0.0303025485,9.940216572999999,-0.005923647481268754,-0.009342747485925645,-0.019847884253679515,9.95258685782153,0.022722566743560706,0.013238977499999971,0.05511337299999999,0.0
226062.0,0.471111466,0.018338435499999996,9.9820909685,-0.00699004365423729,-0.015205308443374598,0.005731661263549378,9.993218821532055,0.017689376924764036,-0.02402629249999999,-0.011964113000000002,0.041874395500000716
226072.0,0.43041386849999996,-0.03912853349999999,9.9258007975,-0.012318533860575978,-0.019469147805996744,0.026515041996297856,9.935205514330473,0.03512607926927433,-0.040697597500000016,-0.05746696899999999,-0.05629017099999878
226082.0,0.39452152949999997,-0.103754357,9.883926402,-0.025375341994745556,-0.021867230198236953,0.033176963751160214,9.892341144743654,0.04714652332504256,-0.035892338999999995,-0.06462582350000001,-0.041874395500000716
226092.0,0.387362675,-0.16965504499999998,9.834893152,-0.03949854630188367,-0.022399555620095227,0.029180159764093196,9.843980698250764,0.05397552200579251,-0.007158854499999978,-0.06590068799999997,-0.049033250000000805
226102.0,0.3933447315,-0.25820909449999996,9.7953723525,-0.04882384049528938,-0.017336355460059676,0.0222529479629277,9.806666688452438,0.05638714671259549,0.005982056499999999,-0.08855404949999998,-0.03952079949999998
226112.0,0.39814998999999995,-0.2929246355,9.768992464,-0.04376064033525382,-0.010409143658894181,0.021718877211817436,9.781489764770425,0.04995051092436336,0.004805258499999965,-0.034715541000000016,-0.026379888499999282
226122.0,0.388539473,-0.297729894,9.7390821815,-0.030438542154781107,-1.7453292519943296e-05,0.02251823800923084,9.751375684992922,0.03786259626816649,-0.00961051699999993,-0.00480525850000002,-0.029910282499999497
226132.0,0.36823970749999996,-0.3743198305,9.746241035999999,-0.020046851788406872,0.004778711491960474,0.022785273384785976,9.760375512729803,0.03072264691346081,-0.020299765500000067,-0.07658993650000001,0.007158854499998313
226142.0,0.33352416649999994,-0.399522921,9.724666405999999,-0.014451326206513048,0.0037140606482439333,0.015058700786207076,9.73858273271983,0.0211990458510377,-0.034715541000000016,-0.02520309049999997,-0.021574629999999928
226152.0,0.341859819,-0.39707125849999997,9.747417833999998,-0.010719812265749171,0.0005166174585903216,-0.004927064478379992,9.761490057914042,0.01180920120014646,0.008335652500000068,0.002451662500000007,0.022751427999999407
226162.0,0.3586291905,-0.38147868499999993,9.821654174499999,-0.007789404451650692,-0.003480186528476693,-0.029441959151892346,9.835600215892331,0.030653147940889917,0.016769371499999963,0.01559257350000004,0.07423634050000061
226172.0,0.3825574165,-0.312047603,9.814495319999999,-0.0008604473212332044,-0.006412339671827167,-0.0454291751001604,9.826904002266385,0.04588756280236007,0.023928226000000052,0.06943108199999992,-0.007158854500000089
226182.0,0.410114103,-0.21996315949999998,9.820477376499998,0.010330603842554437,-0.008543386688512244,-0.045162139724605276,9.831498017665721,0.04710976221937464,0.027556686499999983,0.09208444350000003,0.0059820564999988335
226192.0,0.4280602725,-0.14925721299999997,9.8551929175,0.01725781564371993,-0.011740829878165854,-0.03210533159043569,9.865614058621361,0.03829401524458468,0.017946169499999998,0.0707059465,0.0347155410000024
226202.0,0.4543420945,-0.1397447625,9.8336182875,0.014060372454066319,-0.014938273067819467,-0.0150517194691991,9.845100505415639,0.025444062859049744,0.02628182200000001,0.009512450499999964,-0.021574629999999928
226212.0,0.45198849849999995,-0.125328987,9.803708004999999,0.005267403682518886,-0.01467298302151633,-0.0014625859131712482,9.814921884817005,0.015658260754557864,-0.002353596000000069,0.014415775500000005,-0.029910282500001273
226222.0,0.460324151,-0.1505320775,9.821654174499999,-0.008321729873508963,-0.008276351312957111,0.005464625887994246,9.833587796619481,0.012946478874152434,0.008335652500000068,-0.025203090499999997,0.017946169500000053
226232.0,0.46993466799999994,-0.183972754,9.8312646915,-0.02111150263212341,-0.004279547325890096,0.007330382858376184,9.844208957592134,0.022754001440429376,0.00961051699999993,-0.03344067649999999,0.009610517000000485
226242.0,0.493862894,-0.20074212549999998,9.808513263499998,-0.022977259602505348,-1.7453292519943296e-05,0.009196139828758124,9.822989891029906,0.024749217183749783,0.023928226000000052,-0.01676937149999999,-0.022751428000001184
226252.0,0.479545185,-0.24389138549999997,9.778602980999999,-0.016582373223198124,0.004513421445657336,0.009728465250616393,9.793391795103465,0.019748141963030555,-0.014317709000000012,-0.043149259999999995,-0.029910282499999497
226262.0,0.44482964399999997,-0.253403836,9.796549150499999,-0.006723008278682157,0.005578072289373877,0.011060151469888067,9.80991652229737,0.0140939945124715,-0.034715541000000016,-0.00951245050000002,0.017946169500000053
226272.0,0.4076624405,-0.273801668,9.816848915999998,0.0036686820876920805,0.005845107664929009,0.008129743655789588,9.829124002593737,0.01066382875819073,-0.03716720349999997,-0.020397832000000005,0.020299765499999012
226282.0,0.39814998999999995,-0.2593858925,9.880297941499999,0.004202752838802345,-0.00028274333882308137,-0.00039618974020271284,9.891718347616562,0.004230844068262489,-0.009512450500000047,0.014415775500000005,0.06344902550000064
226292.0,0.43041386849999996,-0.295376298,9.8899084585,-0.003792600464583678,-0.008810422064067376,-0.008923868465447007,9.903675710216241,0.013101251223435305,0.03226387850000001,-0.03599040549999999,0.009610517000002261
226302.0,0.42443181199999996,-0.3048887485,9.846857264999999,-0.0075223690760955605,-0.016804030038201405,-0.008391543043588736,9.86071485792398,0.020233127704192853,-0.005982056499999999,-0.009512450499999991,-0.04305119350000197
226312.0,0.41129090099999993,-0.27262486999999996,9.824105836999998,-0.004857251308300219,-0.013606586848547793,-0.0019949113350295187,9.836490228814611,0.01458464148252151,-0.013140911000000033,0.03226387850000001,-0.022751428000001184
226322.0,0.455616959,-0.295376298,9.796549150499999,-0.0008604473212332044,-0.005345943498858632,0.006263986685407649,9.811585459491797,0.008279916103474151,0.04432605800000006,-0.022751428000000018,-0.02755668649999876
226332.0,0.410114103,-0.273801668,9.807336465499999,-0.001127482696788337,0.001048942880448592,0.012925908440270006,9.81972552968794,0.01301731951686845,-0.04550285599999998,0.021574629999999984,0.010787314999999964
226342.0,0.38971627099999995,-0.2689964095,9.814495319999999,-0.006455972903127025,0.0061121430404841425,0.009461429875061262,9.825912488237819,0.01298293240966581,-0.02039783200000006,0.00480525850000002,0.007158854500000089
226352.0,0.40648564249999997,-0.33479903099999997,9.858821378,-0.01818109481802493,0.008243190057169218,-0.0001308996938995747,9.872875970659562,0.019962953835304272,0.01676937150000002,-0.06580262149999999,0.04432605800000111
226362.0,0.40050358599999997,-0.346763144,9.8995189755,-0.025907667416603827,0.004778711491960474,-0.01478642942289596,9.913683661824205,0.03021062411753577,-0.005982056499999999,-0.011964113000000054,0.04069759749999946
226372.0,0.396973192,-0.277332062,9.9138366845,-0.025907667416603827,-0.0037472219040318258,-0.02571044521112847,9.925656582549982,0.03669163250554342,-0.0035303939999999923,0.06943108200000003,0.014317709000000178
226382.0,0.4292370705,-0.263014353,9.882749603999999,-0.020312141834710005,-0.016004669240788003,-0.027309166805955274,9.89556267970334,0.03761014670346144,0.03226387850000001,0.014317709000000012,-0.031087080500000752
226392.0,0.4543420945,-0.24506818349999998,9.868333828499999,-0.013384930033544514,-0.02160019482268182,-0.021980676599616587,9.88182663803186,0.03359873378801089,0.02510502400000003,0.017946169499999998,-0.014415775499999839
226402.0,0.455616959,-0.242616521,9.839600343999999,-0.011252137687607444,-0.0245306026367803,-0.013987068625482556,9.853130696343952,0.030397354440780646,0.0012748644999999725,0.002451662499999979,-0.028733484500000017
226412.0,0.49866815249999996,-0.225945216,9.825282634999999,-0.010986847641304304,-0.02133315944712669,-0.011321950857687217,9.840523361314863,0.026533018756139472,0.04305119349999997,0.016671304999999997,-0.014317709000000178
226422.0,0.48072198299999996,-0.263014353,9.844405602499998,-0.017648769396166664,-0.012007865253720986,-0.013987068625482556,9.859644610296906,0.025520697049346973,-0.017946169499999998,-0.037069136999999974,0.019122967499999532
226432.0,0.49268609599999996,-0.263014353,9.830087893499998,-0.024308945821777023,-0.0048136180770003605,-0.019847884253679515,9.845940490019782,0.03174955551349931,0.011964112999999998,0.0,-0.014317709000000178
226442.0,0.4878808375,-0.24389138549999997,9.8671570305,-0.02990447140367084,0.0021153390534171274,-0.02144660584850632,9.882221338548655,0.03686066971264988,-0.004805258499999965,0.019122967500000004,0.03706913700000136
226452.0,0.459147353,-0.195936867,9.893536919,-0.030703832201084247,0.007178539213452678,-0.017449801861439306,9.906123374722965,0.03603820642144814,-0.028733484500000017,0.04795451849999999,0.02637988850000106
226462.0,0.44482964399999997,-0.19476006899999998,9.897067312999999,-0.03390302071998985,0.00797790001086608,-0.012388347030655751,9.908973019173636,0.03696664502866598,-0.014317709000000012,0.0011767980000000067,0.003530393999998438
226472.0,0.43041386849999996,-0.2223167555,9.9103062905,-0.03496767156370639,0.001048942880448592,-0.0041277036809665895,9.922139467347606,0.03522607377258427,-0.014415775500000005,-0.02755668650000001,0.01323897750000036
226482.0,0.42560861,-0.240262925,9.870785491,-0.0357670323611198,-0.006677629718130304,0.003066543495754037,9.882877879007298,0.036514038828719,-0.004805258499999965,-0.017946169499999998,-0.03952079949999998
226492.0,0.42688347449999997,-0.28458898299999996,9.824105836999998,-0.03390302071998985,-0.013873622224102926,0.004665265090580842,9.83749337415907,0.0369277254366225,0.0012748644999999725,-0.044326057999999974,-0.04667965400000185
226502.0,0.42560861,-0.32881697449999997,9.8061596675,-0.032569589171466184,-0.015205308443374598,0.001202531854624093,9.820897653276363,0.03596422703906803,-0.0012748644999999725,-0.04422799150000001,-0.017946169499998277
226512.0,0.43168873299999994,-0.3396042895,9.7989027465,-0.030438542154781107,-0.01333955147299266,-0.005993460651348527,9.81428455217247,0.03376936559351197,0.006080122999999937,-0.01078731500000002,-0.00725692099999975
226522.0,0.4376707895,-0.3407810875,9.777426183,-0.032037263749607914,-0.006677629718130304,-0.00972322926286041,9.793148126807496,0.034139686502845094,0.005982056500000055,-0.0011767980000000344,-0.021476563500000267
226532.0,0.410114103,-0.33479903099999997,9.757028351,-0.03683342853408833,-0.0029478611066184224,-0.010789625435828945,9.771380977674333,0.038494250995768094,-0.027556686499999983,0.005982056500000055,-0.020397831999998672
226542.0,0.399326788,-0.3600021215,9.7834082395,-0.037632789331501736,-0.00028274333882308137,-0.013187707828069155,9.798170247133665,0.03987759288652409,-0.01078731500000002,-0.025203090500000025,0.026379888499999282
226552.0,0.38971627099999995,-0.354020065,9.771444126499999,-0.036566393158533196,0.0002495820830351891,-0.018783233409962977,9.78561849325918,0.041109284318432804,-0.00961051700000004,0.005982056499999999,-0.01196411300000122
226562.0,0.42090141799999997,-0.367160976,9.7881154315,-0.033103659922576446,-0.005612978874413764,-0.027309166805955274,9.80403839682098,0.043279884747417,0.031185147000000024,-0.013140910999999977,0.016671305000000913
226572.0,0.44237798149999996,-0.3515684025,9.771444126499999,-0.02910511060625744,-0.013606586848547793,-0.03397108856081763,9.787768843687704,0.0467576894967712,0.02147656349999999,0.015592573499999984,-0.016671305000000913
226582.0,0.48072198299999996,-0.3276401765,9.759381947,-0.02350958502436362,-0.02053379864971329,-0.037967892547884644,9.776705871489943,0.049151788772459376,0.0383440015,0.023928225999999997,-0.012062179499999104
226592.0,0.5011198149999999,-0.3252865805,9.757028351,-0.014716616252816186,-0.022931881041953497,-0.04116533573753826,9.775302280270253,0.04936633294502645,0.02039783199999995,0.0023535960000000133,-0.0023535959999989586
226602.0,0.49513775849999997,-0.30253515249999996,9.753399890499999,-0.008321729873508963,-0.021067869400823554,-0.041964696534951655,9.770644725011548,0.04768796561448593,-0.005982056499999944,0.022751428000000018,-0.003628460500001651
226612.0,0.527401637,-0.24987344199999997,9.785761835499999,-0.006723008278682157,-0.016004669240788003,-0.04489684967830213,9.803148674015686,0.04813600927432926,0.03226387850000001,0.052661710499999986,0.03236194499999989
226622.0,0.5549583235,-0.20191892349999999,9.818123780499999,-0.013384930033544514,-0.012540190675579259,-0.043031092707920195,9.835868266793172,0.04677699941018437,0.027556686499999983,0.04795451849999999,0.03236194499999989
226632.0,0.551329863,-0.16720338249999997,9.826459432999998,-0.019512781037296607,-0.009609782861480778,-0.03343876313895936,9.843334118953276,0.03989044284935577,-0.003628460499999986,0.034715541000000016,0.008335652499999568
226642.0,0.562117178,-0.148080415,9.830087893499998,-0.022710224226950213,-0.009875072907783916,-0.02144660584850632,9.847260102436845,0.03276016257275885,0.010787315000000075,0.019122967499999977,0.003628460499999875
226652.0,0.5561351215,-0.1768138995,9.834893152,-0.023244294978060482,-0.009609782861480778,-0.008391543043588736,9.852191265889974,0.026515338397318258,-0.005982056500000055,-0.028733484500000017,0.0048052585000011305
226662.0,0.5262248389999999,-0.18161915799999998,9.8336182875,-0.023244294978060482,-0.009875072907783916,0.0001361356816555577,9.84936275725428,0.025255352836279193,-0.02991028250000005,-0.004805258499999965,-0.0012748644999991399
226672.0,0.5130839279999999,-0.22712201399999998,9.800079544499999,-0.028305749808844035,-0.01333955147299266,0.002801253449450899,9.816129512437305,0.031416653651042396,-0.013140911000000033,-0.04550285600000001,-0.03353874300000115
226682.0,0.5225963785,-0.2593858925,9.7737977225,-0.03363598534443472,-0.016271704616343134,0.002267182698340634,9.791195531516848,0.03743378151616805,0.009512450500000047,-0.03226387850000001,-0.02628182199999962
226692.0,0.5214195805,-0.25820909449999996,9.7414357775,-0.03443534614184812,-0.01467298302151633,0.002801253449450899,9.75879712477764,0.03753580311578083,-0.0011767979999999234,0.0011767980000000344,-0.03236194499999989
226702.0,0.5298532994999999,-0.2713500055,9.7271180685,-0.030703832201084247,-0.012540190675579259,0.007597418233931317,9.745316888794076,0.03402502693361895,0.008433718999999895,-0.013140911000000033,-0.014317709000000178
226712.0,0.514260726,-0.29410143349999995,9.681615212499999,-0.025907667416603827,-0.009342747485925645,0.0113271868454432,9.699723339889866,0.02977917600248044,-0.015592573499999984,-0.022751427999999962,-0.04550285600000059
226722.0,0.493862894,-0.3144992655,9.6612173805,-0.023244294978060482,-0.0061453042962720346,0.011859512267301468,9.678942691190262,0.026808768064555694,-0.02039783199999995,-0.02039783200000006,-0.020397831999998672
226732.0,0.46993466799999994,-0.3276401765,9.693579325499998,-0.024043655775473884,-0.0008168140899333463,0.007330382858376184,9.71049261454877,0.025149534412337887,-0.023928226000000052,-0.013140910999999977,0.032361944999998116
226742.0,0.4770935225,-0.3252865805,9.697207786,-0.025108306619190425,0.0005166174585903216,0.0009354964790689607,9.714384614247258,0.025131038747814475,0.007158854500000034,0.0023535960000000133,0.003628460500001651
226752.0,0.46395261149999995,-0.298906692,9.712702293,-0.022710224226950213,-0.0010821041362364843,-0.004927064478379992,9.728370010885046,0.02326373138974336,-0.013140911000000033,0.026379888500000004,0.015494506999999658
226762.0,0.467581072,-0.265367949,9.704366640499998,-0.014716616252816186,-0.006677629718130304,-0.007592182246175334,9.719248124237716,0.0178552727182827,0.0036284605000000414,0.03353874299999998,-0.008335652500001345
226772.0,0.4615990155,-0.263014353,9.662492245,-0.0101874868438909,-0.012007865253720986,-0.007325146870620201,9.677086678628012,0.017367541358008245,-0.005982056499999999,0.0023535960000000133,-0.04187439549999894
226782.0,0.502296613,-0.27262486999999996,9.6325819625,-0.004857251308300219,-0.017603390835614807,-0.0070581114950650685,9.649521307891606,0.019577773036281762,0.04069759749999996,-0.009610516999999985,-0.029910282499999497
226792.0,0.5106322655,-0.26066075699999997,9.605025276,-6.108652381980153e-05,-0.022399555620095227,-0.010255554684718681,9.622120342908227,0.024635750961405405,0.008335652500000013,0.011964112999999998,-0.027556686500000538
226802.0,0.5237731765,-0.276155264,9.583450646,0.006866125277345693,-0.021067869400823554,-0.014252358671785694,9.601725175955288,0.02634631900519668,0.013140911000000033,-0.015494507000000046,-0.021574629999999928
226812.0,0.5381889519999999,-0.2689964095,9.5762917915,0.018591247192243598,-0.017071065413756536,-0.01718451181513617,9.595174354451773,0.030534622854202973,0.01441577549999995,0.007158854500000034,-0.007158854500000089
226822.0,0.53936575,-0.25467870049999997,9.583450646,0.030314623777889512,-0.01067443370519732,-0.016385151017722765,9.601994737401142,0.03607482672994034,0.0011767980000000344,0.014317709000000012,0.007158854500000089
226832.0,0.5680992345,-0.2570322965,9.634935558499999,0.042039745692787414,-0.008543386688512244,-0.012121311655100619,9.655091172957986,0.04457864814307141,0.028733484500000017,-0.0023535960000000133,0.051484912499999425
226842.0,0.563293976,-0.22947561,9.6804384145,0.050033353666921444,-0.0018814649336498874,-0.0043929937272697275,9.699528187283649,0.05026106627742419,-0.00480525850000002,0.027556686499999983,0.04550285600000059
226852.0,0.5692760324999999,-0.2485985775,9.7163307535,0.05296376148101993,0.004778711491960474,0.001467821900927231,9.736167611813379,0.053199159907601996,0.005982056499999944,-0.019122967500000004,0.035892339000000106
226862.0,0.5573119194999999,-0.26664281349999996,9.7510462945,0.04976631829136631,0.009309586230137754,0.00386590429316744,9.770598692152399,0.05077696375383115,-0.011964112999999998,-0.018044235999999964,0.03471554100000063
226872.0,0.548976267,-0.24506818349999998,9.770169262,0.04443782808502762,0.0135734255927599,0.004665265090580842,9.788648566805474,0.04669821351617267,-0.008335652499999902,0.021574629999999984,0.019122967499999532
226882.0,0.5310300975,-0.24389138549999997,9.828813028999999,0.0457695143042993,0.01703615882871665,0.010794861423584929,9.846168875832472,0.050016079219018364,-0.017946169500000053,0.0011767980000000067,0.058643766999999514
226892.0,0.5250480409999999,-0.225945216,9.824105836999998,0.04896695749395291,0.01943424122095686,0.023584634182199374,9.840720612971829,0.05772077292931114,-0.005982056500000055,0.01794616949999997,-0.00470719200000147
226902.0,0.5130839279999999,-0.2786069265,9.922270403499999,0.05056567908877972,0.021832323613197067,0.03637440694081382,9.939432926321185,0.0660048160088091,-0.011964112999999998,-0.052661710500000014,0.09816456650000127
226912.0,0.493862894,-0.3360738955,9.943746967000001,0.0457695143042993,0.02156703356689393,0.04490208566605812,9.961674054345902,0.06764748830288533,-0.019221033999999915,-0.05746696899999998,0.021476563500002044
226922.0,0.483075579,-0.3935408645,9.951003888,0.0380429417057204,0.01943424122095686,0.041170571725294244,9.970492204803568,0.059329344523994,-0.01078731500000002,-0.05746696899999998,0.00725692099999975
226932.0,0.48552724149999993,-0.42217628249999994,9.9377649105,0.03244741612382658,0.01650383340685838,0.03557504614340042,9.958571229454012,0.05089985499330195,0.0024516624999999515,-0.028635417999999968,-0.01323897750000036
226942.0,0.467581072,-0.4174690904999999,9.939039775,0.033779102343098256,0.01650383340685838,0.03024655593706173,9.958786278932168,0.04825203019853823,-0.017946169499999942,0.004707192000000027,0.0012748644999991399
226952.0,0.4412011835,-0.392266,9.930606055999998,0.036709510157196736,0.01943424122095686,0.028647834342234925,9.94813890828539,0.05045766820133293,-0.026379888500000004,0.025203090499999914,-0.008433719000001005
226962.0,0.4292370705,-0.3743198305,9.926977595499999,0.03271270617012972,0.020500637393925398,0.02758143816926639,9.94330146278166,0.047446106373605836,-0.011964112999999998,0.017946169499999998,-0.003628460499999875
226972.0,0.413644497,-0.38746074150000004,9.9018725715,0.023387411976724018,0.01650383340685838,0.028647834342234925,9.91807985541184,0.04049748101537284,-0.015592573499999984,-0.013140911000000033,-0.025105023999998366
226982.0,0.43168873299999994,-0.4078585735,9.895890515,0.015393804002589986,0.01090830782496456,0.029979520561506597,9.913695217376999,0.03542219691622945,0.018044235999999936,-0.02039783199999995,-0.00598205650000061
226992.0,0.4376707895,-0.4055049775,9.862351771999998,0.01672549022186166,0.006644468462342412,0.028380798966679794,9.880383215312568,0.033605962778884134,0.005982056500000055,0.0023535960000000133,-0.03353874300000115
227002.0,0.45081170049999997,-0.41021216949999995,9.873139087,0.019655898035960143,0.0061121430404841425,0.02251823800923084,9.891935131437165,0.030508747322493743,0.013140910999999977,-0.004707191999999971,0.01078731500000174
227012.0,0.434042329,-0.3935408645,9.893536919,0.018591247192243598,0.005845107664929009,0.011859512267301468,9.910869786401756,0.022813324768564344,-0.016769371499999963,0.01667130499999997,0.02039783200000045
227022.0,0.435219127,-0.365984178,9.912659886499998,0.011397000015522973,0.0031799898971336684,0.002001892652037496,9.928956950882561,0.01200047996081759,0.001176797999999979,0.027556686499999983,0.019122967499997756
227032.0,0.4496349025,-0.320481322,9.907854628,0.0020699604928652747,0.0007819075048934596,-0.0027942721324429216,9.923228464208515,0.0035642772813543676,0.014415775500000005,0.04550285599999998,-0.004805258499997578
227042.0,0.45081170049999997,-0.2786069265,9.922270403499999,-0.0021938788697568722,-0.0005497787143782138,-0.00466002910282486,9.936412983012204,0.005179887293090818,0.001176797999999979,0.041874395499999995,0.014415775499998063
227052.0,0.455616959,-0.263014353,9.929429258,-0.0016598081186466075,-0.0008168140899333463,-0.0017296212887263805,9.943356010564987,0.0025325358932608115,0.00480525850000002,0.01559257350000004,0.0071588545000018655
227062.0,0.443652846,-0.265367949,9.9377649105,-0.002726204291615143,-0.004279547325890096,-0.0019949113350295187,9.951201907934811,0.005452190971415359,-0.011964112999999998,-0.0023535960000000133,0.008335652499999568
227072.0,0.4615990155,-0.2689964095,9.931782854,-0.003258529713473413,-0.011740829878165854,-0.0038606683054114572,9.946142135443413,0.012781622036581652,0.017946169499999998,-0.003628460499999986,-0.00598205650000061
227082.0,0.4735631285,-0.240262925,9.909031426,-0.006190682856823887,-0.01840275163302821,-0.008391543043588736,9.923250078036926,0.021151922289784873,0.011964112999999998,0.02873348449999999,-0.022751427999999407
227092.0,0.479545185,-0.21868829499999998,9.882749603999999,-0.008054694497953832,-0.022132520244540092,-0.00519235452468313,9.896793818716688,0.024118190258399202,0.005982056499999999,0.02157463000000001,-0.026281822000001398
227102.0,0.4963145565,-0.18279595599999998,9.807336465499999,-0.00992045146833577,-0.02319891641750863,0.004665265090580842,9.821588010502667,0.025658717400672017,0.01676937150000002,0.035892338999999995,-0.07541313850000009
227112.0,0.47836838699999995,-0.195936867,9.816848915999998,-0.013650220079847652,-0.02160019482268182,0.016657422381033883,9.830450152922861,0.03050191215294961,-0.017946169500000053,-0.013140911000000005,0.009512450499999048
227122.0,0.483075579,-0.26664281349999996,9.7618336095,-0.020312141834710005,-0.02080083402526842,0.026782077371852987,9.777415600483657,0.039528944716651124,0.004707192000000027,-0.07070594649999998,-0.05501530649999786
227132.0,0.4735631285,-0.33479903099999997,9.7163307535,-0.025108306619190425,-0.01840275163302821,0.02758143816926639,9.733623977699319,0.04159115363193559,-0.009512450499999991,-0.0681562175,-0.04550285600000059
227142.0,0.483075579,-0.4055049775,9.706720236499999,-0.02564237737030069,-0.01280722605113439,0.016657422381033883,9.727189422000686,0.03315156522256427,0.009512450499999991,-0.0707059465,-0.009610517000000485
227152.0,0.46640427399999995,-0.4055049775,9.6792616165,-0.019512781037296607,-0.005878268920716902,0.0006684611035138282,9.698972763866951,0.020389936477602358,-0.016671305000000025,0.0,-0.0274586199999991
227162.0,0.46640427399999995,-0.38510714549999997,9.695932921499999,-0.010452776890194039,-0.0005497787143782138,-0.009456193887305276,9.7147802691851,0.014106112298761398,0.0,0.020397832000000005,0.016671304999999137
227172.0,0.4627758135,-0.365984178,9.7414357775,-0.0019268434942017398,0.0002495820830351891,-0.013187707828069155,9.759286699306664,0.013330065822261952,-0.0036284604999999304,0.019122967499999977,0.04550285600000059
227182.0,0.44482964399999997,-0.34323275000000003,9.796549150499999,0.00020420352248333657,-0.0029478611066184224,-0.013452997874372293,9.812647827728048,0.013773697252022552,-0.017946169500000053,0.022751427999999962,0.0551133729999993
227192.0,0.460324151,-0.34323275000000003,9.879121143499999,-0.0029932396671702756,-0.0061453042962720346,-0.01292067245251402,9.89579413754223,0.014617387770188481,0.015494507000000046,0.0,0.08257199300000018
227202.0,0.4496349025,-0.32165812,9.941393371,-0.00699004365423729,-0.00721170046924057,-0.015585790220309363,9.956753368878374,0.018541472183666502,-0.010689248500000026,0.02157463000000004,0.062272227500001165
227212.0,0.43639592499999996,-0.30253515249999996,9.9713036535,-0.013917255455402783,-0.0048136180770003605,-0.01718451181513617,9.985432663242852,0.02263113706216985,-0.013238977500000026,0.019122967500000032,0.029910282499999497
227222.0,0.41246769899999997,-0.297729894,10.058680905,-0.028305749808844035,-0.003214896482173555,-0.019582594207376378,10.071535843212356,0.034569191884143556,-0.023928225999999997,0.004805258499999965,0.08737725149999953
227232.0,0.399326788,-0.2713500055,10.055150510999999,-0.04642575810304917,-0.005345943498858632,-0.021980676599616587,10.06673455038737,0.05164378250198911,-0.013140910999999977,0.026379888500000004,-0.0035303940000002143
227242.0,0.37657535999999997,-0.2223167555,10.056327309,-0.06587745261652597,-0.014405947645961197,-0.027309166805955274,10.065830948673554,0.0727541111034716,-0.022751428000000018,0.04903325,0.0011767980000012557
227252.0,0.36225765099999996,-0.225945216,10.0071959925,-0.08373042553517596,-0.03145955976719779,-0.027309166805955274,10.016299390426056,0.0935215411158468,-0.014317709000000012,-0.0036284605000000136,-0.049131316500000466
227262.0,0.4053088445,-0.26066075699999997,9.9809141705,-0.09865299063972749,-0.046647414918052445,-0.01798387261254957,9.992540566270295,0.11059752960551837,0.04305119350000003,-0.03471554099999996,-0.02628182199999962
227272.0,0.43884758749999997,-0.346763144,9.929429258,-0.10371619079976303,-0.06130294464704883,-0.008656833089891874,9.945169544694439,0.1207892379956022,0.03353874299999998,-0.08610238700000006,-0.051484912499999425
227282.0,0.479545185,-0.399522921,9.825282634999999,-0.09492147669896361,-0.07062998416970653,-0.0025289820861397836,9.845088166517026,0.11834304860411914,0.040697597500000016,-0.05275977699999995,-0.10414662300000188
227292.0,0.5333836934999999,-0.43061000149999995,9.7390821815,-0.08026594696996722,-0.069563587996738,-0.00519235452468313,9.763178011072744,0.10634225671611215,0.05383850849999994,-0.031087080499999975,-0.08620045349999828
227302.0,0.548976267,-0.45336142949999997,9.7139771575,-0.06587745261652597,-0.05863782687925349,-0.016650441064025905,9.740034073036878,0.08975227402127775,0.015592573500000095,-0.022751428000000018,-0.025105024000000142
227312.0,0.559763582,-0.434238462,9.681615212499999,-0.05788384464239194,-0.04291764630654057,-0.024378758991856795,9.70750078199971,0.07607093876810592,0.010787314999999964,0.019122967499999977,-0.03236194500000167
227322.0,0.570550897,-0.38510714549999997,9.6468996715,-0.05575279762570686,-0.02612932423160711,-0.02890788840078208,9.67142745987217,0.06802045309820823,0.010787314999999964,0.04913131650000002,-0.03471554099999885
227332.0,0.5501530649999999,-0.3600021215,9.693579325499998,-0.05628512304756513,-0.008011061266653973,-0.029707249198195482,9.715850454909976,0.06414602742197928,-0.020397832000000005,0.025105023999999976,0.046679653999998294
227342.0,0.5322068955,-0.3600021215,9.7163307535,-0.06214768400501409,0.003979350694547071,-0.029974284573750617,9.737552516855152,0.06911315066501787,-0.017946169499999942,0.0,0.022751428000001184
227352.0,0.5345604915,-0.38147868499999993,9.735453720999999,-0.062412974051317224,0.008243190057169218,-0.031573006168577424,9.757578596143349,0.0704285753850668,0.002353595999999958,-0.021476563499999934,0.019122967499999532
227362.0,0.5418174124999999,-0.37912508899999997,9.780956577,-0.0568174484694234,0.007710864635310948,-0.036102135577502706,9.803285852343437,0.06775724372534687,0.007256920999999972,0.002353595999999958,0.04550285600000059
227372.0,0.5237731765,-0.37314303249999997,9.767815666,-0.04482703650822236,0.001848303677861995,-0.042498767286061924,9.78896301699415,0.061798257656910896,-0.018044235999999936,0.005982056499999999,-0.013140910999998923
227382.0,0.527401637,-0.401876517,9.753399890499999,-0.02910511060625744,-0.009875072907783916,-0.04782725749240061,9.775912573546867,0.05685130682386217,0.003628460499999986,-0.028733484500000017,-0.014415775500001615
227392.0,0.528578435,-0.37912508899999997,9.747417833999998,-0.012318533860575978,-0.020001473227855015,-0.05262342227688103,9.769098496055689,0.0576283765161721,0.0011767980000000344,0.022751428000000018,-0.00598205650000061
227402.0,0.5465246045,-0.33244543499999996,9.674456357999999,0.00020420352248333657,-0.024265312590477164,-0.05475446929356611,9.695582237979462,0.059890725507479356,0.017946169499999942,0.046679654000000015,-0.07296147599999969
