timestamp,ax,ay,az,gx,gy,gz,acc_mag,gyro_mag,dax,day,daz
317392.0,-0.250265708,0.5363256885,9.5272585415,-0.0196681153407241,0.08233765279208449,-0.04277976529563301,9.545623787125201,0.09484952370526345,0.0,0.0,0.0
317402.0,-0.31969678999999995,-0.12572125299999998,9.911581154999999,-0.03405660969416535,0.06288595827860768,-0.049174651674940235,9.917532599550318,0.08679079893532037,-0.06943108199999998,-0.6620469414999999,0.3843226134999984
317412.0,-0.24908890999999997,-0.5351488904999999,9.849308927500001,-0.03165852730192514,0.06714805231197785,-0.043579126093046414,9.866981097043796,0.08608288744723014,0.07060787999999998,-0.40942763749999994,-0.06227222749999761
317422.0,-0.2586013605,-0.5231847775,9.8612730405,-0.01780235837034216,0.05089380098815465,-0.025726153174396416,9.878527367697693,0.059740588377756115,-0.00951245050000002,0.011964112999999887,0.011964112999999443
317432.0,-0.2778223945,-0.5386792844999999,9.8349912185,-0.007143632628412791,0.03943571444881188,-0.008937831099462962,9.853649725985152,0.04106204921798815,-0.019221034000000026,-0.01549450699999988,-0.02628182199999962
317442.0,-0.30410421649999997,-0.5698644315,9.845680467000001,0.0019163715186897737,0.03117681642837471,-0.0012112585008840647,9.866845934899727,0.03125913481787659,-0.026281821999999955,-0.03118514700000008,0.010689248500000303
317452.0,-0.330484105,-0.6344902549999999,9.936686179,0.013372712728780553,0.019718729889031932,-0.0009442231253289323,9.962405826268936,0.02384427208940329,-0.026379888500000004,-0.0646258234999999,0.0910057119999994
317462.0,-0.380694153,-0.6285081985,9.982189035,0.02269975225143825,-0.002398082392240209,-0.008672541053159824,10.009198195868853,0.02441807772441129,-0.05021004800000001,0.005982056499999944,0.045502855999998815
317472.0,-0.435807526,-0.588987399,10.012099317499999,0.029094638630745476,-0.030909781052819576,-0.020662953014360868,10.038872800239226,0.047210911758412334,-0.05511337300000002,0.03952079949999998,0.029910282499999497
317482.0,-0.42021495249999996,-0.5806517465,10.012099317499999,0.03335847799336762,-0.06181956210563915,-0.03132167875629024,10.037722341273543,0.07691224787430939,0.01559257350000004,0.008335652500000013,0.0
317492.0,-0.34597861199999996,-0.5267151715,9.981012236999998,0.029893999428158877,-0.07727445263204895,-0.03904825135486913,10.00088672803534,0.09159562306828083,0.0742363405,0.05393657499999993,-0.031087080500000752
317502.0,-0.237124797,-0.49798168699999995,9.866078299,0.01976934443733977,-0.0676821230630881,-0.03691720433818406,9.881483437821387,0.07959005426531895,0.10885381499999996,0.028733484500000073,-0.11493393799999829
317512.0,-0.15210114149999998,-0.46326614599999993,9.80861133,-0.0023474678439323734,-0.03890338902695361,-0.022528709984742806,9.820723318690924,0.04501696409840896,0.08502365550000002,0.034715541000000016,-0.057466969000000034
317522.0,-0.13297817399999998,-0.4788587195,9.8122397905,-0.026595327141889596,-0.0005323254218582705,-0.002542944720155738,9.824817483000539,0.02672192665188373,0.019122967500000004,-0.01559257350000004,0.003628460499999875
317532.0,-0.1424906245,-0.5278919695,9.773895789,-0.04071853144902771,0.022649137703130415,0.015042992822939126,9.78917833139048,0.04896196355470051,-0.00951245050000002,-0.04903324999999997,-0.0383440015000005
317542.0,-0.1736757715,-0.5818285445,9.8049828695,-0.04178492762199624,0.03197617722578811,0.025701718564868494,9.823765917406092,0.0585579578156392,-0.031185146999999996,-0.05393657500000004,0.031087080500000752
317552.0,-0.22633748199999998,-0.5937926575,9.817045049,-0.03752108825937409,0.025314255470925754,0.031030208771207185,9.837590755360504,0.054877294490524385,-0.052661710499999986,-0.011964112999999998,0.01206217950000088
317562.0,-0.2562477645,-0.6045799725,9.794293621,-0.03485597049157876,0.011725121914897906,0.02943148717638038,9.816280731230165,0.047102331155076296,-0.029910282499999996,-0.010787314999999964,-0.022751428000001184
317572.0,-0.28615804699999997,-0.6034031745,9.7355517875,-0.028461084112271533,0.002930407814098479,0.021437879202246348,9.758429711073088,0.035751968665974625,-0.029910282499999996,0.0011767979999999234,-0.058741833499999174
317582.0,-0.2813527885,-0.6034031745,9.6757312225,-0.018336429121452426,0.004263839362622147,0.011845549633285515,9.698609666991178,0.022242347114253144,0.004805258499999965,0.0,-0.05982056500000077
317592.0,-0.26340661899999995,-0.5985979159999999,9.66739557,-0.007677703379523056,0.013589133556027849,0.004117231705454623,9.689491195043638,0.016141972522089813,0.017946169500000053,0.004805258500000131,-0.008335652499999568
317602.0,-0.24908890999999997,-0.5878106009999999,9.712898425999999,0.005646140130201656,0.02664594169019743,0.0017191493132144146,9.733856503027267,0.027291767646827142,0.014317708999999984,0.010787314999999964,0.045502855999998815
317612.0,-0.28978650749999996,-0.5806517465,9.717605618,0.013639748104335684,0.03330786344505979,0.001986184688769547,9.739250054168838,0.03604721106052979,-0.04069759749999999,0.007158854499999978,0.00470719200000147
317622.0,-0.34244821799999997,-0.5674127689999999,9.8014524755,0.021900391454024847,0.03170914185023298,0.004384267081009755,9.82383319595364,0.038785546541918764,-0.052661710500000014,0.013238977500000026,0.08384685749999932
317632.0,-0.3148915315,-0.555448656,9.832539555999999,0.029893999428158877,0.02371553387609895,0.004916592502868027,9.853248906140923,0.03847402540258062,0.027556686499999983,0.011964112999999887,0.031087080499998976
317642.0,-0.318519992,-0.555448656,9.888829727,0.02829527783333207,0.020251055310890206,0.005982988675836562,9.90953740415539,0.03530614878976998,-0.003628460499999986,0.0,0.056290171000000555
317652.0,-0.3496070725,-0.5434845429999999,9.903147436,0.019235273686229508,0.0186523337160634,0.012112585008840646,9.924209272923225,0.02940442181774605,-0.03108708050000003,0.01196411300000011,0.014317709000000178
317662.0,-0.332837701,-0.563882375,9.9391378415,0.0091106186954104,0.013589133556027849,0.01957212223186441,9.96068297359071,0.02550952552431669,0.01676937150000002,-0.020397832000000116,0.03599040549999977
317672.0,-0.33881975749999993,-0.621349344,9.948650292,0.0003159045946109737,0.004529129408925285,0.023303636172628286,9.973791479065184,0.023741783163484537,-0.005982056499999944,-0.05746696899999992,0.009512450500000824
317682.0,-0.35794272499999996,-0.6260565359999999,9.921191671999999,-0.004213224814314312,-0.0015987215948268059,0.02197020462410462,9.947367188015676,0.022427596065979685,-0.019122967500000032,-0.004707191999999916,-0.027458620000000877
317692.0,-0.37951735499999995,-0.6441007719999999,9.888829727,-0.0010157816246606998,-0.0037297686115118824,0.018240436012592738,9.917048582962376,0.018645548855796862,-0.021574629999999984,-0.018044236000000047,-0.03236194499999989
317702.0,-0.36873004,-0.64527757,9.891183323,0.0024486969405480446,-0.0015987215948268059,0.012112585008840646,9.919065102817747,0.012460607651346947,0.010787314999999964,-0.0011767980000000344,0.002353596000000735
317712.0,-0.377163759,-0.6763646504999999,9.881670872499999,0.004314453910929983,0.0063948863793072235,0.0017191493132144146,9.91196957592001,0.007903452328882213,-0.008433719000000006,-0.031087080499999975,-0.009512450500000824
317722.0,-0.401091985,-0.658418481,9.8959885815,0.006178465552059927,0.010925761117484502,-0.00840550567760469,9.925974999048304,0.015106231107412996,-0.023928225999999997,0.017946169499999942,0.014317709000000178
317732.0,-0.39746352449999994,-0.6547900204999999,9.8948117835,0.009375908741713538,0.006127851003752092,-0.020395917638805737,9.924415723615411,0.023269114271627808,0.0036284605000000414,0.003628460500000097,-0.0011767979999994793
317742.0,-0.389127872,-0.635667053,9.887652928999998,0.011773991133953747,-0.007726572598578897,-0.030255282583321705,9.915703381374373,0.03337227764987253,0.008335652499999957,0.019122967499999866,-0.0071588545000018655
317752.0,-0.33999655549999996,-0.5913409949999999,9.875688815999998,0.010709340290237207,-0.02238210232757528,-0.03505144736780212,9.89921771760713,0.04294476029310154,0.04913131650000002,0.04432605800000011,-0.011964112999999443
317762.0,-0.29576856399999996,-0.5506433974999999,9.85176059,0.005113814708343385,-0.028244663285024237,-0.030522317958876832,9.871568969385672,0.04189897371700697,0.04422799150000001,0.040697597500000016,-0.023928225999998887
317772.0,-0.2705654735,-0.5459362055,9.820575443,-0.004213224814314312,-0.025047220095370623,-0.019331266795089192,9.839459032262935,0.03191884041980237,0.02520309049999997,0.004707191999999916,-0.031185147000000413
317782.0,-0.23231953849999998,-0.5099457999999999,9.789488362499998,-0.012739158210306611,-0.011725121914897906,-0.007073819458333018,9.805513728837944,0.018703036051816085,0.03824593500000001,0.0359904055000001,-0.031087080500000752
317792.0,-0.2346731345,-0.5339720925,9.7547728215,-0.016735962197373624,0.00559552558189382,0.004916592502868027,9.77219476242159,0.018318712265025763,-0.0023535960000000133,-0.0240262925000001,-0.03471554099999885
317802.0,-0.2346731345,-0.5434845429999999,9.7355517875,-0.013273228961416875,0.014922565104551517,0.013177235852557189,9.753533489747724,0.023926995237089275,0.0,-0.009512450499999936,-0.019221033999999193
317812.0,-0.273017136,-0.5913409949999999,9.740357046,-0.007410668003967923,0.018385298340508265,0.01664171441776593,9.762109296278089,0.02588211456000086,-0.0383440015,-0.047856451999999994,0.004805258499999354
317822.0,-0.29812215999999997,-0.6081103664999999,9.7571264175,0.0019163715186897737,0.020251055310890206,0.015575318244797397,9.780602791607693,0.025619684998631393,-0.025105023999999976,-0.01676937150000002,0.016769371500000574
317832.0,-0.29812215999999997,-0.6344902549999999,9.7870367,0.011508701087650609,0.01625425132382319,0.008115781021773632,9.812112008794026,0.021506203486814666,0.0,-0.02637988849999995,0.029910282499999497
317842.0,-0.30175062049999996,-0.6416491095,9.776249385,0.021900391454024847,0.009060004147102564,-0.0020106192982974674,9.801929353673549,0.023785571486674994,-0.003628460499999986,-0.007158854500000089,-0.010787314999999964
317852.0,-0.3148915315,-0.636843851,9.794293621,0.03282440724225736,-0.0021310470166850766,-0.007873180255746421,9.820026186397275,0.033822626147777986,-0.013140911000000033,0.00480525850000002,0.018044235999999714
317862.0,-0.294591766,-0.609385231,9.827734297500001,0.03922103895081657,-0.01625425132382319,-0.013201670462085108,9.851014977687008,0.044460934374672884,0.02029976550000001,0.02745861999999999,0.03344067650000149
317872.0,-0.25987622499999996,-0.5710412294999999,9.8624498385,0.03575656038560783,-0.025846580892784028,-0.01773254520026239,9.882385367664924,0.047550189418510164,0.034715541000000016,0.03834400150000006,0.03471554099999885
317882.0,-0.2693886755,-0.5099457999999999,9.8840244685,0.027228881660363535,-0.033574898820614915,-0.019331266795089192,9.900836059208938,0.047353814030039104,-0.009512450500000047,0.06109542950000002,0.021574629999999928
317892.0,-0.2705654735,-0.4788587195,9.893634985499999,0.013906783479890817,-0.0365053066347134,-0.018531905997675794,9.908911371841057,0.04323734010271338,-0.001176797999999979,0.03108708049999992,0.009610516999998708
317902.0,-0.274193934,-0.487194372,9.872060355499999,0.0005829399701661061,-0.02664594169019743,-0.014268066635053644,9.887877240954483,0.030231171877195727,-0.003628460499999986,-0.008335652500000013,-0.021574629999999928
317912.0,-0.2670350795,-0.5255383735,9.8744139515,-0.009808750396208134,-0.009327039522657697,-0.012137019618368569,9.891994197394297,0.018180002635010684,0.007158854499999978,-0.0383440015,0.002353596000000735
317922.0,-0.262229821,-0.5099457999999999,9.867255097000001,-0.01753706832403902,0.01119105116378764,-0.009471901850573226,9.88390268806972,0.022858375187650982,0.00480525850000002,0.015592573500000095,-0.007158854499998313
317932.0,-0.275370732,-0.4896460345,9.913934751,-0.024464280125204515,0.025846580892784028,-0.004941027112395947,9.92983809164224,0.03592993869765348,-0.013140911000000033,0.0202997654999999,0.046679653999998294
317942.0,-0.2801759905,-0.49199963049999995,9.946296696,-0.027394687939302997,0.030909781052819576,0.0027855454861829498,9.962398315010562,0.041396168369556036,-0.00480525850000002,-0.002353595999999958,0.03236194499999989
317952.0,-0.29576856399999996,-0.5112206645,9.959437606999998,-0.026330037095586456,0.027979373238721097,0.010246828038458708,9.976934552205316,0.03976322000462695,-0.015592573499999929,-0.01922103400000008,0.013140910999998923
317962.0,-0.3052810145,-0.5267151715,9.9091294925,-0.02473131550075965,0.020518090686445337,0.01397659664997059,9.92781308591352,0.035042478019273675,-0.009512450500000047,-0.01549450699999999,-0.05030811449999817
317972.0,-0.29812215999999997,-0.6069335685,9.888829727,-0.024197244749649387,0.007726572598578897,0.017174039839624202,9.91192204108033,0.030661934414001744,0.007158854500000034,-0.080218397,-0.020299765500000788
317982.0,-0.31126307099999995,-0.6428259074999999,9.842150072999999,-0.02579596634447619,-0.0015987215948268059,0.01397659664997059,9.868030599171014,0.029382529576247908,-0.013140910999999977,-0.035892338999999884,-0.04667965400000007
317992.0,-0.34725347649999994,-0.6524364245000001,9.8049828695,-0.023931954703346248,-0.007726572598578897,0.0078487456462185,9.832799567577085,0.026344661475584775,-0.03599040549999999,-0.009610517000000152,-0.037167203499999246
318002.0,-0.353235533,-0.6632237394999999,9.773895789,-0.020467476138137503,-0.009060004147102564,0.001986184688769547,9.802738391115112,0.02247100763714539,-0.005982056500000055,-0.010787314999999853,-0.031087080500000752
318012.0,-0.3376429595,-0.636843851,9.7188804825,-0.013273228961416875,-0.006927211801165493,-0.0009442231253289323,9.745573902637846,0.015001880805779256,0.015592573499999984,0.02637988849999995,-0.05501530649999964
318022.0,-0.3268556445,-0.6273314004999999,9.736826652,-0.006878342582109653,-0.0015987215948268059,0.00012042771838760874,9.762488030696495,0.007062719748792564,0.01078731500000002,0.009512450500000047,0.017946169500000053
318032.0,-0.33646616149999997,-0.62370294,9.738003449999999,-0.006611307206554521,0.004529129408925285,0.001986184688769547,9.763755733702634,0.008256350634519722,-0.009610516999999985,0.003628460499999875,0.0011767979999994793
318042.0,-0.34127141999999994,-0.6034031745,9.7571264175,-0.010875146569176666,0.009592329568960835,0.001986184688769547,9.781721602058703,0.014636479394941187,-0.004805258499999965,0.02029976550000001,0.01912296750000131
318052.0,-0.343625016,-0.5901641969999999,9.7798778455,-0.01220683278844834,0.01625425132382319,0.0017191493132144146,9.803692294433937,0.020400071744586367,-0.002353596000000069,0.013238977500000138,0.022751427999999407
318062.0,-0.355589129,-0.5614307125,9.771542192999998,-0.00847706417693646,0.021050416108303608,0.0009197885158010117,9.794114809577252,0.022711817327251176,-0.011964112999999998,0.028733484499999906,-0.008335652500001345
318072.0,-0.329307307,-0.556625454,9.796647216999999,-0.0007487462491055673,0.026380651643894294,-0.0006789330790257941,9.817971882870623,0.02640000667098112,0.02628182200000001,0.00480525850000002,0.025105024000000142
318082.0,-0.332837701,-0.5937926575,9.836168016499999,0.007511897100583594,0.02238210232757528,-0.0036093408931242737,9.859694310886388,0.023883350776944725,-0.0035303939999999923,-0.03716720350000002,0.03952079949999998
318092.0,-0.34244821799999997,-0.621349344,9.888829727,0.010974630336540345,0.014655529728996385,-0.008672541053159824,9.91424728150854,0.02025931960802117,-0.009610516999999985,-0.027556686499999983,0.05266171050000068
318102.0,-0.33528936349999994,-0.610562029,9.880396008,0.009909979492823802,0.004263839362622147,-0.014800392056911913,9.904919496060286,0.018315010911728543,0.007158854500000034,0.010787314999999964,-0.008433718999999229
318112.0,-0.294591766,-0.5758464879999999,9.866078299,0.008311257897996997,-0.005328490206338688,-0.018531905997675794,9.88725869431642,0.020997651193234847,0.04069759749999996,0.03471554100000007,-0.014317709000000178
318122.0,-0.262229821,-0.5363256885,9.880396008,0.0059131755057567886,-0.005328490206338688,-0.014535102010608775,9.89841578223854,0.016571893159797183,0.032361945,0.03952079949999998,0.014317709000000178
318132.0,-0.275370732,-0.5315204299999999,9.8959885815,0.001117010721276371,0.0010663961729685354,-0.0060074232853644825,9.914077516982,0.00620274522116681,-0.013140911000000033,0.00480525850000002,0.015592573499999318
318142.0,-0.2670350795,-0.554271858,9.886476131,-0.0050125856117277144,0.007726572598578897,0.001186823891356144,9.905601209168834,0.009286252720290553,0.008335652500000013,-0.022751428000000073,-0.009512450499999048
318152.0,-0.2801759905,-0.5853589385,9.866078299,-0.008742354223239598,0.009592329568960835,0.0027855454861829498,9.887398276317851,0.01327406522432935,-0.013140911000000033,-0.031087080499999975,-0.02039783200000045
318162.0,-0.296945362,-0.624879738,9.842150072999999,-0.008210028801381325,0.003996803987067015,0.002518510110627818,9.866436504353036,0.009472164916632322,-0.016769371499999963,-0.03952079949999998,-0.023928226000000663
318172.0,-0.3005738225,-0.624879738,9.849308927500001,-0.013805554383275147,0.0013316862192716736,-0.0009442231253289323,9.87368754108952,0.013901736486013954,-0.003628460499999986,0.0,0.0071588545000018655
318182.0,-0.29214010349999997,-0.5961462535,9.8589194445,-0.02233323310851944,0.0010663961729685354,-0.0060074232853644825,9.881246318596418,0.023151665953160483,0.008433719000000006,0.028733484500000017,0.009610516999998708
318192.0,-0.30773267699999995,-0.57466969,9.8697067595,-0.026595327141889596,-0.0002670353755551324,-0.011070623445400031,9.891211056873585,0.028808704190674182,-0.015592573499999984,0.021476563499999934,0.010787314999999964
318202.0,-0.28615804699999997,-0.5614307125,9.820575443,-0.0196681153407241,-0.00559552558189382,-0.012402309664671705,9.840771966896487,0.023915726052371147,0.021574629999999984,0.013238977500000026,-0.049131316500000466
318212.0,-0.2334963365,-0.5626075104999999,9.8026292735,-0.006611307206554521,-0.011458086539342773,-0.01027126264798663,9.821536968504931,0.016748013807805183,0.05266171049999996,-0.0011767979999999234,-0.017946169500000053
318222.0,-0.20113439149999998,-0.544661341,9.8349912185,-0.0020821777976292354,-0.003996803987067015,0.001986184688769547,9.852114660710974,0.004924919908981008,0.03236194500000003,0.017946169499999942,0.03236194500000167
318232.0,-0.20476285199999997,-0.5278919695,9.80861133,-0.010341075818066403,0.006661921754862355,0.014510667401080856,9.824940405927464,0.019023104871910283,-0.003628460499999986,0.01676937150000002,-0.02637988850000106
318242.0,-0.23584993249999997,-0.5351488904999999,9.7906651605,-0.02179916235740918,0.017053612121236593,0.02596875394042363,9.808115711526456,0.037952672463010304,-0.031087080500000003,-0.007256920999999972,-0.017946169500000053
318252.0,-0.2909633055,-0.5949694555,9.789488362499998,-0.025530676298173054,0.018919369091618534,0.02703340478414017,9.81186683040737,0.04172005432990421,-0.05511337300000002,-0.0598205650000001,-0.0011767980000012557
318262.0,-0.30655587900000003,-0.610562029,9.7690905305,-0.02526364092261792,0.017585937543094867,0.020905553780388077,9.792951153319965,0.0372096617936969,-0.01559257350000004,-0.015592573499999984,-0.020397831999998672
318272.0,-0.320873588,-0.588987399,9.7810546435,-0.022598523154822577,0.011458086539342773,0.01903979681000614,9.804024477467898,0.0316937668712389,-0.014317708999999956,0.02157463000000004,0.011964112999999443
318282.0,-0.310086273,-0.609385231,9.7571264175,-0.016470672151070488,-0.0002670353755551324,0.018240436012592738,9.781054124353895,0.024577791905078392,0.010787314999999964,-0.020397832000000005,-0.023928225999998887
318292.0,-0.30175062049999996,-0.612915625,9.7918419585,-0.01753706832403902,-0.0031974431896536117,0.021170843826691217,9.815645059830882,0.027676290153978815,0.008335652500000068,-0.0035303939999999923,0.03471554099999885
318302.0,-0.3496070725,-0.612915625,9.796647216999999,-0.02233323310851944,-0.007726572598578897,0.023303636172628286,9.822025624221562,0.03318934594213644,-0.04785645200000005,0.0,0.004805258499999354
318312.0,-0.34725347649999994,-0.635667053,9.7571264175,-0.02020044076258237,-0.01332384350972471,0.021437879202246348,9.78397534268599,0.03232901603149003,0.002353596000000069,-0.022751428000000073,-0.039520799499998205
318322.0,-0.355589129,-0.6547900204999999,9.728392933,-0.011407471991034937,-0.009859364944515966,0.019306832185561274,9.75688590988199,0.02449676026287602,-0.008335652500000068,-0.019122967499999866,-0.028733484500000017
318332.0,-0.36402284799999995,-0.6799931109999999,9.730844595499999,0.0005829399701661061,-0.004529129408925285,0.01291194580625405,9.761364648789893,0.013695662697191791,-0.00843371899999995,-0.025203090500000025,0.002451662499998619
318342.0,-0.34480181399999993,-0.7158854499999999,9.727216134999999,0.011773991133953747,0.002398082392240209,0.0035849062835963527,9.759616488646657,0.012539107601602378,0.019221034000000026,-0.035892338999999995,-0.003628460499999875
318352.0,-0.3747120965,-0.6883287634999999,9.7583032155,0.022167426829579978,0.007726572598578897,-0.0060074232853644825,9.789723555216588,0.024231877164087635,-0.02991028250000005,0.027556686499999983,0.031087080500000752
318362.0,-0.38196901749999995,-0.6392955134999999,9.782329507999998,0.02802824245777694,0.01119105116378764,-0.011335913491703169,9.810635539403073,0.0322385628729604,-0.007256920999999972,0.04903325000000003,0.024026292499998547
318372.0,-0.3507838705,-0.612915625,9.864901501,0.029361674006300603,0.010391690366374239,-0.012137019618368569,9.890146435296304,0.033427569076131265,0.03118514699999997,0.02637988849999995,0.08257199300000195
318382.0,-0.320873588,-0.5686876335,9.941491437499998,0.0277629524114738,0.0037297686115118824,-0.007339109504636156,9.962912098671634,0.028957818094915558,0.029910282499999996,0.04422799150000001,0.07658993649999779
318392.0,-0.3160683295,-0.5590771164999999,9.9785605745,0.02030166985919804,-0.00559552558189382,0.006250024051391694,9.999206846048972,0.021966577026302322,0.004805258499999965,0.00961051700000004,0.03706913700000136
318402.0,-0.32803244249999997,-0.5674127689999999,9.9750301805,0.010974630336540345,-0.014922565104551517,0.01903979681000614,9.996538882815523,0.026563872513050698,-0.011964112999999943,-0.008335652500000013,-0.0035303940000002143
318412.0,-0.35441233099999997,-0.5961462535,9.936686179,-0.00048345620280242926,-0.019718729889031932,0.02410299697004169,9.96085993656454,0.03114508791566446,-0.026379888500000004,-0.028733484500000017,-0.038344001499998726
318422.0,-0.378340557,-0.6476311659999999,9.886476131,-0.011140436615479804,-0.015187855150854655,0.020106192982974676,9.914886685841564,0.02755066729383311,-0.023928226000000052,-0.05148491249999998,-0.050210048000000285
318432.0,-0.39628672649999996,-0.6811699089999999,9.845680467000001,-0.015936601399960223,-0.00559552558189382,0.008648106443631903,9.877168595948564,0.018975640062438737,-0.017946169499999942,-0.033538742999999926,-0.04079566399999912
318442.0,-0.36637644399999997,-0.6835235049999999,9.85176059,-0.012739158210306611,0.005328490206338688,-0.005208062487951079,9.882237742701939,0.01475814604429272,0.029910282499999996,-0.002353596000000069,0.006080122999998494
318452.0,-0.37353529849999995,-0.635667053,9.840973275,-0.007677703379523056,0.010925761117484502,-0.013468705837640243,9.868553907273315,0.01896642881834006,-0.007158854499999978,0.04785645199999988,-0.010787314999999964
318462.0,-0.3496070725,-0.6273314004999999,9.840973275,-0.0020821777976292354,0.007726572598578897,-0.01533446280802218,9.86714369969646,0.017296853416522495,0.02392822599999994,0.008335652500000124,0.0
318472.0,-0.33999655549999996,-0.6034031745,9.8481321295,0.0027157323161031764,-0.0002670353755551324,-0.011070623445400031,9.872456608607543,0.01140198287028909,0.00961051700000004,0.023928225999999886,0.007158854500000089
318482.0,-0.32803244249999997,-0.5926158595,9.8385216125,0.003248057737961447,-0.01332384350972471,-0.002542944720155738,9.86181050111454,0.013947804586763196,0.011964112999999998,0.010787315000000075,-0.009610517000000485
318492.0,-0.294591766,-0.6200744794999999,9.7690905305,0.001117010721276371,-0.022916173078685546,0.0017191493132144146,9.793181631207856,0.023007698187451176,0.03344067649999999,-0.02745861999999999,-0.06943108199999948
318502.0,-0.29214010349999997,-0.6188976814999999,9.761931676,-0.005811946409141118,-0.020518090686445337,0.0038519416591514853,9.78589240831572,0.02167044579664733,0.002451662500000007,0.0011767980000000344,-0.007158854500000089
318512.0,-0.3256788465,-0.5973230515,9.726039337,-0.014871950556243681,-0.006927211801165493,0.0038519416591514853,9.749805265941584,0.016852258935557272,-0.03353874300000004,0.021574629999999928,-0.035892339000000106
318522.0,-0.28615804699999997,-0.6441007719999999,9.6961290545,-0.02473131550075965,0.0085259333959923,-0.0014782938764391971,9.721711314057465,0.02620142857662782,0.03952079950000004,-0.04677772049999995,-0.029910282499999497
318532.0,-0.308909475,-0.6811699089999999,9.706818303,-0.026063001720031325,0.025314255470925754,-0.009471901850573226,9.735591357289378,0.03754741686684376,-0.022751428000000018,-0.03706913699999992,0.010689248500000303
318542.0,-0.3376429595,-0.6536132225,9.749967563,-0.015936601399960223,0.02931105945799277,-0.017198474449152124,9.777682777237095,0.03753532994539065,-0.028733484500000017,0.027556686499999872,0.043149259999999856
318552.0,-0.33881975749999993,-0.6225261419999999,9.777524249499999,-0.0018151424220741027,0.021317451483858742,-0.020929988389916002,9.803178978020664,0.02992979942767915,-0.0011767979999999234,0.031087080500000086,0.02755668649999876
318562.0,-0.3029274185,-0.5506433974999999,9.7918419585,0.01204102650950888,0.0085259333959923,-0.017997835246565525,9.811989712200607,0.023272299698098357,0.03589233899999994,0.07188274449999998,0.014317709000000178
318572.0,-0.27654753,-0.5075922039999999,9.817045049,0.01976934443733977,-0.002930407814098479,-0.006539748707222752,9.834048092012063,0.021028137877442406,0.026379888500000004,0.04305119349999997,0.02520309050000158
318582.0,-0.2562477645,-0.508769002,9.85176059,0.022966787626993383,-0.01305680813416958,0.012112585008840646,9.86821643139653,0.02906317753020692,0.02029976550000001,-0.0011767980000000344,0.03471554099999885
318592.0,-0.28615804699999997,-0.541130947,9.8014524755,0.022966787626993383,-0.0186523337160634,0.024902357767455096,9.820548852235756,0.03867182836816929,-0.029910282499999996,-0.032361945,-0.050308114499999945
318602.0,-0.31126307099999995,-0.578200084,9.8396984105,0.017636552091402698,-0.019718729889031932,0.02623404398672677,9.86158531099854,0.03725723207656303,-0.025105023999999976,-0.03706913700000003,0.03824593500000084
318612.0,-0.329307307,-0.6188976814999999,9.836168016499999,0.011241665712095476,-0.015187855150854655,0.017708110590734467,9.861119555680641,0.025896393045355324,-0.018044236000000047,-0.040697597499999905,-0.0035303940000019907
318622.0,-0.32803244249999997,-0.6680289979999999,9.8265574995,0.004314453910929983,-0.0085259333959923,0.0003874630939427412,9.85469940264446,0.009563272477118042,0.001274864500000028,-0.04913131650000002,-0.009610516999998708
318632.0,-0.32205038599999997,-0.6799931109999999,9.8589194445,-0.0012828170002158322,0.010658725741929371,-0.016666149027293853,9.88758816371669,0.019824595261888157,0.005982056499999999,-0.011964112999999998,0.03236194499999989
318642.0,-0.35794272499999996,-0.6763646504999999,9.8624498385,-0.006878342582109653,0.02691297706575256,-0.03185400417814851,9.89209325429937,0.04226461301609289,-0.035892338999999995,0.003628460499999986,0.0035303940000002143
318652.0,-0.378340557,-0.6595952789999999,9.94982709,-0.0050125856117277144,0.02238210232757528,-0.04331209071749128,9.978840946224567,0.049010424620045324,-0.02039783200000006,0.01676937150000002,0.08737725149999953
318662.0,-0.39030467,-0.6740110545,10.004940462999999,0.010442304914682074,-0.004263839362622147,-0.04677656928270003,10.035211124096326,0.04811724734334535,-0.011964112999999998,-0.014415775500000061,0.0551133729999993
318672.0,-0.4070740415,-0.6188976814999999,10.033673947499999,0.03309144261781249,-0.05036147556629638,-0.0489076162993851,10.060981885490571,0.07760977211556883,-0.016769371499999963,0.05511337300000008,0.028733484500000017
318682.0,-0.39746352449999994,-0.5866338029999999,10.016904575999998,0.056007615696498037,-0.10098998650814789,-0.04304505534193615,10.041936753277223,0.1232424731182917,0.00961051700000004,0.03226387850000001,-0.016769371500000574
318692.0,-0.35441233099999997,-0.5506433974999999,9.986994293499999,0.06959674925252589,-0.14015866558140463,-0.03158871413184537,10.008440001817302,0.1596433710010611,0.04305119349999997,0.03599040549999999,-0.029910282499999497
318702.0,-0.3376429595,-0.5016101475,9.957084011,0.0727941924421795,-0.15667995228078296,-0.017465509824707254,9.97542668311921,0.17364517250259057,0.016769371499999963,0.04903324999999992,-0.029910282499999497
318712.0,-0.31253793550000003,-0.5195563169999999,9.924722066,0.06773099228214395,-0.16254251323823193,-0.007073819458333018,9.943225171693966,0.1762316510932521,0.025105023999999976,-0.017946169499999942,-0.03236194499999989
318722.0,-0.31371473349999995,-0.5267151715,9.941491437499998,0.06320186287321866,-0.15934507004857829,-0.005208062487951079,9.96037638886147,0.17150058523022554,-0.0011767979999999234,-0.007158854500000089,0.016769371499998798
318732.0,-0.356765927,-0.5231847775,9.923545267999998,0.053342497928702694,-0.14841930893109379,-0.005740387909809351,9.94372942733867,0.15781845710249545,-0.04305119350000003,0.0035303939999999923,-0.017946169500000053
318742.0,-0.34480181399999993,-0.57466969,9.875688815999998,0.036555921183021235,-0.14042570095695978,-0.011869984242813436,9.89840204952344,0.1455905539130798,0.011964113000000054,-0.05148491249999998,-0.04785645199999955
318752.0,-0.3160683295,-0.60212831,9.80861133,0.015505505074717624,-0.13110040676355406,-0.025991443220699555,9.832157134302763,0.1345484762525621,0.028733484499999906,-0.02745861999999999,-0.06707748599999874
318762.0,-0.23830159499999998,-0.6655773355,9.759578079999999,-0.00847706417693646,-0.11671016708086082,-0.04251272992007788,9.785149213953115,0.12450082699468239,0.07776673450000005,-0.06344902549999998,-0.049033250000000805
318792.0,-0.11022674599999999,-0.5626075104999999,9.612282197,-0.028993409534129804,-0.02718001244130769,-0.045710173109731495,9.629363747474072,0.0605705439834003,0.128074849,0.10296982500000007,-0.14729588299999818
318802.0,-0.06227222749999999,-0.5686876335,9.6290515685,-0.01700299757292876,-0.015187855150854655,-0.03212103955370364,9.646031181975617,0.03938951703891477,0.047954518499999994,-0.006080123000000048,0.016769371499998798
318812.0,-0.0575650355,-0.5733948255,9.6541565925,-0.00048345620280242926,-0.0037297686115118824,-0.015067427432467046,9.6713409035011,0.01552972225212376,0.004707191999999992,-0.004707192000000027,0.025105024000000142
318822.0,-0.10061622899999999,-0.555448656,9.691323795999999,0.011241665712095476,0.004263839362622147,0.001186823891356144,9.707749675074353,0.012081553088980028,-0.04305119349999999,0.017946169499999942,0.037167203499999246
318832.0,-0.12454445499999998,-0.5590771164999999,9.691323795999999,0.016837191293989296,0.012524482712311309,0.00731642022436023,9.708235445351592,0.022223493937290804,-0.023928225999999997,-0.003628460499999875,0.0
318842.0,-0.14611908499999998,-0.5878106009999999,9.752321159,0.021633356078469716,0.016521286699378322,-0.0006789330790257941,9.771112530204956,0.02722895443359354,-0.021574629999999997,-0.028733484500000017,0.06099736300000025
318852.0,-0.2095681105,-0.5949694555,9.80861133,0.02536487001923359,0.016521286699378322,-0.011602948867258302,9.82887397767012,0.03241848188475026,-0.0634490255,-0.007158854500000089,0.056290171000000555
318862.0,-0.2215322235,-0.556625454,9.864901501,0.026963591614060395,0.0026651177677953415,-0.023328070782156207,9.883075940542074,0.03575383912062223,-0.011964112999999998,0.03834400150000006,0.056290171000000555
