timestamp,ax,ay,az,gx,gy,gz,acc_mag,gyro_mag,dax,day,daz
305552.0,-0.135724036,-1.1011887285,9.941883703499999,0.018702948264371237,0.30667005753867166,0.037653733282525664,10.003603810809503,0.3095385728704316,0.0,0.0,0.0
305562.0,-0.0842391235,-1.612409393,10.098692037,0.008576547944300135,0.25124538181233974,0.0285937291354231,10.226951703158173,0.25301264870069085,0.051484912499999994,-0.5112206645000001,0.15680833350000078
305572.0,-0.09620323649999998,-1.6064273365,10.0795690695,0.021900391454024847,0.2403213660241072,0.016868607220525196,10.207231577513497,0.24190604792582757,-0.011964112999999985,0.005982056500000166,-0.019122967499999532
305582.0,-0.1309187775,-1.5046343095,10.006509527,0.03175975639854082,0.23845560905372526,0.0035465090400524776,10.119846690813473,0.24058748376016753,-0.034715541000000016,0.10179302699999981,-0.07305954249999935
305592.0,-0.11179581,-1.5117931639999997,10.047305191,0.0277629524114738,0.26190410755426907,-0.004447098934081553,10.161021527137232,0.2634090350943365,0.019122967500000004,-0.007158854499999645,0.04079566399999912
305602.0,-0.1752448355,-1.490218534,10.095161642999999,0.01470614427730422,0.2837538844599861,-0.012974777659325845,10.2060644045462,0.284430804381215,-0.0634490255,0.021574629999999706,0.04785645199999955
305612.0,-0.1775984315,-1.4998290509999999,10.154982208,0.0013823007675795092,0.2872183630251948,-0.017770942443806264,10.26667872439239,0.28777092488579475,-0.0023535959999999856,-0.009610516999999819,0.05982056500000077
305622.0,-0.205155118,-1.4627599139999998,10.165769523,-0.0018151424220741027,0.26989771552840314,-0.020169024836046472,10.272517957307377,0.2706563525068279,-0.02755668650000001,0.03706913700000003,0.010787314999999964
305632.0,-0.17642163349999998,-1.417257058,10.178910433999999,-0.005544911033585984,0.23419176969110314,-0.015905185473424326,10.278616627961744,0.2347967332702163,0.028733484500000017,0.045502855999999925,0.013140910999998923
305642.0,-0.135724036,-1.3800898544999998,10.1370360385,-0.004745550236172582,0.1998192554023268,0.0011484266478122688,10.231449978682871,0.19987889823678176,0.04069759749999999,0.037167203500000134,-0.04187439549999894
305652.0,-0.10934414749999999,-1.3908771695,10.063976496,0.005646140130201656,0.18063285093515316,0.02539628594576949,10.160222357570197,0.18249678647902384,0.026379888500000004,-0.010787315000000186,-0.07305954249999935
305662.0,-0.138077632,-1.4303979689999997,10.0317126175,0.02083399528105631,0.17610372152622786,0.04697902747593137,10.134118699832106,0.18344918947038877,-0.028733484500000017,-0.03952079949999976,-0.03226387850000023
305672.0,-0.15249340749999998,-1.4699187685,9.9885633575,0.03389080341522589,0.17423796455584592,0.05737071784230561,10.097292378262164,0.18654450974079928,-0.014415775499999978,-0.0395207995000002,-0.043149259999999856
305682.0,-0.14405968849999998,-1.510616366,9.957476277,0.036023595761162965,0.17477203530695617,0.06136752182937262,10.072440062174385,0.1887033028655782,0.008433719000000006,-0.04069759750000013,-0.031087080500000752
305692.0,-0.1752448355,-1.5357213899999997,9.943158568,0.03389080341522589,0.1801005255132949,0.059503510188242674,10.062581838100238,0.19267966569157413,-0.031185147000000024,-0.025105023999999698,-0.014317709000000178
305702.0,-0.18240368999999998,-1.531014198,9.9036377685,0.03442312883708416,0.18329796870294848,0.056571357044892204,10.022939520433257,0.19489334408199335,-0.007158854499999978,0.004707191999999694,-0.03952079949999998
305712.0,-0.1668111165,-1.5297393334999998,9.829401428,0.036023595761162965,0.18942756503595257,0.052309263011522056,9.949123620189543,0.19979179373493375,0.015592573499999984,0.00127486450000025,-0.07423634049999883
305722.0,-0.12738838349999998,-1.5489603674999999,9.80665,0.038954003575261444,0.19475605524229125,0.048577749070758174,9.929042765686754,0.20446792695398816,0.039422733000000015,-0.01922103400000008,-0.022751428000001184
305732.0,-0.12738838349999998,-1.5285625355,9.789880628499999,0.039486328997119714,0.2027496632164253,0.046179666678517965,9.909313495165266,0.211658115191886,0.0,0.020397831999999783,-0.016769371500000574
305742.0,-0.15729866599999998,-1.5046343095,9.793509088999999,0.03815464277784804,0.2115426319879727,0.04937710986817158,9.909666369357524,0.2205542130471271,-0.029910282499999996,0.023928225999999997,0.003628460499999875
305752.0,-0.17642163349999998,-1.5117931639999997,9.793509088999999,0.03922103895081657,0.21873862449394532,0.05390798460634885,9.91107781423441,0.22867213766920322,-0.019122967500000004,-0.007158854499999645,0.0
305762.0,-0.1860321505,-1.5117931639999997,9.822242573499999,0.04321784293788359,0.22140199693248866,0.05444031002820713,9.939646658931728,0.2320568325860383,-0.009610517000000013,0.0,0.028733484500000017
305772.0,-0.192014207,-1.5189520184999998,9.836560282499999,0.05147674095832075,0.21820455374283507,0.053108623808935454,9.954998889073345,0.23039880220322084,-0.005982056499999999,-0.007158854500000089,0.014317709000000178
305782.0,-0.180050094,-1.5524907614999999,9.8700990255,0.060004419683565055,0.21207670273908297,0.051509902214108644,9.99307261927323,0.22634117666114092,0.011964112999999998,-0.03353874300000004,0.03353874300000115
305792.0,-0.205155118,-1.5476855029999999,9.925114332,0.06666634143842741,0.2075458280009057,0.0472460628514865,10.04715449975314,0.22305125477417323,-0.025105024000000004,0.00480525850000002,0.05501530649999964
305802.0,-0.181226892,-1.5369962545,9.909619824999998,0.0719948316447661,0.1998192554023268,0.04191582731589582,10.029744052006711,0.21649001638106669,0.023928225999999997,0.01068924849999986,-0.015494507000001434
305812.0,-0.184757286,-1.531014198,9.905991364499998,0.0743929140370063,0.19662181221267316,0.03791902332882881,10.02530820687106,0.213617169316807,-0.0035303939999999923,0.005982056499999944,-0.003628460499999875
305822.0,-0.148864947,-1.5262089394999998,9.8569581145,0.0719948316447661,0.19582245141525978,0.0355209409365886,9.975524937087892,0.2116398485797526,0.035892338999999995,0.004805258500000242,-0.04903324999999903
305832.0,-0.14533455299999998,-1.5202268829999999,9.8604885085,0.06932971387697076,0.19635477683711805,0.033656929295458646,9.978048182603256,0.21093742319137343,0.00353039400000002,0.005982056499999944,0.0035303940000002143
305842.0,-0.135724036,-1.510616366,9.864116969,0.06799802765769908,0.20088390624604335,0.03578797631214373,9.980039398584001,0.21507871768848938,0.009610516999999985,0.009610516999999819,0.003628460499999875
305852.0,-0.169262779,-1.4818828814999998,9.878434678,0.06773099228214395,0.20354902401383868,0.03738669790697054,9.990400314819746,0.2177554997535015,-0.03353874300000001,0.02873348450000024,0.014317709000000178
305862.0,-0.1656343185,-1.490218534,9.891673655499998,0.06959674925252589,0.2006186161997402,0.039252454877352475,10.004668595883363,0.2159451131336762,0.0036284605000000136,-0.008335652500000235,0.013238977499998583
305872.0,-0.17642163349999998,-1.5058111074999998,9.911973420999999,0.07226186702032122,0.1976864630563897,0.03951774492365561,10.027253302018833,0.21415734230901126,-0.010787314999999992,-0.015592573499999762,0.020299765500000788
305882.0,-0.17406803749999997,-1.5142448265,9.908443027,0.07492698478811657,0.1944890198667361,0.04005181567476587,10.024992782818652,0.2122361416842281,0.0023535960000000133,-0.008433719000000117,-0.003530393999998438
305892.0,-0.180050094,-1.5069879055,9.9167786795,0.07865675339962845,0.19102628663077936,0.04058414109662414,10.032244512663079,0.2105350316404976,-0.005982056500000027,0.007256920999999972,0.008335652499999568
305902.0,-0.1752448355,-1.5069879055,9.9287427925,0.08318588280855374,0.18916052966039745,0.03951774492365561,10.04398609812426,0.21038832962855056,0.0048052584999999925,0.0,0.011964112999999443
305912.0,-0.1536702055,-1.5022807134999998,9.9179554775,0.08665036137376247,0.1875618080655706,0.03898541950179733,10.032263091042056,0.21025598660861167,0.02157463000000001,0.004707192000000138,-0.010787314999999964
305922.0,-0.14533455299999998,-1.4998290509999999,9.9036377685,0.08931547914155782,0.184364364875917,0.038718384126242206,10.017617000274013,0.2084864195091219,0.008335652500000013,0.0024516624999999515,-0.014317709000000178
305932.0,-0.13337043999999998,-1.5022807134999998,9.909619824999998,0.0861180359519042,0.18463140025147215,0.039784780299210745,10.023731844600237,0.20757624820409787,0.011964112999999998,-0.0024516624999999515,0.0059820564999988335
305942.0,-0.1405292945,-1.489041736,9.9526710185,0.08078780041631353,0.18995989045781084,0.041116466518482414,10.064425178650414,0.21048038506667335,-0.007158854500000034,0.013238977499999915,0.04305119350000197
305952.0,-0.1285651815,-1.4914933984999998,9.944335366,0.07545931020997484,0.1960877414615629,0.04165053726959268,10.056385406056272,0.21419448429805021,0.011964113000000026,-0.0024516624999999515,-0.008335652499999568
305962.0,-0.1428828905,-1.5046343095,9.9263891965,0.07066314542549443,0.2030166985919804,0.04138350189403755,10.040793913138248,0.21891015110685344,-0.014317709000000012,-0.013140911000000255,-0.017946169500000053
305972.0,-0.14405968849999998,-1.498652253,9.9287427925,0.06879738845511249,0.20781286337646085,0.038718384126242206,10.04224303673703,0.22230245188102285,-0.001176797999999979,0.005982056500000166,0.0023535959999989586
305982.0,-0.136900834,-1.497475455,9.945512163999998,0.06666634143842741,0.20994391039314592,0.04005181567476587,10.058547945948723,0.22388611955812643,0.007158854499999978,0.0011767979999999234,0.016769371499998798
305992.0,-0.1285651815,-1.4962986569999999,9.957476277,0.06453354909249033,0.20941158497128765,0.04458094508369116,10.070092972949748,0.22361854024927086,0.008335652500000013,0.0011767980000001454,0.01196411300000122
306002.0,-0.1428828905,-1.5285625355,9.9538478165,0.06160314127839185,0.2046154201868072,0.049644145243726706,10.071544335372487,0.21937857313459172,-0.014317709000000012,-0.03226387850000023,-0.003628460499999875
306012.0,-0.17642163349999998,-1.5321909959999997,9.932371253,0.06320186287321866,0.19422372982043298,0.050710541416695246,10.051404506257374,0.21044926159713664,-0.03353874299999998,-0.003628460499999653,-0.021476563500000267
306022.0,-0.181226892,-1.5453319069999998,9.900009308,0.06746570223584081,0.18676244726815722,0.05097583146299838,10.02153073076478,0.20501309246267752,-0.00480525850000002,-0.013140911000000033,-0.03236194499999989
306032.0,-0.180050094,-1.546508705,9.9036377685,0.0719948316447661,0.18356500407850362,0.04884478444631331,10.025275470561885,0.20313832595919973,0.0011767980000000067,-0.0011767980000001454,0.003628460499999875
306042.0,-0.172793173,-1.5273857375,9.876081081999999,0.07785739260221504,0.184364364875917,0.04697902747593137,9.994985853416306,0.20556999207447577,0.0072569209999999995,0.019122967499999977,-0.027556686500000538
306052.0,-0.17043957699999998,-1.5321909959999997,9.852152856,0.07945611419704186,0.18995989045781084,0.04351454891072262,9.972039650724438,0.21045557733864056,0.0023535960000000133,-0.004805258499999798,-0.023928225999998887
306062.0,-0.17642163349999998,-1.534544592,9.866470565,0.07652570638294337,0.19475605524229125,0.039784780299210745,9.986650745250616,0.21299984397741545,-0.005982056499999999,-0.002353596000000291,0.014317709000000178
306072.0,-0.17406803749999997,-1.5237572769999999,9.9036377685,0.0719948316447661,0.19715413763453143,0.03791902332882881,10.02168533583794,0.2132858694339272,0.0023535960000000133,0.010787315000000186,0.037167203499999246
306082.0,-0.169262779,-1.5154216244999998,9.854506451999999,0.06826506303325422,0.1974211730100866,0.036055011687698854,9.971782689211926,0.2119792495774358,0.004805258499999965,0.008335652500000013,-0.049131316500000466
306092.0,-0.181226892,-1.5189520184999998,9.862940171,0.07039611004993929,0.1936896590693227,0.034721580139175194,9.980864052656699,0.20899015399753834,-0.011964112999999998,-0.0035303939999999923,0.008433719000001005
306102.0,-0.17161637500000002,-1.5297393334999998,9.879709542499999,0.0727941924421795,0.19528838066414952,0.035255650890285456,9.998910703311171,0.21137527526991542,0.009610516999999985,-0.010787314999999964,0.016769371499998798
306112.0,-0.18720894849999997,-1.5046343095,9.897655711999999,0.07465994941256145,0.1998192554023268,0.03738669790697054,10.013119403513034,0.2165631733610625,-0.015592573499999957,0.025105023999999698,0.017946169500000053
306122.0,-0.20034985949999998,-1.521403681,9.879709542499999,0.07625867100738824,0.20328373396753555,0.03845309407993906,9.998173326709612,0.22049558236825853,-0.013140911000000005,-0.016769371499999908,-0.017946169500000053
306132.0,-0.21829602899999997,-1.5082627699999998,9.890398790999999,0.07679099642924651,0.20594710640607888,0.036320301734002,10.00712236283036,0.22277843721438184,-0.017946169499999998,0.013140911000000255,0.010689248500000303
306142.0,-0.217119231,-1.4938469945,9.905991364499998,0.07306122781773462,0.20514774560866547,0.03418925471731692,10.020348522730895,0.22043694263139793,0.001176797999999979,0.014415775499999839,0.015592573499999318
306152.0,-0.18720894849999997,-1.4722723645,9.9191322755,0.06666634143842741,0.2030166985919804,0.03152413694952158,10.029547258203369,0.2159952596664663,0.029910282500000024,0.021574629999999928,0.013140911000002475
306162.0,-0.1979962635,-1.4722723645,9.923937533999998,0.06453354909249033,0.20488245556236234,0.029660125308391638,10.03450669511782,0.21684354403358597,-0.01078731500000002,0.0,0.004805258499997578
306172.0,-0.1860321505,-1.4830596795,9.9167786795,0.0650676198436006,0.20701350257904744,0.029126054557281372,10.028787232370824,0.21894454196492394,0.011964112999999998,-0.010787314999999964,-0.007158854499998313
306182.0,-0.1787752295,-1.498652253,9.9167786795,0.06719866686028568,0.20701350257904744,0.02619564674318289,10.030972960600108,0.2192178436764183,0.0072569209999999995,-0.015592573499999984,0.0
306192.0,-0.16445752049999998,-1.4938469945,9.9310963885,0.06799802765769908,0.20514774560866547,0.02353052897538755,10.044167491470034,0.2174005866770292,0.014317709000000012,0.00480525850000002,0.014317709000000178
306202.0,-0.17161637500000002,-1.4710955665,9.9191322755,0.06959674925252589,0.2027496632164253,0.022464132802419014,10.029095644414301,0.21553600790461336,-0.007158854500000034,0.02275142799999985,-0.011964112999999443
306212.0,-0.16445752049999998,-1.4662903079999998,9.865293767,0.0743929140370063,0.20008454544862994,0.021664772005005613,9.97502253895162,0.2145634948735016,0.007158854500000034,0.004805258500000242,-0.05383850850000016
306222.0,-0.13337043999999998,-1.4471673405,9.8593117105,0.07625867100738824,0.20035158082418508,0.021931807380560744,9.965847098489826,0.21549279574394375,0.031087080500000003,0.019122967499999755,-0.00598205650000061
306232.0,-0.1189546645,-1.4232391145,9.864116969,0.0727941924421795,0.2030166985919804,0.028061403713564827,9.96697363131672,0.21749072793770258,0.014415775499999978,0.023928225999999997,0.004805258499999354
306242.0,-0.13337043999999998,-1.4220623165,9.8689222275,0.0711954708473527,0.20514774560866547,0.034721580139175194,9.971743821354353,0.21990902829319023,-0.014415775499999978,0.0011767980000001454,0.0048052585000011305
306252.0,-0.12611351899999998,-1.473547229,9.866470565,0.07172954159846295,0.2030166985919804,0.03791902332882881,9.97669722231659,0.21862927382975253,0.0072569209999999995,-0.05148491250000009,-0.0024516625000003955
306262.0,-0.15249340749999998,-1.4759008249999999,9.925114332,0.07465994941256145,0.19688710225897632,0.036854372485112266,10.035408909847094,0.21376829478080756,-0.026379888500000004,-0.002353595999999847,0.058643766999999514
306272.0,-0.12611351899999998,-1.4807060835,9.932371253,0.07918907882148672,0.1859630864707438,0.036055011687698854,10.042927552900561,0.205312307478439,0.026379888500000004,-0.004805258500000242,0.00725692099999975
306282.0,-0.121406327,-1.490218534,9.9526710185,0.0829205927622506,0.17930116471588145,0.0355209409365886,10.06435050948657,0.20071489635185344,0.004707191999999985,-0.009512450499999936,0.020299765500000788
306292.0,-0.1309187775,-1.4938469945,9.9526710185,0.08904844376600268,0.17583668615067272,0.034721580139175194,10.065007648867864,0.20013433903495492,-0.009512450500000005,-0.003628460499999875,0.0
306302.0,-0.11660106849999999,-1.474724027,9.925114332,0.09251292233121143,0.17717011769919638,0.03338989391990352,10.034754669061831,0.202639523340809,0.014317709000000012,0.019122967499999977,-0.027556686500000538
306312.0,-0.09022118,-1.4603082514999999,9.963458333499998,0.0853186751544908,0.18223157252997996,0.03152413694952158,10.070309926417863,0.2036698150617294,0.02637988849999999,0.014415775500000061,0.038344001499998726
306322.0,-0.07462860649999999,-1.41608026,9.9538478165,0.0735935532395929,0.19502309061784637,0.03578797631214373,10.054349262170655,0.21149656309520512,0.015592573500000012,0.0442279914999999,-0.009610516999998708
306332.0,-0.086690786,-1.4184338559999998,9.970617188,0.06240250207580526,0.20701350257904744,0.04404861966183289,10.071379101486814,0.22065571238805257,-0.01206217950000002,-0.002353595999999847,0.016769371500000574
306342.0,-0.12493672099999999,-1.4303979689999997,9.9742456485,0.05360953330425783,0.21340838895835465,0.04937710986817158,10.077064244639644,0.2255110230517218,-0.03824593499999998,-0.011964112999999887,0.003628460499999875
306352.0,-0.159652262,-1.453149397,9.973068850499999,0.04854633314422228,0.2123419927853861,0.05177519226041179,10.079644552838982,0.22388956852748046,-0.034715541,-0.022751428000000296,-0.0011767980000012557
306362.0,-0.192014207,-1.477077623,9.9969970765,0.048014007722364006,0.20568181635977578,0.052042227635966914,10.107352685426918,0.21752872908177798,-0.032361945,-0.023928225999999997,0.023928226000000663
306372.0,-0.20034985949999998,-1.485511342,9.994545414,0.05281017250684442,0.19795349843194487,0.05523967082562053,10.10632584305101,0.2121931268787271,-0.008335652499999985,-0.008433718999999895,-0.0024516625000003955
306382.0,-0.215942433,-1.5046343095,9.985032963499998,0.06107081585653358,0.1872947726900155,0.05523967082562053,10.100071228554583,0.2045981369888546,-0.015592573500000012,-0.0191229675000002,-0.009512450500000824
306392.0,-0.19319100499999997,-1.5453319069999998,9.955122680999999,0.06346889824877379,0.17823476854291292,0.049644145243726706,10.076201717957305,0.1956028499778037,0.022751428000000018,-0.04069759749999968,-0.029910282499999497
306402.0,-0.21476563499999998,-1.524934075,9.9179554775,0.06080378048097845,0.1790341293403263,0.04484798045924629,10.036801734852856,0.19432359748805764,-0.02157463000000001,0.020397831999999783,-0.037167203499999246
306412.0,-0.20996037649999996,-1.5189520184999998,9.874904284,0.056274651072053164,0.18649541189260208,0.041116466518482414,9.993249382076222,0.1990927894958482,0.00480525850000002,0.005982056500000166,-0.043051193500000196
306422.0,-0.2111371745,-1.5297393334999998,9.8712758235,0.054408894101671226,0.1987528592293583,0.036320301734002,9.991334631495857,0.2092419439960854,-0.0011767980000000344,-0.010787314999999964,-0.003628460499999875
306432.0,-0.20996037649999996,-1.509439568,9.853329654,0.05254313713128929,0.20781286337646085,0.028860764510978233,9.970486268960997,0.2162866412252019,0.0011767980000000344,0.0202997654999999,-0.017946169500000053
306442.0,-0.20996037649999996,-1.5082627699999998,9.8604885085,0.055475290274639766,0.21367542433390976,0.02619564674318289,9.97738310226327,0.22230813458716614,0.0,0.0011767980000001454,0.007158854500000089
306452.0,-0.250657974,-1.5177752205,9.87725788,0.06293482749766353,0.21127734194166958,0.024329889772800952,9.996334041433174,0.22179010633131155,-0.04069759750000004,-0.009512450500000158,0.016769371500000574
306462.0,-0.25899362649999996,-1.5069879055,9.891673655499998,0.07599163563183312,0.20115094162159847,0.021664772005005613,10.009160701717382,0.21611522932751842,-0.008335652499999957,0.010787314999999964,0.014415775499998063
306472.0,-0.27340940199999997,-1.5117931639999997,9.976599244500001,0.09171356153379803,0.18916052966039745,0.018202038769048863,10.094196538465908,0.21100805095058772,-0.014415775500000005,-0.004805258499999798,0.08492558900000269
306482.0,-0.284196717,-1.498652253,10.0221021005,0.10743548743576295,0.17450499993140106,0.013671164030871583,10.137517292819878,0.2053808162598865,-0.01078731500000002,0.01314091099999981,0.045502855999998815
306492.0,-0.2662505475,-1.4950237924999998,10.035243011499999,0.11516206003434185,0.15665202701275105,0.008342673824532895,10.14948707049005,0.19460667471877624,0.017946169499999998,0.003628460500000097,0.013140910999998923
306502.0,-0.205155118,-1.485511342,10.012589649999999,0.11676078162916864,0.1459933012708217,0.005944591432292687,10.124267087989102,0.18703599201732324,0.06109542949999999,0.009512450499999936,-0.022653361499999747
306512.0,-0.1621039245,-1.4579546554999998,9.976599244500001,0.12128991103809393,0.14705969744379022,0.006209881478595825,10.083870385183975,0.1907258759577894,0.0430511935,0.027556686500000094,-0.03599040549999799
306522.0,-0.11414940599999998,-1.473547229,9.9179554775,0.12741950737109803,0.15771842318571958,0.004878195259324152,10.027472880873624,0.2028167366364796,0.047954518500000015,-0.015592573500000206,-0.05864376700000129
306532.0,-0.15484700349999997,-1.5968168194999999,10.251969976499998,0.14820288810384652,0.17583668615067272,-0.00684518132632176,10.376737924250973,0.23006410573177566,-0.04069759749999999,-0.12326959049999986,0.33401449899999847
306542.0,-0.310478539,-1.534544592,10.3776912295,0.16685522181990992,0.14359521887858145,-0.02309943265014495,10.495127406699607,0.22134551208939754,-0.15563153550000003,0.06227222749999983,0.1257212530000018
306552.0,-0.3176373935,-1.5058111074999998,10.3537630035,0.17191842197994545,0.09376606873414335,-0.03855432317655474,10.467510159434534,0.19958570915156454,-0.007158854499999978,0.02873348450000024,-0.023928226000000663
