timestamp,ax,ay,az,gx,gy,gz,acc_mag,gyro_mag,dax,day,daz
131172.0,0.41727295749999993,-0.18642441649999997,10.182048562,0.04976631829136631,0.03329041015253984,0.029979520561506597,10.192300216489624,0.06696050699852642,0.0,0.0,0.0
131182.0,0.2903749065,-0.460520284,9.5319657335,0.025518458993409092,0.009309586230137754,0.02704911274740812,9.547500576743555,0.03833424898960026,-0.12689805099999996,-0.27409586750000003,-0.6500828285000004
131192.0,0.63154826,-0.44620257499999993,9.7367285855,0.016992525597416794,0.024764476756547544,0.03690847769192409,9.767386215889003,0.04758425118397584,0.3411733535,0.014317709000000067,0.204762852
131202.0,0.515437524,-0.3407810875,9.707995101,0.029782298356031238,0.05620658323122539,0.03744080311378236,9.727639820212554,0.07381042630754373,-0.11611073599999999,0.10542148749999991,-0.028733484500000017
131212.0,0.481898781,-0.298906692,9.796549150499999,0.03857526712757867,0.07032978753836351,0.03557504614340042,9.812947921181173,0.08774915473815387,-0.03353874299999998,0.04187439550000005,0.08855404949999901
131222.0,0.456793757,-0.307340411,9.8767675475,0.04177271031723229,0.07246083455504858,0.033176963751160214,9.892100679431897,0.08997912422005076,-0.025105023999999976,-0.008433719000000006,0.08021839700000122
131232.0,0.41727295749999993,-0.3060655465,9.966498394999999,0.03830997708127553,0.061802108813119205,0.032644638329301943,9.979924002584022,0.07970462602237974,-0.03952079950000009,0.0012748644999999725,0.08973084749999849
131242.0,0.39814998999999995,-0.2701732075,9.988073024999998,0.026584855166377628,0.04128576345592586,0.036641442316368955,9.999655980548553,0.06126878555496047,-0.019122967499999977,0.035892338999999995,0.021574629999999928
131252.0,0.3598059885,-0.2713500055,9.9103062905,0.01672549022186166,0.019168951174653722,0.04383568949308958,9.920547462028956,0.05068292005826432,-0.03834400149999995,-0.001176797999999979,-0.07776673449999905
131262.0,0.3598059885,-0.28811937699999995,9.886279998,0.012995721610349778,0.0002495820830351891,0.05129697204536534,9.897020022391498,0.05291814823302945,0.0,-0.016769371499999963,-0.024026292500000324
131272.0,0.35500073,-0.345586346,9.871962289,0.010862929264412706,-0.01280722605113439,0.052628658264637015,9.884386418806193,0.05524313479577743,-0.00480525850000002,-0.057466969000000034,-0.014317708999998402
131282.0,0.34901867349999993,-0.3827535495,9.849210861,0.012196360812936374,-0.021867230198236953,0.04596673650977466,9.862822562458827,0.05234374689474443,-0.005982056500000055,-0.03716720350000002,-0.022751428000001184
131292.0,0.352647134,-0.37549662849999993,9.830087893499998,0.019655898035960143,-0.02026850860341015,0.03850719928675089,9.843575860075875,0.04774904360839201,0.0036284605000000414,0.007256921000000083,-0.01912296750000131
131302.0,0.33705456049999993,-0.38393034749999994,9.8193005785,0.030848694528999777,-0.010409143658894181,0.03397632454857361,9.832582170488877,0.04705722957936478,-0.01559257350000004,-0.008433719000000006,-0.010787314999998188
131312.0,0.32028518899999997,-0.37912508899999997,9.844405602499998,0.03431142776495653,-0.0008168140899333463,0.02758143816926639,9.85690824254418,0.04403040985514907,-0.016769371499999963,0.004805258499999965,0.025105023999998366
131322.0,0.32028518899999997,-0.38746074150000004,9.864803434499999,0.03271270617012972,-1.7453292519943296e-05,0.023052308760341103,9.877603719010976,0.04001912528745177,0.0,-0.008335652500000068,0.02039783200000045
131332.0,0.319108391,-0.38991240399999993,9.844405602499998,0.029249972934172967,-0.0048136180770003605,0.019587830195132362,9.85729088109573,0.03553047885118374,-0.001176797999999979,-0.002451662499999896,-0.02039783200000045
131342.0,0.29753376099999995,-0.376771493,9.836069949999999,0.030049333731586372,-0.006944665093685437,0.018256143975860686,9.847779199299973,0.03583960970550687,-0.02157463000000004,0.013140910999999922,-0.008335652499999568
131352.0,0.31793159299999996,-0.388735606,9.814495319999999,0.030314623777889512,-0.0061453042962720346,0.01692271242733702,9.827335053589126,0.03525789805968459,0.020397832000000005,-0.011964112999999998,-0.021574629999999928
131362.0,0.30949787399999995,-0.35882532349999996,9.8061596675,0.031648055326413176,0.0005166174585903216,0.015858061583620478,9.81760214977665,0.03540260466028071,-0.008433719000000006,0.02991028250000005,-0.008335652499999568
131372.0,0.30351581749999995,-0.35882532349999996,9.832441489499999,0.026052529744519357,0.003979350694547071,0.016123351629923614,9.843667157553558,0.030895501384852433,-0.005982056499999999,0.0,0.02628182199999962
131382.0,0.30351581749999995,-0.3396042895,9.8455824005,0.018591247192243598,0.004778711491960474,0.017456783178447285,9.856112100111018,0.02594628749216004,0.0,0.01922103399999997,0.013140911000000699
131392.0,0.2988086255,-0.3635325155,9.8528393215,0.012995721610349778,0.0023806290997202655,0.020120155616990633,9.86407041640496,0.024070247965820104,-0.004707191999999971,-0.023928225999999997,0.00725692099999975
131402.0,0.3250904475,-0.37912508899999997,9.816848915999998,0.01619316480000339,0.002647664475275398,0.023317598806644243,9.829544357280014,0.02851208739326746,0.02628182200000001,-0.015592573499999984,-0.03599040550000154
131412.0,0.316754795,-0.38746074150000004,9.7953723525,0.023120376601168884,0.006644468462342412,0.023851669557754508,9.808148599530933,0.03387628840382685,-0.008335652500000013,-0.008335652500000068,-0.02147656349999849
131422.0,0.331072504,-0.4209994845,9.815672118,0.02498613357155082,0.01090830782496456,0.019587830195132362,9.830273073365596,0.033570539796269304,0.014317709000000012,-0.03353874299999998,0.020299765500000788
131432.0,0.329895706,-0.423451147,9.813318522,0.022588051179310613,0.012239994044236233,0.011594222220998332,9.827988729387164,0.028186228892705487,-0.001176797999999979,-0.002451662500000007,-0.002353596000000735
131442.0,0.34303661699999993,-0.39108920199999997,9.832441489499999,0.02391973739858229,0.01383871563906304,0.0036006142468643022,9.846193707670226,0.027868051792522316,0.013140910999999922,0.03236194500000006,0.019122967499999532
131452.0,0.33705456049999993,-0.37314303249999997,9.846857264999999,0.029782298356031238,0.016770868782413514,-0.0027942721324429216,9.859687596305493,0.03429366256081057,-0.005982056499999999,0.017946169499999998,0.014415775499999839
131462.0,0.3347009645,-0.3527452005,9.857546513499999,0.03244741612382658,0.017835519626130055,-0.008923868465447007,9.869532774044018,0.038086428052988,-0.002353595999999958,0.02039783199999995,0.010689248500000303
131472.0,0.3347009645,-0.312047603,9.941393371,0.02845061213675957,0.0135734255927599,-0.01292067245251402,9.95191944295863,0.03406785860460964,0.0,0.040697597500000016,0.08384685750000109
131482.0,0.36823970749999996,-0.24987344199999997,9.9114830885,0.01725781564371993,0.006911503837897545,-0.010522590060273812,9.921468350643373,0.021361788026063505,0.03353874299999998,0.06217416100000003,-0.029910282499999497
131492.0,0.3813806185,-0.20917584449999996,9.9114830885,0.0028693212902786776,0.006379178416039274,0.0006684611035138282,9.92102326999142,0.007026646581223419,0.013140911000000033,0.040697597500000016,0.0
131502.0,0.37775215799999995,-0.22712201399999998,9.9103062905,-0.008854055295367234,0.008510225432724351,0.013192943815825137,9.920103420511348,0.01802420590807616,-0.0036284605000000414,-0.017946169500000025,-0.0011767980000012557
131512.0,0.38020382049999996,-0.276155264,9.868333828499999,-0.014184290830957916,0.01090830782496456,0.0214535871655143,9.87951563719979,0.02793638645654981,0.002451662500000007,-0.04903325000000003,-0.04197246200000038
131522.0,0.38020382049999996,-0.3133224675,9.881572806,-0.017648769396166664,0.009841911651996023,0.023052308760341103,9.893846927966987,0.030655362097793973,0.0,-0.03716720349999997,0.01323897750000036
131532.0,0.366964843,-0.346763144,9.864803434499999,-0.016050047801339853,0.00797790001086608,0.016657422381033883,9.87771505335914,0.024468768734630678,-0.013238977499999971,-0.033440676500000044,-0.016769371500000574
131542.0,0.37059330349999997,-0.35637366099999995,9.839600343999999,-0.012051498485020845,0.009576621605692885,0.012393583018411734,9.853023724344649,0.01976236820695706,0.003628460499999986,-0.00961051699999993,-0.025203090499999803
131552.0,0.35617752799999997,-0.3600021215,9.8659802325,-0.00699004365423729,0.006911503837897545,0.0067980574365179135,9.878969071062903,0.011951701991750463,-0.014415775500000005,-0.0036284605000000414,0.02637988850000106
131562.0,0.37775215799999995,-0.35039160449999995,9.869608693,-0.003792600464583678,0.005312782243070739,0.002801253449450899,9.883048452897462,0.007103273494263658,0.021574629999999984,0.00961051700000004,0.003628460499999875
131572.0,0.36578804499999995,-0.320481322,9.8755907495,-0.003258529713473413,0.005045746867515607,0.0036006142468643022,9.887557930208336,0.007002999378791552,-0.011964112999999998,0.02991028249999994,0.00598205650000061
131582.0,0.35147033599999994,-0.3013583545,9.8899084585,-0.003792600464583678,0.005045746867515607,0.004399975044277704,9.900739243734519,0.0076943589807904385,-0.014317709000000012,0.019122967500000032,0.014317709000000178
131592.0,0.36225765099999996,-0.277332062,9.95571108,-0.008321729873508963,0.004513421445657336,0.005464625887994246,9.966159078940892,0.010930887307511131,0.01078731500000002,0.02402629249999999,0.0658026214999996
131602.0,0.37775215799999995,-0.2701732075,9.9461986295,-0.010986847641304304,0.005312782243070739,0.007330382858376184,9.957035574526795,0.014236256147804348,0.01549450699999999,0.007158854499999978,-0.009512450500000824
131612.0,0.375398562,-0.24987344199999997,9.952180685999998,-0.015250687003926452,0.0037140606482439333,0.008662069077647858,9.962392344420088,0.017927887251333006,-0.002353595999999958,0.02029976550000004,0.0059820564999988335
131622.0,0.35500073,-0.2593858925,9.930606055999998,-0.019779816412851738,-0.0005497787143782138,0.009461429875061262,9.940334159322433,0.021933126754788156,-0.020397832000000005,-0.00951245050000002,-0.021574629999999928
131632.0,0.3729468995,-0.277332062,9.918641942999999,-0.023776620399918753,-0.0050789081233034985,0.010794861423584929,9.929524684288701,0.0266017296152185,0.017946169499999998,-0.017946169499999998,-0.011964112999999443
131642.0,0.3598059885,-0.2893942415,9.894713717,-0.027506389011430633,-0.009875072907783916,0.016123351629923614,9.905481761013029,0.03337785147615646,-0.013140910999999977,-0.012062179499999992,-0.023928225999998887
131652.0,0.36461124699999997,-0.3037119505,9.854016119499999,-0.030438542154781107,-0.009075712110370514,0.020654226368100895,9.86543541835236,0.0378876030606776,0.004805258499999965,-0.014317709000000012,-0.04069759750000124
131662.0,0.34548827949999994,-0.3527452005,9.827636231,-0.03470238151740326,-0.011208504456307585,0.020919516414404035,9.840031769085481,0.04204178899784116,-0.019122967500000032,-0.04903325000000003,-0.026379888499999282
131672.0,0.33823135849999997,-0.38147868499999993,9.792920689999999,-0.037100463909643465,-0.011473794502610723,0.017456783178447285,9.806182849590973,0.042577360903867885,-0.007256920999999972,-0.028733484499999906,-0.03471554100000063
131682.0,0.3358777625,-0.380301887,9.7761513185,-0.037632789331501736,-0.011208504456307585,0.01345997919138027,9.789309372923457,0.04150937779404369,-0.002353595999999958,0.0011767979999999234,-0.016769371499998798
131692.0,0.3466650775,-0.37549662849999993,9.7726209245,-0.03416831076629299,-0.009342747485925645,0.008129743655789588,9.785974357617548,0.03634354307324197,0.010787314999999964,0.004805258500000076,-0.0035303940000002143
131702.0,0.3347009645,-0.369514572,9.790567094,-0.02910511060625744,-0.006677629718130304,0.00386590429316744,9.803253020129246,0.03011052005626716,-0.011964112999999998,0.005982056499999944,0.017946169500000053
131712.0,0.3609827865,-0.365984178,9.779779779,-0.027773424386985764,-0.006412339671827167,0.0017348572764823635,9.793280630944512,0.028556801852032868,0.02628182200000001,0.0035303939999999923,-0.010787314999999964
131722.0,0.3478418755,-0.3611789195,9.779779779,-0.027506389011430633,-0.004279547325890096,-0.0006632251157578452,9.79262665008627,0.02784521196394197,-0.013140910999999977,0.00480525850000002,0.0
131732.0,0.32028518899999997,-0.34440954799999995,9.810866859499999,-0.02857278518439917,-0.004014257279586958,-0.004927064478379992,9.822133631440865,0.029271048479250817,-0.02755668650000004,0.01676937150000002,0.031087080499998976
131742.0,0.32146198699999995,-0.365984178,9.7953723525,-0.027506389011430633,-0.004279547325890096,-0.0070581114950650685,9.807476829019464,0.028718163235824372,0.001176797999999979,-0.02157463000000004,-0.015494506999999658
131752.0,0.316754795,-0.330091839,9.815672118,-0.024843016572887285,-0.005612978874413764,-0.00972322926286041,9.82632756172989,0.027262101745527848,-0.004707191999999971,0.035892338999999995,0.020299765500000788
131762.0,0.29998542349999996,-0.308517209,9.86352857,-0.019779816412851738,-0.012007865253720986,-0.011321950857687217,9.8729109169367,0.02576075574399018,-0.01676937150000002,0.021574629999999984,0.04785645199999955
131772.0,0.33224930199999997,-0.320481322,9.854016119499999,-0.016050047801339853,-0.019202112430441613,-0.009990264638415543,9.864822936059024,0.026946809528443076,0.03226387850000001,-0.011964112999999998,-0.009512450500000824
131782.0,0.328718908,-0.33842749149999996,9.824105836999998,-0.015250687003926452,-0.025329963434193706,-0.008124507668033604,9.835428042747154,0.03066265035050392,-0.0035303939999999923,-0.017946169499999942,-0.029910282500001273
131792.0,0.34548827949999994,-0.3527452005,9.757028351,-0.014451326206513048,-0.027462755780130774,-0.008391543043588736,9.769513476625407,0.03214750035101578,0.016769371499999963,-0.014317709000000067,-0.06707748599999697
131802.0,0.378928956,-0.3515684025,9.698384584,-0.013917255455402783,-0.025596998809748837,-0.009190903841002138,9.712149660837218,0.030551089356875144,0.033440676500000044,0.0011767980000000344,-0.05864376700000129
131812.0,0.3813806185,-0.3600021215,9.686420470999998,-0.0101874868438909,-0.019202112430441613,-0.010789625435828945,9.700607931705093,0.02426771573575184,0.002451662500000007,-0.008433719000000006,-0.01196411300000122
131822.0,0.38618587699999996,-0.33842749149999996,9.6792616165,-0.0016598081186466075,-0.006944665093685437,-0.012388347030655751,9.692872543227185,0.014298757932286821,0.004805258499999965,0.02157463000000004,-0.007158854499998313
131832.0,0.37657535999999997,-0.3372506935,9.7271180685,0.005267403682518886,0.004246386070102204,-0.013720033249927426,9.740245014914384,0.015297602707289979,-0.009610516999999985,0.001176797999999979,0.04785645199999955
131842.0,0.3598059885,-0.331268637,9.808513263499998,0.006600835231042554,0.010108947027551158,-0.013720033249927426,9.82069914514622,0.01827569829397285,-0.016769371499999963,0.005982056499999999,0.08139519499999892
131852.0,0.340683021,-0.32646337849999996,9.837246748,0.004735078260660616,0.008243190057169218,-0.014252358671785694,9.848556586593585,0.01713186727016116,-0.019122967500000032,0.00480525850000002,0.028733484500001794
131862.0,0.352647134,-0.308517209,9.825282634999999,-0.002726204291615143,0.0013159782560037245,-0.012121311655100619,9.836448633882052,0.012493605758545991,0.011964112999999998,0.017946169499999942,-0.01196411300000122
131872.0,0.352647134,-0.295376298,9.8336182875,-0.0075223690760955605,-0.0048136180770003605,-0.005726425275793395,9.844371782028198,0.010608906727248991,0.0,0.013140911000000033,0.008335652500001345
131882.0,0.3729468995,-0.3144992655,9.832441489499999,-0.00992045146833577,-0.007476990515543708,0.0041329396687225725,9.844536800799094,0.013092056171985993,0.02029976550000001,-0.019122967500000032,-0.0011767980000012557
131892.0,0.363434449,-0.37314303249999997,9.757028351,-0.011519173063162575,-0.0048136180770003605,0.011594222220998332,9.770922298516195,0.017037847750235546,-0.009512450499999991,-0.05864376699999996,-0.07541313849999831
131902.0,0.40050358599999997,-0.42217628249999994,9.7390821815,-0.009121090670922365,-0.0010821041362364843,0.011859512267301468,9.756452104833764,0.015000442513710091,0.037069136999999974,-0.04903324999999997,-0.017946169500000053
131912.0,0.41246769899999997,-0.470130801,9.7761513185,-0.002726204291615143,0.006379178416039274,0.0036006142468643022,9.79613633913782,0.007816043120275395,0.011964112999999998,-0.04795451850000004,0.037069136999999586
131922.0,0.4196265535,-0.46414874449999993,9.818123780499999,0.005002113636215749,0.011175343200519692,-0.007857472292478471,9.838042237693575,0.014548171957537624,0.007158854500000034,0.005982056500000055,0.0419724619999986
131932.0,0.413644497,-0.42462794499999995,9.850387658999999,0.01432740782962145,0.011175343200519692,-0.017449801861439306,9.86820894053996,0.025192429334408985,-0.005982056499999999,0.03952079949999998,0.03226387850000023
131942.0,0.38020382049999996,-0.37314303249999997,9.904324233999999,0.018057176441133332,0.005045746867515607,-0.023047072772585123,9.918640491520284,0.029710078186738226,-0.033440676500000044,0.05148491249999998,0.05393657499999982
131952.0,0.3694165055,-0.32646337849999996,9.936588112499999,0.01752485101927506,-0.0037472219040318258,-0.023047072772585123,9.948810492190198,0.029194685109291324,-0.010787314999999964,0.046679654000000015,0.03226387850000023
131962.0,0.38618587699999996,-0.308517209,9.942570169,0.010597639218109568,-0.010941469080752452,-0.0158510802666125,9.954849268840393,0.021983685957110744,0.016769371499999963,0.017946169499999942,0.00598205650000061
131972.0,0.3586291905,-0.31685286149999997,9.941393371,-6.108652381980153e-05,-0.016536994662646274,-0.007857472292478471,9.952904741284435,0.018308899335100694,-0.027556686499999983,-0.008335652499999957,-0.0011767979999994793
131982.0,0.3825574165,-0.3252865805,9.926977595499999,-0.0101874868438909,-0.02026850860341015,0.0004031710572106901,9.939670302275195,0.022688320257399704,0.023928226000000052,-0.008433719000000006,-0.014415775500001615
131992.0,0.42443181199999996,-0.33244543499999996,9.886279998,-0.019512781037296607,-0.018935077054886482,0.005998696639104511,9.90096937320507,0.02784367303808846,0.04187439549999994,-0.007158854499999978,-0.04069759749999946
132002.0,0.4149193615,-0.37912508899999997,9.8755907495,-0.027241098965127494,-0.01573763386523287,0.008662069077647858,9.89157149098498,0.032630998041891665,-0.009512450499999991,-0.046679654000000015,-0.010689248499998527
132012.0,0.422078216,-0.41021216949999995,9.830087893499998,-0.03283662454702132,-0.013074261426689522,0.005998696639104511,9.84769272664226,0.03584919224841012,0.007158854500000034,-0.031087080499999975,-0.04550285600000237
132022.0,0.43884758749999997,-0.4497329689999999,9.807336465499999,-0.03230429912516305,-0.007476990515543708,-0.0006632251157578452,9.827446031191732,0.033164936253394374,0.016769371499999963,-0.03952079949999998,-0.022751427999999407
132032.0,0.42688347449999997,-0.41619422599999994,9.807336465499999,-0.0280404597625409,-0.0016161748873467492,-0.005726425275793395,9.825441246177341,0.028664810332538586,-0.011964112999999998,0.03353874299999998,0.0
132042.0,0.41246769899999997,-0.41266383199999995,9.821654174499999,-0.023776620399918753,-0.0016161748873467492,-0.010789625435828945,9.838969039713081,0.026160193347026503,-0.014415775500000005,0.0035303939999999923,0.014317709000000178
132052.0,0.41246769899999997,-0.38746074150000004,9.854016119499999,-0.022177898805091946,-0.005612978874413764,-0.0150517194691991,9.870252738014761,0.027384648733058112,0.0,0.025203090499999914,0.03236194499999989
132062.0,0.41246769899999997,-0.3635325155,9.857546513499999,-0.019779816412851738,-0.011208504456307585,-0.0150517194691991,9.872867301770043,0.027265838854740067,0.0,0.023928226000000052,0.0035303940000002143
132072.0,0.4076624405,-0.3527452005,9.859998175999998,-0.020312141834710005,-0.019734437852299884,-0.01531875484475423,9.874724394766341,0.03219775447532551,-0.004805258499999965,0.010787314999999964,0.002451662499998619
132082.0,0.4149193615,-0.3144992655,9.857546513499999,-0.023776620399918753,-0.02612932423160711,-0.00972322926286041,9.871286194329672,0.03664164911327584,0.007256920999999972,0.03824593500000001,-0.002451662499998619
132092.0,0.4029552485,-0.30969400699999994,9.856369715499998,-0.031503192998497645,-0.030393163594229257,-0.0027942721324429216,9.869463373400345,0.04386346451337743,-0.011964112999999998,0.004805258500000076,-0.0011767980000012557
132102.0,0.413644497,-0.3372506935,9.808513263499998,-0.03949854630188367,-0.03412467753499313,0.002001892652037496,9.82302256133111,0.052236350858569695,0.010689248500000026,-0.02755668650000004,-0.04785645199999955
132112.0,0.41246769899999997,-0.380301887,9.794097488,-0.04456000113266723,-0.03492403833240653,0.00386590429316744,9.81015314520737,0.05674704723939948,-0.0011767980000000344,-0.04305119350000003,-0.014415775499998063
132122.0,0.41129090099999993,-0.41384063,9.7606568115,-0.0458934326811909,-0.0346570029568514,-0.0006632251157578452,9.778079855685652,0.05751308446578378,-0.0011767980000000344,-0.03353874299999998,-0.03344067649999971
132132.0,0.390893069,-0.3947176625,9.7390821815,-0.04482703650822236,-0.03332531673757973,-0.008923868465447007,9.754912668112027,0.05656567303725919,-0.02039783199999995,0.019122967499999977,-0.021574629999999928
132142.0,0.396973192,-0.3935408645,9.719959214,-0.040563197145600215,-0.03438996758129627,-0.019315558831821244,9.736019168480594,0.05657856171643978,0.006080122999999993,0.0011767980000000344,-0.01912296750000131
132152.0,0.40050358599999997,-0.34440954799999995,9.7151539555,-0.03390302071998985,-0.03438996758129627,-0.021980676599616587,9.72950345280887,0.05305878652927903,0.0035303939999999923,0.04913131650000002,-0.004805258499999354
132162.0,0.4076624405,-0.3133224675,9.695932921499999,-0.025907667416603827,-0.03838677156836328,-0.02038195500478978,9.70955585247143,0.05059817736073439,0.007158854500000034,0.031087080499999975,-0.01922103400000097
132172.0,0.43286553099999997,-0.3060655465,9.704366640499998,-0.01818109481802493,-0.0423835755554303,-0.01292067245251402,9.718836379934146,0.04789429467347897,0.02520309049999997,0.007256920999999972,0.008433718999999229
132182.0,0.44718324,-0.308517209,9.710348696999999,-0.010986847641304304,-0.03838677156836328,-0.004927064478379992,9.725534820035124,0.04023097086709506,0.014317709000000012,-0.002451662500000007,0.00598205650000061
132192.0,0.434042329,-0.33244543499999996,9.700738179999998,-0.007789404451650692,-0.03305828136202459,0.0009354964790689607,9.716132664158398,0.033976461587171325,-0.013140910999999977,-0.02392822599999994,-0.009610517000000485
132202.0,0.44237798149999996,-0.345586346,9.7055434385,-0.008854055295367234,-0.025329963434193706,0.004932300466135976,9.721764327408273,0.02728239231884286,0.008335652499999957,-0.013140911000000033,0.0048052585000011305
132212.0,0.44836003799999996,-0.33842749149999996,9.728294866499999,-0.013117894657989381,-0.01280722605113439,0.006531022060962781,9.744500033364902,0.01946171751268999,0.005982056499999999,0.007158854500000034,0.022751427999999407
132222.0,0.4149193615,-0.346763144,9.722312809999998,-0.0187134202398832,-0.003480186528476693,0.001202531854624093,9.737338914204146,0.019072227929868252,-0.03344067649999999,-0.008335652500000068,-0.00598205650000061
132232.0,0.390893069,-0.34921480650000003,9.754674755,-0.02350958502436362,-1.7453292519943296e-05,-0.003061307507998054,9.768747511749158,0.0237080681687422,-0.02402629249999999,-0.002451662500000007,0.03236194500000167
132242.0,0.38373421449999995,-0.368337774,9.74388744,-0.023244294978060482,0.001048942880448592,-0.0033283428835531865,9.758394699258837,0.023504795181920446,-0.007158854500000034,-0.019122967499999977,-0.010787314999999964
132252.0,0.39814998999999995,-0.38147868499999993,9.753399890499999,-0.014983651628371319,-1.7453292519943296e-05,0.0001361356816555577,9.768974297522321,0.014984280218336619,0.014415775500000005,-0.013140910999999922,0.009512450499999048
132262.0,0.38618587699999996,-0.3947176625,9.7761513185,-0.005391322059410484,-0.005345943498858632,0.004665265090580842,9.791735094807917,0.00891123806250665,-0.011964112999999998,-0.013238977500000082,0.022751428000001184
132272.0,0.39814998999999995,-0.415017428,9.7414357775,0.0036686820876920805,-0.010941469080752452,0.008129743655789588,9.758398120964207,0.014116221371686747,0.011964112999999998,-0.02029976550000001,-0.03471554100000063
132282.0,0.41727295749999993,-0.44620257499999993,9.729471664499998,0.007400196028455957,-0.017603390835614807,0.011594222220998332,9.748632331219893,0.022339835699504915,0.019122967499999977,-0.031185146999999913,-0.01196411300000122
132292.0,0.399326788,-0.4294332035,9.6947561235,0.005002113636215749,-0.019469147805996744,0.015058700786207076,9.71247502205403,0.02511639557121756,-0.017946169499999942,0.016769371499999908,-0.03471554099999885
132302.0,0.4160961595,-0.4665023405,9.650528132,0.003935717463247213,-0.02080083402526842,0.013725269237683408,9.670752487483382,0.02522989464393722,0.01676937150000002,-0.037069136999999974,-0.044227991499999675
132312.0,0.4412011835,-0.5120051965,9.627776703999999,0.008998917623282763,-0.009875072907783916,0.007597418233931317,9.651470979475091,0.015369396447029044,0.025105023999999976,-0.04550285599999998,-0.022751428000001184
132322.0,0.43041386849999996,-0.575454222,9.6301303,0.014594443205176584,0.0002495820830351891,-0.00519235452468313,9.656904952146565,0.015492598529468661,-0.01078731500000002,-0.06344902549999998,0.002353596000000735
132332.0,0.43168873299999994,-0.5922235935,9.6480764695,0.022855086554865747,0.005578072289373877,-0.02011491962923465,9.675870168011597,0.0309528651918761,0.0012748644999999725,-0.01676937150000002,0.017946169500000053
132342.0,0.43286553099999997,-0.562313311,9.722312809999998,0.03218038074827145,0.005045746867515607,-0.032639402341545956,9.748175993648543,0.046112547660784035,0.0011767980000000344,0.02991028249999994,0.07423634049999883
132352.0,0.43639592499999996,-0.5299513659999999,9.7618336095,0.04044102409796061,0.0005166174585903216,-0.03770085717232951,9.785943249030502,0.05529102960895864,0.0035303939999999923,0.032361945000000114,0.03952079950000176
132362.0,0.45198849849999995,-0.508376736,9.870785491,0.04124038489537401,-0.002415535684760152,-0.03850021796974292,9.894197628803377,0.05647008892042457,0.015592573499999984,0.021574629999999928,0.10895188149999946
132372.0,0.44482964399999997,-0.5227925115,9.97728571,0.03218038074827145,-0.005612978874413764,-0.039034288720853176,10.000870740152171,0.05089949049736413,-0.007158854499999978,-0.01441577549999995,0.10650021900000084
132382.0,0.4496349025,-0.472484397,10.070645018,0.015126768627034855,-0.013606586848547793,-0.04383045350533359,10.09174435514113,0.048322530865488926,0.00480525850000002,0.050308114499999945,0.09335930800000014
132392.0,0.434042329,-0.4557150254999999,10.196366271,-0.01738173402061153,-0.03412467753499313,-0.04782725749240061,10.215769871146113,0.061270423971725045,-0.015592573499999984,0.016769371500000074,0.12572125300000003
132402.0,0.4076624405,-0.4425741145,10.2227461595,-0.051488958263084715,-0.07302806656194673,-0.04729493207054234,10.240439421909192,0.10109906986887178,-0.026379888500000004,0.013140910999999922,0.026379888499999282
132412.0,0.43041386849999996,-0.45218463149999993,10.180773697499998,-0.06294704480242748,-0.11379546723003028,-0.043031092707920195,10.199896083728976,0.13697961071304493,0.022751427999999962,-0.00961051699999993,-0.04197246200000215
132422.0,0.4878808375,-0.4880769705,10.053875646499998,-0.050422562090116176,-0.1319154755242354,-0.039034288720853176,10.077532552962452,0.1465189514924936,0.057466969000000034,-0.03589233900000005,-0.1268980509999995
132432.0,0.503473411,-0.5179872529999999,9.930606055999998,-0.024308945821777023,-0.12871803233458182,-0.03956661414271145,9.956843521383586,0.13683849476580323,0.015592573499999984,-0.02991028249999994,-0.12326959049999964
