timestamp,ax,ay,az,gx,gy,gz,acc_mag,gyro_mag,dax,day,daz
123842.0,1.007535221,-1.077554702,10.125464191499999,-0.016215854080279316,-0.08951619200553716,0.2139843476115128,10.232364167224823,0.2325196842795247,0.0,0.0,0.0
123852.0,1.1488490475,-1.597111019,9.683772675499998,-0.04046371337823654,-0.12975301258101446,0.22357667718047364,9.881602651984812,0.2616480211147539,0.14131382650000002,-0.5195563169999999,-0.44169151600000056
123862.0,1.213474871,-1.7658834655,9.7173114185,-0.044460517365303556,-0.1286866164080459,0.21851347702043805,9.95072896226127,0.2574589724334802,0.06462582350000012,-0.1687724465,0.03353874300000115
123872.0,1.1955287015,-1.7695119259999998,9.726823868999999,-0.026340509071098424,-0.12095829848021501,0.21611539462819787,9.958492050050278,0.24905942299912104,-0.017946169500000053,-0.003628460499999875,0.009512450499999048
123882.0,1.1571847,-1.7299911265,9.723293475,-0.006089453760208216,-0.1193595768853882,0.21824818697413492,9.943559811690198,0.2488293816229377,-0.03834400150000006,0.03952079949999976,-0.003530393999998438
123892.0,1.181112926,-1.7347963849999999,9.7520269595,0.00909840139064644,-0.12602149864025058,0.22224499096120195,9.975298294296174,0.2556502200952402,0.023928225999999997,-0.004805258499999798,0.028733484500000017
123902.0,1.1835645885,-1.7288143285,9.737611183999999,0.010964158361028377,-0.13108469880028611,0.22517539877530043,9.960456600394378,0.26078222953595404,0.0024516624999999515,0.005982056499999944,-0.014415775500001615
123912.0,1.1739540714999999,-1.7012576419999998,9.6933831925,0.005900958200992829,-0.13188405959769953,0.22650883032382407,9.911312902088014,0.2621726085965625,-0.00961051700000004,0.027556686500000094,-0.0442279914999979
123922.0,1.1619899585,-1.6773294159999999,9.704072441,-0.006888814557621619,-0.1254891732183923,0.22384371255602875,9.916283405268802,0.25671189300831193,-0.011964112999999887,0.023928225999999997,0.010689248499998527
123932.0,1.1727772735,-1.6713473595,9.7532037575,-0.020477948113649468,-0.11722852986870314,0.22171092021009167,9.964627040921192,0.2516299002792164,0.010787314999999964,0.005982056499999944,0.049131316500000466
123942.0,1.1368849345,-1.6186856490000001,9.760362612,-0.029005626838893763,-0.11562980827387632,0.2171817908011664,9.958781496864919,0.24774888335847683,-0.035892338999999884,0.05266171049999979,0.007158854500000089
123952.0,1.1344332719999999,-1.6294729639999999,9.7280987335,-0.03300243082596078,-0.12042597305835674,0.21451667303337107,9.928646733455263,0.2482115598371289,-0.0024516625000001735,-0.010787314999999742,-0.03226387850000023
123962.0,1.1404153285,-1.63182656,9.7424164425,-0.0316707446066891,-0.12921894182990418,0.21158626521927257,9.943745933122665,0.24993862970942016,0.005982056500000166,-0.002353596000000069,0.014317709000000178
123972.0,1.142866991,-1.641437077,9.716036553999999,-0.027672195290370093,-0.13907830677442015,0.2086558574051741,9.91976950112914,0.25228117773015973,0.0024516624999999515,-0.00961051700000004,-0.02637988850000106
123982.0,1.1488490475,-1.6485959315,9.7435932405,-0.020744983489204602,-0.14174342454221547,0.2070553904810953,9.948634675955153,0.25178063362419467,0.005982056499999944,-0.007158854500000089,0.027556686500000538
123992.0,1.1404153285,-1.6474191335,9.707700901499999,-0.01514945790731078,-0.14201045991777062,0.20545666888626848,9.912315255069501,0.2502177443563583,-0.008433718999999895,0.0011767980000001454,-0.035892339000000106
124002.0,1.1523794415,-1.6522243919999997,9.7220186105,-0.012217304763960306,-0.1404099929936918,0.20492434346441024,9.928518000266704,0.24871311829596696,0.011964112999999887,-0.004805258499999798,0.014317709000000178
124012.0,1.1357081365,-1.6593832464999998,9.726823868999999,-0.012217304763960306,-0.13534853816290826,0.2041249826669968,9.93249657984463,0.24522540216570848,-0.016671305000000025,-0.007158854500000089,0.004805258499999354
124022.0,1.1260976194999999,-1.6270213015,9.736434385999999,-0.017280504923995858,-0.12921894182990418,0.20599073963737877,9.93546419232949,0.24377927638423816,-0.00961051700000004,0.03236194499999989,0.009610517000000485
124032.0,1.1548311039999999,-1.6366318185,9.78311404,-0.025008822851826748,-0.12335638087245522,0.20732242585665042,9.986066237900566,0.2425382983890804,0.028733484500000017,-0.00961051700000004,0.04667965400000007
124042.0,1.1560079019999998,-1.6402602789999998,9.7520269595,-0.03220307002854737,-0.12202469465318355,0.20892114745147722,9.95634661264695,0.24408012962326142,0.0011767979999999234,-0.003628460499999875,-0.031087080499998976
124052.0,1.1452205869999998,-1.6569315839999998,9.740062846499999,-0.03513347784264585,-0.12335638087245522,0.21451667303337107,9.946143811584218,0.24993711404386537,-0.010787314999999964,-0.016671305000000025,-0.01196411300000122
124062.0,1.1523794415,-1.7000808439999997,9.688577934,-0.03593283864005926,-0.12495684779653403,0.21824818697413492,9.903877808036572,0.25404262205676365,0.007158854500000089,-0.043149259999999856,-0.051484912499999425
124072.0,1.142866991,-1.722832272,9.692108328,-0.033269466201515906,-0.12841958103249076,0.21851347702043805,9.910159425470864,0.25562978271996356,-0.009512450499999936,-0.022751428000000296,0.0035303940000002143
124082.0,1.132079676,-1.7371499809999997,9.677790619,-0.027939230665925227,-0.13428214198993974,0.21611539462819787,9.897420154490005,0.25596515009452325,-0.010787314999999964,-0.014317708999999734,-0.014317709000000178
124092.0,1.1380617325,-1.7371499809999997,9.7173114185,-0.022876030505889676,-0.13854598135256188,0.21291795143854422,9.93675076509317,0.2550536331155412,0.005982056499999944,0.0,0.03952079949999998
124102.0,1.130902878,-1.7096913609999997,9.712506159999998,-0.021012018864759733,-0.14067702836924695,0.21078690442185916,9.926467739200316,0.25428851787551265,-0.007158854500000089,0.02745861999999999,-0.0048052585000011305
124112.0,1.1751308695,-1.698904046,9.723293475,-0.021277308911062873,-0.14467383235631395,0.21025457900000089,9.940303995298361,0.2561058953511755,0.04422799150000012,0.010787314999999742,0.01078731500000174
124122.0,1.188369847,-1.6713473595,9.736434385999999,-0.021544344286618004,-0.13987766757183356,0.2086558574051741,9.95006429337266,0.2521253408238947,0.013238977499999915,0.027556686500000094,0.013140910999998923
124132.0,1.189546645,-1.6641885049999998,9.723293475,-0.023942426678858212,-0.13295045577066805,0.20679010043479215,9.936145158047081,0.247004471867884,0.0011767980000001454,0.007158854500000089,-0.013140910999998923
124142.0,1.167972015,-1.6569315839999998,9.735257588,-0.02580818364924015,-0.12602149864025058,0.20492434346441024,9.944084734483686,0.24195343975055852,-0.02157463000000015,0.007256920999999972,0.011964112999999443
124152.0,1.1619899585,-1.6462423354999998,9.735257588,-0.02820626604148036,-0.12149236923132528,0.20385794729144166,9.941608260013009,0.23898546378247287,-0.005982056499999944,0.010689248500000081,0.0
124162.0,1.1583614979999999,-1.6474191335,9.719665014499999,-0.029005626838893763,-0.11829492604167167,0.20145986489920148,9.926110978402667,0.23541684961091092,-0.003628460500000097,-0.0011767980000001454,-0.015592573500001095
124172.0,1.1164871025,-1.6569315839999998,9.7173114185,-0.029804987636307165,-0.11323172588163612,0.19986114330437466,9.920590049398074,0.2316338438939055,-0.04187439549999983,-0.009512450499999936,-0.0023535959999989586
124182.0,1.1129567084999998,-1.6952755855,9.7053473055,-0.029270916885196903,-0.1153627728983212,0.19932881788251638,9.914958308846469,0.2321579927216186,-0.0035303940000002143,-0.03834400150000006,-0.011964112999999443
124192.0,1.0902052805,-1.686939933,9.677790619,-0.027406905244066956,-0.11562980827387632,0.19959585325807153,9.884024744828624,0.23229269393230664,-0.02275142799999985,0.008335652500000013,-0.027556686500000538
124202.0,1.075789505,-1.6940987874999998,9.687303069499999,-0.02341010125699994,-0.11829492604167167,0.2009275394773432,9.89298410598244,0.23433650694777985,-0.014415775500000061,-0.007158854499999867,0.009512450499999048
124212.0,1.132079676,-1.7000808439999997,9.688577934,-0.020212658067346328,-0.12229173002873868,0.20199393565031173,9.901536327870524,0.23699233915692644,0.05629017100000011,-0.005982056499999944,0.0012748645000009162
124222.0,1.1500258454999999,-1.686939933,9.723293475,-0.018613936472519525,-0.12255702007504182,0.20359265724513853,9.935328972099796,0.23836248002740207,0.01794616949999983,0.01314091099999981,0.03471554100000063
124232.0,1.169148813,-1.6737009554999998,9.746044903,-0.018879226518822664,-0.12282405545059695,0.2062560296836819,9.957588818919628,0.24079809711074587,0.0191229675000002,0.013238977500000138,0.022751427999999407
124242.0,1.1943519034999999,-1.6342782224999999,9.771149927,-0.022076669708476274,-0.11909428683908507,0.20785649660776068,9.978612762996866,0.2405725497332966,0.025203090499999803,0.03942273299999988,0.025105024000000142
124252.0,1.212298073,-1.6234909075,9.804688669999999,-0.025274112898129884,-0.11722852986870314,0.21051986904630404,10.01185843188771,0.24228067248800067,0.017946169500000053,0.010787314999999964,0.03353874299999937
124262.0,1.212298073,-1.6162339865,9.7890960965,-0.029270916885196903,-0.11429812205460466,0.21585010458189471,9.995413013149017,0.2459921033865199,0.0,0.007256920999999972,-0.015592573499999318
124272.0,1.2086696124999998,-1.6485959315,9.8130243225,-0.03060434843372057,-0.1161621336957346,0.21771411622302467,10.023681815157335,0.2486557939211773,-0.003628460500000097,-0.032361945000000114,0.023928226000000663
124282.0,1.2051392184999998,-1.6689937635,9.791449692499999,-0.032735395450405644,-0.11642916907128972,0.21824818697413492,10.005517867623194,0.24951879416874065,-0.0035303939999999923,-0.020397832000000005,-0.021574630000001704
124292.0,1.177582532,-1.665365303,9.7651678705,-0.03619987401561439,-0.11642916907128972,0.2155830692063396,9.975903254901448,0.2476736603230201,-0.027556686499999872,0.003628460500000097,-0.02628182199999962
124302.0,1.1978822974999999,-1.6509495275,9.7424164425,-0.03992964262712627,-0.11403108667904953,0.21238562601668595,9.953654327939597,0.2443463100356429,0.0202997654999999,0.014415775500000061,-0.022751427999999407
124312.0,1.1978822974999999,-1.6534011899999999,9.7424164425,-0.044193481989748415,-0.10923492189456911,0.2086558574051741,9.954061263265945,0.23963012924333862,0.0,-0.0024516624999999515,0.0
124322.0,1.193077039,-1.6761526179999997,9.7412396445,-0.045259878162716954,-0.10923492189456911,0.2086558574051741,9.956137314812194,0.23982908823181756,-0.004805258499999798,-0.02275142799999985,-0.0011767979999994793
124332.0,1.164441621,-1.7132217549999997,9.740062846499999,-0.044460517365303556,-0.11296469050608099,0.21185330059482768,9.957905267891036,0.24417121017525292,-0.028635418000000135,-0.03706913700000003,-0.0011767980000012557
124342.0,1.1380617325,-1.72400907,9.714859756,-0.041263074175649936,-0.11882725146352995,0.21238562601668595,9.932063826776966,0.24684045681229355,-0.02637988849999995,-0.010787315000000186,-0.025203090499999803
124352.0,1.120115563,-1.7108681589999999,9.701718844999998,-0.0385979564078546,-0.12335638087245522,0.21158626521927257,9.914891692771182,0.24794222425850188,-0.017946169500000053,0.013140911000000033,-0.013140911000000699
124362.0,1.1105050459999999,-1.6904703269999999,9.724470273,-0.034868187796342716,-0.1278872556106325,0.21238562601668595,9.932584430757165,0.2503569348077258,-0.00961051700000004,0.020397832000000005,0.022751428000001184
124372.0,1.144043789,-1.6904703269999999,9.694559990499998,-0.033269466201515906,-0.1294859772054593,0.21371731223595766,9.907119638271272,0.2520884075548663,0.03353874300000004,0.0,-0.029910282500001273
124382.0,1.146397385,-1.70243444,9.699365249,-0.03247010540410251,-0.13215109497325464,0.21345202218965453,9.91414122455101,0.25314024852724715,0.002353596000000069,-0.01196411300000011,0.0048052585000011305
124392.0,1.1404153285,-1.678506214,9.711329362,-0.030337313058165435,-0.13188405959769953,0.21505074378448133,9.921081000030073,0.2540877410301751,-0.005982056499999944,0.023928225999999997,0.01196411300000122
124402.0,1.1404153285,-1.6940987874999998,9.750752095,-0.02820626604148036,-0.1294859772054593,0.2147837084089262,9.962313197316856,0.2523772040711009,0.0,-0.015592573499999762,0.039422732999998544
124412.0,1.1787593299999999,-1.698904046,9.750752095,-0.030070277682610305,-0.1254891732183923,0.2131849868140994,9.967593236771055,0.24919789886327834,0.038344001499999836,-0.004805258500000242,0.0
124422.0,1.1512026434999998,-1.6844882705,9.7328059255,-0.03220307002854737,-0.11429812205460466,0.21051986904630404,9.944359177106454,0.24170170394050977,-0.027556686500000094,0.014415775500000061,-0.017946169500000053
124432.0,1.1368849345,-1.686939933,9.760362612,-0.03699923481302779,-0.10337236093712014,0.20679010043479215,9.970102908675043,0.23413016469540024,-0.014317708999999734,-0.0024516624999999515,0.027556686500000538
124442.0,1.142866991,-1.686939933,9.7543805555,-0.041263074175649936,-0.09511171758743098,0.2033256218695834,9.96493107443217,0.22823275098352827,0.005982056499999944,0.0,-0.00598205650000061
124452.0,1.1105050459999999,-1.6366318185,9.76153941,-0.04339412119233502,-0.0959110783848444,0.19932881788251638,9.959891406009465,0.22541952521784844,-0.032361945000000114,0.050308114499999945,0.007158854500000089
124462.0,1.111681844,-1.6342782224999999,9.712506159999998,-0.04099603880009481,-0.09724450993336806,0.19746306091213447,9.911583008725444,0.22389468581069344,0.0011767980000001454,0.002353596000000069,-0.049033250000000805
124472.0,1.0973641349999999,-1.6462423354999998,9.671808562499999,-0.03619987401561439,-0.10150660396673822,0.19426561772248083,9.872092115738441,0.2221556926047668,-0.014317709000000178,-0.011964112999999887,-0.04069759749999946
124482.0,1.074612707,-1.63182656,9.701718844999998,-0.029804987636307165,-0.10150660396673822,0.19320096687876429,9.896514484372537,0.22026924783035426,-0.02275142799999985,0.014415775499999839,0.029910282499999497
124492.0,1.0578433354999999,-1.6534011899999999,9.680144214999999,-0.022876030505889676,-0.10204067471784847,0.1924016060813509,9.877143313770086,0.218983995057318,-0.01676937150000013,-0.021574629999999928,-0.021574629999999928
124502.0,1.0447024244999998,-1.6593832464999998,9.701718844999998,-0.01941329726993293,-0.10417172173453355,0.19266689612765403,9.89789394073048,0.21988441641801745,-0.013140911000000033,-0.005982056499999944,0.021574629999999928
124512.0,1.0315615135,-1.6534011899999999,9.699365249,-0.01834690109696439,-0.10603747870491549,0.19320096687876429,9.893206804910966,0.22114965356709598,-0.01314091099999981,0.005982056499999944,-0.0023535959999989586
124522.0,1.029109851,-1.6605600445,9.719665014499999,-0.015948818704724182,-0.11216532970866758,0.19506497851989424,9.914051378770958,0.22557874867038577,-0.0024516624999999515,-0.007158854500000089,0.020299765499999012
124532.0,1.054214875,-1.644967471,9.713682958,-0.014083061734342244,-0.11749556524425826,0.1977300962876896,9.908225047497611,0.23043595955887625,0.02510502399999992,0.015592573499999984,-0.0059820564999988335
124542.0,1.1033461915,-1.654577988,9.784290838,-0.01461713248545251,-0.12229173002873868,0.20385794729144166,9.984355178940824,0.23817428591138756,0.04913131650000002,-0.00961051700000004,0.07060788000000073
124552.0,1.1523794415,-1.6522243919999997,9.78311404,-0.017280504923995858,-0.12602149864025058,0.20918818282703236,9.988350421283624,0.24482591734626225,0.04903324999999992,0.002353596000000291,-0.0011767980000012557
124562.0,1.1596363625,-1.6617368424999999,9.805865468,-0.019146261894377795,-0.12735493018877422,0.21185330059482768,10.013047658104348,0.24792676047744033,0.007256920999999972,-0.009512450500000158,0.022751428000001184
124572.0,1.1739540714999999,-1.6761526179999997,9.803511872,-0.023942426678858212,-0.12735493018877422,0.21345202218965453,10.014814066435013,0.2497083975670679,0.014317708999999956,-0.014415775499999839,-0.002353596000000735
124582.0,1.1847413864999998,-1.6689937635,9.808219064,-0.030337313058165435,-0.12309109082615209,0.21185330059482768,10.019496671135775,0.246887808887526,0.010787314999999964,0.007158854499999645,0.004707191999999694
124592.0,1.1571847,-1.70243444,9.803511872,-0.03673219943747266,-0.11802789066611653,0.20918818282703236,10.017295267528912,0.24298052038194942,-0.027556686499999872,-0.03344067649999993,-0.004707191999999694
124602.0,1.133256474,-1.7072396984999998,9.769973129,-0.04259476039492161,-0.11962661226094334,0.20892114745147722,9.982550403848675,0.24448493987682093,-0.023928225999999997,-0.004805258499999798,-0.03353874299999937
124612.0,1.1392385305,-1.6940987874999998,9.76153941,-0.04499284278716182,-0.12682085943766397,0.2070553904810953,9.972737176130128,0.24694092617032284,0.005982056499999944,0.013140911000000033,-0.008433719000001005
124622.0,1.132079676,-1.7060629005,9.7412396445,-0.04659156438198863,-0.13428214198993974,0.20385794729144166,9.954094877227824,0.24851665980945328,-0.007158854499999867,-0.011964113000000332,-0.020299765499999012
124632.0,1.1344332719999999,-1.6916471249999998,9.707700901499999,-0.04659156438198863,-0.13987766757183356,0.20305858649402828,9.919075845920592,0.25093689506696726,0.002353595999999847,0.014415775500000283,-0.03353874300000115
124642.0,1.1488490475,-1.6665421009999999,9.680144214999999,-0.041263074175649936,-0.14254278533962889,0.20252626107217,9.88951003495851,0.25107364132197846,0.014415775500000061,0.02510502399999992,-0.027556686500000538
124652.0,1.1523794415,-1.686939933,9.7065241035,-0.03619987401561439,-0.14067702836924695,0.20599073963737877,9.919191241556359,0.2520568229703426,0.0035303939999999923,-0.020397832000000005,0.02637988850000106
124662.0,1.1380617325,-1.698904046,9.687303069499999,-0.03247010540410251,-0.13774662055514847,0.20812178665406383,9.900772708472818,0.25168058586112124,-0.014317708999999956,-0.01196411300000011,-0.01922103400000097
124672.0,1.1009925955,-1.712044957,9.700542046999999,-0.03060434843372057,-0.13721254980403821,0.2094552182025875,9.911800978417086,0.25226057638694116,-0.03706913700000003,-0.013140911000000033,0.01323897750000036
124682.0,1.0973641349999999,-1.7216554739999999,9.7100544975,-0.029005626838893763,-0.13508150278735315,0.21025457900000089,9.922371891859246,0.25158562513401767,-0.003628460500000097,-0.009610516999999819,0.009512450500000824
124692.0,1.1009925955,-1.7143985529999999,9.7220186105,-0.0308713838092757,-0.13028533800287273,0.21078690442185916,9.93322671425467,0.24971670090839418,0.003628460500000097,0.007256920999999972,0.011964112999999443
124702.0,1.111681844,-1.6833114724999998,9.726823868999999,-0.0316707446066891,-0.12282405545059695,0.21185330059482768,9.933804740092159,0.24692226637991935,0.010689248500000081,0.031087080500000086,0.004805258499999354
124712.0,1.0925588764999998,-1.6940987874999998,9.702895643,-0.03406882699892931,-0.1185602160879748,0.21345202218965453,9.910087762445713,0.24653392380920525,-0.0191229675000002,-0.010787314999999964,-0.023928225999998887
124722.0,1.072259111,-1.7288143285,9.714859756,-0.034868187796342716,-0.1161621336957346,0.21371731223595766,9.925574978926802,0.24573262171374108,-0.0202997654999999,-0.03471554100000018,0.011964112999999443
124732.0,1.072259111,-1.7143985529999999,9.769973129,-0.03247010540410251,-0.11403108667904953,0.21345202218965453,9.977037483192747,0.2441703549799017,0.0,0.014415775500000061,0.055113373000001076
124742.0,1.053038077,-1.7132217549999997,9.759185814,-0.02953795226075203,-0.11110067886495104,0.21051986904630404,9.964222284031806,0.23986343350182504,-0.01922103399999986,0.0011767980000001454,-0.010787314999999964
124752.0,1.0554897395,-1.7072396984999998,9.7412396445,-0.02554114827368502,-0.11216532970866758,0.20998754362444577,9.945877326304736,0.23943303849139322,0.0024516624999999515,0.005982056499999944,-0.017946169500000053
124762.0,1.049507683,-1.7108681589999999,9.7173114185,-0.022076669708476274,-0.11296469050608099,0.20838882202961895,9.922433040251093,0.2380636507185505,-0.005982056499999944,-0.003628460500000097,-0.023928226000000663
124772.0,1.06500219,-1.7143985529999999,9.7053473055,-0.018879226518822664,-0.11483044747646293,0.20572370426182363,9.912979288973089,0.23635714365510513,0.01549450699999988,-0.0035303939999999923,-0.011964112999999443
124782.0,1.1056997874999999,-1.7096913609999997,9.700542046999999,-0.018613936472519525,-0.11376405130349439,0.20439201804255197,9.911918713123637,0.23465897604714375,0.040697597499999905,0.004707192000000138,-0.0048052585000011305
124792.0,1.1249208215,-1.6856650684999999,9.6957367885,-0.021012018864759733,-0.11110067886495104,0.2046573080888551,9.905262512910884,0.2338150541244138,0.01922103400000008,0.02402629249999988,-0.004805258499999354
124802.0,1.153654306,-1.686939933,9.7100544975,-0.02554114827368502,-0.10284003551526187,0.20545666888626848,9.922794109509798,0.23117280538540957,0.028733484500000017,-0.001274864500000028,0.014317709000000178
124812.0,1.1583614979999999,-1.6582064484999999,9.7316291275,-0.030337313058165435,-0.08978322738109229,0.20758946123220556,9.93962048878639,0.22819895901872872,0.004707191999999916,0.028733484500000017,0.021574629999999928
124822.0,1.1523794415,-1.6605600445,9.773503522999999,-0.03992964262712627,-0.07352897605726912,0.21051986904630404,9.980321094668001,0.2265380805596125,-0.005982056499999944,-0.002353596000000069,0.04187439549999894
124832.0,1.10815145,-1.6534011899999999,9.8130243225,-0.05511924310723292,-0.05727472473344592,0.21211859064113084,10.012850817085367,0.22652333555196005,-0.0442279914999999,0.007158854500000089,0.03952079950000176
124842.0,1.0950105389999998,-1.7084164965,9.8226348395,-0.07004006288253244,-0.04554960281854801,0.21211859064113084,10.03004936160304,0.22797954561998804,-0.013140911000000255,-0.05501530650000008,0.009610516999998708
124852.0,1.072259111,-1.689293529,9.768796330999999,-0.07936710240519014,-0.04421791659927634,0.21824818697413492,9.97160137514546,0.23640353679687928,-0.02275142799999985,0.019122967499999977,-0.05383850850000016
124862.0,1.050684481,-1.7216554739999999,9.749575297,-0.07883303165407987,-0.04954640680561503,0.21984690856896172,9.956015966321118,0.23875124400607858,-0.021574629999999928,-0.03236194499999989,-0.019221033999999193
124872.0,0.9860586575,-1.7431320375,9.7280987335,-0.07297221602588291,-0.058873446328272724,0.22277731638306023,9.932105816236248,0.24170386775791206,-0.06462582350000001,-0.021476563500000045,-0.021476563500000267
124882.0,0.948891454,-1.7347963849999999,9.7053473055,-0.06044773331357161,-0.07645938387136758,0.2219779555856468,9.904730173470623,0.24243386440578224,-0.03716720350000002,0.008335652500000013,-0.022751427999999407
124892.0,0.9836069949999999,-1.7754939824999998,9.677790619,-0.0487243567279257,-0.09644514913595466,0.2187805123959932,9.888351372585374,0.24400951279542366,0.03471554099999996,-0.040697597499999905,-0.027556686500000538
124902.0,0.9560503084999998,-1.7611762734999998,9.640623415499999,-0.03406882699892931,-0.11589684364943145,0.21691475542561126,9.846694567122977,0.24828365725986976,-0.027556686500000094,0.014317708999999956,-0.03716720350000102
124912.0,0.9692892859999999,-1.7419552395,9.661021247499999,-0.020477948113649468,-0.13188405959769953,0.21531603383078446,9.864545672306573,0.25332537567234437,0.013238977500000026,0.01922103399999986,0.02039783200000045
124922.0,0.9920407139999999,-1.7156734175,9.639446617499999,-0.009819222371720098,-0.14494086773186912,0.21131922984371743,9.841067581587982,0.2564373006576741,0.022751428000000073,0.026281822000000066,-0.021574629999999928
124932.0,1.0482328184999998,-1.7132217549999997,9.634641359,-0.004223696789826277,-0.1470719147485542,0.21025457900000089,9.841759748141543,0.25662224321528715,0.056192104499999895,0.0024516625000001735,-0.004805258499999354
124942.0,1.0698074485,-1.7012576419999998,9.635916223499999,-0.0034243359924128747,-0.14440854231001082,0.20972050824889063,9.843253883124216,0.2546531852329048,0.02157463000000015,0.011964112999999887,0.0012748644999991399
124952.0,1.088930416,-1.6952755855,9.6849494735,-0.006089453760208216,-0.13721254980403821,0.20892114745147722,9.89231899333671,0.250024821014365,0.019122967499999977,0.005982056499999944,0.049033250000000805
124962.0,1.087753618,-1.7048861025,9.6969135865,-0.009819222371720098,-0.1294859772054593,0.20652306505923704,9.905552869982474,0.2439565777393589,-0.0011767979999999234,-0.00961051700000004,0.011964112999999443
124972.0,1.1212923609999998,-1.698904046,9.747221700999999,-0.010885618544688634,-0.12282405545059695,0.20519137883996535,9.957504828258806,0.239390365801713,0.033538742999999815,0.005982056499999944,0.050308114499999945
124982.0,1.1212923609999998,-1.7072396984999998,9.7628142745,-0.014882422531755648,-0.11802789066611653,0.20439201804255197,9.974192022682955,0.23649136668177415,0.0,-0.00833565249999979,0.015592573500001095
124992.0,1.0734359089999999,-1.7000808439999997,9.750752095,-0.016481144126582456,-0.1145634121009078,0.20199393565031173,9.955888003840405,0.23280453935313608,-0.047856451999999994,0.007158854500000089,-0.01206217950000088
125002.0,1.074612707,-1.7168502154999998,9.785467635999998,-0.021544344286618004,-0.11483044747646293,0.20119457485289832,9.9928846679881,0.23265736048666835,0.0011767980000001454,-0.01676937150000013,0.03471554099999885
125012.0,1.061471796,-1.6856650684999999,9.793901355,-0.026340509071098424,-0.12495684779653403,0.20145986489920148,9.994433092894033,0.23852486955153188,-0.013140911000000033,0.03118514699999997,0.008433719000001005
125022.0,1.0482328184999998,-1.712044957,9.729275531499999,-0.027406905244066956,-0.13135173417584126,0.20279329644772512,9.934218255324078,0.24316565878057916,-0.013238977500000138,-0.02637988850000017,-0.06462582350000012
125032.0,1.0398971659999998,-1.7216554739999999,9.7532037575,-0.024209462054413346,-0.14387447155890054,0.20145986489920148,9.958436986913213,0.24874090693836726,-0.008335652500000013,-0.009610516999999819,0.023928226000000663
125042.0,1.0447024244999998,-1.6916471249999998,9.7639910725,-0.013550736312483973,-0.15773064049048355,0.19906178250696127,9.964366252558998,0.25433869280744015,0.00480525850000002,0.030008349000000045,0.010787314999999964
125052.0,1.0686306504999998,-1.6725241575,9.7100544975,-0.003691371367968007,-0.16945576240538143,0.19639841006841793,9.910825741028297,0.25942478122254975,0.023928225999999997,0.019122967499999755,-0.05393657499999982
125062.0,1.0829483595,-1.654577988,9.735257588,0.005101597403579425,-0.1769170449576572,0.19453265309803597,9.934064916862052,0.26299927797235245,0.014317709000000178,0.017946169500000053,0.025203090499999803
125072.0,1.0734359089999999,-1.644967471,9.76153941,0.007234389749516496,-0.18224553516399591,0.19453265309803597,9.957200122743437,0.2666621919275771,-0.009512450500000158,0.00961051700000004,0.02628182199999962
125082.0,1.0638253919999998,-1.6509495275,9.775955185499999,0.0008377580409572782,-0.1854429783536495,0.19293393150320917,9.971291721533412,0.267606617975887,-0.00961051700000004,-0.005982056499999944,0.014415775499999839
125092.0,1.0590201335,-1.6833114724999998,9.760362612,-0.007155849933176751,-0.1870416999484763,0.1916022452839375,9.960910574557726,0.2678567230922684,-0.004805258499999798,-0.03236194499999989,-0.015592573499999318
125102.0,1.0470560205,-1.686939933,9.7532037575,-0.011952014717657168,-0.1846436175562361,0.18893712751614217,9.953244505332291,0.26444915260615914,-0.01196411300000011,-0.003628460500000097,-0.007158854500000089
125112.0,1.038720368,-1.7132217549999997,9.8261652335,-0.015948818704724182,-0.17904809197434227,0.1876036959676185,10.028339442836359,0.25982249863789575,-0.008335652500000013,-0.026281821999999844,0.07296147599999969
125122.0,1.0350919075,-1.7156734175,9.8465630655,-0.01941329726993293,-0.1793151273498974,0.18440625277796488,10.048370750293644,0.25794661670782076,-0.003628460499999875,-0.0024516625000001735,0.02039783200000045
125132.0,1.0219509965,-1.7216554739999999,9.906383630499999,-0.021277308911062873,-0.1854429783536495,0.17801136639865764,10.106676904157956,0.25793384551525234,-0.013140911000000033,-0.005982056499999944,0.05982056499999899
125142.0,1.0135172774999999,-1.7000808439999997,9.881278606499999,-0.022876030505889676,-0.19983147270709076,0.16921839762711022,10.077557196424207,0.26285128181440914,-0.008433719000000117,0.02157463000000015,-0.025105024000000142
125152.0,1.0805947635,-1.689293529,9.816652783,-0.029270916885196903,-0.2147540378116423,0.16548862901559833,10.019384688293316,0.2726950121750794,0.06707748600000007,0.010787314999999742,-0.06462582349999835
125162.0,1.1189387649999998,-1.686939933,9.7520269595,-0.03247010540410251,-0.2272767751947016,0.16628798981301174,9.95991064800205,0.2834796921190454,0.038344001499999836,0.002353596000000069,-0.06462582350000012
