timestamp,ax,ay,az,gx,gy,gz,acc_mag,gyro_mag,dax,day,daz
27082.0,-0.12817291549999998,0.0510926465,9.933449984500001,0.11861083063628264,0.10323797058471658,0.05230751768227006,9.934408253608124,0.16571868971471118,0.0,0.0,0.0
27092.0,-0.37245656699999996,-0.039814999,9.934626782499999,0.1244733915937316,0.10030756277061811,0.04111472118923042,9.9416858950589,0.16506257196074492,-0.24428365149999998,-0.0909076455,0.001176797999997703
27102.0,-0.42266661499999997,0.067862018,9.9106985565,0.10928553644287693,0.08112115830344444,0.005942846103040692,9.919939425154459,0.13623247857946466,-0.05021004800000001,0.10767701699999999,-0.023928225999998887
27112.0,-0.4143309625,0.010395048999999998,9.963360267,0.09463000671388055,0.0963107587835511,-0.029763099734259304,9.971977036353634,0.1382622238137515,0.008335652499999957,-0.057466969,0.05266171050000068
27122.0,-0.45620535799999995,0.052367511,9.940608839,0.08796808495901819,0.10403733138212998,-0.06360503393042935,9.951209462918623,0.15035873979840095,-0.04187439549999994,0.041972462,-0.022751428000001184
27132.0,-0.4011900515,0.13248784149999998,9.933449984500001,0.08503767714491972,0.09497732723502741,-0.09131737179359531,9.942431044776272,0.1568150554449502,0.05501530649999997,0.08012033049999998,-0.007158854499998313
27142.0,-0.3138128,0.1972117315,9.929919590499999,0.08557000256677799,0.08964883702868874,-0.09211673259100872,9.936834204830065,0.15441707076330063,0.08737725149999997,0.06472389,-0.0035303940000019907
27152.0,-0.20966617699999998,0.241439723,9.8748062175,0.08583703794233312,0.06699969932555833,-0.07506312046977212,9.879982331907115,0.1322551656726053,0.10414662300000002,0.04422799150000001,-0.0551133729999993
27162.0,-0.075511205,0.21996315949999998,9.8412674745,0.09995849692021924,0.04435056162242791,-0.04468566483881081,9.844014995837288,0.11813332326173165,0.13415497199999998,-0.021476563500000018,-0.03353874299999937
27172.0,-0.0312832135,0.307340411,9.814985652499999,0.12793787015894034,0.036889279070152145,-0.008979719001510825,9.81984623741438,0.13345243678729712,0.0442279915,0.0873772515,-0.026281822000001398
27182.0,-0.033636809499999996,0.376771493,9.8030215395,0.14872125089168883,0.04621457326355785,0.023261748270580425,9.810316992676217,0.15746398375922432,-0.0023535959999999995,0.06943108200000003,-0.011964112999999443
27192.0,-0.06835235049999999,0.40668177549999995,9.8604885085,0.15138636865948416,0.07739138969193256,0.048043678319647905,9.869108153050268,0.17667895981365642,-0.034715540999999996,0.02991028249999994,0.057466969000000034
27202.0,-0.1246425215,0.3600021215,9.9573782105,0.13539915271121608,0.10856820612030728,0.058168333310467016,9.964663472119396,0.18303972501950042,-0.056290171000000014,-0.04667965399999996,0.09688970200000036
27212.0,-0.1821094905,0.29655309599999996,10.005332729,0.11141658345956201,0.11895989648668151,0.05843536868602215,10.01138305246962,0.17314677113765323,-0.05746696899999999,-0.06344902550000003,0.04795451849999921
27222.0,-0.247912112,0.2786069265,10.0460303265,0.09542936751129395,0.10537076293065366,0.05283984310412832,10.052950191646618,0.15166347906949293,-0.06580262149999999,-0.017946169499999942,0.04069759750000124
27232.0,-0.30655587900000003,0.297729894,10.049560720499999,0.09063320272681354,0.06540097773073152,0.04990943529002985,10.058642566059655,0.12240350099415047,-0.05864376700000004,0.019122967499999977,0.003530393999998438
27242.0,-0.3209716545,0.30253515249999996,10.020827236,0.09356361054091203,0.024898867108951107,0.052572807728573194,10.030529837214488,0.11017260509412581,-0.01441577549999995,0.004805258499999965,-0.02873348449999824
27252.0,-0.31616639599999996,0.27262486999999996,9.986111695,0.09729337915242389,0.0011833332328521555,0.05390623927709686,9.994834280503,0.11123526660837786,0.00480525850000002,-0.029910282499999996,-0.03471554100000063
27262.0,-0.325776913,0.24987344199999997,9.920309073499999,0.09516233213573883,-0.003612831551628262,0.05337216852598659,9.928801511150635,0.10916735035027379,-0.00961051700000004,-0.02275142799999999,-0.06580262150000138
27272.0,-0.329307307,0.22467035149999998,9.856860048,0.08610232798863626,0.007311184236604247,0.04750960756853765,9.864918148426032,0.09861149583755797,-0.0035303939999999923,-0.025203090499999997,-0.06344902549999887
27282.0,-0.36049245399999996,0.191229675,9.837737080499998,0.08130616320415585,0.029160961142321258,0.03765198795327367,9.846196954308612,0.09422699202754094,-0.03118514699999997,-0.03344067649999999,-0.01912296750000131
27292.0,-0.37000490449999995,0.18642441649999997,9.849701193499998,0.08503767714491972,0.04488288704428618,0.028324948430615976,9.85841119520061,0.1002406244355591,-0.009512450499999991,-0.00480525850000002,0.011964112999999443
27302.0,-0.39275633249999997,0.15886772999999998,9.889221993,0.0919648889460852,0.050213122579876854,0.01953197965906854,9.898293192222035,0.10658516176039605,-0.022751428000000018,-0.027556686499999983,0.03952079950000176
27312.0,-0.39393313049999995,0.16367298849999998,9.951396154000001,0.09702808910612076,0.04115311843277429,0.009140289292694306,9.960535004321608,0.10579023641471551,-0.001176797999999979,0.0048052584999999925,0.062174161000001504
27322.0,-0.3892259385,0.161221326,9.987288493000001,0.09835977532539245,0.022766074763014035,-0.002050761871093337,9.996170296146852,0.10098091496133689,0.004707191999999971,-0.002451662499999979,0.035892339000000106
27332.0,-0.33528936349999994,0.195936867,9.977776042499999,0.09383064591646716,0.001715658654710426,-0.011110766018195902,9.985330488642473,0.09450176040282009,0.05393657500000004,0.03471554099999999,-0.0095124505000026
27342.0,-0.291061372,0.23663446449999997,9.939432041,0.08370424559639604,-0.016669639685797842,-0.016441001553786583,9.946508024915937,0.08691711080223344,0.04422799149999995,0.04069759749999999,-0.038344001499998726
27352.0,-0.212019773,0.25820909449999996,9.8867703305,0.07357959060557694,-0.028660051646998884,-0.01564164075637318,9.892413855509712,0.080498544332456,0.07904159899999999,0.021574629999999984,-0.05266171050000068
27362.0,-0.140235095,0.274978466,9.819790910999998,0.06798406502368312,-0.02945941244441229,-0.010845475971892763,9.824641091377922,0.0748820033637674,0.07178467799999999,0.01676937150000002,-0.06697941950000086
27372.0,-0.1138552065,0.2893942415,9.750359828999999,0.07118150821333674,-0.024663247659931872,0.0003473205211468716,9.755317976879965,0.0753339467186266,0.026379888500000004,0.014415775500000005,-0.06943108199999948
27382.0,-0.08629852,0.29057103949999996,9.7216263445,0.07997447698488418,-0.016936675061352973,0.010739010887521109,9.726350690039236,0.08245055661414252,0.027556686499999997,0.001176797999999979,-0.02873348449999824
27392.0,-0.08031646349999999,0.23310407049999998,9.6988749165,0.08850041038087647,-0.008676031711663812,0.016067501093859796,9.702008188406444,0.0903645990155798,0.005982056500000013,-0.05746696899999998,-0.022751428000001184
27402.0,-0.055211439499999994,0.21996315949999998,9.700051714499999,0.10075785771763264,0.007311184236604247,0.017133897266828332,9.702702477071183,0.10246545633694559,0.025105023999999997,-0.013140911000000005,0.0011767979999994793
27412.0,-0.062370294,0.2678196115,9.719174681999998,0.10608809325322333,0.0233001455141243,0.02006430508092681,9.723064017947605,0.11045431928840303,-0.007158854500000006,0.04785645200000002,0.019122967499999532
27422.0,-0.06472388999999999,0.2570322965,9.747908166499998,0.1082191402699084,0.037421604492010416,0.02486046986540723,9.751511083206447,0.11717423678199652,-0.0023535959999999925,-0.01078731500000002,0.028733484500000017
27432.0,-0.094732239,0.2797837245,9.774288055,0.11008489724029034,0.04781504018763665,0.0355191956073366,9.77875043713238,0.12516619321982606,-0.030008349000000004,0.022751428000000018,0.02637988850000106
27442.0,-0.13542983649999998,0.28811937699999995,9.8604885085,0.11061722266214861,0.052344169596561935,0.04724431752223451,9.865626571195458,0.13117967669720304,-0.04069759749999999,0.008335652499999957,0.08620045350000005
27452.0,-0.176127434,0.2593858925,9.8952040495,0.11114954808400689,0.048347365609494916,0.05896769410788042,9.900169952858217,0.13479198325218633,-0.040697597500000016,-0.02873348449999996,0.03471554100000063
27462.0,-0.22996594249999996,0.21152944049999997,9.914327017,0.10795210489435327,0.03715631444570728,0.06376385889236083,9.919249429212085,0.1307672679042987,-0.053838508499999965,-0.04785645200000002,0.019122967499999532
27472.0,-0.269486742,0.160044528,9.917857410999998,0.10235657931245945,0.022500784716710895,0.06083345107826236,9.92280872434736,0.12117699208804826,-0.03952079950000004,-0.05148491249999998,0.003530393999998438
27482.0,-0.30175062049999996,0.14925721299999997,9.88314187,0.09622872830870735,0.013973105991466603,0.05150815688485665,9.888873766772015,0.1100377483804298,-0.032263878499999954,-0.01078731500000002,-0.03471554099999885
27492.0,-0.29341496799999994,0.1181701325,9.8389138785,0.09249721436794348,0.011842058974781525,0.041648791940340685,9.84399729948162,0.1021302643523519,0.008335652500000013,-0.031087080499999975,-0.044227991499999675
27502.0,-0.3197948565,0.12415218899999998,9.793411022499999,0.09276424974349862,0.015571827586293408,0.03178942699582472,9.79941743023032,0.09928874817205775,-0.02637988850000006,0.005982056499999985,-0.04550285600000059
27512.0,-0.33175896949999995,0.1301342455,9.78507537,0.09942617149836097,0.01583886296184854,0.02113070125389535,9.791562639960803,0.10287341587712094,-0.011964112999999943,0.005982056500000013,-0.008335652499999568
27522.0,-0.2850793155,0.1420983585,9.824498102999998,0.10875146569176668,0.011575023599226394,0.012603022528651054,9.829660479155162,0.1100895028523966,0.04667965399999996,0.011964112999999998,0.039422732999998544
27532.0,-0.26830994399999997,0.18877801249999998,9.8771598135,0.11381466585180222,0.01077566280181299,0.008073893119725768,9.882606606835672,0.11460838024282748,0.01676937150000002,0.04667965399999999,0.05266171050000246
27542.0,-0.225160684,0.20917584449999996,9.9214858715,0.11488106202477076,0.00811054503401765,0.009939650090107707,9.92624469605277,0.1155951382913738,0.04314925999999997,0.020397831999999977,0.044326057999999335
27552.0,-0.179657828,0.22947561,9.9465908955,0.11114954808400689,0.003314380249537232,0.015535175672001527,9.95085958262853,0.11227888866068023,0.04550285600000001,0.02029976550000004,0.025105024000000142
27562.0,-0.164163321,0.26664281349999996,9.937078445000001,0.10448937165839652,0.002515019452123829,0.023261748270580425,9.94201066223712,0.1070769024814172,0.01549450699999999,0.03716720349999997,-0.009512450499999048
27572.0,-0.140235095,0.2929246355,9.9106985565,0.09835977532539245,0.007845254987714512,0.03525390556103346,9.916018182807232,0.10478087270675981,0.023928225999999997,0.02628182200000001,-0.02637988850000106
27582.0,-0.154552804,0.2689964095,9.893929185,0.09516233213573883,0.020367992370773826,0.04884303911706132,9.898791863421662,0.10888694614562093,-0.014317708999999984,-0.023928225999999997,-0.016769371500000574
27592.0,-0.21917862749999997,0.2570322965,9.915503815000001,0.09329657516535689,0.03049439269084493,0.05550496087192367,9.921256008060492,0.11276062967437847,-0.06462582349999998,-0.011964112999999998,0.021574630000001704
27602.0,-0.26830994399999997,0.2127062385,9.961006671,0.09249721436794348,0.03289247508308513,0.05390623927709686,9.966889588515196,0.11199791165874605,-0.049131316499999994,-0.044326057999999974,0.045502855999998815
27612.0,-0.28978650749999996,0.18044236,9.987288493000001,0.0948952967601837,0.02676287875008105,0.04671024677112424,9.993120989341701,0.10910186148555942,-0.02147656349999999,-0.03226387850000001,0.026281822000001398
27622.0,-0.3005738225,0.19476006899999998,9.977776042499999,0.09676105373056562,0.013707815945163465,0.03845134875068708,9.984202064338245,0.10501957892594528,-0.01078731500000002,0.014317708999999984,-0.0095124505000026
27632.0,-0.33175896949999995,0.1995653275,9.9801296385,0.0964940183550105,0.0006510078109938849,0.032855823168793256,9.9876362536413,0.10193637479117103,-0.03118514699999997,0.00480525850000002,0.002353596000000735
27642.0,-0.317343194,0.1983885295,9.925114332,0.0956946575575971,-0.010807078728348888,0.02992367002544278,9.93216790105197,0.10084486334711396,0.01441577549999995,-0.0011767980000000067,-0.05501530649999964
27652.0,-0.30655587900000003,0.23310407049999998,9.9071681625,0.09409593596277029,-0.015070918090971037,0.030190705400997914,9.914650524082367,0.09996327540364196,0.010787314999999964,0.03471554099999999,-0.017946169500000053
27662.0,-0.2754687985,0.253403836,9.870000958999999,0.0919648889460852,-0.010807078728348888,0.030990066198411315,9.877095498865415,0.09764588036619072,0.03108708050000003,0.02029976550000001,-0.03716720350000102
27672.0,-0.2850793155,0.24742177949999997,9.872452621499999,0.09036616735125841,0.0014503686084072877,0.030455995447301053,9.879666417286522,0.09537146024645904,-0.009610516999999985,-0.005982056500000027,0.0024516625000003955
27682.0,-0.294591766,0.23065240799999998,9.871177757,0.08823512033457334,0.01583886296184854,0.031257101573966446,9.878265796798685,0.09493846659382123,-0.009512450499999991,-0.01676937149999999,-0.0012748644999991399
27692.0,-0.32214845249999996,0.20074212549999998,9.8952040495,0.09036616735125841,0.022233749341155764,0.027792623008757705,9.902481517662107,0.0971226734868224,-0.027556686499999983,-0.029910282499999996,0.024026292500000324
27702.0,-0.32214845249999996,0.168478247,9.9106985565,0.09036616735125841,0.020102702324470687,0.023261748270580425,9.917364086438065,0.09545298201264207,0.0,-0.03226387849999998,0.015494506999999658
27712.0,-0.30655587900000003,0.170831843,9.884416734499998,0.09169785357053008,0.013440780569608332,0.017400932642383467,9.890644782156311,0.09429710169770598,0.015592573499999929,0.0023535960000000133,-0.026281822000001398
27722.0,-0.2970434285,0.19240647299999997,9.892752387,0.09223192432164035,0.00571246264177744,0.013402383326064457,9.899081009859527,0.09337549985047076,0.009512450500000047,0.021574629999999956,0.008335652500001345
27732.0,-0.30420228299999996,0.2223167555,9.8412674745,0.09223192432164035,0.002515019452123829,0.011004300933824247,9.848477510428202,0.09292011529243557,-0.007158854499999978,0.029910282500000024,-0.051484912499999425
27742.0,-0.3005738225,0.1983885295,9.850877991499999,0.09303128511905376,0.001715658654710426,0.009405579338997442,9.857459096279754,0.09352127254386743,0.003628460499999986,-0.023928225999999997,0.009610516999998708
27752.0,-0.291061372,0.20554738399999997,9.847249531,0.09329657516535689,0.0022497294058206906,0.0056758107274855595,9.853694219688343,0.09349613386337824,0.009512450499999991,0.007158854499999978,-0.003628460499999875
27762.0,-0.28625611349999996,0.215157901,9.855683249999998,0.09436297133832543,-0.000148352986419518,-0.0015184364492350666,9.862186766088412,0.09437530406656484,0.00480525850000002,0.00961051700000004,0.008433718999999229
27772.0,-0.2670350795,0.21751149699999997,9.824498102999998,0.09383064591646716,-0.0014817845349431858,-0.004982915014443811,9.830533147335464,0.09397454570547602,0.01922103399999997,0.002353595999999958,-0.031185147000000413
27782.0,-0.20240925599999998,0.206724182,9.788605764,0.09276424974349862,-0.0014817845349431858,-0.004715879638888678,9.79288043413949,0.09289586232255269,0.06462582350000001,-0.010787314999999964,-0.03589233899999833
27792.0,-0.179657828,0.1876012145,9.7610490775,0.09463000671388055,0.0011833332328521555,-0.002050761871093337,9.764504608233187,0.09465962218634184,0.02275142799999999,-0.019122967500000004,-0.027556686500000538
27802.0,-0.179657828,0.2103526425,9.7694827965,0.10262361468801459,0.005447172595474302,0.0027454029133870805,9.773398553240213,0.10280474316915443,0.0,0.02275142799999999,0.008433719000001005
27812.0,-0.167693715,0.195936867,9.788605764,0.11248297963253055,0.011042698177368124,0.00514348530562729,9.792002616467904,0.11314069705962544,0.011964112999999998,-0.014415775500000005,0.019122967499999532
27822.0,-0.14739394949999998,0.1852476185,9.7922342245,0.11834554058997951,0.020635027746328957,0.0032777283352453507,9.79509534226075,0.12017576648670032,0.02029976550000001,-0.010689248499999998,0.003628460499999875
27832.0,-0.153376006,0.206724182,9.843719136999999,0.11781146983886924,0.03049439269084493,8.028514559173915e-05,9.847084113319033,0.12169411184146443,-0.005982056500000027,0.021476563500000018,0.051484912499999425
27842.0,-0.143765489,0.23310407049999998,9.870000958999999,0.1135476304762471,0.03395887125605367,-0.0009861110273767962,9.873799924759059,0.11852106031720228,0.009610517000000013,0.026379888499999976,0.02628182199999962
27852.0,-0.099439431,0.2570322965,9.903539702,0.1082191402699084,0.02889567109601812,0.0038100537571036214,9.907373639414834,0.11207523650869262,0.044326058,0.023928225999999997,0.03353874300000115
27862.0,-0.094732239,0.31685286149999997,9.9322731865,0.10688745405063674,0.02303311013856917,0.0168668618912732,9.937777446904995,0.11063427600044085,0.004707191999999999,0.05982056499999999,0.028733484500000017
27872.0,-0.097085835,0.333622233,9.9214858715,0.1058210578776682,0.022233749341155764,0.03338814859065153,9.927568249681473,0.11316891961322938,-0.0023535959999999995,0.01676937150000002,-0.010787314999999964
27882.0,-0.10189109349999999,0.286942579,9.917857410999998,0.10289065006356972,0.024364796357840838,0.04697728214667938,9.922530597761106,0.1157021789334658,-0.0048052584999999925,-0.046679654000000015,-0.003628460500001651
27892.0,-0.164163321,0.2223167555,9.935901647,0.10182425389060118,0.031026718112703196,0.05337216852598659,9.939744255995478,0.11907738782148804,-0.06227222750000001,-0.06462582349999998,0.01804423600000149
27902.0,-0.233594403,0.206724182,9.9214858715,0.09782744990353417,0.03315951045864027,0.053639203901541734,9.92638822185142,0.116391268073152,-0.069431082,-0.015592573499999984,-0.014415775499999839
27912.0,-0.28978650749999996,0.13376270599999998,9.913150219,0.09169785357053008,0.025963517952667648,0.04591088597371084,9.918286946136678,0.10578473455471706,-0.05619210449999995,-0.07296147600000003,-0.008335652499999568
27922.0,-0.282627653,0.1181701325,9.868824161,0.08876744575643161,0.01264141977219493,0.03338814859065153,9.87357751228969,0.09567775805425885,0.007158854499999978,-0.015592573499999984,-0.04432605800000111
27932.0,-0.283804451,0.1050292215,9.801746675,0.09223192432164035,0.002515019452123829,0.02486046986540723,9.806416979949908,0.09555676924659066,-0.0011767980000000344,-0.013140910999999991,-0.06707748599999874
27942.0,-0.281450855,0.136116302,9.7598722795,0.10129192846874291,-0.002281145332356589,0.01820029343979687,9.76487834760899,0.10293934659904819,0.0023535960000000133,0.03108708049999999,-0.041874395500000716
27952.0,-0.269486742,0.1420983585,9.715546221499999,0.10795210489435327,-0.00041538836197465044,0.01633453646941493,9.720321673160054,0.10918171358008337,0.011964112999999998,0.005982056499999999,-0.04432605800000111
27962.0,-0.23830159499999998,0.134939504,9.712015827499998,0.11328234042994395,0.009976302004399588,0.014468779499032991,9.715876067217499,0.1146375193170209,0.031185147000000024,-0.007158854500000006,-0.0035303940000002143
27972.0,-0.233594403,0.16720338249999997,9.7610490775,0.11941019143369605,0.025431192530809377,0.012337732482347916,9.765275337111389,0.12271006077162955,0.004707191999999971,0.03226387849999998,0.049033250000000805
27982.0,-0.22878914449999999,0.18642441649999997,9.8412674745,0.12820316020524347,0.03768863986756556,0.008073893119725768,9.845691648653233,0.13387184771932867,0.00480525850000002,0.019221033999999998,0.08021839700000122
27992.0,-0.2311427405,0.21152944049999997,9.9226626695,0.13246699956786562,0.043017130073904244,0.0038100537571036214,9.927608278098655,0.13932873344698188,-0.0023535960000000133,0.025105024000000004,0.08139519499999892
28002.0,-0.179657828,0.237909329,10.0268092925,0.13326636036527903,0.03822096528942383,0.0016790067404185449,10.03124032072561,0.1386491401210196,0.05148491250000001,0.02637988850000003,0.1041466230000001
28012.0,-0.1246425215,0.2701732075,10.0460303265,0.12713850936152693,0.026230553328222776,0.0032777283352453507,10.050435544849508,0.12985756040221716,0.055015306499999986,0.03226387850000001,0.01922103400000097
28022.0,-0.11620880249999999,0.319304524,10.035243011499999,0.1135476304762471,0.012107349021084663,0.012337732482347916,10.040994082494269,0.11485587459897165,0.00843371900000002,0.049131316499999966,-0.01078731500000174
28032.0,-0.109049948,0.355196863,10.005332729,0.10155721851504605,-0.000947713783832921,0.023261748270580425,10.012229507988838,0.10419153385248119,0.007158854499999992,0.035892338999999995,-0.029910282499999497
28042.0,-0.11748366699999999,0.330091839,9.974147581999999,0.09383064591646716,-0.01107411410390402,0.03525390556103346,9.980299746084913,0.10084475183961725,-0.008433718999999992,-0.025105023999999976,-0.031185147000000413
28052.0,-0.1234657235,0.298906692,9.901186106,0.09223192432164035,-0.01107411410390402,0.04591088597371084,9.906466337753802,0.10362033255182188,-0.005982056500000013,-0.031185147000000024,-0.07296147599999792
28062.0,-0.167693715,0.29057103949999996,9.864018902499998,0.09782744990353417,-0.004145156973486532,0.04990943529002985,9.869722469245216,0.10990151960702367,-0.044227991499999994,-0.008335652500000013,-0.0371672035000028
28072.0,-0.179657828,0.23908612699999998,9.850877991499999,0.10395530090728626,0.008644615785127915,0.04724431752223451,9.855416597724552,0.11451401445647877,-0.011964112999999998,-0.05148491249999998,-0.013140910999998923
28082.0,-0.1821094905,0.2103526425,9.864018902499998,0.10342297548542799,0.025431192530809377,0.04191408198664382,9.867942085846176,0.11445456601019303,-0.002451662500000007,-0.02873348449999999,0.013140910999998923
28092.0,-0.19642719949999998,0.215157901,9.893929185,0.10155721851504605,0.039819686884250624,0.036585591780305134,9.898217581204248,0.11505642799073725,-0.014317708999999984,0.00480525850000002,0.029910282500001273
28102.0,-0.22996594249999996,0.21152944049999997,9.8963808475,0.09995849692021924,0.04488288704428618,0.03418750938806493,9.901312181608708,0.11478223056788303,-0.03353874299999998,-0.0036284605000000414,0.0024516625000003955
28112.0,-0.225160684,0.216334699,9.9442372995,0.10182425389060118,0.03502352209977021,0.03258878779323812,9.949138329743828,0.11250268828114024,0.004805258499999965,0.00480525850000002,0.04785645199999955
28122.0,-0.2646814835,0.24389138549999997,9.9789528405,0.10528873245580993,0.019303341527057285,0.03312111321509639,9.985441356722891,0.11205063282672066,-0.03952079949999998,0.027556686499999983,0.03471554100000063
28132.0,-0.2635046855,0.25820909449999996,10.0148451795,0.10502169708025479,0.0059794980173325735,0.03685262715586027,10.021638120842189,0.11146042967100446,0.001176797999999979,0.014317708999999984,0.035892339000000106
28142.0,-0.2515405725,0.26066075699999997,10.01847364,0.09915913612280584,0.0022497294058206906,0.04005007034551388,10.02502023764682,0.10696543223724739,0.011964112999999998,0.002451662500000007,0.003628460499999875
28152.0,-0.24075325749999998,0.24389138549999997,9.992093751499999,0.08770104958346306,0.003314380249537232,0.04351280358147063,9.997968927621415,0.09795827320854125,0.01078731500000002,-0.01676937149999999,-0.02637988850000106
28162.0,-0.2550709665,0.23065240799999998,9.949042558,0.0786410454363605,0.00811054503401765,0.0448462351299943,9.954984156298925,0.09089213262657708,-0.014317709000000012,-0.013238977499999999,-0.04305119349999842
28172.0,-0.27066354,0.20554738399999997,9.9322731865,0.07757639459264395,0.01077566280181299,0.042181117362198955,9.938086291143856,0.08895762231948186,-0.015592573499999984,-0.025105024000000004,-0.016769371500000574
28182.0,-0.29223816999999996,0.16484978649999998,9.856860048,0.08290488479898264,0.012107349021084663,0.038184313375131944,9.862569067234592,0.09207523886355778,-0.021574629999999984,-0.04069759749999999,-0.07541313850000009
28192.0,-0.3138128,0.15886772999999998,9.834108619999999,0.0911655281486718,0.009443976582541317,0.028857273852474243,9.84039683036398,0.09608894041727464,-0.02157463000000004,-0.005982056499999999,-0.022751428000001184
28202.0,-0.3209716545,0.172008641,9.834108619999999,0.0956946575575971,0.009976302004399588,0.01820029343979687,9.840848648644558,0.09791958316926944,-0.007158854499999978,0.013140911000000005,0.0
28212.0,-0.2970434285,0.20917584449999996,9.843719136999999,0.0964940183550105,0.014772466788880006,0.010471975511965976,9.850421096606851,0.0981783256347799,0.023928225999999997,0.03716720349999997,0.009610517000000485
28222.0,-0.24310685349999997,0.24987344199999997,9.809003596,0.09249721436794348,0.02303311013856917,0.006475171524898963,9.815196851086409,0.09554154423475479,0.053936575000000014,0.040697597500000016,-0.03471554099999885
28232.0,-0.21319657099999997,0.265367949,9.842444272499998,0.0911655281486718,0.028361600344907856,0.007007496946757234,9.848328903093694,0.09573212057720941,0.029910282499999996,0.015494507000000018,0.033440676499997934
28242.0,-0.21917862749999997,0.263014353,9.8532315875,0.09329657516535689,0.026230553328222776,0.012070697106792783,9.859177883451771,0.09766265711178333,-0.005982056499999999,-0.0023535960000000133,0.01078731500000174
28252.0,-0.20966617699999998,0.2689964095,9.885593532499998,0.09729337915242389,0.017704619932230478,0.015535175672001527,9.891475039846558,0.10010393037739324,0.009512450499999991,0.005982056499999999,0.032361944999998116
28262.0,-0.222807088,0.25820909449999996,9.88314187,0.10022553229577437,0.01024333737995472,0.017400932642383467,9.889024631251186,0.10223930624508196,-0.013140911000000005,-0.01078731500000002,-0.002451662499998619
28272.0,-0.237124797,0.24506818349999998,9.8867703305,0.09862681070094757,0.0035814156250923643,0.01580221104755666,9.892649501118056,0.09994890795257207,-0.014317709000000012,-0.013140910999999977,0.003628460499999875
28282.0,-0.2180018295,0.2223167555,9.843719136999999,0.09223192432164035,0.00011693705988362008,0.010204940136410845,9.84864234225111,0.09279484005879042,0.019122967500000004,-0.02275142799999999,-0.043051193500000196
28292.0,-0.203586054,0.216334699,9.822144506999999,0.08690168878604966,-0.004679227724596798,0.004344124508213886,9.826635777302677,0.08713592889106611,0.014415775500000005,-0.005982056499999999,-0.021574629999999928
28302.0,-0.174950636,0.2234935535,9.775464852999999,0.08636936336419139,-0.007077310116837007,0.0014119713648634126,9.779584356491393,0.08667034619499799,0.028635417999999996,0.007158854500000006,-0.04667965400000007
28312.0,-0.186914749,0.2786069265,9.7586954815,0.09329657516535689,-0.010007717930935486,0.0038100537571036214,9.76446088852508,0.09390911492183426,-0.011964112999999998,0.05511337300000002,-0.016769371499998798
28322.0,-0.164163321,0.263014353,9.7586954815,0.10395530090728626,-0.009475392509077215,0.009672614714552575,9.763619392750533,0.10483342561102202,0.02275142799999999,-0.01559257350000004,0.0
28332.0,-0.153376006,0.23908612699999998,9.735944053499999,0.11248297963253055,-0.0038798669271833943,0.01633453646941493,9.740086908658586,0.11372902512575926,0.010787314999999992,-0.023928225999999997,-0.022751428000001184
28342.0,-0.166516917,0.21996315949999998,9.765854335999999,0.1167468189951527,0.0019826940302655584,0.01899965423721027,9.76975038509963,0.11829935622072564,-0.013140910999999977,-0.019122967500000004,0.029910282499999497
28352.0,-0.1809326925,0.1995653275,9.775464852999999,0.12047658760666458,0.009176941206986186,0.017400932642383467,9.779175632505726,0.12207217892741808,-0.014415775500000005,-0.020397831999999977,0.009610517000000485
28362.0,-0.152199208,0.1876012145,9.824498102999998,0.12127594840407799,0.015571827586293408,0.015002850250143257,9.827467720142776,0.12318856680436728,0.02873348449999999,-0.011964112999999998,0.04903324999999903
28372.0,-0.15092434349999997,0.204370586,9.850877991499999,0.11861083063628264,0.016905259134817077,0.009939650090107707,9.85415357589387,0.12022110286700093,0.001274864500000028,0.01676937149999999,0.02637988850000106
28382.0,-0.13415497199999998,0.21868829499999998,9.914327017,0.11328234042994395,0.01530653753999027,0.0083409284952809,9.917646007339567,0.11461566137710952,0.01676937149999999,0.014317708999999984,0.06344902550000064
28392.0,-0.11150161049999999,0.20917584449999996,9.962183469,0.10448937165839652,0.011575023599226394,0.010739010887521109,9.965003091473843,0.10567561835982538,0.022653361499999997,-0.00951245050000002,0.04785645199999955
28402.0,-0.073157609,0.2786069265,10.030437753,0.08530296719122286,0.010508627426257858,0.01820029343979687,10.034573003972618,0.08785373152749663,0.03834400149999999,0.06943108200000006,0.068254284
28412.0,-0.014513841999999999,0.376771493,10.065153293999998,0.05545958231137182,0.024898867108951107,0.0339204740125098,10.072213174931617,0.06961549691479897,0.058643767,0.0981645665,0.03471554099999885
28422.0,0.033440676499999995,0.42462794499999995,10.1034972955,0.0029670597283903604,0.051012483377290266,0.05923472948343555,10.112471743876249,0.07822934283710901,0.047954518499999994,0.04785645199999994,0.03834400150000228
28432.0,0.100420096,0.423451147,10.0579944395,-0.060718259347630726,0.08005650745972791,0.08934514973884174,10.067405187762594,0.13445559559464854,0.0669794195,-0.0011767979999999234,-0.04550285600000059
28442.0,0.1411176935,0.30969400699999994,10.0950635765,-0.09269269124416685,0.08325395064938151,0.12478406020058659,10.100798641442537,0.17633552389963775,0.0406975975,-0.11375714000000009,0.037069136999999586
