timestamp,ax,ay,az,gx,gy,gz,acc_mag,gyro_mag,dax,day,daz
244642.0,0.5825150099999999,-1.781868305,9.500290254,-0.14424797201882733,0.07961668448822533,-0.05520650956983264,9.683485596802747,0.17376435934715162,0.0,0.0,0.0
244652.0,0.37177010149999995,-1.4358896929999998,9.3434819205,-0.12426220675424028,0.06869092337074083,-0.06986203929882902,9.460478138949602,0.15824109300668293,-0.2107449085,0.34597861200000013,-0.156808333499999
244662.0,0.4292370705,-1.433536097,9.469203173499999,-0.10694330458670054,0.04177794630498827,-0.07252541173737237,9.586713667629583,0.13580207119577256,0.057466969000000034,0.002353595999999847,0.12572125299999826
244672.0,0.53936575,-1.433536097,9.511077569,-0.11173946937118096,0.01779712238258618,-0.06666459610917541,9.633614984895857,0.13132636808673773,0.11012867949999999,0.0,0.041874395500000716
244682.0,0.5453478064999999,-1.3820511844999999,9.54579311,-0.12399691670793714,0.004473278872861466,-0.06000267435431306,9.660726463654568,0.13782440461188006,0.005982056499999944,0.05148491250000009,0.03471554100000063
244692.0,0.49866815249999996,-1.3664586109999999,9.481167286499998,-0.14504733281624077,0.015666075365901103,-0.046945866220143476,9.592101551614826,0.15325817769252972,-0.04667965399999996,0.015592573499999984,-0.0646258235000019
244702.0,0.4843504435,-1.479038953,9.464397915,-0.16902815673864283,0.03991393466385833,-0.050410344785352224,9.591505589325708,0.1808448031108222,-0.014317708999999956,-0.11258034200000022,-0.016769371499998798
244712.0,0.363434449,-1.5280722029999998,9.4799904885,-0.17755583546388712,0.05190434662505937,-0.06906267850141562,9.60923040198078,0.19745832336886476,-0.12091599450000001,-0.049033249999999695,0.015592573500001095
244722.0,0.32028518899999997,-1.5616109459999998,9.519511288,-0.16423199195416244,0.029787534343787225,-0.09117949078268776,9.652062293174408,0.19019238660604854,-0.04314926000000002,-0.03353874300000004,0.03952079949999998
244732.0,0.36578804499999995,-1.5855391719999998,9.592472764,-0.1298577323361341,-0.020306905846954024,-0.11302926768840477,9.729505079288112,0.17335228993796756,0.04550285599999998,-0.023928225999999997,0.07296147599999969
244742.0,0.4053088445,-1.5197365504999998,9.5876675055,-0.09068905326287736,-0.07253413838363235,-0.12288688730366874,9.71582434167972,0.16907658821953298,0.03952079950000004,0.06580262150000005,-0.004805258499999354
244752.0,0.53936575,-1.479038953,9.523041682,-0.06350904082156966,-0.1079730488453772,-0.11889008331660172,9.652294779681865,0.17270329890905534,0.1340569055,0.04069759749999968,-0.06462582350000012
244762.0,0.6794047119999999,-1.4144131295,9.4452749475,-0.05791351523967584,-0.10344391943645191,-0.10663263597984557,9.574725797507776,0.15945262234219157,0.14003896199999988,0.06462582350000012,-0.07776673450000082
244772.0,0.7368716809999999,-1.341353587,9.418895058999999,-0.07203671954681395,-0.06880262444286847,-0.0914447808289909,9.542420733339739,0.13522291978120762,0.057466969000000034,0.07305954250000002,-0.02637988850000106
244782.0,0.7572695129999999,-1.2755509655,9.440469688999999,-0.09468585724994437,-0.01924050967398549,-0.06719692153103368,9.55630448080402,0.11769042033623411,0.020397832000000005,0.06580262150000005,0.021574629999999928
244792.0,0.644689171,-1.3137969005,9.497936658,-0.11413755176342118,0.016198400787759373,-0.04508010924976154,9.610020144742064,0.12378200661081144,-0.11258034199999989,-0.038245935000000175,0.05746696900000181
244802.0,0.537012154,-1.397643758,9.505095512499999,-0.12932540691427583,0.01806415775814131,-0.04374842303048987,9.62229862504629,0.13771455691650297,-0.10767701699999999,-0.08384685749999998,0.007158854499998313
244812.0,0.479545185,-1.470605234,9.5637392795,-0.14131581887547687,0.008737118235483614,-0.05920331355689965,9.68802107475908,0.15346507822831873,-0.057466969000000034,-0.07296147599999991,0.05864376700000129
244822.0,0.44836003799999996,-1.5125776959999997,9.531475401,-0.14664605441106757,-0.005918411493512772,-0.08398349827671514,9.661156314333194,0.16909559678399477,-0.031185147000000024,-0.04197246199999971,-0.03226387850000023
244832.0,0.503473411,-1.5185597524999999,9.489502939,-0.1423822150484454,-0.020839231268812295,-0.10663263597984557,9.623418063598114,0.17910189216752304,0.05511337300000002,-0.005982056500000166,-0.04197246200000038
244842.0,0.564470774,-1.4838442115,9.4703799715,-0.12532860292720882,-0.027235862977371513,-0.11862479327029861,9.602526631220064,0.17470229684302727,0.06099736300000003,0.03471554099999996,-0.019122967499999532
244852.0,0.6363535185,-1.4167667254999998,9.421346721499999,-0.10534458299187374,-0.0325643531837102,-0.10903246370133776,9.548505003491913,0.15506771554643065,0.07188274449999998,0.06707748600000007,-0.049033250000000805
244862.0,0.7308896245,-1.4084310729999998,9.385356316,-0.08749161007322374,-0.03762755334374575,-0.08504989444968368,9.51854983224203,0.12768750584823793,0.09453610599999995,0.008335652500000013,-0.03599040549999977
244872.0,0.7644283675,-1.3928384994999998,9.323182155,-0.08082968831836139,-0.02989923541591486,-0.06320011754396668,9.45759352637015,0.10687215563312527,0.03353874300000004,0.015592573499999984,-0.06217416099999973
244882.0,0.735694883,-1.4167667254999998,9.3195536945,-0.08429416688357014,-0.006717772290926175,-0.049876274034241955,9.455292485165383,0.0981747306932222,-0.028733484500000017,-0.023928225999999997,-0.003628460499999875
244892.0,0.6291946639999999,-1.4299076364999999,9.33985346,-0.09974905740997993,0.03245265211158256,-0.05014330940979709,9.469603182203628,0.11626435636867181,-0.10650021900000006,-0.013140911000000033,0.020299765500000788
244902.0,0.540542548,-1.4646231775,9.4560622625,-0.11413755176342118,0.06975731954370937,-0.06986203929882902,9.58407120228899,0.15091112910405896,-0.08865211599999989,-0.03471554100000018,0.11620880249999921
244912.0,0.4878808375,-1.479038953,9.5853139095,-0.12506156755165368,0.07402115890633151,-0.09304350242381772,9.711015738826974,0.17255903623862817,-0.052661710500000014,-0.014415775500000061,0.12925164700000025
244922.0,0.503473411,-1.4694284359999998,9.682301678,-0.12639499910017735,0.03591713067679131,-0.1061003105579873,9.80610377203459,0.16888757199417867,0.015592573499999984,0.009610517000000263,0.09698776850000002
244932.0,0.5082786695,-1.4167667254999998,9.702601443499999,-0.1173349949530748,-0.01364498409209167,-0.10743199677725897,9.818658255167096,0.15967254166906877,0.00480525850000002,0.052661710500000014,0.020299765499999012
244942.0,0.5740812909999999,-1.373715532,9.6655323065,-0.10720859463300368,-0.05361476929201381,-0.09837373795940839,9.779528539736948,0.1550664972504568,0.06580262149999994,0.04305119349999975,-0.037069136999999586
244952.0,0.6494944294999999,-1.3677334755000001,9.555403627,-0.10374586139704695,-0.06507285583135658,-0.08265181205744347,9.674620217292233,0.14774641234034333,0.07541313849999998,0.005982056499999944,-0.11012867949999894
244962.0,0.6913688249999999,-1.3785207904999999,9.429682373999999,-0.10747563000855881,-0.04162435733081277,-0.06692988615547855,9.55495788041731,0.13327868482891453,0.04187439549999994,-0.010787314999999742,-0.1257212530000018
244972.0,0.699802544,-1.42392558,9.3781974615,-0.11946604196975986,-0.0008552113334772215,-0.060269709729868184,9.511460207815214,0.13381070391141323,0.008433719000000117,-0.04540478950000004,-0.051484912499999425
244982.0,0.6351767205,-1.453933929,9.396143631,-0.12879308149241755,0.02925520892192895,-0.060802035151726455,9.529159903713673,0.14539742971583094,-0.06462582350000001,-0.030008349000000045,0.017946169500000053
244992.0,0.6064432359999999,-1.5089492355,9.451257003999999,-0.13278988547948456,0.03724881689606298,-0.06293308216841154,9.590149120293448,0.15159551733816898,-0.028733484500000017,-0.05501530650000008,0.0551133729999993
245002.0,0.5501530649999999,-1.4958083245,9.49675986,-0.1338562816524531,0.02845584812451555,-0.06772924695289195,9.629566904958894,0.1526908324789415,-0.056290171,0.013140911000000033,0.04550285600000059
245012.0,0.527401637,-1.5029671789999999,9.531475401,-0.13172348930651603,0.011669271378834088,-0.07492523945886458,9.663647662644246,0.15199026625927373,-0.022751427999999962,-0.007158854499999867,0.03471554100000063
245022.0,0.5262248389999999,-1.5029671789999999,9.506272310499998,-0.1285260461168624,-0.003785619147575701,-0.08371820823041201,9.63872585789796,0.15343406998471676,-0.0011767980000000344,0.0,-0.02520309050000158
245032.0,0.552506661,-1.5245418089999998,9.483520882499999,-0.11920075192345672,-0.022437952863639102,-0.09091245540713264,9.621156877769529,0.15158283390932578,0.026281822000000066,-0.021574629999999928,-0.022751427999999407
245042.0,0.5932042585,-1.4861978074999997,9.418895058999999,-0.1112053986200707,-0.030433306167025123,-0.09331053779937284,9.553860965482748,0.14832290204453558,0.040697597500000016,0.03834400150000006,-0.06462582350000012
245052.0,0.6459640354999999,-1.3928384994999998,9.349463977,-0.10854202618152736,-0.023237313661052503,-0.09011309460971922,9.47468971935596,0.14297452225453916,0.0527597769999999,0.09335930799999992,-0.06943108199999948
245062.0,0.6842099705,-1.349787306,9.3554460335,-0.10934138697894076,0.004207988826558329,-0.0821194866355852,9.477048039389757,0.13680956166048838,0.038245935000000064,0.04305119349999975,0.00598205650000061
245072.0,0.6842099705,-1.316248563,9.418895058999999,-0.11440284180972432,0.03485073450382277,-0.06613052535806514,9.535000665746477,0.13665954153929555,0.0,0.03353874300000004,0.06344902549999887
245082.0,0.655476486,-1.340176789,9.4799904885,-0.11973307734531499,0.05270370742247277,-0.05067563483165536,9.596663113370383,0.14029151988714098,-0.028733484500000017,-0.023928225999999997,0.061095429500001686
245092.0,0.5573119194999999,-1.4036258145,9.542164649499998,-0.12479627750535054,0.04684114646502382,-0.04614650542273008,9.66093516182129,0.14105922105300428,-0.09816456650000005,-0.06344902549999998,0.06217416099999795
245102.0,0.5118090635,-1.479038953,9.58894237,-0.1306570931335475,0.02099456557223979,-0.05893627818134452,9.71582834951057,0.14486384178097864,-0.045502855999999925,-0.07541313850000009,0.04677772050000151
245112.0,0.4843504435,-1.4599159855,9.558934021,-0.13119116388465776,-0.008848819307611252,-0.07838797269482133,9.681899072737142,0.15308199550487295,-0.02745861999999999,0.0191229675000002,-0.030008348999999157
245122.0,0.563293976,-1.4252004444999997,9.5254933445,-0.12079947351828352,-0.034430110154092135,-0.09037838465602237,9.647980092564177,0.15474559024589146,0.07894353249999997,0.03471554100000018,-0.03344067650000149
245132.0,0.6542996879999999,-1.4059794104999999,9.4595926565,-0.1104060378226573,-0.043490114301194704,-0.0898460592341641,9.585863519338023,0.14883950278584626,0.09100571199999996,0.01922103399999986,-0.06590068799999926
245142.0,0.689015229,-1.3880332409999998,9.383002719999999,-0.10854202618152736,-0.030166270791469992,-0.07892204344593158,9.510106114415457,0.137550224582649,0.03471554100000007,0.017946169500000053,-0.07658993650000134
245152.0,0.7201023094999999,-1.4167667254999998,9.33985346,-0.11466987718527945,0.0018099064343181197,-0.0634671529195218,9.474103543074945,0.13107454365626464,0.031087080499999864,-0.028733484500000017,-0.04314925999999808
245162.0,0.7021561399999999,-1.4299076364999999,9.335146267999999,-0.12399691670793714,0.03724881689606298,-0.05067563483165536,9.4700905454391,0.13903499443961154,-0.017946169499999942,-0.013140911000000033,-0.00470719200000147
245172.0,0.6064432359999999,-1.4694284359999998,9.415266598499999,-0.12719435989759076,0.05350306821988617,-0.03921929362156458,9.548520222937443,0.1434543010539389,-0.09571290399999999,-0.03952079949999998,0.08012033049999978
245182.0,0.5501530649999999,-1.505320775,9.506272310499998,-0.12799372069500414,0.04923922885726403,-0.04188266606010793,9.640429050200746,0.14339125465700922,-0.056290171,-0.035892339000000106,0.0910057119999994
245192.0,0.5225963785,-1.5125776959999997,9.543439514,-0.12213115973755521,0.02898817354637382,-0.05174203100462389,9.676685177199603,0.13577029187888776,-0.027556686499999983,-0.00725692099999975,0.03716720350000102
245202.0,0.49866815249999996,-1.4933566619999998,9.566190942,-0.11147243399562583,-0.0016545721308906243,-0.05973563897875792,9.694884897978953,0.12647998938190175,-0.023928225999999997,0.01922103399999986,0.022751428000001184
245212.0,0.5573119194999999,-1.4958083245,9.544616312,-0.10667626921114541,-0.023237313661052503,-0.07012732934513216,9.677176223597293,0.12975993788558757,0.05864376699999996,-0.0024516625000001735,-0.021574629999999928
245222.0,0.5549583235,-1.4898262679999998,9.485972545,-0.11333819096600778,-0.01684242728174528,-0.07972140424334499,9.618276153975748,0.13958766128393638,-0.002353595999999958,0.005982056500000166,-0.05864376700000129
245232.0,0.5740812909999999,-1.481392549,9.4799904885,-0.12426220675424028,0.007405432016211941,-0.08771501221747902,9.612196048508343,0.1522821717046772,0.019122967499999977,0.008433718999999895,-0.0059820564999988335
245242.0,0.5417193459999999,-1.4622695814999997,9.506272310499998,-0.1306570931335475,0.03591713067679131,-0.09197885158010116,9.633322657328042,0.1637724805947461,-0.032361945,0.0191229675000002,0.026281821999997845
245252.0,0.5082786695,-1.4766853569999998,9.557757223,-0.12692732452203562,0.04550946024575214,-0.0922441416264043,9.684506697981863,0.16337269767795956,-0.03344067649999993,-0.014415775500000061,0.0514849125000012
245262.0,0.483075579,-1.453933929,9.600906483,-0.11626859878010624,0.026857126529688743,-0.08718094146636875,9.722380941941896,0.14778433226388868,-0.025203090500000025,0.02275142799999985,0.043149259999999856
245272.0,0.5046502089999999,-1.4275540405,9.617577788,-0.10374586139704695,-0.008316493885752979,-0.07812268264851818,9.736035377925791,0.13013654894674334,0.021574629999999928,0.02637988849999995,0.016671305000000913
245282.0,0.559763582,-1.385679645,9.579331853,-0.09282010027956243,-0.046420522115293184,-0.06213372137099813,9.695207171391502,0.12095881621764194,0.05511337300000008,0.04187439550000005,-0.03824593500000084
245292.0,0.618407349,-1.389210039,9.4907778035,-0.09575050809366092,-0.06027669104687616,-0.047478191642001746,9.611825814961687,0.12270133644483841,0.05864376700000007,-0.0035303939999999923,-0.08855404949999901
245302.0,0.6327250579999999,-1.4418717495,9.4129130025,-0.1096066770252439,-0.04135732195525763,-0.03975161904342285,9.543702967593912,0.12371031866582667,0.014317708999999845,-0.052661710500000014,-0.07786480100000048
245312.0,0.6112484945,-1.5137544939999998,9.324358952999999,-0.13332221090134283,0.0012758356832078548,-0.049343948612383684,9.466189691450566,0.1421663284360057,-0.021476563499999934,-0.07188274449999987,-0.08855404950000079
245322.0,0.5692760324999999,-1.562787744,9.3087663795,-0.1469113444573707,0.04657585641872068,-0.06932796854771876,9.45618909720428,0.16899296066512057,-0.041972462000000044,-0.04903325000000014,-0.015592573499999318
245332.0,0.4998449505,-1.5472932369999999,9.381825921999999,-0.14344861122141395,0.06549348018108722,-0.08957902385860897,9.52169202224675,0.1813595917591459,-0.06943108199999992,0.015494507000000102,0.07305954249999935
245342.0,0.4878808375,-1.5137544939999998,9.433310834499999,-0.1274596499438939,0.048174578013547485,-0.09730734178643986,9.566443104937171,0.16743796193261062,-0.011964112999999998,0.03353874300000004,0.051484912499999425
245352.0,0.4963145565,-1.501790381,9.4919546015,-0.10694330458670054,0.01353328301996403,-0.09730734178643986,9.622832464736925,0.14521962302239075,0.008433719000000006,0.011964112999999887,0.05864376700000129
245362.0,0.5106322655,-1.4455002099999998,9.5039187145,-0.0909543433091805,-0.014711380265060204,-0.0922441416264043,9.626769297095626,0.13037675766983778,0.014317708999999956,0.05629017100000011,0.011964112999999443
245372.0,0.5573119194999999,-1.3988205559999998,9.4715567695,-0.08162904911577479,-0.026436502179958108,-0.08744797684192389,9.5904996304346,0.12251260735451744,0.04667965399999996,0.04667965400000007,-0.03236194499999989
245382.0,0.5944791229999999,-1.3592997565,9.488326140999998,-0.08082968831836139,-0.028834584572198316,-0.07652396105369139,9.603615684401772,0.11498168722210325,0.03716720350000002,0.03952079949999976,0.016769371499998798
245392.0,0.6099736299999999,-1.3748923299999998,9.4823440845,-0.084027131508015,-0.02377138441216277,-0.06772924695289195,9.600898191588135,0.11051193799378367,0.01549450699999999,-0.015592573499999762,-0.0059820564999988335
245402.0,0.63154826,-1.397643758,9.4488053415,-0.08855626091694029,-0.015510741062473608,-0.06479883913879347,9.572470091911718,0.11082275934857219,0.02157463000000004,-0.022751428000000296,-0.03353874299999937
245412.0,0.619584147,-1.4227487819999998,9.489502939,-0.08855626091694029,-0.004584979944989104,-0.06666459610917541,9.615548067644706,0.11093872977046675,-0.011964112999999998,-0.025105023999999698,0.04069759749999946
245422.0,0.5980095169999999,-1.4526590645,9.5170596255,-0.08962265708990882,-0.0008552113334772215,-0.07465820408330943,9.645841469535915,0.11664818681499244,-0.02157463000000004,-0.029910282500000163,0.027556686500000538
245432.0,0.6327250579999999,-1.4993387185,9.531475401,-0.09681690426662945,0.004473278872861466,-0.08345117285485687,9.66940437212564,0.12789691718919297,0.03471554099999996,-0.04667965400000007,0.014415775499999839
245442.0,0.5777097514999999,-1.477862155,9.5733497965,-0.10774266538411395,0.015666075365901103,-0.09624094561347131,9.7039606054593,0.14531423699699345,-0.05501530649999997,0.021476563500000045,0.041874395500000716
245452.0,0.548976267,-1.4694284359999998,9.620029450499999,-0.10934138697894076,0.01806415775814131,-0.10530094976057387,9.747079639499308,0.15287296269278094,-0.028733484499999906,0.008433719000000117,0.046679653999998294
245462.0,0.6112484945,-1.39646696,9.659550249999999,-0.10854202618152736,0.002075196480621258,-0.10929775374764089,9.779092786382344,0.15405089049500656,0.062272227499999944,0.07296147599999991,0.03952079949999998
245472.0,0.6913688249999999,-1.3234074174999997,9.7122119605,-0.10481051224076349,-0.018441148876572087,-0.09251117700195945,9.826314630142631,0.14100935188258612,0.08012033049999989,0.07305954250000024,0.05266171050000068
245482.0,0.6878384309999999,-1.238383762,9.655921789499999,-0.10534458299187374,-0.03469540020039528,-0.06479883913879347,9.759279771278548,0.12845287663004124,-0.0035303939999999923,0.08502365549999968,-0.056290171000000555
245492.0,0.703332938,-1.2671172464999998,9.569721336,-0.11680266953121653,-0.04135732195525763,-0.03975161904342285,9.678834112988357,0.13012871668276313,0.015494507000000102,-0.028733484499999795,-0.08620045349999828
245502.0,0.7081381964999999,-1.329389474,9.509900771,-0.13145645393096092,-0.031232666964438528,-0.025628414736284733,9.628444773336485,0.13752488650316858,0.004805258499999909,-0.06227222750000028,-0.05982056500000077
245512.0,0.6745994535,-1.39646696,9.477538826,-0.13758605026396498,-0.01710946265730041,-0.02402969314145793,9.60359029693435,0.14071276094275345,-0.033538742999999926,-0.06707748599999985,-0.03236194499999989
245522.0,0.6722458575,-1.3928384994999998,9.4799904885,-0.13092412850910265,-0.012046262497264863,-0.020299924529946046,9.60531796666127,0.13303505854451503,-0.002353595999999958,0.003628460500000097,0.0024516625000003955
245532.0,0.599186315,-1.39646696,9.49675986,-0.11227179479303923,-0.02696882760181638,-0.013638002775083691,9.617566846607415,0.11626808972353504,-0.07305954250000002,-0.003628460500000097,0.016769371499998798
245542.0,0.515437524,-1.4838442115,9.472733567499999,-0.08429416688357014,-0.04988500068050193,-0.014969688994355365,9.602090955931972,0.09908638378746383,-0.08374879099999999,-0.08737725149999997,-0.024026292500000324
245552.0,0.4651294095,-1.5783803175,9.430859172,-0.0731013703905305,-0.06027669104687616,-0.034955454258942434,9.573334555751707,0.10098996791257588,-0.0503081145,-0.09453610600000006,-0.04187439549999894
245562.0,0.44718324,-1.5747518569999999,9.428505576,-0.0824284099131882,-0.04935092992939166,-0.07332477253478577,9.569562877055823,0.12085726834986128,-0.017946169499999998,0.003628460500000097,-0.002353596000000735
245572.0,0.434042329,-1.6011317454999998,9.422523519499999,-0.09761626506404285,-0.03975860036043083,-0.1076990321528141,9.567442975285624,0.15069427007795222,-0.013140910999999977,-0.02637988849999995,-0.00598205650000061
245582.0,0.434042329,-1.4766853569999998,9.462044319,-0.10640923383559028,-0.037093482592635486,-0.1271507266662909,9.58641095935607,0.16990043786904524,0.0,0.1244463885,0.03952079950000176
245592.0,0.4903325,-1.492179864,9.499113455999998,-0.10001434745628307,-0.0496179653049468,-0.12795008746370432,9.628093433128052,0.1698117694981081,0.056290171,-0.015494507000000102,0.03706913699999781
245602.0,0.564470774,-1.4802157509999998,9.5027419165,-0.08296073533504647,-0.07173477758621893,-0.12048880491142855,9.633886539492497,0.16292916875642682,0.074138274,0.01196411300000011,0.003628460500001651
