timestamp,ax,ay,az,gx,gy,gz,acc_mag,gyro_mag,dax,day,daz
64822.0,0.7014696745,-0.48415431049999996,9.807042266,0.08850913702713645,0.04335572394879114,0.004207988826558329,9.844010519484895,0.09864731778602315,0.0,0.0,0.0
64832.0,0.5350508239999999,-0.31773545999999997,9.532848332,0.10662739999208957,0.07506486579902413,-0.0035203291012725624,9.55313731334998,0.13044741938221635,-0.16641885050000005,0.1664188505,-0.2741939339999995
64842.0,0.481114249,-0.23869386099999998,9.71839015,0.11142356477656999,0.0921184779202607,-0.01604306648433188,9.733219035215788,0.14545928895771745,-0.05393657499999993,0.07904159899999999,0.18554181799999903
64852.0,0.422470482,-0.11061901199999999,9.850093459499998,0.1231486866914679,0.09265080334211899,-0.012046262497264863,9.8597697252452,0.15457969735358632,-0.05864376700000001,0.128074849,0.13170330949999887
64862.0,0.3566678605,-0.0471699865,9.888437460999999,0.12261636126960963,0.056944857504818994,-0.008848819307611252,9.89498016119528,0.1354835430979804,-0.06580262149999999,0.06344902549999999,0.0383440015000005
64872.0,0.4045243125,-0.0722750105,9.9183477435,0.11542036876363701,0.02683443724941282,-0.0075171330883395775,9.92685678135521,0.11873691859693192,0.047856451999999994,-0.025105024000000004,0.029910282500001273
64882.0,0.4284525385,-0.04118793,9.9159941475,0.09623570962571533,-0.0027436575841350863,-0.014978415640615335,9.92533162955168,0.09743301493439999,0.023928225999999997,0.031087080500000003,-0.002353596000000735
64892.0,0.500335283,-0.040011132,9.857252314,0.07252017574961639,-0.012068951777540788,-0.02377138441216277,9.870023275958216,0.07726521988990045,0.07188274449999998,0.0011767979999999997,-0.058741833499999174
64902.0,0.533874026,0.019809433,9.912365687,0.05466720283096639,0.014044664490798369,-0.01924050967398549,9.92675210741601,0.059631810961397455,0.03353874300000004,0.059820565,0.0551133729999993
64912.0,0.5194582505,0.0665871535,9.8944195175,0.040545743853080275,0.04282165319768087,-0.0032532937257174306,9.908269693105282,0.059061283826613874,-0.01441577549999995,0.046777720499999995,-0.017946169500000053
64922.0,0.557802252,0.060605097,9.9746379145,0.024823817951115348,0.05667782212926385,0.016997761585172775,9.99040629081218,0.06416791533073958,0.03834400149999995,-0.005982056499999999,0.08021839700000122
64932.0,0.5171046545,0.0234378935,10.039263737999999,0.01229933523880404,0.05667782212926385,0.03511776987937791,10.052599810978203,0.0678004935817867,-0.040697597500000016,-0.037167203499999996,0.06462582349999835
64942.0,0.5026888789999999,-0.0710982125,10.021317568499999,0.00617148423505195,0.04228932777582261,0.042312017056098536,10.034169466060343,0.060139681149387794,-0.014415775500000061,-0.094536106,-0.017946169500000053
64952.0,0.48356591149999995,-0.1046369555,9.999742938499999,0.007770205829878755,0.026567401873857685,0.038580503115334654,10.011975015914778,0.047483240849778625,-0.019122967499999977,-0.03353874300000001,-0.021574629999999928
64962.0,0.4631680795,-0.12022952899999999,9.971009454,0.011499974441390639,0.015376350710070043,0.03138625593861403,9.9824851285273,0.03679373092193688,-0.02039783199999995,-0.015592573499999984,-0.02873348449999824
64972.0,0.4931764285,-0.142980957,9.8608807745,0.01176700981694577,0.008182103533349416,0.017264796960727906,9.874241043877568,0.02243841688617329,0.03000834899999999,-0.022751428000000004,-0.11012867950000071
64982.0,0.4943532265,-0.1417060925,9.7783087815,0.009635962800260694,0.009248499706317952,0.002075196480621258,9.791822524717377,0.013516396203831629,0.0011767980000000344,0.0012748645000000003,-0.08257199300000018
64992.0,0.48591950749999996,-0.122583125,9.7351595215,0.013098696036217442,0.012978268317829835,-0.008583529261308114,9.748049820315646,0.020339327937730314,-0.008433719000000062,0.01912296749999999,-0.043149259999999856
65002.0,0.512299396,-0.12738838349999998,9.7004439805,0.018428931571808128,0.017242107680451983,-0.020839231268812295,9.714797573300814,0.032729029255658224,0.026379888500000004,-0.004805258499999979,-0.03471554100000063
65012.0,0.4978836205,-0.1250347875,9.670533698,0.024024457153701946,0.018573793899723655,-0.03363074935667874,9.684149100556068,0.045312113873126905,-0.01441577549999995,0.0023535959999999856,-0.029910282499999497
65022.0,0.5325991615,-0.08786758399999998,9.669356899999999,0.028820621938182363,0.017774433102310253,-0.03842691414115916,9.68441249837728,0.05121705235001482,0.03471554099999996,0.03716720350000001,-0.0011767980000012557
65032.0,0.5422096784999999,-0.029223817,9.6969135865,0.03255213587894624,0.02177123708937727,-0.03283138855926533,9.712104739498406,0.051103115261329365,0.00961051699999993,0.058643766999999986,0.027556686500000538
65042.0,0.5984998495,-0.0196133,9.6849494735,0.03335149667635964,0.026567401873857685,-0.02510307063143444,9.70344439133014,0.049480433789600826,0.05629017100000011,0.009610516999999999,-0.011964112999999443
65052.0,0.641551043,0.0091201845,9.723195408499999,0.03255213587894624,0.038025488413200456,-0.01897521962768235,9.74434194137373,0.053531656795419685,0.04305119349999997,0.0287334845,0.038245934999999065
65062.0,0.639197447,0.0354020065,9.7783087815,0.03041934353300917,0.05614549670740558,-0.008848819307611252,9.79924228217037,0.06446669577882266,-0.002353595999999958,0.026281822,0.055113373000001076
65072.0,0.6260565359999999,0.0330484105,9.857252314,0.024556782575560217,0.07160038723381539,0.0010105456369047167,9.877168732261449,0.07570120359003493,-0.013140911000000144,-0.0023535959999999995,0.0789435325000003
65082.0,0.6092871645,-0.0004903325,9.948258026,0.017896606149949857,0.08279143839760301,0.004473278872861466,9.96689865711114,0.08482170127688378,-0.016769371499999908,-0.033538743,0.0910057119999994
65092.0,0.5649611065,-0.006472388999999999,10.005724995,0.010967649019532366,0.08385783457057155,0.004473278872861466,10.021664313837539,0.08469023537430619,-0.044326058,-0.005982056499999999,0.057466969000000034
65102.0,0.5098477335,-0.028047019,10.029653220999998,0.006438519610607082,0.07053399106084683,0.00021118483949131387,10.042642833445065,0.0708275583991445,-0.055113372999999966,-0.02157463,0.023928225999998887
65112.0,0.490724766,-0.048346784500000003,10.042794132000001,0.006438519610607082,0.0500159003744015,-0.00778416846389471,10.054892450209048,0.051025857207032996,-0.019122967500000032,-0.020299765500000004,0.013140911000002475
65122.0,0.5051405415,-0.06276256,10.021317568499999,0.011499974441390639,0.029764845063511295,-0.01631010185988701,10.034236987152108,0.03583594335980791,0.014415775500000005,-0.014415775499999992,-0.021476563500002044
65132.0,0.499158485,-0.040011132,9.9901324215,0.021359339385906603,0.015643386085625176,-0.019774580425095754,10.002674936382611,0.03304498355597794,-0.005982056499999999,0.022751427999999997,-0.031185146999998636
65142.0,0.536227622,0.0018632635,9.947081228,0.029619982735595768,0.0076497781114911465,-0.01710946265730041,9.96152440597204,0.0350513365627275,0.037069136999999974,0.041874395499999995,-0.043051193500000196
65152.0,0.550545331,0.015102240999999999,9.9542400825,0.03121870433042257,0.008449138908904549,-0.006717772290926175,9.96946457234383,0.03303216482347237,0.014317709000000067,0.013238977499999999,0.007158854500000089
65162.0,0.5350508239999999,0.0569766365,9.947081228,0.024823817951115348,0.015908676131928312,0.0047403142484166,9.961623897628334,0.029862660516344546,-0.015494507000000102,0.041874395499999995,-0.007158854500000089
65172.0,0.5445632745,0.022261095499999998,9.949434823999999,0.01176700981694577,0.02470339023272774,0.012468632176247491,9.964351360391248,0.03006969899033046,0.009512450500000047,-0.034715541,0.0023535959999989586
65182.0,0.499158485,-0.020888164499999997,9.9159941475,-0.0028885199120506156,0.033496359004275174,0.016198400787759373,9.928571671787333,0.03731940248592524,-0.04540478949999999,-0.043149259999999995,-0.03344067649999971
65192.0,0.478760653,-0.061585761999999995,9.902755169999999,-0.014079571075838257,0.03776019836689732,0.011402236003278955,9.914512823427271,0.04188171305309141,-0.020397832000000005,-0.0406975975,-0.01323897750000036
65202.0,0.45600922499999996,-0.0687446165,9.8404829425,-0.019675096657732077,0.03696083756948392,0.0018099064343181197,9.851282900070238,0.041910484411777686,-0.022751428000000018,-0.007158854499999999,-0.06227222749999939
65212.0,0.4512039665,-0.08433718999999999,9.803413805499998,-0.016210618092523332,0.03322932362872004,-0.0064507369153710414,9.814154065576432,0.03753110835713738,-0.004805258499999965,-0.015592573499999998,-0.03706913700000136
65222.0,0.465619742,-0.0818855275,9.781839175499998,-0.005286602304290824,0.027366762671271087,-0.012313297872819996,9.793257100633097,0.03047138276373757,0.014415775500000005,0.002451662499999993,-0.021574629999999928
65232.0,0.46444294399999997,-0.0950264385,9.765069804,0.00883660200284729,0.023904029435314337,-0.014978415640615335,9.776570234455331,0.029560803326434296,-0.0011767980000000344,-0.013140911000000005,-0.016769371499998798
65242.0,0.4727785965,-0.0710982125,9.755557353499999,0.02242573555887514,0.01937315469713706,-0.01604306648433188,9.767265422550834,0.033698853400323484,0.008335652500000013,0.02392822600000001,-0.009512450500000824
65252.0,0.4847427095,-0.0471699865,9.807042266,0.0298870181111509,0.018308503853420515,-0.015243705686918473,9.819128194964675,0.03822048832754974,0.011964112999999998,0.023928225999999997,0.0514849125000012
65262.0,0.5051405415,-0.038834334,9.817829580999998,0.03361678672266278,0.018840829275278786,-0.010447540902438057,9.830892775008929,0.03992763840055301,0.020397832000000005,0.008335652499999999,0.010787314999998188
65272.0,0.500335283,-0.0340290755,9.853721919999998,0.03015230815745404,0.01964019007269219,-0.005119050696099368,9.866475006307091,0.03634698657857047,-0.00480525850000002,0.0048052584999999995,0.035892339000000106
65282.0,0.4978836205,-0.038834334,9.8728448875,0.024823817951115348,0.024169319481617477,-0.0032532937257174306,9.885467231127434,0.03479887730862022,-0.0024516624999999515,-0.0048052584999999995,0.01912296750000131
65292.0,0.5182814525,-0.050798447,9.8620575725,0.018428931571808128,0.030031880439066426,-0.004052654523130833,9.87579747207929,0.03546777932530623,0.020397832000000005,-0.011964112999999998,-0.010787314999999964
65302.0,0.5146529919999999,-0.08433718999999999,9.880003742,0.013098696036217442,0.03322932362872004,-0.01124690169985146,9.89375835593965,0.037446716605298684,-0.003628460500000097,-0.033538742999999996,0.017946169500000053
65312.0,0.503865677,-0.09267284249999999,9.878826944,0.009101892049150427,0.03855955916431072,-0.021638592066225697,9.892102439102421,0.04514324654285392,-0.010787314999999964,-0.008335652499999999,-0.0011767979999994793
65322.0,0.48954796799999994,-0.0710982125,9.935117114999999,0.005372123437638546,0.0406906061809958,-0.03389603940298187,9.947425006380271,0.053230880406157276,-0.014317709000000012,0.021574629999999997,0.05629017099999878
65332.0,0.503865677,-0.0340290755,9.927958260499999,0.00324107642095347,0.03722612761578705,-0.03975860036043083,9.940794426033978,0.054562216379595276,0.014317709000000012,0.037069136999999995,-0.007158854500000089
65342.0,0.536227622,0.018632634999999998,9.921976204,-0.0002234021442552742,0.027366762671271087,-0.033096678605568475,9.936473168605904,0.04294624247060537,0.032361945,0.0526617105,-0.0059820564999988335
65352.0,0.5673147024999999,0.03187161249999999,9.912365687,-0.003155555287605748,0.020706586245660723,-0.01897521962768235,9.928638138444315,0.028262682162896426,0.031087080499999975,0.013238977499999995,-0.009610517000000485
65362.0,0.6104639625,0.0473661195,9.869216427,-0.004487241506877421,0.020971876291963863,-0.001387536755335492,9.888192083578996,0.02149139804186518,0.04314926000000008,0.015494507000000005,-0.043149259999999856
65372.0,0.628410132,0.039030467,9.8751984835,-0.0074176493209759005,0.026302111827554545,0.014332643817377436,9.895249757326756,0.03085850428705135,0.017946169499999942,-0.008335652499999999,0.00598205650000061
65382.0,0.5865357365,0.022261095499999998,9.8836322025,-0.010082767088771242,0.03589444139651538,0.025523694981165072,9.901045664012436,0.045183316841792796,-0.04187439549999994,-0.0167693715,0.008433718999999229
65392.0,0.5649611065,-0.0196133,9.913542484999999,-0.015945328046220193,0.04442037479250768,0.027122416575991883,9.929647039814384,0.05443389260497606,-0.02157463000000004,-0.041874395499999995,0.029910282499999497
65402.0,0.53740442,-0.050798447,9.895596315499999,-0.02074149283070061,0.04521973558992108,0.018863518555554713,9.910308291480659,0.05320588636574093,-0.027556686499999983,-0.031185146999999996,-0.017946169500000053
65412.0,0.501512081,-0.055603705499999996,9.912365687,-0.021273818252558883,0.0398912453835824,0.009004153611038746,9.925200232351449,0.046097305599647295,-0.035892338999999995,-0.0048052584999999995,0.016769371500000574
65422.0,0.503865677,-0.0687446165,9.901578371999998,-0.015145967248806793,0.03083124123647983,0.0007435102613495844,9.914628621366235,0.034358675288676,0.002353595999999958,-0.013140910999999998,-0.01078731500000174
65432.0,0.512299396,-0.060310897499999995,9.890791057,-0.006352998477259359,0.020971876291963863,-0.001921607506445757,9.904233226693037,0.021997107997787445,0.008433719000000006,0.008433719,-0.010787314999998188
65442.0,0.5194582505,-0.08904438199999999,9.864509235,0.0003089232776029963,0.01164658209855816,-0.005119050696099368,9.878578249089216,0.012725682229221968,0.007158854500000089,-0.028733484499999996,-0.02628182199999962
65452.0,0.5074941374999999,-0.09747810099999998,9.8261652335,0.005105088062083414,0.006316346562967479,-0.00778416846389471,9.839744685499493,0.01124950828700662,-0.01196411300000011,-0.008433718999999992,-0.0383440015000005
65462.0,0.4978836205,-0.1046369555,9.795078153,0.008037241205433887,0.00898146433076282,-0.0064507369153710414,9.808281858480434,0.013670258025012545,-0.00961051699999993,-0.00715885450000002,-0.031087080499998976
65472.0,0.48837116999999997,-0.08904438199999999,9.784290838,0.009901252846563832,0.017242107680451983,-0.0032532937257174306,9.796876160502576,0.020147183556559017,-0.009512450500000047,0.015592573500000012,-0.010787314999999964
65482.0,0.48709630549999994,-0.0818855275,9.796254951,0.011234684395087501,0.02683443724941282,-5.585053606381855e-05,9.808699155109087,0.02909137802222981,-0.001274864500000028,0.007158854499999992,0.011964112999999443
65492.0,0.453655629,-0.0699214145,9.8404829425,0.012034045192500903,0.0313635666583381,-0.001387536755335492,9.851182516609999,0.033621671812605905,-0.03344067649999993,0.011964112999999998,0.044227991499999675
65502.0,0.4284525385,-0.08433718999999999,9.889614258999998,0.012566370614359171,0.02470339023272774,-0.005384340742402506,9.899250200453581,0.02823406248909557,-0.025203090500000025,-0.014415775499999992,0.04913131649999869
65512.0,0.4045243125,-0.0914960445,9.9507096885,0.016030849179567916,0.003652974124424132,-0.01071457627799319,9.959349112786965,0.019624843698452733,-0.023928225999999997,-0.007158854500000006,0.061095429500001686
65522.0,0.36147311899999995,-0.1250347875,9.976991510500001,0.02615550417038702,-0.0339187286832578,-0.01364498409209167,9.984320513406702,0.044953043776467715,-0.04305119350000003,-0.033538742999999996,0.026281822000001398
65532.0,0.38059608649999993,-0.131016844,9.968655858,0.04907167724907257,-0.06536083515793564,-0.01657713723544214,9.97677895964968,0.08339586176485417,0.019122967499999977,-0.005982056499999999,-0.008335652500001345
65542.0,0.4284525385,-0.169262779,9.9866020275,0.08317890149154575,-0.09200852217738507,-0.01950754504954062,9.997221690138167,0.12555812247905945,0.04785645200000005,-0.03824593500000001,0.017946169500000053
65552.0,0.4523807644999999,-0.1369989005,10.0009197365,0.12101763967478282,-0.10479829493599951,-0.022437952863639102,10.012083331192517,0.16165213720411864,0.02392822599999994,0.03226387850000001,0.014317709000000178
