timestamp,ax,ay,az,gx,gy,gz,acc_mag,gyro_mag,dax,day,daz
119282.0,1.0458792225,-0.1126784085,9.8944195175,-0.05538453315353606,0.00028099800957108706,0.22064626936637513,9.950180770221424,0.2274913221593639,0.0,0.0,0.0
119292.0,1.3307624049999998,-1.3433149169999998,9.596395423999999,-0.07323750607218606,-0.0338262262329021,0.22464307335344216,9.78091144416328,0.23868903678743386,0.2848831824999998,-1.2306365085,-0.2980240935000005
119302.0,1.419414521,-1.6737009554999998,9.653862392999999,-0.07696902001294993,-0.016772614111665505,0.22011219861526488,9.900155128776868,0.23378394000687588,0.08865211600000023,-0.3303860384999999,0.057466969000000034
119312.0,1.4217681169999998,-1.712044957,9.656215989,-0.05698325474836286,-0.010643017778661421,0.21984690856896172,9.909340530001282,0.22736100887461583,0.002353595999999847,-0.03834400150000028,0.002353596000000735
119322.0,1.3834241155,-1.6665421009999999,9.680144214999999,-0.0308713838092757,-0.014639821765728436,0.22091155941267826,9.919496805833973,0.223538103691011,-0.038344001499999836,0.04550285600000015,0.023928225999998887
119332.0,1.3810705195,-1.6929219895,9.714859756,-0.014350097109897379,-0.029030061448421685,0.22224499096120195,9.957501730911876,0.2245918648618141,-0.002353596000000069,-0.02637988850000017,0.03471554100000063
119342.0,1.3332140674999997,-1.67497582,9.7220186105,-0.006888814557621619,-0.04608367356965828,0.21931283781785146,9.954930919412394,0.22420812110047073,-0.047856452000000216,0.017946169500000053,0.007158854500000089
119352.0,1.331939203,-1.6856650684999999,9.718488216499999,-0.0050230575872396805,-0.06420193653461141,0.21425138298706792,9.95311719904366,0.22372030501094498,-0.001274864499999806,-0.01068924849999986,-0.0035303940000002143
119362.0,1.331939203,-1.654577988,9.7053473055,-0.0026249751949994717,-0.08152258403140313,0.21158626521927257,9.93506198668325,0.226763246209283,0.0,0.031087080499999864,-0.013140910999998923
119372.0,1.317621494,-1.6569315839999998,9.748398499,-0.006621779182066486,-0.09511171758743098,0.21025457900000089,9.975611358248326,0.23086159224183414,-0.014317708999999956,-0.002353595999999847,0.043051193500000196
119382.0,1.3343908654999999,-1.6809578765,9.775955185499999,-0.011952014717657168,-0.1052381179075021,0.2086558574051741,10.008772060218053,0.23399824560456164,0.016769371499999908,-0.0240262925000001,0.02755668649999876
119392.0,1.3583190914999999,-1.665365303,9.7747783875,-0.01807986572140926,-0.11749556524425826,0.20305858649402828,10.008234852935194,0.235297426559503,0.023928225999999997,0.015592573499999984,-0.0011767979999994793
119402.0,1.3594958895,-1.6509495275,9.780760444,-0.022076669708476274,-0.13108469880028611,0.19799713166324473,10.011849892943609,0.23848153335604658,0.0011767980000001454,0.014415775500000061,0.00598205650000061
119412.0,1.4134324645,-1.6557547859999997,9.7794855795,-0.027139869868511822,-0.14120935379110522,0.19719777086583132,10.018864877954632,0.24405658149092024,0.05393657500000004,-0.004805258499999798,-0.0012748645000009162
119422.0,1.4349090279999999,-1.6509495275,9.755557353499999,-0.03140370923113397,-0.14600726390483765,0.19719777086583132,9.997774629307077,0.24736870234713085,0.021476563499999823,0.004805258499999798,-0.023928226000000663
119432.0,1.4121575999999998,-1.6509495275,9.729275531499999,-0.027139869868511822,-0.14467383235631395,0.19746306091213447,9.968882876101755,0.24628997285706114,-0.022751428000000073,0.0,-0.02628182199999962
119442.0,1.385875778,-1.6342782224999999,9.767521466499998,-0.01941329726993293,-0.14414150693445568,0.198529457085103,9.99979962694869,0.2461048464836324,-0.026281821999999844,0.016671305000000025,0.038245934999999065
119452.0,1.376265261,-1.654577988,9.7520269595,-0.017280504923995858,-0.142809820715184,0.19959585325807153,9.986679338289797,0.2460320413705273,-0.00961051700000004,-0.020299765500000122,-0.015494506999997881
119462.0,1.3953882284999999,-1.6534011899999999,9.723293475,-0.02314306588144481,-0.14147638916666036,0.20119457485289832,9.961088284133785,0.24704337097009452,0.019122967499999977,0.0011767980000001454,-0.028733484500000017
119472.0,1.389406172,-1.6569315839999998,9.711329362,-0.030337313058165435,-0.13295045577066805,0.20199393565031173,9.949160254116514,0.24371648752745428,-0.005982056499999944,-0.0035303939999999923,-0.011964112999999443
119482.0,1.3822473174999999,-1.6474191335,9.680144214999999,-0.03646690939116952,-0.12442277704542376,0.2041249826669968,9.91613783039323,0.24182198303099067,-0.007158854500000089,0.009512450499999936,-0.03118514700000219
119492.0,1.372734867,-1.6246677055,9.726823868999999,-0.03726627018858293,-0.12042597305835674,0.20439201804255197,9.956658513121772,0.240140140168876,-0.009512450499999936,0.02275142799999985,0.04667965400000007
119502.0,1.3739116649999998,-1.6258445034999998,9.7280987335,-0.034334117045232454,-0.1286866164080459,0.20785649660776068,9.958258310643911,0.24686717079814258,0.0011767979999999234,-0.0011767979999997014,0.0012748645000009162
119512.0,1.372734867,-1.686939933,9.692108328,-0.03060434843372057,-0.13987766757183356,0.20972050824889063,9.933132999930812,0.25393912579309624,-0.0011767979999999234,-0.06109542950000013,-0.03599040549999977
119522.0,1.375088463,-1.6725241575,9.681321013,-0.024741787476271614,-0.14467383235631395,0.21078690442185916,9.92049302682342,0.2568536409941152,0.002353596000000069,0.014415775499999839,-0.010787314999999964
119532.0,1.385875778,-1.7060629005,9.6706317645,-0.021012018864759733,-0.1409440637448021,0.21158626521927257,9.917278911932746,0.25509896446499386,0.010787314999999964,-0.03353874300000004,-0.010689248500000303
119542.0,1.4026451494999999,-1.698904046,9.653862392999999,-0.019146261894377795,-0.13321574581697118,0.21078690442185916,9.902057739475705,0.2500882511311756,0.016769371499999908,0.007158854500000089,-0.016769371500000574
119552.0,1.407450408,-1.6557547859999997,9.6741621585,-0.020212658067346328,-0.12682085943766397,0.21185330059482768,9.91523343302086,0.24773756862369015,0.004805258500000242,0.0431492600000003,0.020299765500000788
119562.0,1.4134324645,-1.665365303,9.680144214999999,-0.018613936472519525,-0.12522213784283714,0.2139843476115128,9.92352885557032,0.24862896745885874,0.005982056499999944,-0.009610517000000263,0.0059820564999988335
119572.0,1.419414521,-1.6833114724999998,9.708877699499999,-0.01834690109696439,-0.12415574166986862,0.21425138298706792,9.955429738576038,0.24830407181785843,0.005982056499999944,-0.01794616949999983,0.028733484500000017
119582.0,1.4121575999999998,-1.6665421009999999,9.724470273,-0.01807986572140926,-0.12442277704542376,0.21345202218965453,9.966788537543271,0.24772903497380397,-0.007256921000000194,0.016769371499999908,0.015592573500001095
119592.0,1.419414521,-1.6689937635,9.7328059255,-0.020212658067346328,-0.1294859772054593,0.21371731223595766,9.976361508509777,0.2506995400641214,0.007256921000000194,-0.0024516625000001735,0.008335652499999568
119602.0,1.396663093,-1.6605600445,9.73408079,-0.022876030505889676,-0.13161702422214439,0.21531603383078446,9.972986327223415,0.2533916894087461,-0.022751428000000073,0.008433719000000117,0.0012748645000009162
119612.0,1.396663093,-1.6773294159999999,9.76153941,-0.026872834492956695,-0.13694725975773506,0.21371731223595766,10.00258733619009,0.25524848821922574,0.0,-0.016769371499999908,0.0274586199999991
119622.0,1.3691064065,-1.6737009554999998,9.7100544975,-0.03060434843372057,-0.14014470294738868,0.21078690442185916,9.947908603579997,0.2549672194283304,-0.027556686499999872,0.003628460500000097,-0.051484912499999425
119632.0,1.3440013825,-1.6833114724999998,9.702895643,-0.032735395450405644,-0.14147638916666036,0.2070553904810953,9.939117721838313,0.25290138302154386,-0.025105024000000142,-0.00961051700000004,-0.007158854500000089
119642.0,1.3332140674999997,-1.665365303,9.7280987335,-0.03060434843372057,-0.13961063219627842,0.2033256218695834,9.959257317237087,0.2485338272226739,-0.010787315000000186,0.01794616949999983,0.025203090499999803
119652.0,1.3367444614999997,-1.654577988,9.729275531499999,-0.026607544446653555,-0.13694725975773506,0.20305858649402828,9.959082108385774,0.24636416729221391,0.0035303939999999923,0.010787314999999964,0.0011767979999994793
119662.0,1.3332140674999997,-1.6497727294999998,9.729275531499999,-0.023942426678858212,-0.13215109497325464,0.20279329644772512,9.95781161584343,0.2432329599006631,-0.0035303939999999923,0.004805258500000242,0.0
119672.0,1.304480583,-1.6354550205,9.775955185499999,-0.02314306588144481,-0.1254891732183923,0.20225922569661486,9.997283756321364,0.23914833989142129,-0.028733484499999795,0.014317708999999734,0.04667965400000007
119682.0,1.2900648074999999,-1.6378086164999999,9.7902728945,-0.024741787476271614,-0.11669620444684486,0.2062560296836819,10.009801577484593,0.23826814718022357,-0.014415775500000061,-0.002353595999999847,0.014317709000000178
119692.0,1.3068341789999998,-1.6378086164999999,9.785467635999998,-0.029804987636307165,-0.10603747870491549,0.20998754362444577,10.007277826206668,0.23712244232784957,0.016769371499999908,0.0,-0.0048052585000011305
119702.0,1.2769238964999998,-1.6258445034999998,9.773503522999999,-0.03540051321820099,-0.09404706674371444,0.21451667303337107,9.98975856070142,0.2368869986059069,-0.02991028249999994,0.01196411300000011,-0.011964112999999443
119712.0,1.2470136139999999,-1.6389854145,9.7628142745,-0.03992964262712627,-0.08258898020437168,0.21904754777154833,9.977667999128155,0.23748082911312413,-0.02991028249999994,-0.013140911000000255,-0.010689248499998527
119722.0,1.2266157819999999,-1.6569315839999998,9.738787982,-0.04312708581677988,-0.07299665063541085,0.21638243000375298,9.95459692348494,0.23240011305798708,-0.020397832000000005,-0.01794616949999983,-0.024026292500000324
119732.0,1.2230853879999999,-1.663011707,9.6933831925,-0.044460517365303556,-0.06766641509982015,0.21345202218965453,9.910763014046884,0.22829202157259987,-0.0035303939999999923,-0.006080123000000048,-0.045404789499999154
119742.0,1.235049501,-1.6689937635,9.7100544975,-0.045792203584575225,-0.06366961111275314,0.20785649660776068,9.929554159021553,0.22216000646028175,0.01196411300000011,-0.005982056500000166,0.016671304999999137
119752.0,1.2757470985000001,-1.6569315839999998,9.7053473055,-0.044193481989748415,-0.06553536808313508,0.2017269002747566,9.928077319086714,0.21666031158159035,0.04069759750000013,0.012062179500000214,-0.004707191999999694
119762.0,1.305657381,-1.6557547859999997,9.6598444495,-0.03886499178340973,-0.06846577589723356,0.19826242170954786,9.887308020713101,0.21332144270482822,0.02991028249999994,0.0011767980000001454,-0.04550285600000059
119772.0,1.3259571465,-1.654577988,9.64189828,-0.029804987636307165,-0.07379601143282424,0.19506497851989424,9.872284088021145,0.21067637370232276,0.0202997654999999,0.0011767979999997014,-0.017946169500000053
119782.0,1.317621494,-1.6534011899999999,9.650233932499999,-0.021012018864759733,-0.07539473302765104,0.19186753533024065,9.879113161034173,0.20721732991906092,-0.008335652500000013,0.0011767980000001454,0.008335652499999568
119792.0,1.331939203,-1.6593832464999998,9.6382698195,-0.016481144126582456,-0.07326194068171399,0.18973648831355555,9.870352572868798,0.20405605862539875,0.014317708999999956,-0.005982056499999944,-0.011964112999999443
119802.0,1.3475317765,-1.6485959315,9.650233932499999,-0.014882422531755648,-0.07006449749206037,0.1862720097483468,9.882344124043142,0.19956899038908035,0.015592573499999984,0.010787314999999742,0.011964112999999443
119812.0,1.3440013825,-1.6378086164999999,9.680144214999999,-0.01461713248545251,-0.0695321720702021,0.18653904512390196,9.909285988588758,0.19961262202234253,-0.0035303939999999923,0.010787315000000186,0.029910282499999497
119822.0,1.354690631,-1.644967471,9.701718844999998,-0.011152653920243767,-0.07246257988430056,0.19053584911096896,9.93299819962711,0.20415463984291735,0.010689248500000081,-0.007158854500000089,0.021574629999999928
119832.0,1.3679296085,-1.6737009554999998,9.73408079,-0.009019861574306696,-0.08285427025067482,0.19266689612765403,9.971200285246486,0.2099207490103247,0.013238977499999915,-0.028733484499999795,0.03236194500000167
119842.0,1.3930346325,-1.7037093044999998,9.718488216499999,-0.006621779182066486,-0.099108521574498,0.19373329230062256,9.964546356750699,0.21771296597551842,0.025105024000000142,-0.030008349000000045,-0.015592573500001095
119852.0,1.4265733754999999,-1.72400907,9.702895643,-0.004223696789826277,-0.11829492604167167,0.19586433931730768,9.95758518557969,0.22885447025999384,0.033538742999999815,-0.020299765500000122,-0.015592573499999318
119862.0,1.399016689,-1.7168502154999998,9.708877699499999,-0.002092649773141201,-0.13374981656808144,0.19826242170954786,9.958269354783054,0.23916810087719276,-0.027556686499999872,0.007158854500000089,0.0059820564999988335
119872.0,1.3739116649999998,-1.7084164965,9.747221700999999,-0.002092649773141201,-0.14440854231001082,0.20039521405548494,9.990728255596872,0.24701507664820552,-0.025105024000000142,0.008433718999999895,0.0383440015000005
119882.0,1.375088463,-1.6940987874999998,9.747221700999999,-0.0026249751949994717,-0.14920470709449124,0.20119457485289832,9.988451825549843,0.25049589230996544,0.0011767980000001454,0.014317709000000178,0.0
119892.0,1.3667528105,-1.6881167309999998,9.740062846499999,-0.0034243359924128747,-0.14893767171893613,0.20066050410178807,9.97930737056743,0.24991757449293203,-0.008335652500000013,0.005982056499999944,-0.007158854500000089
119902.0,1.3714600024999999,-1.6737009554999998,9.772326725,-0.007955210730590153,-0.14653958932669592,0.19906178250696127,10.00902328137207,0.24731099828485903,0.004707191999999916,0.014415775500000061,0.03226387850000023
119912.0,1.3906810364999997,-1.6582064484999999,9.772326725,-0.016215854080279316,-0.14334214613704227,0.19586433931730768,10.009096462282542,0.2432545255466618,0.01922103399999986,0.01549450699999988,0.0
119922.0,1.409804004,-1.6389854145,9.737611183999999,-0.02341010125699994,-0.14680662470225103,0.19479968847359108,9.974712631920783,0.24504517242079818,0.0191229675000002,0.01922103399999986,-0.03471554100000063
119932.0,1.407450408,-1.6389854145,9.7328059255,-0.028738591463338632,-0.15160278948673145,0.19453265309803597,9.969689113677067,0.248298742527657,-0.002353595999999847,0.0,-0.004805258499999354
119942.0,1.4217681169999998,-1.6569315839999998,9.7065241035,-0.03220307002854737,-0.1574636051149284,0.19559904927100452,9.949043020532223,0.25316163360741395,0.014317708999999734,-0.01794616949999983,-0.02628182199999962
119952.0,1.4026451494999999,-1.6509495275,9.6957367885,-0.03140370923113397,-0.1643925622453459,0.19906178250696127,9.934805465113076,0.26007056874993045,-0.019122967499999977,0.005982056499999944,-0.010787314999999964
119962.0,1.3906810364999997,-1.6582064484999999,9.702895643,-0.027672195290370093,-0.16759000543499952,0.20359265724513853,9.941319139333375,0.26514548911499136,-0.01196411300000011,-0.007256920999999972,0.007158854500000089
119972.0,1.3882293739999998,-1.6474191335,9.718488216499999,-0.022876030505889676,-0.1683893662324129,0.20892114745147722,9.95440524644781,0.2693071430250263,-0.0024516624999999515,0.010787314999999964,0.015592573499999318
119982.0,1.3906810364999997,-1.63182656,9.730452329499998,-0.018613936472519525,-0.16465959762090104,0.21451667303337107,9.963862413937383,0.2710657940961682,0.0024516624999999515,0.015592573499999984,0.011964112999999443
119992.0,1.385875778,-1.6258445034999998,9.768796330999999,-0.020212658067346328,-0.1529344757060031,0.21771411622302467,9.999670183469417,0.26682755069218433,-0.004805258499999798,0.005982056500000166,0.0383440015000005
120002.0,1.3822473174999999,-1.607898334,9.793901355,-0.03113667385557884,-0.1380119106014516,0.22144563016378854,10.020800788893407,0.26278307983066407,-0.003628460500000097,0.01794616949999983,0.025105024000000142
120012.0,1.3834241155,-1.5660239384999999,9.7998834115,-0.045259878162716954,-0.12389045162356549,0.22677412037012723,10.020180045203523,0.2623429096515474,0.0011767980000001454,0.04187439550000005,0.00598205650000061
120022.0,1.3679296085,-1.5959342209999998,9.768796330999999,-0.056717964702059726,-0.11722852986870314,0.2297062735134777,9.992378055704702,0.26405383509157776,-0.015494507000000102,-0.02991028249999994,-0.031087080500000752
120032.0,1.331939203,-1.6246677055,9.737611183999999,-0.05911604709429994,-0.11110067886495104,0.23343604212498958,9.961660442142403,0.2651988944759921,-0.03599040549999999,-0.02873348450000024,-0.031185147000000413
120042.0,1.3020289205,-1.6426138750000001,9.7412396445,-0.05831668629688653,-0.1052381179075021,0.23236964595202106,9.964196378220343,0.261670689457628,-0.02991028249999994,-0.017946169500000053,0.003628460500001651
120052.0,1.272118638,-1.644967471,9.729275531499999,-0.051654764542024174,-0.10284003551526187,0.22890691271606428,9.94902036271108,0.25620824009752724,-0.02991028249999994,-0.002353595999999847,-0.01196411300000122
120062.0,1.224262186,-1.6605600445,9.7065241035,-0.04152836422195308,-0.10763620029974229,0.22410900260233188,9.923350630371065,0.25206150379883363,-0.047856451999999994,-0.015592573499999984,-0.022751427999999407
120072.0,1.201510758,-1.6437906729999998,9.712506159999998,-0.0316707446066891,-0.11376405130349439,0.21984690856896172,9.923630977936929,0.24955552215940974,-0.022751428000000073,0.01676937150000013,0.0059820564999988335
120082.0,1.190723443,-1.6462423354999998,9.737611183999999,-0.023942426678858212,-0.11562980827387632,0.21505074378448133,9.9473115823153,0.2453371450860724,-0.010787314999999964,-0.0024516624999999515,0.025105024000000142
120092.0,1.2218105235,-1.6270213015,9.723293475,-0.021012018864759733,-0.11376405130349439,0.20998754362444577,9.933904331724142,0.2397468097455848,0.031087080500000086,0.01922103399999986,-0.014317708999998402
120102.0,1.2266157819999999,-1.6330033579999998,9.711329362,-0.01941329726993293,-0.10683683950232889,0.20492434346441024,9.923769657803133,0.23191587468316338,0.004805258499999798,-0.005982056499999944,-0.011964112999999443
120112.0,1.2230853879999999,-1.617508851,9.713682958,-0.020477948113649468,-0.0983091607770846,0.20145986489920148,9.923099785749516,0.22510023237847737,-0.0035303939999999923,0.01549450699999988,0.0023535959999989586
120122.0,1.2182801294999999,-1.583970108,9.7520269595,-0.020744983489204602,-0.09191427439777738,0.2001281786799298,9.954657080773144,0.22120098571159938,-0.00480525850000002,0.03353874300000004,0.0383440015000005
120132.0,1.2266157819999999,-1.606721536,9.7890960965,-0.021012018864759733,-0.08844979583256864,0.198529457085103,9.995626181355984,0.2183547953448741,0.008335652500000013,-0.022751428000000073,0.037069136999999586
120142.0,1.2098464105,-1.6127035925,9.725647071,-0.02341010125699994,-0.08765043503515524,0.1969307354902762,9.932409182263536,0.21682330636593497,-0.016769371499999908,-0.005982056499999944,-0.06344902550000064
120152.0,1.214651669,-1.6354550205,9.704072441,-0.022076669708476274,-0.0873851449888521,0.19506497851989424,9.91559951496927,0.21488110376463226,0.00480525850000002,-0.022751428000000073,-0.021574629999999928
120162.0,1.213474871,-1.6294729639999999,9.726823868999999,-0.018879226518822664,-0.08925090195923402,0.19293393150320917,9.936740209017417,0.2134142699534659,-0.0011767979999999234,0.005982056500000166,0.022751427999999407
120172.0,1.1978822974999999,-1.6582064484999999,9.725647071,-0.014882422531755648,-0.09191427439777738,0.1916022452839375,9.938449656468645,0.21302849747470354,-0.015592573500000206,-0.028733484500000017,-0.0011767979999994793
120182.0,1.2098464105,-1.6497727294999998,9.724470273,-0.011684979342102036,-0.09617811376039953,0.18973648831355555,9.937343733939281,0.21304155300385347,0.01196411300000011,0.008433719000000117,-0.0011767979999994793
120192.0,1.22779258,-1.6534011899999999,9.7520269595,-0.008487536152448424,-0.10044195312302168,0.19106817453282723,9.967107902165568,0.21602701575593117,0.017946169500000053,-0.003628460500000097,0.027556686500000538
120202.0,1.2445619515,-1.6641885049999998,9.7220186105,-0.010885618544688634,-0.10150660396673822,0.1924016060813509,9.941634860233197,0.21780832252841953,0.016769371499999908,-0.010787314999999964,-0.030008349000000933
120212.0,1.24936721,-1.6522243919999997,9.773503522999999,-0.014350097109897379,-0.10230596476415162,0.19426561772248083,9.990602333244794,0.22002628466272928,0.00480525850000002,0.01196411300000011,0.051484912499999425
120222.0,1.268588244,-1.665365303,9.7651678705,-0.017280504923995858,-0.10177363934229335,0.19479968847359108,9.987054684154721,0.22046180654437988,0.01922103400000008,-0.013140911000000255,-0.008335652499999568
120232.0,1.281729155,-1.6557547859999997,9.768796330999999,-0.017547540299550992,-0.10470404715639182,0.19746306091213447,9.990682423873654,0.22419302862997686,0.013140911000000033,0.009610517000000263,0.003628460499999875
120242.0,1.3068341789999998,-1.6366318185,9.796254951,-0.01834690109696439,-0.10710387487788402,0.2001281786799298,10.017633969442146,0.22772601233821563,0.025105023999999698,0.019122967499999755,0.027458620000000877
120252.0,1.3332140674999997,-1.6426138750000001,9.746044903,-0.021811379662173138,-0.10896788651901397,0.20145986489920148,9.973015158086078,0.23007784278455126,0.02637988849999995,-0.005982056500000166,-0.050210048000000285
120262.0,1.361947552,-1.6294729639999999,9.7424164425,-0.024741787476271614,-0.11030131806753764,0.20145986489920148,9.971196588870368,0.2310078223354387,0.02873348450000024,0.013140911000000255,-0.003628460499999875
120272.0,1.3787169234999999,-1.6042698735,9.7280987335,-0.02580818364924015,-0.11030131806753764,0.20385794729144166,9.955423002107409,0.2332177218493252,0.016769371499999908,0.025203090499999803,-0.014317709000000178
120282.0,1.396663093,-1.6342782224999999,9.694559990499998,-0.025274112898129884,-0.11349876125719126,0.2046573080888551,9.93005672256153,0.2353834389753894,0.017946169500000053,-0.030008348999999823,-0.03353874300000115
120292.0,1.3798937215,-1.6522243919999997,9.6633748435,-0.025008822851826748,-0.1153627728983212,0.20652306505923704,9.90024067839482,0.2378776723290472,-0.016769371499999908,-0.01794616949999983,-0.031185146999998636
120302.0,1.3822473174999999,-1.6389854145,9.708877699499999,-0.022876030505889676,-0.12042597305835674,0.20812178665406383,9.942795734577276,0.24153758680345824,0.002353595999999847,0.013238977499999693,0.045502855999998815
120312.0,1.3822473174999999,-1.6713473595,9.725647071,-0.01807986572140926,-0.12735493018877422,0.20892114745147722,9.964548188076288,0.24534507462008207,0.0,-0.03236194499999989,0.016769371500000574
120322.0,1.3559654955,-1.6605600445,9.7100544975,-0.01514945790731078,-0.13188405959769953,0.21051986904630404,9.943905692975793,0.24888054667677012,-0.026281821999999844,0.010787314999999964,-0.015592573499999318
120332.0,1.3187982919999999,-1.6904703269999999,9.714859756,-0.01461713248545251,-0.1364131890066248,0.21158626521927257,9.94863904964885,0.25217249319958507,-0.037167203500000134,-0.02991028249999994,0.004805258499999354
120342.0,1.3092858414999997,-1.698904046,9.738787982,-0.015416493282865913,-0.13961063219627842,0.21025457900000089,9.972186105895496,0.25285526468288694,-0.009512450500000158,-0.008433719000000117,0.023928226000000663
120352.0,1.2900648074999999,-1.6977272479999999,9.768796330999999,-0.017015214877692718,-0.14201045991777062,0.2086558574051741,9.998796266186782,0.25296986993094484,-0.01922103399999986,0.0011767980000001454,0.030008348999999157
120362.0,1.285259549,-1.698904046,9.773503522999999,-0.020477948113649468,-0.14334214613704227,0.2062560296836819,10.002976466027711,0.2520076725002522,-0.004805258499999798,-0.0011767980000001454,0.004707191999999694
120372.0,1.285259549,-1.678506214,9.792724557,-0.021544344286618004,-0.14067702836924695,0.20545666888626848,10.018319692842864,0.24993324683079682,0.0,0.020397832000000005,0.01922103400000097
120382.0,1.2996753245000001,-1.6557547859999997,9.814201120499998,-0.024209462054413346,-0.1380119106014516,0.2046573080888551,10.037391269353781,0.2480282227388724,0.014415775500000061,0.022751428000000296,0.02147656349999849
120392.0,1.29251647,-1.6677188989999998,9.821458041499998,-0.024474752100716486,-0.13774662055514847,0.2033256218695834,10.045542454852699,0.24680853606269046,-0.007158854500000089,-0.01196411300000011,0.00725692099999975
120402.0,1.272118638,-1.6354550205,9.7902728945,-0.027406905244066956,-0.13614789896032167,0.20305858649402828,10.0071195806789,0.24600849252682314,-0.020397832000000005,0.03226387849999979,-0.031185146999998636
120412.0,1.2625081209999998,-1.6234909075,9.7663446685,-0.0316707446066891,-0.13215109497325464,0.2017269002747566,9.980537944733467,0.24322970678153993,-0.009610517000000263,0.01196411300000011,-0.023928225999998887
120422.0,1.2553492665000001,-1.597111019,9.7783087815,-0.03726627018858293,-0.1278872556106325,0.19959585325807153,9.987091068688285,0.23996339237309788,-0.007158854499999645,0.02637988849999995,0.011964112999999443
120432.0,1.2445619515,-1.5815184455,9.749575297,-0.0385979564078546,-0.12282405545059695,0.20039521405548494,9.95511695142005,0.23818856532700639,-0.010787315000000186,0.015592573499999984,-0.028733484500000017
120442.0,1.248190412,-1.5683775344999997,9.750752095,-0.03966435258082314,-0.11589684364943145,0.19879649246065811,9.954644836129509,0.23350671221234115,0.003628460500000097,0.013140911000000255,0.0011767979999994793
120452.0,1.2553492665000001,-1.5456261064999999,9.7639910725,-0.0385979564078546,-0.11349876125719126,0.19986114330437466,9.964957777424656,0.23305846401431404,0.007158854500000089,0.02275142799999985,0.01323897750000036
120462.0,1.248190412,-1.53964405,9.793901355,-0.03619987401561439,-0.11056660811384078,0.2033256218695834,9.99244649006338,0.23425779435741045,-0.007158854500000089,0.005982056499999944,0.029910282499999497
120472.0,1.2314210405,-1.540820848,9.8226348395,-0.03593283864005926,-0.10763620029974229,0.2062560296836819,10.018716577225684,0.23541085422846297,-0.01676937150000013,-0.0011767980000001454,0.028733484500000017
120482.0,1.211121275,-1.5228746785,9.7651678705,-0.03913028182971287,-0.11429812205460466,0.2110539397974143,9.957131392535683,0.24318512529612626,-0.0202997654999999,0.017946169500000053,-0.057466969000000034
120492.0,1.189546645,-1.528856735,9.73408079,-0.04552516820902009,-0.12229173002873868,0.21425138298706792,9.924956068569404,0.2508614424054696,-0.021574629999999928,-0.005982056499999944,-0.031087080499998976
120502.0,1.2338727029999998,-1.5779880515,9.725647071,-0.05698325474836286,-0.11989364763649847,0.21585010458189471,9.92978847143967,0.25340253691176134,0.04432605799999978,-0.04913131650000002,-0.008433719000001005
120512.0,1.2182801294999999,-1.61025193,9.735257588,-0.06391221187878035,-0.11829492604167167,0.21798115159857978,9.94245231603928,0.2561137302189902,-0.015592573499999984,-0.03226387850000001,0.009610517000000485
120522.0,1.212298073,-1.617508851,9.708877699499999,-0.05645092932650459,-0.13161702422214439,0.21771411622302467,9.917071527659324,0.26059390800571536,-0.005982056499999944,-0.007256920999999972,-0.02637988850000106
120532.0,1.2338727029999998,-1.6593832464999998,9.723293475,-0.03913028182971287,-0.13907830677442015,0.21638243000375298,9.940745978393723,0.26018322464302257,0.021574629999999928,-0.04187439549999983,0.014415775500001615
120542.0,1.213474871,-1.6701705614999998,9.716036553999999,-0.01834690109696439,-0.14787127554596757,0.21638243000375298,9.93294303244078,0.2627239595579024,-0.020397831999999783,-0.010787314999999964,-0.007256921000001526
120552.0,1.2051392184999998,-1.6916471249999998,9.726823868999999,0.0027035150113392165,-0.15666424431751502,0.20998754362444577,9.946111456747087,0.2620033643265351,-0.008335652500000235,-0.021476563500000045,0.010787314999999964
120562.0,1.214651669,-1.7276375304999998,9.730452329499998,0.016292648567367066,-0.1579976758660387,0.19959585325807153,9.95699817467436,0.25508277208433183,0.009512450500000158,-0.03599040549999999,0.003628460499999875
120572.0,1.2625081209999998,-1.712044957,9.716036553999999,0.02242224490037115,-0.15826296591234182,0.19026881373541382,9.946174692264572,0.24849978858346117,0.04785645199999977,0.015592573499999762,-0.014415775499999839
