timestamp,ax,ay,az,gx,gy,gz,acc_mag,gyro_mag,dax,day,daz
392132.0,-0.17485256949999997,0.16279038999999998,9.9067758965,-0.09214640318829263,0.093261668580317,0.028099800957108706,9.909656038208919,0.1340831729217108,0.0,0.0,0.0
392142.0,0.038245934999999995,-0.7996342409999999,9.676908020499999,-0.1254542666333524,0.06501700529529277,0.019306832185561274,9.709965319615765,0.14261394659401946,0.21309850449999995,-0.9624246309999999,-0.22986787600000014
392152.0,-0.0263798885,-1.1312951439999999,9.6888721335,-0.11665955253255297,0.08233765279208449,0.0033178709080412204,9.754730535523167,0.142828388395892,-0.0646258235,-0.33166090299999995,0.01196411300000122
392162.0,-0.101793027,-1.029502117,9.6421924795,-0.08814959920122561,0.07327764864498193,-0.011070623445400031,9.697531244650861,0.11516303371196844,-0.07541313849999999,0.10179302699999981,-0.04667965400000007
392172.0,-0.099439431,-1.025971723,9.621892714,-0.05830446899212257,0.053558918755949994,-0.016666149027293853,9.676948154070036,0.08090568216237845,0.0023535959999999995,0.0035303939999999923,-0.020299765500000788
392182.0,-0.089828914,-1.027148521,9.6421924795,-0.026330037095586456,0.030642745677264445,-0.022261674609187675,9.697163457924656,0.04612841719051087,0.009610516999999999,-0.0011767979999999234,0.020299765500000788
392192.0,-0.0838468575,-0.9995918345,9.676908020499999,0.0059131755057567886,0.00799360797413403,-0.021195278436219135,9.728759580148381,0.023411604835954263,0.005982056499999999,0.027556686499999983,0.03471554099999885
392202.0,-0.07904159899999999,-0.9301607525,9.6757312225,0.030426324850017148,-0.010658725741929371,-0.016133823605435582,9.720659509000672,0.036050935389414646,0.004805258500000006,0.06943108200000003,-0.0011767979999994793
392212.0,-0.08267005949999999,-0.9289839544999999,9.749967563,0.05121145091201762,-0.025846580892784028,-0.007873180255746421,9.794473595145803,0.05790203291509456,-0.0036284604999999998,0.0011767980000000344,0.07423634050000061
392222.0,-0.041972461999999995,-0.9193734375,9.7798778455,0.06773099228214395,-0.03837106360509534,-0.0006789330790257941,9.823086066916476,0.07784784382265132,0.040697597499999995,0.00961051699999993,0.029910282499999497
392232.0,-0.030008348999999997,-0.9384964049999999,9.8014524755,0.08345291818410887,-0.04769635779850104,0.0038519416591514853,9.846326555253624,0.09619859435164167,0.011964112999999998,-0.019122967499999866,0.021574629999999928
392242.0,0.062174161,-0.9313375504999999,9.797824015,0.08904844376600268,-0.04876275397146957,0.0051836278784231585,9.842185259797649,0.10165776659956177,0.09218251,0.007158854499999978,-0.003628460499999875
392252.0,0.0897308475,-0.8990736719999999,9.867255097000001,0.0650676198436006,-0.02398082392240209,0.011578514257730382,9.908537139353575,0.0703060243544253,0.027556686500000004,0.03226387850000001,0.06943108200000125
392262.0,0.082571993,-0.8319961859999999,9.905599098499998,0.026963591614060395,0.006927211801165493,0.024902357767455096,9.940821358808865,0.037351692845791686,-0.007158854500000006,0.06707748599999996,0.03834400149999695
392272.0,0.0418743955,-0.875145446,9.927173728499998,-0.0023474678439323734,0.02478018471981549,0.03289596574158912,9.965761950421733,0.04125182083373143,-0.040697597499999995,-0.04314926000000008,0.021574629999999928
392282.0,0.001176798,-0.913391381,9.941491437499998,-0.01780235837034216,0.029578094833547904,0.03369532653900253,9.983363020627086,0.04824067462316891,-0.0406975975,-0.03824593499999995,0.014317709000000178
392292.0,-0.0838468575,-0.9218251,9.8959885815,-0.020467476138137503,0.025579545517228894,0.029698522551935513,9.939184162479384,0.044218016351946804,-0.0850236555,-0.008433719000000006,-0.045502855999998815
392302.0,-0.13170330949999998,-0.9373196069999999,9.937862976999998,-0.01753706832403902,0.009060004147102564,0.021437879202246348,9.982836989404722,0.029141295531215406,-0.04785645199999998,-0.01549450699999999,0.04187439549999894
392312.0,-0.10542148749999998,-0.9349660109999999,9.890006524999999,-0.013006193585861744,-0.0063948863793072235,0.008915141819187036,9.934661755505042,0.017015739685755003,0.026281821999999996,0.002353596000000069,-0.04785645199999955
392322.0,-0.08267005949999999,-0.9505585845,9.85176059,-0.014604915180688549,-0.009859364944515966,-0.0009442231253289323,9.897857479474107,0.017646591224785117,0.02275142799999999,-0.015592573500000095,-0.038245934999999065
392332.0,-0.049131316499999994,-0.9409480674999999,9.836168016499999,-0.019935150716279233,-0.0037297686115118824,-0.00840550567760469,9.881194178883973,0.021953904747730697,0.033538742999999996,0.00961051700000004,-0.015592573500001095
392342.0,-0.035990405499999996,-0.9744868105,9.8265574995,-0.026862362517444723,0.004529129408925285,-0.014001031259498512,9.874824157629654,0.030628881950715496,0.013140910999999998,-0.03353874300000004,-0.009610516999998708
392352.0,-0.039520799499999995,-0.958894237,9.807434532,-0.026862362517444723,0.00559552558189382,-0.019331266795089192,9.854278875230342,0.03356477770608894,-0.003530393999999999,0.015592573499999984,-0.019122967499999532
392362.0,-0.008433719,-0.9325143484999999,9.773895789,-0.023664919327791117,-0.0007993607974134029,-0.022528709984742806,9.818283609267278,0.03268348448455203,0.031087080499999996,0.02637988850000006,-0.03353874300000115
392372.0,0.020299765499999997,-0.9110377849999999,9.740357046,-0.017270032948483893,-0.005862560957448953,-0.018797196043978927,9.782891050693497,0.026190804457620256,0.028733484499999996,0.021476563500000045,-0.03353874299999937
392382.0,0.05619210449999999,-0.8619064684999999,9.7439855065,-0.01220683278844834,-0.00506320016003555,-0.007606144880191288,9.78219269202628,0.01524782615733081,0.035892338999999995,0.04913131650000002,0.003628460499999875
392392.0,0.017946169499999998,-0.8798526379999999,9.7906651605,-0.008210028801381325,-0.0013316862192716736,0.007049384848805097,9.830136673242329,0.010902833936764873,-0.038245934999999995,-0.017946169500000053,0.04667965400000007
392402.0,-0.027556686499999997,-0.8834810985,9.803806071499999,-0.008210028801381325,0.005862560957448953,0.016109388995907664,9.8435721011205,0.019007540812024753,-0.045502855999999994,-0.003628460500000097,0.013140910999998923
392412.0,-0.0348136075,-0.9421248655,9.772718991,-0.01913578991886583,0.009327039522657697,0.015310028198494259,9.818087783601888,0.02622153858023734,-0.0072569210000000064,-0.05864376699999996,-0.031087080499998976
392422.0,-0.05511337299999999,-0.9899813175,9.7798778455,-0.03299021352119682,0.014655529728996385,0.009180431865490174,9.830010740878373,0.03724807470257439,-0.02029976549999999,-0.047856451999999994,0.007158854500000089
392432.0,-0.06472388999999999,-0.9816456649999998,9.747613967,-0.038852774478645775,0.014123204307138116,0.0014538592669112766,9.797132000907382,0.0413656462702767,-0.009610516999999999,0.008335652500000124,-0.03226387850000023
392442.0,-0.06707748599999999,-1.0019454305,9.6853417395,-0.03752108825937409,0.006661921754862355,-0.005208062487951079,9.737260325457505,0.03846215257254919,-0.0023535959999999995,-0.020299765500000122,-0.06227222749999939
392452.0,-0.041972461999999995,-0.9959633739999999,9.655431456999999,-0.029260444909684935,0.0015987215948268059,-0.010004227272431498,9.706753388787671,0.03096472364431717,0.025105023999999997,0.005982056500000055,-0.029910282500001273
392462.0,-0.044326057999999995,-0.9852741254999999,9.64582094,-0.014604915180688549,0.0007993607974134029,-0.010536552694289767,9.696112185218366,0.018026687654671702,-0.0023535959999999995,0.01068924849999997,-0.009610516999998708
392472.0,-0.019221033999999998,-0.9852741254999999,9.6637671095,-0.0026145032194875057,0.011458086539342773,-0.0108035880698449,9.713883327340401,0.015963736699490933,0.025105023999999997,0.0,0.017946169500000053
392482.0,-0.037167203499999996,-0.9839992609999999,9.703287909,5.061454830783555e-05,0.025579545517228894,-0.012669345040226838,9.753124227221253,0.028545192492761464,-0.017946169499999998,0.001274864500000028,0.03952079949999998
392492.0,-0.06707748599999999,-0.9660530915,9.761931676,0.004314453910929983,0.03170914185023298,-0.016133823605435582,9.809845463187326,0.03583830985913043,-0.029910282499999996,0.017946169499999942,0.058643766999999514
392502.0,-0.089828914,-0.9409480674999999,9.8026292735,0.009642944117268671,0.022116812281272148,-0.017465509824707254,9.848095916125184,0.02978563059884317,-0.022751428000000004,0.02510502400000003,0.04069759749999946
392512.0,-0.056290171,-0.9289839544999999,9.832539555999999,0.014172073526193957,0.004529129408925285,-0.019331266795089192,9.87648793303441,0.02439382211006626,0.033538742999999996,0.011964112999999998,0.029910282499999497
392522.0,-0.014415775499999998,-0.936142809,9.843326871,0.012840387306922283,-0.002930407814098479,-0.016666149027293853,9.887752781232768,0.021242018725833665,0.0418743955,-0.007158854500000089,0.01078731500000174
392532.0,-0.022849494499999998,-0.901427268,9.845680467000001,0.0059131755057567886,-0.0037297686115118824,-0.009204866475018093,9.886886116323895,0.011558822832806693,-0.008433719,0.03471554100000007,0.002353596000000735
392542.0,-0.0048052584999999995,-0.913391381,9.807434532,-0.0018151424220741027,-0.0005323254218582705,-0.004408701690537677,9.849877106079061,0.004797370421733076,0.018044235999999998,-0.011964112999999998,-0.03824593500000084
392552.0,-0.0036284604999999998,-0.9625226975,9.806257733999999,-0.00607898178469625,0.0026651177677953415,-0.003077015471266003,9.853382863492268,0.007316071108545731,0.0011767979999999997,-0.04913131650000002,-0.0011767980000012557
392562.0,0.0214765635,-0.979292069,9.814593386499999,-0.00607898178469625,0.009859364944515966,-0.005740387909809351,9.863352246651013,0.012927225147064798,0.025105024,-0.01676937150000002,0.008335652499999568
392572.0,0.004707192,-0.958894237,9.8349912185,-0.004480260189869444,0.012524482712311309,-0.004941027112395947,9.88162702106189,0.014189755019215294,-0.0167693715,0.020397832000000005,0.020397832000002225
392582.0,-0.012062179499999999,-0.945753326,9.867255097000001,-0.00021642082724729686,0.008792968771547434,-0.00041189770347066176,9.912482938148587,0.008805271007186501,-0.016769371499999998,0.013140911000000033,0.03226387850000023
392592.0,-0.050308114499999994,-0.9265322919999999,9.8481321295,0.004314453910929983,-0.0063948863793072235,0.0033178709080412204,9.891749058411941,0.00839746102796639,-0.038245934999999995,0.01922103400000008,-0.01912296750000131
392602.0,-0.019221033999999998,-0.9959633739999999,9.8481321295,-0.00021642082724729686,-0.018919369091618534,0.001186823891356144,9.898384662690558,0.018957793008376553,0.031087080499999996,-0.06943108200000003,0.0
392612.0,-0.033538742999999996,-0.9899813175,9.795470418999999,-0.016470672151070488,-0.014388494353441254,-0.0028099800957108708,9.845426785354968,0.022050120158524103,-0.014317708999999998,0.005982056499999944,-0.05266171050000068
392622.0,-0.05511337299999999,-0.9864509235,9.7212340785,-0.031126201880066876,0.0005323254218582705,-0.006806784082777886,9.771310808553128,0.03186622229544936,-0.021574629999999997,0.0035303939999999923,-0.07423634049999883
392632.0,-0.052759777,-0.957717439,9.670925964,-0.03165852730192514,0.016786576745681462,-0.0108035880698449,9.718375136215064,0.03742684898503063,0.0023535959999999925,0.028733484500000017,-0.050308114499999945
392642.0,-0.035990405499999996,-0.9218251,9.705641505,-0.01700299757292876,0.024514894673512352,-0.012669345040226838,9.749386331859904,0.03241287230510042,0.016769371500000005,0.035892338999999995,0.03471554099999885
392652.0,0.0058839899999999995,-0.933789213,9.727216134999999,0.0005829399701661061,0.021849776905717013,-0.005740387909809351,9.7719358702694,0.022598774816204245,0.041874395499999995,-0.011964112999999998,0.021574629999999928
392662.0,-0.009610516999999999,-0.9660530915,9.7870367,0.006712536303170191,0.01918465913792167,0.0014538592669112766,9.834604125473511,0.020377021289374044,-0.015494506999999998,-0.03226387850000001,0.05982056500000077
392672.0,-0.07904159899999999,-0.945753326,9.810964925999999,0.006445500927615059,0.017852972918649995,0.006517059426946826,9.856760609206997,0.020068512346865505,-0.06943108199999999,0.02029976550000001,0.023928225999998887
392682.0,-0.1089518815,-0.9899813175,9.820575443,0.006712536303170191,0.012524482712311309,0.007049384848805097,9.87094907053704,0.015862365447149595,-0.02991028250000001,-0.04422799150000001,0.009610517000000485
392692.0,-0.10542148749999998,-0.9839992609999999,9.8481321295,0.0077771871468867325,0.003996803987067015,0.0006544984694978735,9.897730784162876,0.008768548926436462,0.00353039400000002,0.005982056500000055,0.027556686500000538
392702.0,-0.0348136075,-1.004397093,9.8600962425,0.004579743957233121,-0.002930407814098479,-0.005208062487951079,9.91118173675857,0.007528961385818491,0.07060787999999998,-0.020397832000000005,0.011964112999999443
392712.0,-0.033538742999999996,-0.9876277214999999,9.863724702999999,-0.0036808993924560413,0.002398082392240209,-0.004941027112395947,9.913102359005968,0.006611623735723896,0.0012748645000000072,0.01676937150000002,0.003628460499999875
392722.0,-0.0599186315,-0.9278071564999999,9.866078299,-0.014604915180688549,0.011990411961201045,-0.0022776546738526,9.909788966675938,0.01903316151478105,-0.026379888500000004,0.05982056499999999,0.002353596000000735
392732.0,-0.09698776849999999,-0.925355494,9.866078299,-0.022066197732964307,0.013589133556027849,0.00012042771838760874,9.909853198686312,0.02591517192744816,-0.03706913699999999,0.0024516624999999515,0.0
392742.0,-0.112580342,-0.9756636084999999,9.864901501,-0.024464280125204515,0.007726572598578897,-0.004408701690537677,9.91367113811973,0.026031472811996952,-0.015592573500000012,-0.050308114499999945,-0.0011767979999994793
392752.0,-0.076688003,-1.0019454305,9.829009162,-0.023931954703346248,-0.0013316862192716736,-0.011869984242813436,9.880242750164792,0.02674711891090803,0.035892338999999995,-0.026281822000000066,-0.035892339000000106
392762.0,-0.0718827445,-0.9852741254999999,9.83018596,-0.019935150716279233,-0.007194247176720627,-0.018797196043978927,9.87970081730807,0.02832846634811525,0.004805258500000006,0.016671305000000025,0.0011767979999994793
392772.0,-0.07070594649999999,-0.948106922,9.7571264175,-0.01513724060254682,-0.010658725741929371,-0.02199463923363254,9.803337288571232,0.02874906333289326,0.0011767980000000067,0.03716720349999991,-0.07305954249999935
392782.0,-0.0263798885,-0.9397712694999999,9.7439855065,-0.013805554383275147,-0.009592329568960835,-0.020662953014360868,9.789234877577357,0.026637637764314104,0.04432605799999999,0.008335652500000124,-0.013140911000000699
392792.0,0.0095124505,-0.9026040659999999,9.727216134999999,-0.014337879805133418,-0.0031974431896536117,-0.016133823605435582,9.769008052186187,0.021819686166139635,0.035892339,0.03716720350000002,-0.016769371500000574
392802.0,0.002353596,-0.889463155,9.759578079999999,-0.01193979741289321,-0.0013316862192716736,-0.008138470302049559,9.800026252165509,0.014510921724855115,-0.007158854500000001,0.013140910999999922,0.03236194499999989
392812.0,0.0226533615,-0.9026040659999999,9.761931676,-0.010875146569176666,-0.004529129408925285,0.001986184688769547,9.803597162350112,0.011946830362977851,0.0202997655,-0.013140910999999922,0.002353596000000735
392822.0,0.015494507,-0.9110377849999999,9.759578079999999,-0.010075785771763265,-0.011458086539342773,0.008115781021773632,9.802019905359371,0.01728221940767204,-0.007158854500000001,-0.008433719000000006,-0.002353596000000735
392832.0,-0.019221033999999998,-0.9193734375,9.7463391025,-0.009276424974349861,-0.014655529728996385,0.01397659664997059,9.789624245426843,0.022275140086163495,-0.034715540999999996,-0.008335652500000124,-0.013238977499998583
392842.0,-0.031185147,-0.936142809,9.691323795999999,-0.01193979741289321,-0.011458086539342773,0.017708110590734467,9.736482567701318,0.024236825082870936,-0.011964113000000002,-0.01676937150000002,-0.055015306500001415
392852.0,-0.0479545185,-0.9972382384999999,9.6529797945,-0.012739158210306611,-0.00559552558189382,0.01584235362035253,9.704473332087446,0.02108497632621738,-0.0167693715,-0.06109542949999991,-0.038344001499998726
392862.0,-0.063547092,-1.0343073754999998,9.662590311499999,-0.009808750396208134,0.0037297686115118824,0.008648106443631903,9.717997813737613,0.013598253685342105,-0.015592573499999998,-0.03706913699999992,0.009610516999998708
392872.0,-0.10061622899999999,-1.037935836,9.673377626499999,-0.0023474678439323734,0.010925761117484502,0.0022532200643246795,9.729422856987044,0.011399993944424182,-0.03706913699999999,-0.003628460500000097,0.010787314999999964
392882.0,-0.0814932615,-1.0582356015,9.702111110999999,0.006445500927615059,0.01119105116378764,-0.0060074232853644825,9.759993019984266,0.014243357851572033,0.01912296749999999,-0.020299765500000122,0.028733484500000017
392892.0,-0.08865211599999999,-1.0354841735,9.716428819999999,0.014971434323607358,0.01119105116378764,-0.011869984242813436,9.771851190299964,0.022142267223146786,-0.007158854499999992,0.022751428000000073,0.014317709000000178
392902.0,-0.056290171,-1.04146623,9.766736934499999,0.020568705234753175,0.01119105116378764,-0.013201670462085108,9.822269128837188,0.026881133982296315,0.03236194499999999,-0.005982056499999944,0.050308114499999945
392912.0,-0.045502855999999994,-1.0115559475,9.797824015,0.024031438470709925,0.012257447336756176,-0.011335913491703169,9.850008699170651,0.029261886215284312,0.010787315000000006,0.02991028249999994,0.031087080500000752
392922.0,-0.049131316499999994,-0.9756636084999999,9.818221846999998,0.022167426829579978,0.008260643349689161,-0.007073819458333018,9.866702265707643,0.02469153625282633,-0.0036284604999999998,0.035892339000000106,0.020397831999998672
392932.0,-0.07305954249999999,-0.9732119459999999,9.8612730405,0.016037830496575894,-0.0010663961729685354,-0.0022776546738526,9.909449286811025,0.016233820211150066,-0.023928225999999997,0.0024516624999999515,0.04305119350000197
392942.0,-0.0610954295,-0.9959633739999999,9.8396984105,0.00884358331985527,-0.0101264003200711,-0.00041189770347066176,9.8901638259157,0.01345074752925215,0.011964112999999992,-0.022751427999999962,-0.021574629999999928
392952.0,-0.0479545185,-1.0019454305,9.840973275,0.004314453910929983,-0.011725121914897906,-0.0028099800957108708,9.89196387381235,0.012805818388804733,0.013140910999999998,-0.005982056500000055,0.0012748644999991399
392962.0,-0.07070594649999999,-0.9972382384999999,9.854114185999999,-0.0007487462491055673,-0.004796164784480418,-0.007606144880191288,9.904698371274284,0.009023151196998746,-0.02275142799999999,0.004707192000000027,0.013140910999998923
392972.0,-0.076688003,-0.9839992609999999,9.867255097000001,-0.008210028801381325,0.0101264003200711,-0.010004227272431498,9.91649427694713,0.016432684494029244,-0.005982056500000013,0.013238977500000026,0.013140911000002475
392982.0,-0.06227222749999999,-0.9972382384999999,9.880396008,-0.015671311353657087,0.023181463124988685,-0.014800392056911913,9.930789858291572,0.03165472851244776,0.014415775500000012,-0.013238977500000026,0.013140910999998923
392992.0,-0.0742363405,-0.9720351479999999,9.888829727,-0.020999801559995774,0.030642745677264445,-0.016666149027293853,9.93676590912743,0.040715231199155405,-0.011964113000000005,0.025203090500000025,0.008433718999999229
393002.0,-0.076688003,-0.9720351479999999,9.8971653795,-0.022598523154822577,0.02478018471981549,-0.013468705837640243,9.945079985999353,0.036140791918109844,-0.002451662500000007,0.0,0.008335652500001345
393012.0,-0.0814932615,-0.969681552,9.911581154999999,-0.02153387231110604,0.009592329568960835,-0.008672541053159824,9.959235134090878,0.025118387917804803,-0.0048052584999999925,0.002353595999999958,0.014415775499998063
393022.0,-0.0838468575,-0.9816456649999998,9.829009162,-0.019935150716279233,-0.006927211801165493,-0.0060074232853644825,9.878262985657239,0.02194278086178947,-0.0023535959999999995,-0.011964112999999887,-0.0825719929999984
393032.0,-0.044326057999999995,-0.9780172045,9.775072586999999,-0.02020044076258237,-0.018385298340508265,-0.007073819458333018,9.823977123997931,0.028215526289636812,0.0395207995,0.003628460499999875,-0.053936575000001596
393042.0,-0.0479545185,-0.9492837199999999,9.747613967,-0.020467476138137503,-0.01572192590196492,-0.007073819458333018,9.793845887421094,0.026760707301212994,-0.0036284605000000067,0.028733484500000017,-0.0274586199999991
393052.0,-0.0383440015,-0.9660530915,9.740357046,-0.01913578991886583,-0.00799360797413403,-0.006806784082777886,9.788221708850365,0.021826784779547,0.009610516999999999,-0.01676937150000002,-0.00725692099999975
393062.0,-0.025203090499999997,-0.9984150365,9.716428819999999,-0.01753706832403902,0.0005323254218582705,-0.008138470302049559,9.76762288353756,0.019340807496433857,0.013140911000000005,-0.032361945,-0.023928226000000663
393072.0,-0.0695291485,-0.9852741254999999,9.706818303,-0.014604915180688549,0.003996803987067015,-0.007606144880191288,9.756942193757567,0.01694495292069594,-0.044326058,0.013140911000000033,-0.009610516999998708
393082.0,-0.0575650355,-0.9984150365,9.6996594485,-0.010341075818066403,0.0007993607974134029,-0.009737191896876364,9.751078901090727,0.01422637454856415,0.011964112999999998,-0.013140911000000033,-0.007158854500000089
393092.0,-0.0514849125,-1.0211664645,9.714075224,-0.00607898178469625,-0.0013316862192716736,-0.01293638041578197,9.767737153607545,0.014355394316670447,0.006080123,-0.022751428000000073,0.014415775499999839
393102.0,-0.0599186315,-0.9984150365,9.7080931675,-0.002881538595042638,-0.0013316862192716736,-0.018797196043978927,9.759482351865303,0.019063347869067892,-0.008433719,0.022751428000000073,-0.00598205650000061
393112.0,-0.037167203499999996,-0.9924329799999999,9.687695335499999,-0.004745550236172582,0.0005323254218582705,-0.023061035406601076,9.738467309298528,0.023550264784568828,0.022751428000000004,0.005982056500000055,-0.02039783200000045
393122.0,-0.0012748644999999999,-0.9600710349999999,9.680536480999999,-0.006611307206554521,0.0037297686115118824,-0.02199463923363254,9.728027784576755,0.023267675257586582,0.035892338999999995,0.032361945,-0.007158854500000089
393132.0,0.013140911,-0.9313375504999999,9.7080931675,-0.005279620987282847,0.006661921754862355,-0.01826487062212066,9.752673236880923,0.020145994591483245,0.0144157755,0.028733484500000017,0.027556686500000538
393142.0,0.001176798,-0.9373196069999999,9.7008362465,0.004579743957233121,0.006661921754862355,-0.010004227272431498,9.74601422695085,0.012862341136052323,-0.011964113,-0.005982056500000055,-0.00725692099999975
393152.0,0.016671304999999997,-0.9421248655,9.727216134999999,0.01204102650950888,0.00559552558189382,-0.0014782938764391971,9.772748381678928,0.013359699799226082,0.015494506999999998,-0.00480525850000002,0.026379888499999282
393162.0,-0.0012748644999999999,-0.9612478329999999,9.7655601365,0.01204102650950888,0.008260643349689161,0.0027855454861829498,9.812755158533438,0.014865524262838952,-0.017946169499999998,-0.019122967499999977,0.0383440015000005
393172.0,-0.025203090499999997,-0.958894237,9.794293621,0.005646140130201656,0.0085259333959923,0.004384267081009755,9.84115343279861,0.011126195957307069,-0.023928225999999997,0.002353595999999958,0.028733484500000017
393182.0,-0.033538742999999996,-0.9984150365,9.8026292735,5.061454830783555e-05,0.0031974431896536117,0.0033178709080412204,9.853400332173175,0.004608087688617583,-0.008335652499999999,-0.03952079949999998,0.008335652499999568
393192.0,-0.044326057999999995,-1.004397093,9.8230271055,-0.0012828170002158322,-0.0063948863793072235,-0.0012112585008840647,9.874342501414075,0.006633802711586749,-0.010787314999999999,-0.005982056499999944,0.02039783200000045
393202.0,-0.053936574999999994,-0.9899813175,9.844503669,0.0035150931135165798,-0.01625425132382319,-0.007606144880191288,9.894302635965621,0.018286880697187254,-0.009610516999999999,0.01441577549999995,0.021476563500000267
393212.0,-0.010787315,-0.9924329799999999,9.800275677499998,0.0091106186954104,-0.01918465913792167,-0.009471901850573226,9.850403186720564,0.02325449298347086,0.043149259999999995,-0.0024516624999999515,-0.04422799150000145
393222.0,0.004707192,-0.9612478329999999,9.814593386499999,0.0077771871468867325,-0.0085259333959923,-0.007606144880191288,9.861554791027286,0.013821346538201591,0.015494507000000001,0.03118514699999997,0.014317709000000178
393232.0,-0.027556686499999997,-0.944576528,9.797824015,0.0019163715186897737,0.006661921754862355,-0.00041189770347066176,9.843289064999063,0.006944302771601918,-0.032263878499999996,0.016671304999999914,-0.016769371499998798
393242.0,-0.0132389775,-0.969681552,9.833716354,-0.005279620987282847,0.014655529728996385,0.005450663253978291,9.881418669084992,0.01650359595103817,0.014317708999999996,-0.02510502399999992,0.035892339000000106
393252.0,-0.030008348999999997,-0.9744868105,9.820575443,-0.009541715020653,0.017053612121236593,0.008648106443631903,9.86885135547713,0.021369598896032897,-0.016769371499999998,-0.00480525850000002,-0.013140911000000699
393262.0,-0.099439431,-1.006750689,9.83018596,-0.009276424974349861,0.004796164784480418,0.009447467241045306,9.882104591554407,0.014082254585656947,-0.069431082,-0.03226387850000001,0.009610517000000485
393272.0,-0.063547092,-1.029502117,9.794293621,-0.007143632628412791,-0.005328490206338688,0.005982988675836562,9.848456750992534,0.01073407883816584,0.035892338999999995,-0.022751428000000073,-0.035892339000000106
393282.0,-0.0742363405,-1.0092023515,9.7798778455,-0.006344271830999388,-0.00506320016003555,0.0030525808617380824,9.832090881060125,0.008672025763548329,-0.010689248499999998,0.020299765500000122,-0.014415775499999839
393292.0,-0.068254284,-0.9864509235,9.799000813,-0.008742354223239598,0.0015987215948268059,0.00731642022436023,9.848764440524151,0.011511501770046693,0.005982056499999999,0.022751427999999962,0.019122967499999532
393302.0,-0.0718827445,-0.994786576,9.7906651605,-0.014337879805133418,0.012524482712311309,0.008915141819187036,9.841335872013268,0.02102182718446841,-0.0036284604999999998,-0.008335652500000013,-0.008335652499999568
393312.0,-0.11620880249999999,-1.0246968585,9.8265574995,-0.023397883952235982,0.021317451483858742,0.00838107106807677,9.880523287183626,0.03274350414138851,-0.04432605799999999,-0.02991028250000005,0.035892339000000106
393322.0,-0.170047311,-1.0582356015,9.807434532,-0.026595327141889596,0.01305680813416958,0.0014538592669112766,9.86582742478939,0.029663198937481945,-0.05383850850000002,-0.03353874300000004,-0.019122967499999532
393332.0,-0.1569064,-1.049899949,9.7583032155,-0.02233323310851944,-0.004796164784480418,-0.006539748707222752,9.815874447389229,0.023760151743475476,0.013140911000000005,0.008335652500000013,-0.049131316500000466
393342.0,-0.13170330949999998,-1.051076747,9.7428087085,-0.011674507366590071,-0.022116812281272148,-0.013735741213195374,9.800225998426813,0.028532754763840634,0.025203090500000025,-0.0011767979999999234,-0.015494506999999658
393352.0,-0.12101406099999999,-1.017538004,9.698482650499999,-0.00048345620280242926,-0.03197617722578811,-0.019331266795089192,9.75246603247576,0.03736853644147649,0.010689248499999984,0.03353874300000004,-0.04432605800000111
393362.0,-0.0742363405,-1.0019454305,9.669749165999999,0.005646140130201656,-0.028244663285024237,-0.023061035406601076,9.721803053616563,0.036897848941080266,0.046777720499999995,0.015592573499999984,-0.028733484500000017
393372.0,-0.07786480099999998,-0.958894237,9.705641505,0.008576547944300135,-0.01332384350972471,-0.025726153174396416,9.753205529904783,0.030214515347180716,-0.003628460499999986,0.04305119349999997,0.035892339000000106
393382.0,-0.0742363405,-0.945753326,9.763108474,0.008044222522441864,0.004529129408925285,-0.02918888641035317,9.809090042556521,0.030613944846586708,0.003628460499999986,0.013140911000000033,0.057466969000000034
393392.0,-0.024026292499999997,-0.9744868105,9.806257733999999,0.005379104754646523,0.01918465913792167,-0.026790804018112957,9.854587386197585,0.033387618874915884,0.050210048,-0.028733484500000017,0.043149259999999856
393402.0,-0.018044235999999998,-0.9636994954999999,9.866078299,-0.0026145032194875057,0.02984338487985104,-0.019331266795089192,9.91304914312839,0.035653346604134516,0.005982056499999999,0.010787315000000075,0.05982056500000077
393412.0,-0.028831550999999997,-0.9636994954999999,9.892458187499999,-0.00847706417693646,0.02744530248761083,-0.008138470302049559,9.939329804740145,0.02985531685569087,-0.010787314999999999,0.0,0.026379888499999282
393422.0,-0.07786480099999998,-0.9804688669999999,9.9283505265,-0.006878342582109653,0.012524482712311309,0.001186823891356144,9.976949749469716,0.014338159395017949,-0.04903324999999999,-0.01676937150000002,0.035892339000000106
393432.0,-0.09698776849999999,-0.9804688669999999,9.958260809,-0.0012828170002158322,-0.0101264003200711,0.004651302456564889,10.006881840336689,0.011217139450003525,-0.019122967500000004,0.0,0.029910282500001273
393442.0,-0.08629852,-1.0007686325,9.913934751,-0.00048345620280242926,-0.025314255470925754,0.0006544984694978735,9.964692044284938,0.025327329669625608,0.010689248499999984,-0.020299765500000122,-0.04432605800000111
393452.0,-0.07305954249999999,-1.0127327455,9.915111549,-0.011674507366590071,-0.025579545517228894,-0.006539748707222752,9.966965553249969,0.02886824525796766,0.013238977500000013,-0.011964112999999887,0.0011767980000012557
393462.0,-0.0575650355,-0.9899813175,9.915111549,-0.028461084112271533,-0.016521286699378322,-0.013735741213195374,9.964577952498757,0.035660297386936136,0.01549450699999999,0.022751427999999962,0.0
393472.0,-0.0599186315,-1.0127327455,9.891183323,-0.04151789224644111,-0.0085259333959923,-0.01906423141953406,9.943074242174909,0.04647442131406847,-0.0023535959999999995,-0.022751427999999962,-0.023928226000000663
393482.0,-0.046777720499999995,-1.029502117,9.810964925999999,-0.04498237081164986,-0.005328490206338688,-0.022528709984742806,9.864942754179815,0.05059001151702248,0.013140911000000005,-0.01676937150000013,-0.08021839700000122
393492.0,-0.028831550999999997,-0.994786576,9.760754877999998,-0.03805341368123236,-0.008792968771547434,-0.020395917638805737,9.811359099458324,0.044061003721446904,0.017946169499999998,0.03471554100000007,-0.050210048000000285
393502.0,-0.0036284604999999998,-0.9768404065,9.747613967,-0.0281940487367164,-0.013856168931582983,-0.014001031259498512,9.796438556697538,0.034393701137829864,0.025203090499999997,0.017946169499999942,-0.013140910999998923
393512.0,0.004707192,-0.9685047539999999,9.7355517875,-0.02179916235740918,-0.012789772758614447,-0.003077015471266003,9.783608343718159,0.025460750006865308,0.008335652499999999,0.008335652500000124,-0.012062179499999104
393522.0,0.015494507,-0.9636994954999999,9.6853417395,-0.024996605547062786,-0.005328490206338688,0.004651302456564889,9.733180436438802,0.025978023621841286,0.010787314999999999,0.00480525850000002,-0.050210048000000285
393532.0,0.02745862,-1.0019454305,9.656608255,-0.03378957431861022,0.006661921754862355,0.006782349473249964,9.708487606833842,0.03510152131287311,0.011964113,-0.038245935000000064,-0.028733484500000017
393542.0,-0.0012748644999999999,-1.0319537795,9.623069512,-0.03938684522975603,0.017585937543094867,0.0051836278784231585,9.67824349048358,0.04344489353657521,-0.0287334845,-0.030008349000000045,-0.03353874299999937
393552.0,-0.039520799499999995,-1.060687264,9.637387221,-0.03698876283751582,0.023448498500543816,0.00012042771838760874,9.69566149435401,0.04379514997137643,-0.038245934999999995,-0.028733484500000017,0.014317708999998402
393562.0,-0.06227222749999999,-1.0366609715,9.6541565925,-0.028461084112271533,0.021050416108303608,-0.003342305517569141,9.70985495837401,0.035557338670818665,-0.022751427999999997,0.0240262925000001,0.016769371500000574
393572.0,-0.052759777,-1.0439178924999999,9.673377626499999,-0.018601719167755566,0.011990411961201045,-0.004941027112395947,9.729685650894456,0.022676147907455306,0.009512450499999991,-0.007256920999999972,0.019221033999999193
393582.0,-0.07904159899999999,-1.0474482864999999,9.730844595499999,-0.005811946409141118,0.0031974431896536117,-0.004675737066092809,9.787376156510783,0.008115718152143086,-0.02628182199999999,-0.0035303939999999923,0.057466969000000034
393592.0,-0.056290171,-1.0246968585,9.716428819999999,-0.0015481070465189703,-0.0063948863793072235,-0.0036093408931242737,9.770473952132392,0.007504568536199125,0.02275142799999999,0.02275142799999985,-0.014415775499999839
393602.0,-0.05511337299999999,-1.0211664645,9.6853417395,0.0016493361431346415,-0.010391690366374239,-0.0012112585008840647,9.73918184669553,0.01059125514467522,0.0011767980000000067,0.0035303939999999923,-0.031087080499998976
393612.0,-0.053936574999999994,-1.029502117,9.6888721335,0.006977826349473329,-0.009060004147102564,0.0014538592669112766,9.743563361642549,0.011527681574232685,0.0011767979999999997,-0.008335652500000013,0.0035303940000002143
393622.0,-0.028831550999999997,-1.0570588035,9.670925964,0.011773991133953747,-0.0031974431896536117,0.0009197885158010117,9.72856688179504,0.012235052966263902,0.025105023999999997,-0.027556686499999872,-0.017946169500000053
393632.0,-0.039520799499999995,-1.076181771,9.670925964,0.014971434323607358,0.007194247176720627,-0.0022776546738526,9.730700802048903,0.016765701564776938,-0.010689248499999998,-0.019122967499999977,0.0
393642.0,-0.050308114499999994,-1.0713765124999999,9.738003449999999,0.018170622842512963,0.01625425132382319,-0.005475097863506212,9.7968918402794,0.024986974950918568,-0.010787314999999999,0.00480525850000002,0.06707748599999874
393652.0,-0.09228057649999999,-1.0738281749999998,9.793018756499999,0.022432716875883118,0.01598721594826806,-0.007873180255746421,9.852148954384713,0.028649691578611507,-0.041972461999999995,-0.0024516624999999515,0.05501530649999964
393662.0,-0.10542148749999998,-1.075004973,9.784683103999999,0.029626964052603743,0.0034644785652087444,-0.009471901850573226,9.844123771453939,0.03129658983611406,-0.013140910999999991,-0.0011767980000001454,-0.008335652499999568
393672.0,-0.11738560049999999,-1.0713765124999999,9.8396984105,0.04028568979453311,-0.017320647496791724,-0.01027126264798663,9.89854998574729,0.04503821120241557,-0.011964113000000012,0.003628460500000097,0.055015306500001415
393682.0,-0.12336765699999998,-1.0821638275,9.856467782,0.050944415536462485,-0.046631706954784496,-0.010004227272431498,9.916463848870075,0.0697849133494276,-0.005982056499999985,-0.010787315000000186,0.016769371499998798
393692.0,-0.11022674599999999,-1.061864062,9.8600962425,0.06027145505912018,-0.06981317007977318,-0.011602948867258302,9.917721670477727,0.09295781534624774,0.013140910999999991,0.020299765500000122,0.003628460499999875
393702.0,-0.12572125299999998,-1.049899949,9.840973275,0.06373418829507693,-0.08233765279208449,-0.014535102010608775,9.897618437565185,0.105132321459202,-0.01549450699999999,0.011964112999999887,-0.019122967499999532
393712.0,-0.11493393799999999,-1.0547052075,9.8589194445,0.06320186287321866,-0.08713381757656491,-0.01773254520026239,9.915841139206092,0.10909271650935537,0.010787314999999992,-0.00480525850000002,0.017946169500000053
393722.0,-0.12572125299999998,-1.1013848615,9.876865614,0.06639930606287227,-0.0916629469854902,-0.024659757001427883,9.938879655354162,0.11584069799110001,-0.010787314999999992,-0.04667965399999985,0.017946169500000053
393732.0,-0.12572125299999998,-1.0894207484999998,9.907952694499999,0.07252890239587635,-0.09805783336479741,-0.03638487891632579,9.968458757359032,0.1272778055306762,0.0,0.01196411300000011,0.031087080499998976
393742.0,-0.111403544,-1.0331305775,9.8948117835,0.07838971802407331,-0.10898359448228193,-0.048642326253081965,9.949224581376766,0.14278812156998025,0.014317708999999984,0.05629017099999989,-0.013140910999998923
393752.0,-0.0348136075,-0.9672298894999999,9.857742646499998,0.0853186751544908,-0.11644487703455768,-0.05477017725683406,9.905141883437821,0.1543970790994953,0.07658993649999998,0.06590068800000004,-0.03706913700000136
393762.0,0.043051193499999994,-0.875145446,9.821752241,0.08585100057634908,-0.11804359862938449,-0.0481082555019717,9.860758086501507,0.15368503416005902,0.077864801,0.09208444349999989,-0.03599040549999799
393772.0,0.1579851315,-0.8583760744999999,9.7571264175,0.07838971802407331,-0.11244632771823868,-0.03345272577297532,9.796085172870104,0.14109645413990085,0.11493393799999999,0.01676937150000013,-0.06462582350000012
393782.0,0.2501676415,-0.889463155,9.7331981915,0.05307720788239956,-0.07993957039984427,-0.02146231381177427,9.77695635604328,0.09832678082017225,0.09218251,-0.031087080500000086,-0.023928226000000663
393792.0,0.18789541399999998,-0.8583760744999999,9.684164941499999,0.018170622842512963,-0.02478018471981549,-0.008937831099462962,9.72394800408013,0.032001779856682316,-0.0622722275,0.031087080500000086,-0.049033250000000805
393802.0,0.1028717585,-0.9062325265,9.691323795999999,-0.011140436615479804,0.019718729889031932,-0.0009442231253289323,9.73414592605326,0.022667800813721,-0.08502365549999999,-0.047856452000000105,0.007158854500000089
393812.0,0.0226533615,-0.9552657764999999,9.69485419,-0.023397883952235982,0.04849571859591444,-0.006274458660919614,9.741829584010384,0.05420945053276239,-0.080218397,-0.04903324999999992,0.0035303940000002143
393822.0,-0.06227222749999999,-0.9936097779999998,9.724862539,-0.018336429121452426,0.04849571859591444,-0.019596556841392332,9.77568870329352,0.055426387173422104,-0.084925589,-0.03834400149999995,0.030008349000000933
393832.0,-0.1077750835,-1.0594123995,9.767913732499999,0.0035150931135165798,0.020783380732748477,-0.036117843540770654,9.825787947355664,0.04181869697054968,-0.045502856,-0.06580262150000016,0.04305119349999842
393842.0,-0.10542148749999998,-1.060687264,9.7428087085,0.03175975639854082,-0.018919369091618534,-0.05317145566200725,9.800943459303394,0.06475977416989923,0.0023535960000000133,-0.001274864500000028,-0.025105023999998366
393852.0,-0.0934573745,-1.030678915,9.761931676,0.060004419683565055,-0.05915444433784381,-0.07049210315879897,9.816636050784718,0.10985861492951396,0.011964112999999985,0.030008349000000045,0.019122967499999532
393862.0,-0.07305954249999999,-0.991256182,9.740357046,0.08238652201114033,-0.09139591160993506,-0.08168315432258662,9.790938764932879,0.14769187306074316,0.020397832000000005,0.03942273299999999,-0.021574629999999928
