timestamp,ax,ay,az,gx,gy,gz,acc_mag,gyro_mag,dax,day,daz
253622.0,-0.169262779,0.2721345375,10.113794278,0.013261011656652916,0.019701276596511993,-0.0531557476987393,10.118870578901614,0.05821965512696021,0.0,0.0,0.0
253632.0,0.37177010149999995,0.31283213499999996,9.834893152,-0.011519173063162575,-0.04344997172839884,-0.0531557476987393,9.846887846640403,0.069614114263343,0.5410328805,0.04069759749999996,-0.27890112600000094
253642.0,0.527401637,0.3762811605,9.858821378,0.005801474433629151,-0.032258920564611195,-0.045961500522018674,9.880085979472412,0.05645134712151226,0.15563153550000003,0.06344902550000003,0.023928226000000663
253652.0,0.481898781,0.430119669,9.8336182875,0.03644422011089359,-0.018935077054886482,-0.04676086131943207,9.854809891065601,0.06223581343487774,-0.04550285599999998,0.05383850849999999,-0.025203090499999803
253662.0,0.4735631285,0.37265269999999995,9.858821378,0.04177271031723229,-0.011740829878165854,-0.05075766530649909,9.877220815330688,0.06677684479549792,-0.008335652500000013,-0.057466969000000034,0.025203090499999803
253672.0,0.493862894,0.32116778749999997,9.874315884999998,0.027651251339346164,-0.013873622224102926,-0.062482787221396996,9.891873609309865,0.06972207536500322,0.02029976550000001,-0.05148491249999998,0.015494506999997881
253682.0,0.483075579,0.3343086985,9.8551929175,0.01752485101927506,-0.014138912270406064,-0.07713831695039337,9.872687160143439,0.08035763302498009,-0.01078731500000002,0.013140911000000033,-0.019122967499997756
253692.0,0.4843504435,0.39658092599999994,9.86352857,0.01432740782962145,-0.019469147805996744,-0.08673064651935421,9.883373292261702,0.0900362559032372,0.001274864500000028,0.062272227499999944,0.008335652499999568
253702.0,0.4974913544999999,0.43973018599999997,9.8767675475,0.015659094048893124,-0.02799508120198905,-0.08699768189490936,9.899060433780118,0.09272285830918868,0.013140910999999922,0.04314926000000002,0.01323897750000036
253712.0,0.515437524,0.44924263649999996,9.898244110999999,0.012196360812936374,-0.03838677156836328,-0.08086808556190526,9.921831044144165,0.09034347077110036,0.017946169500000053,0.009512450499999991,0.02147656349999849
253722.0,0.535835356,0.44443737799999994,9.837246748,0.003935717463247213,-0.051178289656229725,-0.07314151296332637,9.861849101093554,0.08935540343287528,0.020397832000000005,-0.00480525850000002,-0.06099736299999847
253732.0,0.5537815254999999,0.42531441049999996,9.7977259485,-0.0019268434942017398,-0.05997125842777716,-0.06754598738143254,9.822576041328174,0.09034780005398596,0.017946169499999942,-0.019122967499999977,-0.03952079949999998
253742.0,0.630371462,0.41815555599999993,9.745064238,-0.003792600464583678,-0.05677381523812355,-0.06088406562657019,9.774379737449543,0.08333378283863667,0.07658993650000012,-0.007158854500000034,-0.05266171050000068
253752.0,0.6351767205,0.386970409,9.7367285855,-0.00032812189937493397,-0.041584214758016894,-0.053955108496152704,9.765094936118112,0.06812127651368058,0.004805258499999909,-0.031185146999999913,-0.008335652499999568
253762.0,0.644689171,0.373829498,9.735453720999999,0.0018029251173101424,-0.022399555620095227,-0.05129173605760936,9.763935260667818,0.05599850729046116,0.009512450500000047,-0.013140911000000033,-0.0012748645000009162
253772.0,0.630371462,0.340290755,9.778602980999999,0.0010035643198967395,-0.005878268920716902,-0.05422214387170784,9.8048070984627,0.05454907948712444,-0.014317708999999956,-0.03353874299999998,0.043149259999999856
253782.0,0.6339999224999999,0.34754767599999997,9.843228804499999,0.00047123889803846896,0.0015812683023068625,-0.05875301860988511,9.86974663233872,0.05877618285765427,0.003628460499999875,0.007256920999999972,0.06462582350000012
253792.0,0.6506712275000001,0.39059886949999995,9.868333828499999,0.0063337998554874216,0.001848303677861995,-0.06115110100212532,9.897472054715207,0.061506019224683225,0.016671305000000136,0.04305119349999997,0.025105024000000142
253802.0,0.6687154635,0.4229608145,9.8851032,0.015393804002589986,0.0013159782560037245,-0.05821894785877485,9.916720299392171,0.06023410072561202,0.018044235999999936,0.03236194500000006,0.016769371500000574
253812.0,0.6734226554999999,0.46483520999999994,9.940216572999999,0.017791886394830196,-0.003480186528476693,-0.05075766530649909,9.973839549719067,0.05389808444765098,0.004707191999999916,0.04187439549999994,0.0551133729999993
253822.0,0.6746975199999999,0.4696404685,9.9605163385,0.00873188224772763,-0.008543386688512244,-0.040633010315679986,9.994381653842947,0.04242966828778874,0.001274864500000028,0.004805258500000076,0.020299765500000788
253832.0,0.6746975199999999,0.4719940645,9.967675193,-0.0045919612619970815,-0.01227490062927612,-0.02784323755706554,10.001627062311659,0.030773449129882568,0.0,0.002353595999999958,0.007158854500000089
253842.0,0.6710690595,0.4612067495,9.9234472015,-0.016315337847642993,-0.013606586848547793,-0.016385151017722765,9.956799169881894,0.02682913767945938,-0.003628460499999986,-0.010787314999999964,-0.044227991499999675
253852.0,0.6926436895,0.43973018599999997,9.919818741,-0.025907667416603827,-0.01280722605113439,-0.007325146870620201,9.953688852449558,0.029814259118253597,0.02157463000000004,-0.021476563500000045,-0.003628460499999875
253862.0,0.6878384309999999,0.41335029749999996,9.919818741,-0.035501742314816655,-0.012540190675579259,0.0017348572764823635,9.952225079342746,0.0376913759278869,-0.004805258500000131,-0.026379888500000004,0.0
253872.0,0.667440599,0.38461681299999995,9.871962289,-0.04296127953784042,-0.014938273067819467,0.007597418233931317,9.901971848145898,0.046114469590340934,-0.020397831999999894,-0.028733484500000017,-0.04785645199999955
253882.0,0.651946092,0.33793715899999993,9.8767675475,-0.04722511890046257,-0.02053379864971329,0.011594222220998332,9.904028090512275,0.052785175296286416,-0.01549450699999999,-0.046679654000000015,0.004805258499999354
253892.0,0.6579281484999999,0.30204482,9.842052006499998,-0.049357911246399634,-0.025329963434193706,0.009995500626171525,9.868641660356714,0.05637127356156546,0.005982056499999944,-0.03589233899999994,-0.0347155410000024
253902.0,0.6602817445,0.29488596549999996,9.785761835499999,-0.05068959746567132,-0.02639635960716224,0.007862708280234455,9.812444364983536,0.057689039455016806,0.002353596000000069,-0.007158854500000034,-0.05629017099999878
253912.0,0.6579281484999999,0.2876290445,9.777426183,-0.052555354436053255,-0.023731241839366896,0.006531022060962781,9.803757579614183,0.05803353658272502,-0.002353596000000069,-0.007256920999999972,-0.008335652499999568
253922.0,0.6542996879999999,0.28282378599999997,9.771444126499999,-0.053620005279769796,-0.01840275163302821,0.006531022060962781,9.797408723379647,0.05706505483244755,-0.003628460499999986,-0.00480525850000002,-0.00598205650000061
253932.0,0.6483176315,0.293611101,9.757028351,-0.05761680926683681,-0.01333955147299266,0.005998696639104511,9.78295075486747,0.05944429917964949,-0.005982056499999944,0.01078731500000002,-0.014415775499998063
253942.0,0.6279197995,0.32714984399999997,9.780956577,-0.0661444879920811,-0.008011061266653973,0.0067980574365179135,9.80654994665264,0.06697375589932851,-0.020397832000000005,0.03353874299999998,0.023928225999998887
253952.0,0.6124252925,0.29723956149999997,9.796549150499999,-0.07920129612625067,-0.010142108283339049,0.00839677903134472,9.820172674346244,0.08028831525577215,-0.01549450699999999,-0.029910282499999996,0.015592573499999318
253962.0,0.6255662034999999,0.281646988,9.796549150499999,-0.0863955433029713,-0.009875072907783916,0.009728465250616393,9.82054139846542,0.08750057144774592,0.013140910999999922,-0.015592573499999984,0.0
253972.0,0.6351767205,0.29841635949999995,9.8096900615,-0.08452978633258938,-0.007476990515543708,0.010794861423584929,9.83476084572341,0.08554366836743177,0.00961051700000004,0.016769371499999963,0.013140911000000699
253982.0,0.643512373,0.25654196399999996,9.832441489499999,-0.08186466856479403,-0.005878268920716902,0.008662069077647858,9.856816301318496,0.08253126344261176,0.008335652500000013,-0.041874395499999995,0.022751427999999407
253992.0,0.619584147,0.246931447,9.861174973999999,-0.08133234314293576,-0.009342747485925645,0.002534218073895766,9.883705353893099,0.08190640532310083,-0.023928225999999997,-0.009610516999999957,0.028733484500000017
254002.0,0.6136020904999999,0.30685007849999996,9.871962289,-0.08053298234552236,-0.017071065413756536,-0.007325146870620201,9.895772023019708,0.08264768778678039,-0.005982056500000055,0.05991863149999996,0.01078731500000174
254012.0,0.6112484945,0.315185731,9.912659886499998,-0.07733553915586874,-0.029328512750512712,-0.012388347030655751,9.936487950603103,0.08363263967398046,-0.002353595999999958,0.008335652500000068,0.040697597499997684
254022.0,0.6136020904999999,0.352254868,9.907854628,-0.07360577054435685,-0.0439822971502571,-0.009456193887305276,9.933084835391103,0.08626512344439284,0.002353595999999958,0.037069136999999974,-0.004805258499997578
254032.0,0.619584147,0.3809883525,9.916288346999998,-0.06907489580617958,-0.054641022892186475,-0.003061307507998054,9.94292769866111,0.0881269210684087,0.005982056500000055,0.028733484500000017,0.008433718999997453
254042.0,0.5992843815,0.386970409,9.897067312999999,-0.06987425660359298,-0.059171897630363755,0.001467821900927231,9.922743031309663,0.09157444898122973,-0.02029976550000001,0.005982056499999999,-0.019221033999999193
254052.0,0.5860454039999999,0.37147590199999997,9.836069949999999,-0.07360577054435685,-0.05810550145739522,0.003066543495754037,9.860512949264313,0.09382676828099336,-0.013238977500000026,-0.015494507000000046,-0.06099736300000025
254062.0,0.5944791229999999,0.35706012649999996,9.794097488,-0.08266402936220743,-0.04984485810770606,0.006263986685407649,9.818617161600047,0.09673204825376235,0.008433719000000006,-0.014415775500000005,-0.0419724619999986
254072.0,0.5812401455,0.33313190049999997,9.791743892,-0.0871949041003847,-0.03758741077094988,0.009461429875061262,9.814635266600124,0.09542160868912296,-0.013238977499999915,-0.023928225999999997,-0.002353596000000735
254082.0,0.575258089,0.29243430299999995,9.778602980999999,-0.08959298649262493,-0.02852740662384732,0.012393583018411734,9.799873261963803,0.09483837333792827,-0.005982056500000055,-0.040697597500000016,-0.013140911000000699
254092.0,0.570550897,0.2637008185,9.791743892,-0.08479682170814451,-0.02133315944712669,0.014524630035096811,9.8118966002636,0.08863729204717287,-0.004707192000000027,-0.02873348449999996,0.013140911000000699
254102.0,0.5381889519999999,0.233790536,9.818123780499999,-0.07973362154810894,-0.016271704616343134,0.012660618393966868,9.83564232432217,0.08235599574054239,-0.032361945,-0.029910282499999996,0.026379888499999282
254112.0,0.5130839279999999,0.23741899649999998,9.824105836999998,-0.07866722537514041,-0.01467298302151633,0.00839677903134472,9.840359667900783,0.08046325047544421,-0.02510502400000003,0.003628460499999986,0.0059820564999988335
254122.0,0.5262248389999999,0.2170211645,9.820477376499998,-0.08133234314293576,-0.018935077054886482,0.0006684611035138282,9.836960235223572,0.08351008336986408,0.013140911000000033,-0.020397831999999977,-0.003628460499999875
254132.0,0.5177911199999999,0.22898527749999997,9.825282634999999,-0.08186466856479403,-0.024797638012335435,-0.007325146870620201,9.841581212330421,0.08585106048786209,-0.008433719000000006,0.01196411299999997,0.0048052585000011305
254142.0,0.5310300975,0.21339270400000002,9.7989027465,-0.07626914298290022,-0.03092723434533952,-0.013987068625482556,9.815601074103231,0.08348121994994792,0.013238977500000026,-0.015592573499999957,-0.026379888499999282
254152.0,0.5645688405,0.22545488349999998,9.765364003499998,-0.06721088416504964,-0.03598868917612307,-0.016118115642167634,9.784268087139223,0.07792485066214505,0.03353874300000004,0.012062179499999964,-0.03353874300000115
254162.0,0.5692760324999999,0.2278084795,9.740258979499998,-0.05761680926683681,-0.03705508534909161,-0.014519394047340827,9.759539788957335,0.07002563004944312,0.004707191999999916,0.0023535960000000133,-0.025105024000000142
254172.0,0.5848686059999999,0.22300322099999997,9.706720236499999,-0.05388704065532492,-0.031192524391642655,-0.013720033249927426,9.726881281918647,0.06375755673558216,0.015592573499999984,-0.00480525850000002,-0.03353874299999937
254182.0,0.6136020904999999,0.201428591,9.660040582499999,-0.05495343682829346,-0.023731241839366896,-0.01478642942289596,9.681604467147226,0.06165785070498356,0.028733484500000017,-0.021574629999999984,-0.04667965400000007
254192.0,0.6147788885,0.1954465345,9.640917615,-0.0552187268745966,-0.013074261426689522,-0.0150517194691991,9.662476126170281,0.0587077368707412,0.0011767980000000344,-0.005982056499999999,-0.019122967499999532
254202.0,0.618407349,0.197898197,9.6445460755,-0.05415407603088005,-0.0016161748873467492,-0.013187707828069155,9.666377829782752,0.05576012562560583,0.003628460500000097,0.002451662500000007,0.003628460499999875
254212.0,0.63154826,0.21221590599999998,9.628953502,-0.049357911246399634,0.009042550854582622,-0.007592182246175334,9.651975670252515,0.050750491227418836,0.013140910999999922,0.014317708999999984,-0.015592573499999318
254222.0,0.6423355749999999,0.20025179299999998,9.687597269,-0.04722511890046257,0.016770868782413514,-0.0006632251157578452,9.71093386950228,0.0501189960238025,0.010787314999999964,-0.011964112999999998,0.058643766999999514
254232.0,0.6375303164999999,0.1703415105,9.724666405999999,-0.04562639730563576,0.021032962815783665,0.00386590429316744,9.747030206305967,0.05038947183594798,-0.00480525850000002,-0.029910282499999996,0.037069136999999586
254242.0,0.65312289,0.16318265599999998,9.782133375,-0.04402767571080896,0.020500637393925398,0.0006684611035138282,9.805270595702602,0.04857117666168157,0.015592573500000095,-0.007158854500000006,0.05746696900000181
254252.0,0.6494944294999999,0.1583773975,9.824105836999998,-0.04402767571080896,0.017835519626130055,-0.002261946710584651,9.846825981531705,0.04755689636374258,-0.003628460500000097,-0.0048052584999999925,0.041972461999996824
254262.0,0.6687154635,0.177500365,9.8096900615,-0.042161918740427025,0.01623679803130325,-0.0038606683054114572,9.834058462984192,0.045344964019702484,0.01922103400000008,0.019122967500000004,-0.014415775499998063
254272.0,0.700979342,0.201428591,9.807336465499999,-0.03869918550447027,0.014638076436476442,0.003066543495754037,9.83441884722778,0.04148859999422588,0.03226387850000001,0.023928225999999997,-0.002353596000000735
254282.0,0.689015229,0.18828767999999999,9.813318522,-0.03230429912516305,0.018901915799098588,0.009461429875061262,9.839279173316609,0.0386052952083639,-0.011964112999999998,-0.013140911000000005,0.00598205650000061
254292.0,0.7046078024999999,0.1356259695,9.8061596675,-0.03336894996887958,0.020500637393925398,0.011060151469888067,9.832376822694012,0.040695084544938205,0.015592573499999873,-0.052661710499999986,-0.007158854500000089
254302.0,0.6913688249999999,0.1176798,9.8336182875,-0.03869918550447027,0.0220993589887522,0.010527826048029796,9.858594626606997,0.04579130646444496,-0.013238977500000026,-0.017946169499999998,0.027458620000000877
254312.0,0.6938204874999999,0.116503002,9.854016119499999,-0.04242895411598215,0.018901915799098588,0.006263986685407649,9.879098820323419,0.046869351365762424,0.0024516625000000625,-0.0011767980000000067,0.020397831999998672
254322.0,0.7021561399999999,0.1116977435,9.8659802325,-0.04189662869412388,0.013306390217204768,0.0067980574365179135,9.89156537555727,0.04448146919174325,0.008335652500000013,-0.0048052584999999925,0.01196411300000122
254332.0,0.7428537374999999,0.12366185649999999,9.873139087,-0.037632789331501736,0.010108947027551158,0.008129743655789588,9.901817982639246,0.039805908792337315,0.040697597500000016,0.011964112999999985,0.007158854500000089
254342.0,0.7297128265,0.12248505849999998,9.836069949999999,-0.03336894996887958,0.0061121430404841425,0.010794861423584929,9.863861082761018,0.03560019870348099,-0.013140910999999922,-0.0011767980000000067,-0.03706913700000136
254352.0,0.7345180849999999,0.09610516999999999,9.832441489499999,-0.023244294978060482,0.001848303677861995,0.011594222220998332,9.860307229763876,0.026041111044319467,0.004805258499999909,-0.02637988849999999,-0.003628460499999875
254362.0,0.735694883,0.0638412915,9.858821378,-0.021645573383233675,-0.0061453042962720346,0.00839677903134472,9.88643927987638,0.02401669232188238,0.0011767980000000344,-0.032263878499999996,0.02637988850000106
254372.0,0.7488357939999999,0.062566427,9.813318522,-0.020312141834710005,-0.01067443370519732,0.004932300466135976,9.842047044105785,0.02347028395073809,0.013140910999999922,-0.0012748645000000003,-0.04550285600000059
254382.0,0.744128602,0.07815900049999999,9.8061596675,-0.013384930033544514,-0.004546582701445229,-0.0011955505376161158,9.834663371472221,0.014186511458140693,-0.004707191999999916,0.015592573499999998,-0.007158854500000089
254392.0,0.7464821979999999,0.118856598,9.827636231,-0.011519173063162575,0.0061121430404841425,-0.006258750697651665,9.856662541229811,0.014464494491747169,0.002353595999999958,0.0406975975,0.021476563500000267
254402.0,0.7428537374999999,0.1116977435,9.869608693,-0.015250687003926452,0.011175343200519692,-0.011321950857687217,9.898155576376938,0.02203765688463765,-0.003628460499999986,-0.007158854499999992,0.04197246200000038
254412.0,0.747658996,0.13925443,9.9030493695,-0.022710224226950213,0.008243190057169218,-0.013987068625482556,9.932208847246855,0.027916707461499258,0.00480525850000002,0.02755668650000001,0.03344067649999971
254422.0,0.7165719154999999,0.17151830849999997,9.9450218315,-0.029372145981812574,-0.003214896482173555,-0.012121311655100619,9.972279231411727,0.03193719955174653,-0.031087080500000086,0.032263878499999954,0.04197246200000038
254432.0,0.7428537374999999,0.1942697365,9.918641942999999,-0.03283662454702132,-0.021067869400823554,-0.0038606683054114572,9.94831796834401,0.03920463993581128,0.026281822000000066,0.022751428000000046,-0.02637988850000106
254442.0,0.758446311,0.201428591,9.851564457,-0.031503192998497645,-0.032791245986469465,0.007862708280234455,9.882769679313967,0.04614693016816838,0.015592573500000095,0.007158854499999978,-0.06707748599999874
254452.0,0.7524642545,0.1942697365,9.807336465499999,-0.025375341994745556,-0.03412467753499313,0.016123351629923614,9.838078660609806,0.04547927072853876,-0.005982056500000055,-0.007158854499999978,-0.04422799150000145
254462.0,0.771587222,0.178677163,9.7510462945,-0.022977259602505348,-0.03305828136202459,0.025183355777026184,9.78315778300716,0.047486901706091385,0.019122967499999977,-0.015592573500000012,-0.05629017099999878
254472.0,0.770410424,0.176323567,9.729471664499998,-0.030171506779225973,-0.028262116577544176,0.028913124388538065,9.761518380456794,0.05044834800742885,-0.0011767979999999234,-0.0023535960000000133,-0.021574630000001704
254482.0,0.759623109,0.178677163,9.662492245,-0.039763836348186817,-0.02399827721492203,0.03397632454857361,9.693952196137017,0.057545378791347225,-0.010787315000000075,0.0023535960000000133,-0.06697941949999908
254492.0,0.7728620865,0.18465921949999997,9.6121841305,-0.04376064033525382,-0.017071065413756536,0.04516737571236125,9.644972710730265,0.06516522650657941,0.013238977500000026,0.0059820564999999715,-0.050308114499999945
254502.0,0.7488357939999999,0.1919161405,9.561876016,-0.04189662869412388,-0.010409143658894181,0.06035697619246791,9.593073532331337,0.07420675402376067,-0.0240262925000001,0.007256921000000027,-0.050308114499999945
254512.0,0.7393233435,0.14523648649999998,9.588255904499999,-0.0373657539559466,-0.0037472219040318258,0.07101570193439728,9.617813885360539,0.08033349962456232,-0.009512450499999936,-0.046679654000000015,0.026379888499999282
254522.0,0.7165719154999999,0.11287454149999998,9.628953502,-0.031237902952194512,0.0023806290997202655,0.07021634113698388,9.656239512143443,0.07688828609369865,-0.022751428000000073,-0.032361945,0.04069759750000124
254532.0,0.6830331725,0.08649465299999999,9.6696510995,-0.027506389011430633,0.004513421445657336,0.06142162703618445,9.694130596695846,0.0674506388210402,-0.033538742999999926,-0.02637988849999999,0.04069759749999946
254542.0,0.6687154635,0.07815900049999999,9.7020130445,-0.022977259602505348,0.0031799898971336684,0.049431215074983395,9.725345562813247,0.054603221684952456,-0.014317708999999956,-0.008335652499999999,0.03236194499999989
254552.0,0.665087003,0.09610516999999999,9.733100125,-0.015783012425784722,-1.7453292519943296e-05,0.0409052816789911,9.75627054609164,0.04384456471545247,-0.003628460499999986,0.017946169499999998,0.031087080500000752
254562.0,0.6710690595,0.1356259695,9.7414357775,-0.008321729873508963,-0.00268082573106329,0.03877248933305403,9.765464612263877,0.039745992801410446,0.005982056499999944,0.03952079950000001,0.008335652499999568
254572.0,0.651946092,0.12248505849999998,9.723489608,-0.0045919612619970815,-0.006677629718130304,0.04037121092788083,9.746090829317867,0.04117658944919532,-0.019122967499999977,-0.013140911000000019,-0.017946169500000053
254582.0,0.639981979,0.129643913,9.7641872055,-0.0021938788697568722,-0.011208504456307585,0.03983888550602257,9.785996947765343,0.04144370247702548,-0.011964112999999998,0.00715885450000002,0.04069759750000124
254592.0,0.6483176315,0.116503002,9.717507551499999,-0.0024591689160600103,-0.012540190675579259,0.037973128535640624,9.739807067609107,0.04006572581049649,0.008335652500000013,-0.013140911000000005,-0.04667965400000185
254602.0,0.6579281484999999,0.1368027675,9.74388744,-0.0024591689160600103,-0.009342747485925645,0.03477568534598702,9.767032655273251,0.03609269640282618,0.00961051699999993,0.02029976550000001,0.02637988850000106
254612.0,0.621937743,0.1595541955,9.745064238,-0.0021938788697568722,-0.0010821041362364843,0.03424335992412875,9.766193787766865,0.03433062412410023,-0.03599040549999988,0.02275142799999999,0.0011767979999994793
254622.0,0.6064432359999999,0.175146769,9.816848915999998,-0.005391322059410484,0.005845107664929009,0.03690847769192409,9.837122161930878,0.03775536203902905,-0.015494507000000102,0.015592573500000012,0.07178467799999844
254632.0,0.5932042585,0.17396997099999997,9.8851032,-0.011786208438717707,0.009576621605692885,0.03850719928675089,9.904414274340635,0.041393608053044526,-0.013238977499999915,-0.0011767980000000344,0.06825428400000177
254642.0,0.5740812909999999,0.152395341,9.941393371,-0.017914059442469796,0.01037598240310629,0.0393065600841643,9.959121237619184,0.04442499524128203,-0.019122967500000088,-0.021574629999999984,0.056290171000000555
254652.0,0.5418174124999999,0.140431228,9.881572806,-0.02617470279215896,0.006911503837897545,0.03983888550602257,9.897412195041918,0.04816659371308191,-0.03226387850000001,-0.011964112999999998,-0.05982056500000077
254662.0,0.515437524,0.097281968,9.879121143499999,-0.03443534614184812,-0.0016161748873467492,0.03557504614340042,9.893036651624916,0.0495377532118732,-0.02637988849999995,-0.043149259999999995,-0.0024516625000003955
254672.0,0.5177911199999999,0.043443459499999997,9.912659886499998,-0.03416831076629299,-0.01067443370519732,0.02758143816926639,9.926269238921053,0.04519018396769026,0.002353595999999958,-0.0538385085,0.03353874299999937
254682.0,0.5214195805,0.013533176999999999,9.870785491,-0.030970867576639378,-0.023731241839366896,0.017722073224750425,9.884557032823707,0.04285368545494852,0.003628460500000097,-0.029910282499999996,-0.04187439549999894
254692.0,0.5584887175,0.0303025485,9.8408752085,-0.022977259602505348,-0.032258920564611195,0.009995500626171525,9.856756706000727,0.04084730649140301,0.03706913699999992,0.016769371499999998,-0.029910282499999497
254702.0,0.5825150099999999,0.045797055499999996,9.800079544499999,-0.015250687003926452,-0.035189328378709674,0.005998696639104511,9.817483393706102,0.038818251470209175,0.02402629249999999,0.015494506999999998,-0.0407956640000009
254712.0,0.6016379775,0.055407572499999995,9.789390295999999,-0.0075223690760955605,-0.030660198969784384,0.003066543495754037,9.808017160592634,0.03171809462113254,0.019122967500000088,0.009610516999999999,-0.010689248500000303
254722.0,0.5968327189999999,0.0542307745,9.7869386335,-0.007255333700540428,-0.02026850860341015,-0.002261946710584651,9.805269914044521,0.021646448000404907,-0.004805258500000131,-0.0011767979999999928,-0.002451662499998619
254732.0,0.6052664379999999,0.0422666615,9.7869386335,-0.013650220079847652,-0.01547234381892973,-0.009456193887305276,9.805728007013983,0.022696729595114772,0.008433719000000006,-0.011964113000000005,0.0
254742.0,0.587222202,0.051779111999999995,9.758205148999998,-0.02057917721026514,-0.012540190675579259,-0.013720033249927426,9.775995024596286,0.027730817319554343,-0.018044235999999936,0.009512450499999998,-0.028733484500001794
254752.0,0.608796832,0.051779111999999995,9.767815666,-0.024043655775473884,-0.011740829878165854,-0.0150517194691991,9.786906433804697,0.030700142153693325,0.02157463000000004,0.0,0.009610517000002261
254762.0,0.6471408334999998,0.050602313999999995,9.758205148999998,-0.020312141834710005,-0.009875072907783916,-0.013987068625482556,9.779770937119913,0.026565734689283162,0.038344001499999836,-0.0011767979999999997,-0.009610517000002261
254772.0,0.6483176315,0.02549729,9.753399890499999,-0.016315337847642993,-0.008810422064067376,-0.012121311655100619,9.774956536328768,0.022152651811235043,0.0011767980000001454,-0.025105023999999997,-0.004805258499999354
254782.0,0.6483176315,0.0206920315,9.754674755,-0.012850859282434247,-0.011740829878165854,-0.011588986233242348,9.77621723814051,0.020911630076090173,0.0,-0.0048052584999999995,0.0012748645000009162
254792.0,0.6878384309999999,0.011081514499999999,9.757028351,-0.008321729873508963,-0.011740829878165854,-0.01478642942289596,9.781249753959969,0.020633389672905584,0.03952079949999987,-0.009610517,0.002353596000000735
254802.0,0.6806795765,0.044620257499999996,9.794097488,-0.0029932396671702756,-0.0061453042962720346,-0.017449801861439306,9.81782365179226,0.018740860001675266,-0.007158854499999867,0.033538742999999996,0.037069136999999586
254812.0,0.6853867684999999,0.08531785499999998,9.767815666,-0.002726204291615143,0.004246386070102204,-0.013452997874372293,9.792203891043718,0.014368268382231878,0.004707191999999916,0.04069759749999999,-0.02628182199999962
254822.0,0.6687154635,0.1116977435,9.813318522,-0.005124286683855352,0.014905111812031574,-0.0070581114950650685,9.83671068860192,0.017269557319869844,-0.016671304999999914,0.026379888500000018,0.045502855999998815
254832.0,0.6662638009999999,0.127290317,9.7977259485,-0.015250687003926452,0.021032962815783665,0.002801253449450899,9.821178342705887,0.02613074816743543,-0.0024516625000000625,0.015592573499999984,-0.015592573499999318
254842.0,0.651946092,0.093751574,9.812141723999998,-0.022710224226950213,0.021299998191338796,0.012925908440270006,9.834223318410215,0.03371236147758913,-0.014317708999999956,-0.03353874299999998,0.014415775499998063
254852.0,0.639981979,0.048248717999999996,9.832441489499999,-0.024843016572887285,0.020500637393925398,0.016657422381033883,9.85336544114113,0.03626184394619409,-0.011964112999999998,-0.04550285600000001,0.020299765500000788
254862.0,0.655476486,0.02549729,9.836069949999999,-0.021910863429536815,0.01597150798500011,0.012660618393966868,9.857919232616446,0.029924342292862314,0.01549450699999999,-0.022751427999999997,0.003628460499999875
254872.0,0.6722458575,0.0063743225,9.8455824005,-0.020312141834710005,0.012239994044236233,0.0067980574365179135,9.868507887717808,0.024670106303510554,0.01676937150000002,-0.019122967499999997,0.009512450500000824
254882.0,0.667440599,0.0314793465,9.807336465499999,-0.017648769396166664,0.005312782243070739,0.004399975044277704,9.8300720470389,0.018948997249237844,-0.00480525850000002,0.025105023999999997,-0.03824593500000084
254892.0,0.6626353405000001,0.0291257505,9.7749745205,-0.014451326206513048,0.0013159782560037245,0.0067980574365179135,9.797451749319613,0.016024550315298144,-0.004805258499999909,-0.0023535959999999995,-0.032361944999998116
254902.0,0.6758743179999999,0.013533176999999999,9.777426183,-0.011519173063162575,0.0005166174585903216,0.013992304613238539,9.800767929332151,0.018131266642109345,0.013238977499999804,-0.0155925735,0.002451662499998619
254912.0,0.6794047119999999,-0.0044129925,9.766638868,-0.00992045146833577,-0.0005497787143782138,0.018521434022163823,9.79024233689437,0.021018114382783157,0.0035303939999999923,-0.017946169499999998,-0.010787314999999964
254922.0,0.7141202529999999,-0.042756994,9.710348696999999,-0.007255333700540428,0.0023806290997202655,0.014791665410651944,9.73666614984874,0.016646339766967083,0.03471554100000007,-0.0383440015,-0.056290171000000555
254932.0,0.7153951175,-0.052367511,9.704366640499998,-0.004057890510886816,0.008777260808279484,0.0067980574365179135,9.730840889851216,0.011820337034327777,0.001274864500000028,-0.009610516999999999,-0.00598205650000061
254942.0,0.7081381964999999,-0.023634026499999995,9.724666405999999,-0.0008604473212332044,0.01650383340685838,-0.00039618974020271284,9.750443835053654,0.01653099673414141,-0.007256921000000083,0.028733484500000003,0.020299765500000788
254952.0,0.6986257459999999,-0.018828768,9.722312809999998,0.001270599695451872,0.020767672769480525,-0.0035936329298563246,9.747399593274531,0.021114564960729193,-0.009512450499999936,0.004805258499999996,-0.002353596000000735
254962.0,0.6734226554999999,0.024320492,9.757028351,-0.001127482696788337,0.023165755161720734,-0.0043929937272697275,9.780270538256577,0.023605546452733925,-0.025203090500000025,0.043149259999999995,0.0347155410000024
254972.0,0.6687154635,0.043443459499999997,9.794097488,-0.005391322059410484,0.01943424122095686,-0.0025289820861397836,9.816996144938903,0.020326136764634857,-0.004707191999999916,0.019122967499999997,0.037069136999999586
254982.0,0.6579281484999999,0.059036033,9.794097488,-0.010452776890194039,0.01597150798500011,-0.0006632251157578452,9.816348623914543,0.019099462808813993,-0.010787315000000075,0.015592573500000005,0.0
254992.0,0.6602817445,0.056584370499999995,9.765364003499998,-0.013117894657989381,0.01090830782496456,0.004399975044277704,9.78782447196303,0.017619027222084537,0.002353596000000069,-0.002451662500000007,-0.028733484500001794
255002.0,0.656653284,0.026674088000000002,9.7749745205,-0.012850859282434247,0.0061121430404841425,0.0113271868454432,9.797041998418852,0.01818812905924759,-0.003628460499999986,-0.029910282499999993,0.009610517000002261
255012.0,0.6806795765,-0.029616082999999998,9.778602980999999,-0.008054694497953832,0.0021153390534171274,0.013725269237683408,9.802309832802601,0.016054151438589893,0.02402629249999999,-0.056290171,0.0036284604999980985
255022.0,0.6758743179999999,-0.052367511,9.746241035999999,0.00020420352248333657,0.002647664475275398,0.009995500626171525,9.769788266986682,0.010342236654613222,-0.004805258500000131,-0.022751428,-0.03236194499999989
255032.0,0.6734226554999999,-0.0714904785,9.758205148999998,0.008199556825869361,0.003979350694547071,-0.0019949113350295187,9.781675556438524,0.009329932225128023,-0.0024516624999999515,-0.019122967499999997,0.011964112999999443
255042.0,0.6866616329999999,-0.04511059,9.791743892,0.012461650859239512,0.0021153390534171274,-0.011054915482132083,9.81589464135,0.01679221717837106,0.013238977500000026,0.026379888499999997,0.03353874300000115
255052.0,0.7021561399999999,0.017063571,9.7869386335,0.01619316480000339,-0.0010821041362364843,-0.016917476439581036,9.812108959152962,0.023443347557153785,0.01549450699999999,0.062174161,-0.004805258499999354
255062.0,0.7453053999999999,0.0410898635,9.803708004999999,0.01725781564371993,-0.004279547325890096,-0.01824916265885271,9.832083154828007,0.025478984749326684,0.04314925999999997,0.024026292499999997,0.016769371499998798
255072.0,0.7225539719999999,0.0793357985,9.7869386335,0.01992293341151527,-0.003480186528476693,-0.0158510802666125,9.813895568390334,0.025696142115330355,-0.022751427999999962,0.038245935,-0.016769371499998798
255082.0,0.72373077,0.0985568325,9.8061596675,0.020189968787070404,0.0023806290997202655,-0.006525786073206799,9.833324315875121,0.02135153667553162,0.0011767980000000344,0.019221033999999998,0.019221033999999193
255092.0,0.7189255115,0.108069283,9.816848915999998,0.013795082407763181,0.008510225432724351,0.0067980574365179135,9.843731787314404,0.017576740894231845,-0.00480525850000002,0.009512450500000005,0.010689248499998527
255102.0,0.6853867684999999,0.0889463155,9.837246748,0.0028693212902786776,0.012507029419791366,0.015858061583620478,9.861495325279654,0.020399433981468037,-0.03353874300000004,-0.019122967500000004,0.020397832000002225
255112.0,0.6806795765,0.06501808949999999,9.808513263499998,-0.008054694497953832,0.009042550854582622,0.02251823800923084,9.832318367408668,0.025567887524264674,-0.004707191999999916,-0.02392822600000001,-0.028733484500001794
255122.0,0.6591049465000001,0.0314793465,9.7834082395,-0.012051498485020845,0.006379178416039274,0.025982716574439582,9.80563547458671,0.02934338244963894,-0.021574629999999928,-0.03353874299999999,-0.025105023999998366
255132.0,0.655476486,-0.021182364,9.7641872055,-0.009121090670922365,0.002647664475275398,0.02758143816926639,9.786186688403888,0.02917087852098197,-0.003628460500000097,-0.0526617105,-0.019221033999999193
255142.0,0.6363535185,-0.06187996149999999,9.704366640499998,-0.003525565089028546,-0.0008168140899333463,0.024651030355167913,9.72540522669322,0.0249152582171227,-0.019122967499999977,-0.04069759749999999,-0.059820565000002546
255152.0,0.6387071145,-0.06305675949999999,9.697207786,0.0031363566658338103,-0.00028274333882308137,0.019854865570687493,9.718423831974533,0.02010304364421071,0.002353595999999958,-0.0011767979999999997,-0.007158854499998313
255162.0,0.6327250579999999,-0.081002929,9.697207786,0.011397000015522973,0.0037140606482439333,0.011859512267301468,9.718165532567692,0.01686220291275546,-0.005982056500000055,-0.01794616950000001,0.0
255172.0,0.6016379775,-0.0703136805,9.717507551499999,0.014859733251479722,0.008777260808279484,0.007063347482821052,9.736368177256614,0.01864786468378526,-0.031087080499999864,0.010689248499999998,0.020299765499999012
255182.0,0.6159556865,-0.05354430899999999,9.724666405999999,0.012728686234794645,0.008510225432724351,0.0036006142468643022,9.744301160613977,0.015729202558755522,0.014317708999999956,0.016769371500000012,0.007158854500000089
255192.0,0.6255662034999999,-0.0020593965,9.747417833999998,0.010862929264412706,0.00797790001086608,0.0001361356816555577,9.7674711029343,0.013478451458191732,0.00961051699999993,0.051484912499999994,0.022751427999999407
255202.0,0.6159556865,0.005099457999999999,9.780956577,0.0063337998554874216,0.009576621605692885,-0.0019949113350295187,9.800333615411423,0.011653684963247698,-0.00961051699999993,0.007158854499999999,0.03353874300000115
255212.0,0.630371462,-0.009218250999999998,9.800079544499999,0.005002113636215749,0.008510225432724351,-0.005726425275793395,9.820336666061038,0.011412143715562355,0.014415775500000061,-0.014317708999999998,0.019122967499999532
255222.0,0.6459640354999999,-0.021182364,9.8193005785,0.007133160652900825,0.013306390217204768,-0.008923868465447007,9.84054785459806,0.01753788555958827,0.015592573499999873,-0.011964113,0.01922103400000097
255232.0,0.6052664379999999,0.017063571,9.801354409,0.008464846872172497,0.016770868782413514,-0.01292067245251402,9.820040064951273,0.022800426507226027,-0.040697597500000016,0.038245934999999995,-0.017946169500000053
255242.0,0.5968327189999999,0.000392266,9.800079544499999,0.010597639218109568,0.019168951174653722,-0.018516198034407842,9.818236528362354,0.028681147741728905,-0.008433719000000006,-0.016671305,-0.0012748645000009162
255252.0,0.570550897,0.001569064,9.814495319999999,0.011397000015522973,0.021299998191338796,-0.02890788840078208,9.831065515717572,0.03767290198666593,-0.026281821999999955,0.001176798,0.014415775499999839
255262.0,0.5908506625,-0.030792880999999998,9.794097488,0.012728686234794645,0.018634880423543457,-0.03876725334529805,9.811951809469148,0.044857308809179985,0.02029976550000001,-0.032361944999999996,-0.020397831999998672
255272.0,0.5680992345,-0.046287388,9.780956577,0.013261011656652916,0.023165755161720734,-0.05262342227688103,9.79755024604043,0.0590061964076792,-0.022751427999999962,-0.015494507000000001,-0.013140911000000699
