timestamp,ax,ay,az,gx,gy,gz,acc_mag,gyro_mag,dax,day,daz
167892.0,1.4361838925,-1.5588650839999998,10.155374474,-0.01568178332916905,-0.04528431277224487,0.26807559178932105,10.374213957228834,0.2723253756535226,0.0,0.0,0.0
167902.0,1.285259549,-1.3325276019999999,9.690931529999999,-0.01781457567510612,-0.07059682291391864,0.25501878365515146,9.866188516217175,0.26520906946968503,-0.15092434349999984,0.22633748199999992,-0.46444294400000175
167912.0,1.328408809,-1.3816589184999999,9.775955185499999,-0.025008822851826748,-0.09617811376039953,0.22917220276236744,9.962075643148054,0.2497910512926715,0.043149259999999856,-0.04913131650000002,0.08502365550000057
167922.0,1.385875778,-1.4881591374999998,9.771149927,-0.022876030505889676,-0.10683683950232889,0.20359265724513853,9.980513022209026,0.23105712092616673,0.057466969000000034,-0.10650021899999995,-0.004805258499999354
167932.0,1.4038219475,-1.4426562815,9.786742500499999,-0.018879226518822664,-0.10630276875121863,0.18680433517020506,9.991611580617366,0.21576043074786996,0.017946169500000053,0.045502855999999925,0.015592573499999318
167942.0,1.422944915,-1.423533314,9.809493928499998,-0.015948818704724182,-0.09937555695005314,0.17241584081676384,10.01385991815696,0.19964240106190131,0.019122967499999977,0.019122967499999977,0.022751427999999407
167952.0,1.457660456,-1.4079407405,9.845386267499999,-0.012217304763960306,-0.0975097999796712,0.1652215936400432,10.051800927695663,0.1922383901116698,0.03471554099999996,0.015592573499999984,0.035892339000000106
167962.0,1.47688149,-1.3469433775,9.854898718,-0.010618583169133501,-0.10417172173453355,0.15935903268259424,10.055568812341436,0.1906824669842223,0.01922103400000008,0.06099736300000003,0.009512450500000824
167972.0,1.5175790875,-1.3253687474999998,9.8681376955,-0.012217304763960306,-0.1161621336957346,0.15696095029035403,10.071732233385433,0.19565184322283344,0.040697597499999905,0.02157463000000015,0.01323897750000036
167982.0,1.5797532485,-1.3230151515,9.8824554045,-0.01834690109696439,-0.13454917736549488,0.15722798566590918,10.094994514073603,0.20775160501462447,0.06217416100000017,0.002353595999999847,0.014317709000000178
167992.0,1.6025046765,-1.331350804,9.845386267499999,-0.02261074045958654,-0.15559959347379848,0.15642862486849576,10.063406329757006,0.22179358365739688,0.02275142799999985,-0.008335652500000013,-0.03706913700000136
168002.0,1.6204508459999998,-1.3145814325,9.821458041499998,-0.024474752100716486,-0.1643925622453459,0.15776031108776745,10.040668471168683,0.22915550127913276,0.01794616949999983,0.016769371499999908,-0.023928226000000663
168012.0,1.6779178149999998,-1.3122278365,9.769973129,-0.02367539130330308,-0.16545895841831443,0.162823511247803,9.999486238310542,0.2333424241095079,0.057466969000000034,0.002353596000000069,-0.05148491249999765
168022.0,1.7091029619999998,-1.2906532065,9.729275531499999,-0.02261074045958654,-0.16092808368013714,0.17241584081676384,9.962209644552281,0.23693103609625238,0.03118514699999997,0.021574629999999928,-0.04069759750000124
168032.0,1.7330311879999998,-1.259566126,9.7100544975,-0.024209462054413346,-0.1510687187356212,0.1838739273561066,9.9435940317758,0.2392017495645571,0.023928225999999997,0.031087080500000086,-0.019221033999999193
168042.0,1.734207986,-1.2798658914999999,9.687303069499999,-0.03113667385557884,-0.13827894597700674,0.19346625692506744,9.92418131632405,0.23983275824602618,0.0011767980000001454,-0.0202997654999999,-0.022751428000001184
168052.0,1.721067075,-1.2763354974999999,9.689754731999999,-0.034334117045232454,-0.12735493018877422,0.20066050410178807,9.923832472646039,0.2401306888822147,-0.013140911000000033,0.0035303939999999923,0.0024516625000003955
168062.0,1.6946871864999997,-1.283494352,9.712506159999998,-0.029804987636307165,-0.12282405545059695,0.20572370426182363,9.942439254013127,0.2414463260862298,-0.02637988850000017,-0.007158854500000089,0.022751427999999407
168072.0,1.6791926794999998,-1.293104869,9.725647071,-0.01781457567510612,-0.1262885340158057,0.2086558574051741,9.953894675290108,0.24454737733174267,-0.01549450699999988,-0.00961051700000004,0.013140911000000699
168082.0,1.665953702,-1.307422578,9.7316291275,-0.006888814557621619,-0.13161702422214439,0.21051986904630404,9.959385573913588,0.24837292947174183,-0.013238977499999915,-0.014317708999999956,0.00598205650000061
168092.0,1.653989589,-1.2823175539999998,9.7567341515,-0.0010262536001726657,-0.13561382820921142,0.21425138298706792,9.978671312998708,0.25356620182879386,-0.011964112999999887,0.025105024000000142,0.025105024000000142
168102.0,1.6516359929999997,-1.3182098930000001,9.780760444,-0.002892010570554604,-0.13321574581697118,0.2187805123959932,10.006440607843093,0.25616344638329136,-0.002353596000000291,-0.03589233900000033,0.024026292500000324
168112.0,1.655166387,-1.3193866909999998,9.758009015999999,-0.011684979342102036,-0.1193595768853882,0.22011219861526488,9.984943513379525,0.25066437185154583,0.0035303940000002143,-0.0011767979999997014,-0.022751428000001184
168122.0,1.6312381609999997,-1.3253687474999998,9.769973129,-0.024741787476271614,-0.1052381179075021,0.21824818697413492,9.993493643172764,0.243555925047475,-0.02392822600000022,-0.005982056499999944,0.01196411300000122
168132.0,1.5881869675,-1.331350804,9.796254951,-0.03247010540410251,-0.10070724316932482,0.21851347702043805,10.01306366064055,0.2427846704618736,-0.04305119349999975,-0.005982056500000166,0.02628182199999962
168142.0,1.5666123374999998,-1.344491715,9.819006379,-0.032735395450405644,-0.10550340795380522,0.2219779555856468,10.033684191689188,0.24794513096881915,-0.02157463000000015,-0.013140911000000033,0.022751427999999407
168152.0,1.5773996524999998,-1.3492969734999998,9.814201120499998,-0.025008822851826748,-0.116961494493148,0.22251028100750508,10.031317740956409,0.2526187989215047,0.010787314999999964,-0.004805258499999798,-0.0048052585000011305
168162.0,1.5378788529999998,-1.3840125145,9.805865468,-0.017547540299550992,-0.12522213784283714,0.22224499096120195,10.021754316650958,0.255697743407797,-0.03952079949999998,-0.03471554100000018,-0.008335652499997792
168172.0,1.5403305154999998,-1.366066345,9.808219064,-0.01568178332916905,-0.12841958103249076,0.21638243000375298,10.02197169040779,0.2521088319263578,0.0024516624999999515,0.017946169500000053,0.0023535959999989586
168182.0,1.524737942,-1.3600842885,9.791449692499999,-0.017015214877692718,-0.1270878948132191,0.20758946123220556,10.002356829485603,0.24399638308808447,-0.015592573499999762,0.005982056499999944,-0.016769371500000574
168192.0,1.5403305154999998,-1.3457665794999998,9.7435932405,-0.01514945790731078,-0.12229173002873868,0.19639841006841793,9.95596881372159,0.23185579308205723,0.015592573499999762,0.014317709000000178,-0.04785645199999955
168202.0,1.5295432004999998,-1.296635263,9.748398499,-0.011952014717657168,-0.12415574166986862,0.1924016060813509,9.952489070717753,0.22929430186572358,-0.010787314999999964,0.0491313164999998,0.0048052585000011305
168212.0,1.5546482245,-1.2846711499999999,9.781937242,-0.00742113997947989,-0.12682085943766397,0.1908028844865241,9.987672765565053,0.2292255318141516,0.025105024000000142,0.01196411300000011,0.03353874299999937
168222.0,1.5546482245,-1.2643713844999998,9.797529815499999,-0.006089453760208216,-0.12149236923132528,0.1916022452839375,10.000357822872884,0.22695571732473394,0.0,0.020299765500000122,0.015592573499999318
168232.0,1.560630281,-1.270353441,9.797529815499999,-0.010353293122830362,-0.11562980827387632,0.19213457070579576,10.002047551608927,0.22448415645706732,0.005982056499999944,-0.005982056500000166,0.0
168242.0,1.5714175959999999,-1.2643713844999998,9.785467635999998,-0.01781457567510612,-0.11376405130349439,0.19426561772248083,9.991164352274676,0.22582902538107286,0.010787314999999964,0.005982056500000166,-0.01206217950000088
168252.0,1.5989742825,-1.2990869255,9.803511872,-0.022343705084031405,-0.1145634121009078,0.19479968847359108,10.017643965551299,0.2270923494494976,0.027556686500000094,-0.03471554100000018,0.01804423600000149
168262.0,1.592992226,-1.3110510385,9.8130243225,-0.02367539130330308,-0.11429812205460466,0.19320096687876429,10.027558297592936,0.22572372153024411,-0.005982056499999944,-0.01196411300000011,0.009512450500000824
168272.0,1.6001510805,-1.2918300045,9.797529815499999,-0.022076669708476274,-0.11589684364943145,0.19426561772248083,10.011038843524844,0.2272852567643026,0.007158854500000089,0.01922103400000008,-0.015494507000001434
168282.0,1.6157436539999999,-1.3002637235,9.7890960965,-0.021277308911062873,-0.11749556524425826,0.19639841006841793,10.006383747018845,0.22984835697469538,0.015592573499999762,-0.008433719000000117,-0.008433718999999229
168292.0,1.6336898234999997,-1.3085993759999999,9.808219064,-0.02367539130330308,-0.11562980827387632,0.19506497851989424,10.029084503267887,0.227993689736766,0.01794616949999983,-0.00833565249999979,0.019122967499999532
168302.0,1.584558507,-1.2798658914999999,9.827440097999999,-0.027406905244066956,-0.11802789066611653,0.19559904927100452,10.03630715164245,0.23008848190613732,-0.0491313164999998,0.028733484500000017,0.019221033999999193
168312.0,1.582204911,-1.2894764085,9.8106707265,-0.0316707446066891,-0.12522213784283714,0.20119457485289832,10.020747571527515,0.2390875923591836,-0.002353595999999847,-0.00961051700000004,-0.016769371499998798
168322.0,1.594169024,-1.3122278365,9.759185814,-0.0308713838092757,-0.13295045577066805,0.20918818282703236,9.975220525088428,0.2497770242884719,0.011964112999999887,-0.022751428000000073,-0.051484912499999425
168332.0,1.59652262,-1.3349792645,9.7424164425,-0.027406905244066956,-0.13374981656808144,0.21425138298706792,9.962215228146347,0.2540547322899614,0.002353596000000069,-0.022751428000000073,-0.016769371500000574
168342.0,1.5833817089999997,-1.3696948054999998,9.7220186105,-0.023942426678858212,-0.1278872556106325,0.21291795143854422,9.944888504127022,0.24952443565245874,-0.013140911000000255,-0.03471554099999974,-0.02039783200000045
168352.0,1.5570018204999998,-1.3708716035,9.7543805555,-0.024474752100716486,-0.11509748285201805,0.2062560296836819,9.972536469917744,0.23746156284783856,-0.02637988849999995,-0.0011767980000001454,0.03236194499999989
168362.0,1.5403305154999998,-1.3600842885,9.740062846499999,-0.02341010125699994,-0.1052381179075021,0.19799713166324473,9.954459886029714,0.22544613203257352,-0.016671305000000025,0.010787314999999964,-0.014317709000000178
168372.0,1.528268336,-1.3241919495,9.749575297,-0.0199456226917912,-0.11030131806753764,0.19133520990838238,9.95707320942321,0.22175069601397907,-0.01206217949999977,0.035892338999999884,0.009512450500000824
168382.0,1.5463125719999997,-1.3253687474999998,9.781937242,-0.01301666556137371,-0.12522213784283714,0.19053584911096896,9.991695606532534,0.22837234330081452,0.018044235999999714,-0.0011767979999997014,0.03236194499999989
168392.0,1.5570018204999998,-1.3193866909999998,9.767521466499998,-0.005290092962794812,-0.14440854231001082,0.19320096687876429,9.978452360359622,0.24126422399217537,0.010689248500000081,0.005982056499999944,-0.014415775500001615
168402.0,1.585735305,-1.3002637235,9.7435932405,0.002436479635784084,-0.1574636051149284,0.19799713166324473,9.957050338553621,0.25298930316453694,0.02873348450000024,0.019122967499999755,-0.023928225999998887
168412.0,1.6157436539999999,-1.3182098930000001,9.669356899999999,0.002436479635784084,-0.15719831506862528,0.20119457485289832,9.891651416069104,0.2553360602102039,0.030008348999999823,-0.017946169500000053,-0.07423634050000061
168422.0,1.6192740479999999,-1.3349792645,9.621500447999999,0.0027035150113392165,-0.14387447155890054,0.20119457485289832,9.847714910071039,0.24735890828916576,0.0035303939999999923,-0.016769371499999908,-0.04785645199999955
168432.0,1.6169204519999998,-1.3182098930000001,9.599925817999999,0.002436479635784084,-0.12149236923132528,0.19959585325807153,9.82398517818517,0.23367677859015834,-0.002353596000000069,0.016769371499999908,-0.021574629999999928
168442.0,1.630061363,-1.320563489,9.5437337135,0.0074996797958196346,-0.09884323152819485,0.19906178250696127,9.771583350195698,0.22237765820968822,0.013140911000000255,-0.002353595999999847,-0.05619210449999912
168452.0,1.6252561044999998,-1.283494352,9.516177027,0.016559683942922197,-0.08418770179919847,0.20492434346441024,9.738913715914777,0.22216160516803937,-0.004805258500000242,0.03706913700000003,-0.027556686500000538
168462.0,1.6252561044999998,-1.2715302389999998,9.549715769999999,0.029084166655233508,-0.07246257988430056,0.21345202218965453,9.77012373727644,0.2272850193267713,0.0,0.01196411300000011,0.03353874299999937
168472.0,1.6372202174999997,-1.2320094394999999,9.581979648499999,0.039475857021607746,-0.0602051325475444,0.21904754777154833,9.798605578544123,0.23057499746803978,0.011964112999999887,0.03952079949999998,0.03226387850000023
168482.0,1.6324149589999999,-1.202099157,9.629934166999998,0.04667010419832837,-0.04954640680561503,0.22544243415085555,9.841008741098701,0.2354936011213323,-0.004805258499999798,0.02991028249999994,0.04795451849999921
168492.0,1.6229025085,-1.1494374465,9.694559990499998,0.0530649905776356,-0.043418555801862935,0.2297062735134777,9.896439380146546,0.23972074650386993,-0.009512450499999936,0.052661710500000014,0.06462582350000012
168502.0,1.6336898234999997,-1.179347729,9.7520269595,0.05866051615952942,-0.040488147987764456,0.2358341245172298,9.958003480824845,0.24636980450207321,0.010787314999999742,-0.029910282500000163,0.05746696900000181
168512.0,1.6204508459999998,-1.1949403024999998,9.817829580999998,0.06025923775435622,-0.037023669422555715,0.24116261472356848,10.022151513143248,0.2513191886278385,-0.013238977499999915,-0.015592573499999762,0.06580262149999783
168522.0,1.6132919915,-1.1996474945,9.893242719499998,0.05892755153508455,-0.030361747667693357,0.24542645408619063,10.09545029544685,0.254221235180458,-0.007158854499999867,-0.004707192000000138,0.07541313850000009
168532.0,1.5870101694999998,-1.1984706964999998,9.978266375,0.049335221966123714,-0.030894073089551628,0.24969029344881277,10.174513901849133,0.2563857455496765,-0.026281822000000066,0.0011767980000001454,0.08502365550000235
168542.0,1.5415073135,-1.1949403024999998,10.050051053,0.034412656861572195,-0.03888942639293765,0.2512890150436396,10.237560905411954,0.2565984947715917,-0.045502855999999925,0.0035303939999999923,0.07178467800000021
168552.0,1.492375997,-1.1984706964999998,10.0895718525,0.015493287769953665,-0.04901408138375676,0.2488909326513994,10.269516945482453,0.25414389328862413,-0.04913131650000002,-0.0035303939999999923,0.03952079949999998
168562.0,1.4612889165,-1.205629551,10.1374283045,-0.0012932889757277981,-0.062337924893481465,0.24436180324247408,10.3129220175762,0.2521911583706171,-0.031087080499999864,-0.007158854500000089,0.04785645199999955
168572.0,1.4349090279999999,-1.2236737869999998,10.1027127635,-0.014882422531755648,-0.08099025860954487,0.23769988148761173,10.277214926107783,0.25155942071264065,-0.02637988850000017,-0.018044235999999936,-0.03471554100000063
168582.0,1.389406172,-1.2416199565,10.097907505,-0.024741787476271614,-0.10577044332936036,0.22997156355978082,10.268388656780873,0.25433533528737357,-0.045502855999999925,-0.017946169500000053,-0.004805258499999354
168592.0,1.3774420589999998,-1.2451503505,10.054856311499998,-0.03060434843372057,-0.1294859772054593,0.22357667718047364,10.22486584098607,0.260172586978273,-0.01196411300000011,-0.0035303939999999923,-0.04305119350000197
168602.0,1.3774420589999998,-1.2559376654999999,9.997389342499998,-0.03540051321820099,-0.14680662470225103,0.21931283781785146,10.169686313306634,0.26627711547239435,0.0,-0.010787314999999964,-0.057466969000000034
168612.0,1.3834241155,-1.2750606329999998,9.9028532365,-0.0401966780026814,-0.15506552272268823,0.2147837084089262,10.079987307771367,0.2679424017538143,0.005982056500000166,-0.019122967499999977,-0.09453610599999784
168622.0,1.3798937215,-1.2858479479999998,9.8022370075,-0.04339412119233502,-0.15400087187897168,0.2070553904810953,9.982051992411856,0.26167012252226535,-0.0035303939999999923,-0.010787314999999964,-0.10061622899999989
168632.0,1.3679296085,-1.2763354974999999,9.759185814,-0.043661156567890144,-0.14893767171893613,0.19932881788251638,9.93689948968834,0.2526276000130326,-0.01196411300000011,0.009512450499999936,-0.043051193500000196
168642.0,1.3846989799999998,-1.270353441,9.726823868999999,-0.03806563098599633,-0.14653958932669592,0.19026881373541382,9.906679146354831,0.24315646193897528,0.016769371499999908,0.005982056499999944,-0.03236194500000167
168652.0,1.407450408,-1.2679017784999997,9.6969135865,-0.030070277682610305,-0.14494086773186912,0.18200817038572467,9.880213797026414,0.23460402985868647,0.022751428000000296,0.0024516625000001735,-0.029910282499999497
168662.0,1.419414521,-1.240345092,9.729275531499999,-0.022343705084031405,-0.14387447155890054,0.17481392320900405,9.910196562002124,0.22750607128373215,0.011964112999999887,0.02755668649999965,0.03236194499999989
168672.0,1.4612889165,-1.2296558435,9.780760444,-0.015416493282865913,-0.14120935379110522,0.1684190368296968,9.965475084202184,0.22032412902332085,0.04187439550000005,0.010689248500000081,0.0514849125000012
168682.0,1.5031633119999999,-1.204452753,9.758009015999999,-0.011684979342102036,-0.1380119106014516,0.16495455826448807,9.946303149064448,0.2153922758650384,0.04187439549999983,0.025203090500000025,-0.022751428000001184
168692.0,1.5222862795,-1.1602247614999999,9.7520269595,-0.010885618544688634,-0.1364131890066248,0.1676196760322834,9.938083659980252,0.21638717757581027,0.0191229675000002,0.04422799150000012,-0.0059820564999988335
168702.0,1.5318967964999999,-1.1255092205,9.804688669999999,-0.008754571528003558,-0.13321574581697118,0.1729499115678741,9.98726182275121,0.21848283540714653,0.009610516999999819,0.03471554099999996,0.052661710499998904
168712.0,1.5558250225,-1.1350216709999998,9.830970492,-0.009019861574306696,-0.13001830262731756,0.18014415874459472,10.017826436350926,0.22234665468746348,0.02392822600000022,-0.009512450499999936,0.026281822000001398
168722.0,1.585735305,-1.133844873,9.8226348395,-0.010618583169133501,-0.12921894182990418,0.18573968432648852,10.014205702086961,0.22651604704714315,0.02991028249999994,0.0011767979999999234,-0.008335652500001345
168732.0,1.59652262,-1.1589498969999998,9.8585271785,-0.014882422531755648,-0.1254891732183923,0.19026881373541382,10.053984656301756,0.22841024621441783,0.010787314999999964,-0.02510502399999992,0.035892339000000106
168742.0,1.5905405634999998,-1.136198469,9.845386267499999,-0.020477948113649468,-0.12735493018877422,0.19453265309803597,10.037549352375528,0.23341289108293414,-0.005982056500000166,0.02275142799999985,-0.013140911000000699
168752.0,1.6121151935,-1.1350216709999998,9.8369525485,-0.02341010125699994,-0.12975301258101446,0.20119457485289832,10.032588152226415,0.24054757131376403,0.02157463000000015,0.0011767980000001454,-0.008433718999999229
168762.0,1.6144687894999998,-1.157773099,9.808219064,-0.02554114827368502,-0.13161702422214439,0.21078690442185916,10.007402721408322,0.2498129508171682,0.002353595999999847,-0.022751428000000073,-0.028733484500000017
168772.0,1.604956339,-1.1637551554999999,9.795078153,-0.02953795226075203,-0.13108469880028611,0.21984690856896172,9.993686353664847,0.2576593722158183,-0.009512450499999936,-0.005982056499999944,-0.013140910999998923
168782.0,1.5797532485,-1.178170931,9.769973129,-0.030337313058165435,-0.12655556939136084,0.22704115574568234,9.966748818455383,0.2616951491906105,-0.025203090499999803,-0.014415775500000061,-0.025105024000000142
168792.0,1.5438609094999998,-1.1972938985,9.724470273,-0.0308713838092757,-0.12255702007504182,0.23157028515460765,9.918787288662267,0.26381444705428875,-0.03589233900000033,-0.019122967499999977,-0.04550285600000059
168802.0,1.5295432004999998,-1.2069044155,9.725647071,-0.028471556087783498,-0.11429812205460466,0.23343604212498958,9.91888762009128,0.2614709849567424,-0.014317708999999956,-0.00961051700000004,0.0011767979999994793
168812.0,1.516304223,-1.2092580115,9.749575297,-0.02261074045958654,-0.11190003966236445,0.2361011598927849,9.940608729194464,0.2622529736023748,-0.013238977499999915,-0.002353596000000069,0.023928226000000663
168822.0,1.4995348514999998,-1.2069044155,9.7879192985,-0.017280504923995858,-0.10630276875121863,0.24249604627209215,9.975399101437759,0.26533606417560346,-0.01676937150000013,0.002353596000000069,0.0383440015000005
168832.0,1.4696245689999998,-1.2188685284999998,9.805865468,-0.018613936472519525,-0.10204067471784847,0.24462709328877721,9.990016738729274,0.2657088494928102,-0.02991028249999994,-0.011964112999999887,0.017946169500000053
168842.0,1.419414521,-1.2379914959999998,9.8345989525,-0.020477948113649468,-0.09964259232560828,0.24329540706950556,10.01332597507482,0.26370560795218045,-0.05021004799999984,-0.019122967499999977,0.028733484500000017
168852.0,1.409804004,-1.2463271485,9.8322453565,-0.02314306588144481,-0.10390468635897841,0.24009796387985194,10.010690657551974,0.26263818763653024,-0.00961051700000004,-0.008335652500000235,-0.002353596000000735
168862.0,1.3822473174999999,-1.2810426894999998,9.840581009,-0.02580818364924015,-0.10630276875121863,0.2345024382979581,10.019416780119927,0.2587619264017325,-0.027556686500000094,-0.03471554099999974,0.008335652499999568
168872.0,1.3606726875000001,-1.2798658914999999,9.842934605,-0.027139869868511822,-0.10550340795380522,0.22597475957271382,10.018625080371063,0.2508627784074246,-0.021574629999999706,0.0011767979999999234,0.002353596000000735
168882.0,1.3487085745,-1.2750606329999998,9.870491291499999,-0.029270916885196903,-0.10603747870491549,0.21425138298706792,10.043475134251764,0.2408410026911256,-0.01196411300000011,0.00480525850000002,0.02755668649999876
168892.0,1.328408809,-1.248778811,9.9148173495,-0.027139869868511822,-0.11296469050608099,0.20225922569661486,10.081057561415745,0.23325177001902603,-0.020299765500000122,0.026281821999999844,0.04432605800000111
168902.0,1.338019326,-1.2308326415,9.911188888999998,-0.025274112898129884,-0.12309109082615209,0.19373329230062256,10.076552480961352,0.2309172708335128,0.00961051700000004,0.017946169500000053,-0.003628460500001651
168912.0,1.3475317765,-1.2200453265,9.9148173495,-0.029005626838893763,-0.13508150278735315,0.18733840592131537,10.080077160485327,0.23277460582448933,0.009512450499999936,0.010787314999999964,0.003628460500001651
168922.0,1.354690631,-1.2212221245,9.9016764385,-0.03300243082596078,-0.14307511076148716,0.1814758449638664,10.068255383919972,0.2334376363510893,0.007158854500000089,-0.0011767979999999234,-0.013140911000000699
168932.0,1.3702832044999997,-1.240345092,9.8789250105,-0.03806563098599633,-0.14467383235631395,0.17561328400641743,10.05033787346802,0.2306935966830105,0.015592573499999762,-0.0191229675000002,-0.022751427999999407
168942.0,1.396663093,-1.249955609,9.838227413,-0.04206243497306335,-0.14227574996407374,0.16921839762711022,10.015177255032661,0.22504778061378342,0.02637988850000017,-0.009610516999999819,-0.04069759749999946
168952.0,1.4456963429999998,-1.239168294,9.816652783,-0.045259878162716954,-0.13428214198993974,0.1620241504503896,9.999612384437714,0.2152486365993541,0.04903324999999992,0.010787314999999964,-0.021574629999999928
168962.0,1.500809716,-1.236814698,9.8118475245,-0.05138772916646905,-0.11802789066611653,0.15323118167884217,10.002724241168783,0.20012765106969468,0.05511337300000019,0.002353595999999847,-0.0048052585000011305
168972.0,1.528268336,-1.2116116074999999,9.796254951,-0.05751732549947313,-0.09857619615263973,0.1471015853458381,9.988504285389327,0.18618374148081496,0.02745861999999999,0.025203090500000247,-0.015592573499999318
168982.0,1.5714175959999999,-1.1853297855,9.755557353499999,-0.0665773296465757,-0.07832514084174953,0.14497053832915302,9.952148473512631,0.177718388171267,0.043149259999999856,0.026281821999999844,-0.04069759750000124
168992.0,1.628884565,-1.1529678405,9.749575297,-0.075103263042568,-0.050080477556725296,0.14656925992397982,9.951724385210591,0.1721368708516975,0.057466969000000034,0.032361945000000114,-0.0059820564999988335
169002.0,1.6468307345,-1.1589498969999998,9.7543805555,-0.08229751021928862,-0.026897269102484613,0.1510983893329051,9.960078129882646,0.17414668108368747,0.017946169500000053,-0.005982056499999944,0.004805258499999354
169012.0,1.6456539364999998,-1.1110934449999998,9.760362612,-0.08176518479743035,-0.015973253314252103,0.16788671140783853,9.960290349179957,0.18742101838838157,-0.0011767980000001454,0.047856451999999994,0.00598205650000061
169022.0,1.61809725,-1.1110934449999998,9.820183176999999,-0.07856774160777674,-0.022635175069114458,0.18600497437279168,10.014427841060783,0.20318240982717653,-0.027556686499999872,0.0,0.05982056499999899
169032.0,1.6144687894999998,-1.1446321879999999,9.842934605,-0.06844134128770564,-0.04261919500444953,0.20279329644772512,10.039923005500679,0.21823321026879117,-0.003628460500000097,-0.03353874300000004,0.022751428000001184
169042.0,1.5677891355,-1.1554195029999998,9.881278606499999,-0.05911604709429994,-0.0727296152598557,0.21505074378448133,10.07137646504087,0.23458714023185662,-0.04667965399999985,-0.010787314999999964,0.038344001499998726
169052.0,1.5510197639999999,-1.1625783575,9.913640551499999,-0.05245412533943758,-0.10470404715639182,0.22517539877530043,10.101362271000443,0.2538076692491165,-0.01676937150000013,-0.007158854500000089,0.03236194499999989
169062.0,1.536702055,-1.200922359,9.9507096885,-0.051654764542024174,-0.13055237337842784,0.23210435590571793,10.140034074054935,0.2712647579857003,-0.014317708999999956,-0.03834400150000006,0.03706913700000136
169072.0,1.5175790875,-1.2524072714999999,9.906383630499999,-0.05352052151240612,-0.14680662470225103,0.23636644993908806,10.099901330961693,0.2833473662066315,-0.019122967499999977,-0.05148491249999987,-0.04432605800000111
169082.0,1.4696245689999998,-1.2810426894999998,9.862155639,-0.05938133714060307,-0.15026935793820778,0.23849924228502511,10.053008534463169,0.2880779611603399,-0.0479545185000001,-0.028635417999999913,-0.044227991499999675
169092.0,1.4026451494999999,-1.3145814325,9.864509235,-0.06524389809805203,-0.15026935793820778,0.23903156770688339,10.05007861688106,0.2897822225993178,-0.06697941949999997,-0.03353874300000026,0.002353596000000735
169102.0,1.3259571465,-1.3182098930000001,9.864509235,-0.07137349443105612,-0.1513357541111763,0.234235402922403,10.040138551023974,0.28785918460580495,-0.0766880029999999,-0.003628460500000097,0.0
169112.0,1.260154525,-1.3218383534999998,9.941099171500001,-0.079100067029635,-0.1643925622453459,0.22890691271606428,10.10745758325305,0.29271164960568713,-0.06580262150000005,-0.003628460499999653,0.07658993650000134
169122.0,1.1967054995,-1.3182098930000001,10.011805118,-0.08895943197415099,-0.1939706570788938,0.22277731638306023,10.168875212890933,0.3084933208995286,-0.06344902549999998,0.003628460499999653,0.07070594649999862
169132.0,1.181112926,-1.32782041,10.0224943665,-0.09722007532384014,-0.2358044539199459,0.2139843476115128,10.178827442868903,0.3329336038269219,-0.015592573499999984,-0.009610516999999819,0.010689248500000303
169142.0,1.1847413864999998,-1.3565538945,10.034556546,-0.10254856553017884,-0.27763825076099796,0.2046573080888551,10.194909303002184,0.35983860317106153,0.003628460499999875,-0.028733484500000017,0.012062179499999104
169152.0,1.2098464105,-1.3816589184999999,9.981796768999999,-0.10734473031465926,-0.3090821025649278,0.19479968847359108,10.149333792997899,0.38079069826046386,0.025105024000000142,-0.02510502399999992,-0.05275977700000034
169162.0,1.2769238964999998,-1.4391258875,9.9256046645,-0.11054217350431285,-0.32586867931060925,0.1814758449638664,10.110353402006755,0.3890288557215873,0.06707748599999985,-0.057466969000000034,-0.05619210449999912
169172.0,1.3259571465,-1.44746154,9.8669608975,-0.114806012866935,-0.32347059691836905,0.1660209544374566,10.060329249926545,0.38128284117365263,0.04903325000000014,-0.008335652500000013,-0.058643766999999514
169182.0,1.372734867,-1.4499132025,9.7639910725,-0.11747113063473034,-0.31494291819312475,0.15216478550587365,9.966050921690146,0.36897510783337634,0.04677772049999995,-0.0024516625000001735,-0.10296982500000063
169192.0,1.407450408,-1.434320629,9.718488216499999,-0.10894345190948605,-0.3066840201726876,0.13697693035501898,9.924072023721092,0.3531096761527779,0.03471554100000018,0.015592573500000206,-0.04550285600000059
169202.0,1.4289269715,-1.4306921684999998,9.622677246,-0.09482199293159993,-0.29309314128740777,0.12019035360933751,9.832834268489098,0.330666782295982,0.021476563499999823,0.003628460500000097,-0.09581097049999876
