timestamp,ax,ay,az,gx,gy,gz,acc_mag,gyro_mag,dax,day,daz
89162.0,-0.21084297499999996,-0.17396997099999997,9.9681655255,0.12633914856411352,-0.007077310116837007,0.01873261886165514,9.971912768104387,0.12791629993011472,0.0,0.0,0.0
89172.0,-0.5855550715,-0.08531785499999998,9.676123488499998,0.13539915271121608,0.03422416130235681,0.01953197965906854,9.694200309609997,0.141016743690837,-0.37471209650000004,0.08865211599999999,-0.29204203700000164
89182.0,-0.49690295549999997,-0.10571568699999999,9.714369423499999,0.1393959566982831,0.0014503686084072877,0.0008796459430051422,9.727644198360373,0.13940627708218492,0.088652116,-0.020397832000000005,0.03824593500000084
89192.0,-0.46463907699999996,-0.059036033,9.737120851499999,0.1596470120091733,0.05074544800173514,-0.01244419756671957,9.748379208965142,0.1679795433659512,0.03226387850000001,0.04667965399999999,0.022751427999999407
89202.0,-0.54721107,0.0703136805,9.777818449,0.16950637695368928,0.07792371511379083,-0.019371409367885065,9.793371104497202,0.18756270606386446,-0.08257199300000007,0.12934971350000002,0.04069759750000124
89212.0,-0.492097697,0.1505320775,9.8077287315,0.1703057377511027,0.10110692356803151,-0.020703095587156734,9.821220032177253,0.1991363163042595,0.05511337300000002,0.080218397,0.029910282499999497
89222.0,-0.5184775855,0.193583271,9.92629113,0.1727038201433429,0.1266864690852604,-0.00924675437706596,9.941707553885983,0.21438650472430526,-0.026379888500000004,0.0430511935,0.11856239849999994
89232.0,-0.5555467224999999,0.204370586,10.0340662135,0.17430254173816973,0.12775286525822893,0.005942846103040692,10.051511541763492,0.21618854747159486,-0.03706913699999992,0.010787314999999992,0.10777508349999998
89242.0,-0.5915371279999999,0.18044236,10.1309559155,0.17110509854851608,0.11309733552923257,0.01899965423721027,10.149814943184397,0.205982885003203,-0.03599040549999999,-0.023928225999999997,0.09688970200000036
89252.0,-0.6094832975,0.18642441649999997,10.194404940999998,0.1561825334439646,0.08432034682235005,0.026193901413930895,10.214309377245435,0.1794130015146596,-0.017946169500000053,0.0059820564999999715,0.06344902549999887
89262.0,-0.638216782,0.1983885295,10.211174312499999,0.1345997919138027,0.05207713422100681,0.028857273852474243,10.233022989797464,0.1471797341555842,-0.028733484500000017,0.011964113000000026,0.016769371500000574
89272.0,-0.6573397495000001,0.1995653275,10.1596894,0.11408170122735736,0.024364796357840838,0.02672622683578917,10.182888125216994,0.1196769361964332,-0.019122967500000088,0.0011767980000000067,-0.051484912499999425
89282.0,-0.6393935799999999,0.18995481049999996,10.067506889999999,0.09596169293315222,0.0046478117980608994,0.02193006205130875,10.089578879238458,0.0985453006828892,0.017946169500000164,-0.00961051700000004,-0.09218251000000066
89292.0,-0.5986959825,0.20799904649999998,10.007686325,0.08530296719122286,0.0003839724354387525,0.016067501093859796,10.027735839280897,0.08680384921107592,0.040697597499999905,0.01804423600000002,-0.05982056499999899
89302.0,-0.548387868,0.2223167555,9.962183469,0.08317192017453777,0.0046478117980608994,0.016067501093859796,9.979742154162224,0.0848371089290003,0.050308114500000056,0.014317709000000012,-0.04550285600000059
89312.0,-0.492097697,0.18279595599999998,9.913150219,0.08050680240674245,0.019036306151502154,0.01580221104755666,9.927039929877507,0.08422253890523315,0.056290170999999944,-0.03952079950000001,-0.04903324999999903
89322.0,-0.49690295549999997,0.1505320775,9.9071681625,0.07677703379523056,0.03369183588049854,0.016067501093859796,9.920763753542099,0.08536988529214275,-0.004805258499999965,-0.03226387849999998,-0.00598205650000061
89332.0,-0.45865702049999996,0.09777230049999999,9.881965071999998,0.07384488065188008,0.03822096528942383,0.01873261886165514,9.893086443038236,0.085233911065736,0.03824593500000001,-0.05275977700000001,-0.02520309050000158
89342.0,-0.4598338185,0.100223963,9.867647362999998,0.0741119160274352,0.03715631444570728,0.02139773662945048,9.878864128224283,0.0856214396825305,-0.0011767980000000344,0.002451662500000007,-0.014317709000000178
89352.0,-0.4478697055,0.08825984999999999,9.8651957005,0.07384488065188008,0.03262543970753,0.02486046986540723,9.875751276910043,0.08447205855505659,0.011964112999999998,-0.011964113000000012,-0.002451662499998619
89362.0,-0.47415152749999995,0.08227779349999999,9.8077287315,0.0754436022467069,0.028096310298604717,0.03232175241768299,9.819528103581373,0.08675157319440839,-0.026281821999999955,-0.005982056499999999,-0.057466969000000034
89372.0,-0.4717979315,0.1038524235,9.7945878205,0.0778416846389471,0.02569822790636451,0.03951599959440361,9.806494235328008,0.09100132421509947,0.002353595999999958,0.02157463000000001,-0.013140910999998923
89382.0,-0.5088670685,0.102577559,9.788605764,0.07917511618747078,0.03289247508308513,0.042713442784057226,9.802360463277617,0.095786492444696,-0.037069136999999974,-0.0012748645000000003,-0.00598205650000061
89392.0,-0.534070159,0.1085596155,9.78507537,0.07890808081191562,0.048347365609494916,0.04084943114292729,9.800240615486562,0.1011564580414851,-0.025203090500000025,0.005982056499999999,-0.0035303940000002143
89402.0,-0.5687857,0.100223963,9.830480159499999,0.0794404062337739,0.0667326639500032,0.037117917202163404,9.84743124787409,0.11018968353651687,-0.03471554099999996,-0.008335652499999999,0.045404789499999154
89412.0,-0.605854837,0.079826131,9.866470565,0.08370424559639604,0.07366162108042068,0.03152239162026959,9.88537676088869,0.11587103315548242,-0.03706913700000003,-0.020397832000000005,0.03599040550000154
89422.0,-0.6249778045,0.0703136805,9.914327017,0.0919648889460852,0.06406754618220785,0.024328144443548957,9.934254952929244,0.11469110638903655,-0.019122967499999977,-0.009512450499999991,0.04785645199999955
89432.0,-0.6441988384999999,0.06668521999999999,9.940608839,0.09835977532539245,0.0419524792301877,0.01820029343979687,9.961683750857388,0.10847076378875427,-0.01922103399999997,-0.0036284605000000136,0.02628182199999962
89442.0,-0.651357693,0.07266727649999999,9.956201412499999,0.09676105373056562,0.015571827586293408,0.014468779499032991,9.977749943928801,0.09906830428355122,-0.007158854500000089,0.005982056499999999,0.015592573499999318
89452.0,-0.604678039,0.06305675949999999,9.9226626695,0.08876744575643161,-0.004679227724596798,0.012337732482347916,9.941269845369673,0.08974282278280334,0.04667965400000007,-0.009610516999999999,-0.03353874299999937
89462.0,-0.592713926,0.033146477,9.8400906765,0.08050680240674245,-0.012140510276872556,0.009405579338997442,9.857981183221748,0.08195853919051568,0.011964112999999998,-0.02991028249999999,-0.08257199300000018
89472.0,-0.5890854655,0.005687856999999999,9.787428966,0.07677703379523056,-0.00840899633610868,0.0035447637108004834,9.805142518182814,0.07731745913789506,0.003628460499999986,-0.027458620000000003,-0.052661710499998904
89482.0,-0.5663340375,-0.0087279185,9.743102908,0.07890808081191562,0.0014503686084072877,-0.003916518841475276,9.759552484334025,0.07901852887997657,0.022751427999999962,-0.014415775499999998,-0.04432605800000111
89492.0,-0.560351981,0.0032361944999999997,9.701228512499998,0.08823512033457334,0.012908455147750061,-0.010311405220782499,9.717398801495614,0.08976853431122339,0.005982056499999944,0.011964112999999998,-0.041874395500000716
89502.0,-0.548387868,0.020005566,9.740749312,0.09835977532539245,0.027296949501191315,-0.012976522988577842,9.756194270086521,0.10289878037666605,0.01196411300000011,0.016769371499999998,0.03952079950000176
89512.0,-0.524459642,0.0583495675,9.8053751355,0.1066204186750816,0.038488000664978955,-0.009779079798924228,9.819564355713336,0.11377552581882817,0.023928225999999997,0.0383440015,0.06462582350000012
89522.0,-0.5208311815,0.0930651085,9.850877991499999,0.11035018728659349,0.0427518400276011,-0.004715879638888678,9.865075946867407,0.11843615655998103,0.003628460499999986,0.034715540999999996,0.045502855999998815
89532.0,-0.52563644,0.100223963,9.901186106,0.11088425803770374,0.03928736146239235,0.0006126105674500097,9.91563537124388,0.11764008986292084,-0.00480525850000002,0.007158854500000006,0.05030811450000172
89542.0,-0.534070159,0.08580818750000001,9.9681655255,0.10635338329952647,0.029695031893431523,0.0035447637108004834,9.982831157719888,0.1104780630178377,-0.008433719000000006,-0.014415775499999992,0.06697941949999908
89552.0,-0.5316184964999999,0.11454167199999998,9.955024614500001,0.10022553229577437,0.019036306151502154,0.0035447637108004834,9.969867255673286,0.10207890881876842,0.0024516625000000625,0.028733484499999976,-0.013140910999998923
89562.0,-0.5327952945,0.11101127799999999,9.970617188,0.09622872830870735,0.012908455147750061,0.0016790067404185449,9.985459500660227,0.09710517715264651,-0.0011767980000000344,-0.0035303939999999923,0.015592573499999318
89572.0,-0.5196543835,0.112188076,9.958653075,0.09249721436794348,0.010508627426257858,-0.0007190756518216638,9.97283299323188,0.09309502127399848,0.013140910999999922,0.0011767980000000067,-0.011964112999999443
89582.0,-0.477779988,0.125328987,9.9071681625,0.08796808495901819,0.013973105991466603,-0.0015184364492350666,9.919473880804835,0.08908387795586903,0.04187439550000005,0.013140911000000005,-0.0514849125000012
89592.0,-0.466992673,0.11454167199999998,9.9083449605,0.0847706417693646,0.01823694535408875,8.028514559173915e-05,9.920005131426393,0.0867101743023422,0.010787314999999964,-0.01078731500000002,0.0011767979999994793
89602.0,-0.44424124499999995,0.0930651085,9.899911241499998,0.08530296719122286,0.022766074763014035,0.005408775351930428,9.910310488968411,0.08845419844501243,0.022751428000000073,-0.02147656349999999,-0.008433719000001005
89612.0,-0.4478697055,0.06187996149999999,9.871177757,0.08636936336419139,0.0233001455141243,0.008606218541584039,9.881526537586764,0.08987007681370145,-0.0036284605000000414,-0.031185147000000003,-0.02873348449999824
89622.0,-0.44669290749999996,0.04393379199999999,9.859213644,0.08983384192940014,0.024364796357840838,0.013137093279761319,9.869425434630228,0.09400183869050995,0.0011767980000000344,-0.017946169499999998,-0.011964112999999443
89632.0,-0.431100334,0.040403398,9.831755023999998,0.09329657516535689,0.027296949501191315,0.020331340456481946,9.841284813706697,0.09931131755451165,0.015592573499999984,-0.0035303939999999923,-0.027458620000002654
89642.0,-0.42992353599999994,0.04158019599999999,9.799393079,0.09463000671388055,0.030227357315289794,0.02725855225764744,9.808907578128117,0.1030124262995401,0.0011767980000000344,0.0011767979999999928,-0.032361944999998116
89652.0,-0.47062113349999996,-0.0002941995,9.8030215395,0.0980927399498373,0.03129375348825833,0.03152239162026959,9.814311776265878,0.10768075878127871,-0.040697597500000016,-0.041874395499999995,0.003628460499999875
89662.0,-0.5113187309999999,0.01765197,9.8173392485,0.10262361468801459,0.03262543970753,0.032855823168793256,9.830661643900418,0.11258565949463889,-0.04069759749999996,0.0179461695,0.014317709000000178
89672.0,-0.536423755,0.029616082999999998,9.856860048,0.10555402250211306,0.037955675243120685,0.03072303082285618,9.871490138938453,0.11630214775523282,-0.02510502400000003,0.011964112999999998,0.03952079949999998
89682.0,-0.5628036434999999,0.04638545449999999,9.8604885085,0.10528873245580993,0.04568224784169958,0.025127505240962363,9.87664584653042,0.1174903250044708,-0.02637988849999995,0.016769371499999994,0.003628460499999875
89692.0,-0.5628036434999999,0.0607031635,9.9071681625,0.10342297548542799,0.04914672640690833,0.018465583486100008,9.923326751410004,0.11598573338241679,0.0,0.014317709000000005,0.04667965400000007
89702.0,-0.5723160939999999,0.04511059,9.955024614500001,0.10075785771763264,0.04594928321725471,0.014203489452729853,9.971564358318231,0.11164775695310675,-0.009512450500000047,-0.015592573499999998,0.047856452000001326
89712.0,-0.5723160939999999,0.05707470299999999,9.970617188,0.09862681070094757,0.03369183588049854,0.014468779499032991,9.987192315301382,0.10522230359686406,0.0,0.011964112999999992,0.015592573499999318
89722.0,-0.561528779,0.089436648,9.9658119295,0.09782744990353417,0.016905259134817077,0.014468779499032991,9.982019880656178,0.1003261846241321,0.010787314999999964,0.032361945,-0.0048052585000011305
89732.0,-0.5520163284999999,0.089436648,9.939432041,0.09516233213573883,0.006511823439190843,0.018465583486100008,9.955150940020625,0.0971558082437586,0.009512450500000047,0.0,-0.026379888499999282
89742.0,-0.500531416,0.11699333449999999,9.9071681625,0.09063320272681354,0.008909905831431052,0.025926866038375768,9.920493946310033,0.09468878624745664,0.05148491249999998,0.027556686499999997,-0.03226387850000023
89752.0,-0.501708214,0.13248784149999998,9.885593532499998,0.08823512033457334,0.022500784716710895,0.03072303082285618,9.89920318257718,0.09610216644939165,-0.0011767980000000344,0.01549450699999999,-0.021574630000001704
89762.0,-0.5352469569999999,0.09777230049999999,9.885593532499998,0.08770104958346306,0.031560788863813465,0.03258878779323812,9.900555954971852,0.09873999484292048,-0.033538742999999926,-0.03471554099999999,0.0
89772.0,-0.5447594075,0.055897905,9.891575588999999,0.08716872416160479,0.028361600344907856,0.03205646237137985,9.906722718474754,0.09711016232019135,-0.009512450500000047,-0.041874395499999995,0.00598205650000061
89782.0,-0.5531931265,0.0008825985,9.866470565,0.08610232798863626,0.013440780569608332,0.02992367002544278,9.881966647595931,0.09213952189573504,-0.008433719000000006,-0.0550153065,-0.025105023999998366
89792.0,-0.5555467224999999,-0.012356378999999999,9.799393079,0.08770104958346306,-0.0006824237375297829,0.026459191460234035,9.815135738120771,0.09160801609536096,-0.002353595999999958,-0.013238977499999999,-0.06707748600000052
89802.0,-0.560351981,-0.0002941995,9.7108390295,0.09009913197570328,-0.01054178868204575,0.025926866038375768,9.726992807955833,0.094346093050873,-0.004805258500000131,0.012062179499999999,-0.08855404949999901
89812.0,-0.5412290135,-0.0002941995,9.673671826,0.09516233213573883,-0.006544984694978736,0.02486046986540723,9.688800520639989,0.09857357274695382,0.019122967500000088,0.0,-0.03716720350000102
89822.0,-0.5304416985,-0.0002941995,9.689264399499999,0.10475466170469966,0.008377580409572781,0.025394540616517497,9.703773136542248,0.10811385524302093,0.010787314999999964,0.0,0.015592573499999318
89832.0,-0.5447594075,0.04393379199999999,9.684459141,0.11647978361959757,0.029160961142321258,0.022729422848722154,9.69986813538399,0.12220690778285921,-0.014317708999999956,0.044227991499999994,-0.004805258499999354
89842.0,-0.54721107,0.025987622499999998,9.768305998499999,0.12287466999890478,0.04488288704428618,0.01953197965906854,9.783655625173282,0.13226547662248136,-0.0024516625000000625,-0.017946169499999994,0.08384685749999932
89852.0,-0.5520163284999999,0.009218250999999998,9.844895935,0.12553978776670013,0.048347365609494916,0.012603022528651054,9.860364241449787,0.13511677264775077,-0.004805258499999909,-0.016769371499999998,0.07658993650000134
89862.0,-0.54721107,0.04638545449999999,9.929919590499999,0.12713850936152693,0.04221776927649083,0.006742206900454095,9.945093998515821,0.1341342534897131,0.004805258499999909,0.037167203499999996,0.0850236554999988
89872.0,-0.5555467224999999,0.0942419065,9.92629113,0.12580507781300326,0.02702991412563618,0.0056758107274855595,9.942271837730948,0.12880119831969467,-0.008335652499999902,0.04785645200000001,-0.003628460499999875
89882.0,-0.536423755,0.11934693049999999,9.940608839,0.12047658760666458,0.01024333737995472,0.012603022528651054,9.955787172532014,0.12156632057804329,0.019122967499999977,0.02510502399999999,0.014317709000000178
89892.0,-0.5053366745,0.12778064949999998,9.9454140975,0.11221594425697541,-0.002546435378659727,0.020863665878340217,9.959063942948308,0.11416739916677318,0.031087080499999975,0.008433718999999992,0.0048052585000011305
89902.0,-0.5232828439999999,0.125328987,9.916680612999999,0.10448937165839652,-0.0038798669271833943,0.027792623008757705,9.931268130005211,0.10819201472680919,-0.017946169499999942,-0.002451662499999979,-0.028733484500001794
89912.0,-0.546034272,0.15170887549999998,9.885593532499998,0.0988938460765027,-0.000148352986419518,0.03152239162026959,9.901824503540235,0.10379631965476055,-0.022751428000000073,0.026379888499999976,-0.031087080500000752
89922.0,-0.5508395304999999,0.1038524235,9.859213644,0.0956946575575971,0.007311184236604247,0.03232175241768299,9.87513560374054,0.10127001816607589,-0.004805258499999909,-0.04785645199999998,-0.026379888499997506
89932.0,-0.549564666,0.075118939,9.847249531,0.09702808910612076,0.01264141977219493,0.030455995447301053,9.86285899234557,0.10247840371574966,0.001274864499999917,-0.028733484500000003,-0.01196411300000122
89942.0,-0.5543699244999999,0.06305675949999999,9.848426328999999,0.10209128926615632,0.013440780569608332,0.02965663464988765,9.864218333241066,0.10715783641481048,-0.004805258499999909,-0.012062179500000006,0.0011767979999994793
89952.0,-0.5747677565,0.0344213415,9.8389138785,0.10875146569176668,0.009176941206986186,0.02805791305506084,9.855748023930127,0.11268692925547905,-0.020397832000000116,-0.02863541799999999,-0.009512450499999048
89962.0,-0.5435826094999999,0.031969678999999994,9.843719136999999,0.1151463520710739,0.004380776422505767,0.02486046986540723,9.85876820712741,0.11788094230734884,0.03118514700000008,-0.002451662500000007,0.004805258499999354
89972.0,-0.5196543835,0.030792880999999998,9.828126563499998,0.11861083063628264,0.0059794980173325735,0.022197097426863883,9.841903303121065,0.12081802297234422,0.023928225999999886,-0.0011767979999999963,-0.015592573500001095
89982.0,-0.5316184964999999,0.0738440745,9.879611476,0.11647978361959757,0.016905259134817077,0.020331340456481946,9.894179808850785,0.11944325507637912,-0.011964112999999887,0.0430511935,0.0514849125000012
89992.0,-0.546034272,0.10738281749999999,9.917857410999998,0.11168361883511715,0.03315951045864027,0.020863665878340217,9.933457611558042,0.11835571977664378,-0.014415775500000061,0.033538742999999996,0.038245934999999065
90002.0,-0.5304416985,0.0954187045,9.92629113,0.10502169708025479,0.04221776927649083,0.025127505240962363,9.940911865729053,0.11594519576047298,0.015592573499999984,-0.011964112999999985,0.008433719000001005
90012.0,-0.537600553,0.08825984999999999,9.915503815000001,0.09995849692021924,0.03928736146239235,0.03072303082285618,9.930459206954506,0.11170990332181083,-0.007158854499999978,-0.00715885450000002,-0.010787314999998188
90022.0,-0.5435826094999999,0.0595263655,9.934626782499999,0.0964940183550105,0.027829274923049586,0.03445454476362006,9.949665057131659,0.10617287683729812,-0.005982056499999944,-0.02873348449999999,0.019122967499997756
90032.0,-0.5412290135,0.0595263655,9.915503815000001,0.09835977532539245,0.01610589833740367,0.03738495257771854,9.930442494598283,0.10645036421992518,0.002353595999999958,0.0,-0.019122967499997756
90042.0,-0.5447594075,0.0475622525,9.884416734499998,0.10315594010987285,0.01077566280181299,0.03685262715586027,9.89953125967014,0.11006988242502533,-0.0035303939999999923,-0.011964112999999998,-0.03108708050000253
90052.0,-0.5759445544999999,0.0714904785,9.866470565,0.1090185010673218,0.015571827586293408,0.03578623098289173,9.88352489896119,0.11579365145509392,-0.03118514699999997,0.023928225999999997,-0.017946169499998277
90062.0,-0.5915371279999999,0.08825984999999999,9.887947128499999,0.11141658345956201,0.02569822790636451,0.02939134460358451,9.906018594316079,0.1180589053182167,-0.015592573499999984,0.01676937149999999,0.02147656349999849
90072.0,-0.5962443199999999,0.08580818750000001,9.8867703305,0.10955082648918008,0.03369183588049854,0.02193006205130875,9.905104638631,0.1166938345030925,-0.004707192000000027,-0.002451662499999979,-0.0011767979999994793
90082.0,-0.592713926,0.07629573699999999,9.9095217585,0.10528873245580993,0.03449119667791194,0.01366941870161959,9.92752498459428,0.11163428164352433,0.0035303939999999923,-0.00951245050000002,0.022751428000001184
90092.0,-0.5842802069999999,0.06668521999999999,9.925114332,0.10262361468801459,0.025431192530809377,0.010204940136410845,9.942521047608107,0.10621907855164678,0.008433719000000006,-0.009610516999999999,0.015592573499999318
90102.0,-0.5842802069999999,0.07747253500000001,9.928644726,0.10209128926615632,0.011042698177368124,0.010204940136410845,9.946123438259697,0.10319260307914606,0.0,0.01078731500000002,0.0035303940000002143
90112.0,-0.538777351,0.102577559,9.903539702,0.10209128926615632,-0.003612831551628262,0.013402383326064457,9.918714726145279,0.10303061571525823,0.045502855999999925,0.02510502399999999,-0.025105024000000142
90122.0,-0.5065134725,0.10140076099999999,9.870000958999999,0.10155721851504605,-0.009475392509077215,0.017400932642383467,9.883509343488086,0.10347194862637243,0.03226387850000001,-0.0011767980000000067,-0.03353874300000115
90132.0,-0.501708214,0.091790244,9.856860048,0.09835977532539245,-0.003612831551628262,0.020331340456481946,9.870046939439915,0.10050403652908425,0.00480525850000002,-0.009610516999999999,-0.013140910999998923
90142.0,-0.48493884249999997,0.10140076099999999,9.844895935,0.09622872830870735,0.009176941206986186,0.021663026675753618,9.857353791270564,0.09906296546430411,0.01676937150000002,0.009610516999999999,-0.011964112999999443
90152.0,-0.4753283255,0.10140076099999999,9.854506451999999,0.09995849692021924,0.0233001455141243,0.024595179819104092,9.866484507861127,0.10554392809566504,0.009610516999999985,0.0,0.009610516999998708
90162.0,-0.49092089899999997,0.1085596155,9.88314187,0.10528873245580993,0.031560788863813465,0.02672622683578917,9.895922480584595,0.1131198116013963,-0.015592573499999984,0.007158854500000006,0.028635418000000357
90172.0,-0.5076902704999999,0.0811009955,9.88314187,0.10955082648918008,0.03289247508308513,0.027792623008757705,9.896505444083711,0.1177103580627497,-0.016769371499999963,-0.027458620000000003,0.0
90182.0,-0.5292649005,0.0607031635,9.9214858715,0.11061722266214861,0.02942799651787639,0.023795819021690687,9.93577818327957,0.11691200935514096,-0.02157463000000004,-0.020397831999999998,0.0383440015000005
90192.0,-0.5232828439999999,0.07747253500000001,9.9573782105,0.10635338329952647,0.022233749341155764,0.02113070125389535,9.97141954565368,0.11068824817704323,0.005982056500000055,0.016769371500000012,0.035892339000000106
90202.0,-0.5184775855,0.0930651085,9.9191322755,0.10075785771763264,0.013973105991466603,0.022197097426863883,9.933109544344704,0.1041158235671848,0.004805258499999909,0.015592573499999984,-0.038245934999999065
90212.0,-0.499354618,0.10983448,9.893929185,0.0988938460765027,0.008644615785127915,0.02672622683578917,9.90713143979172,0.10280570691724049,0.019122967500000032,0.016769371500000005,-0.02520309050000158
90222.0,-0.492097697,0.1205237285,9.9071681625,0.09915913612280584,0.009443976582541317,0.03498687018547833,9.920114269129055,0.10557369016799707,0.007256920999999972,0.010689248499999998,0.01323897750000036
90232.0,-0.5053366745,0.1205237285,9.844895935,0.10129192846874291,0.014772466788880006,0.041648791940340685,9.858593565752967,0.11051200123984399,-0.013238977499999971,0.0,-0.06227222749999939
90242.0,-0.5208311815,0.10140076099999999,9.890398790999999,0.10475466170469966,0.0240995063115377,0.0456455959274077,9.904621925089737,0.11678118761553204,-0.01549450699999999,-0.019122967500000004,0.045502855999998815
90252.0,-0.557998385,0.07629573699999999,9.878434678,0.10768681484805014,0.03262543970753,0.04431216437888403,9.894475980296274,0.12093153980731886,-0.03716720350000002,-0.025105024000000004,-0.011964112999999443
90262.0,-0.5915371279999999,0.05707470299999999,9.9226626695,0.10635338329952647,0.03715631444570728,0.04084943114292729,9.940443055931354,0.11983451033464872,-0.033538742999999926,-0.019221033999999998,0.044227991499999675
90272.0,-0.6274294669999999,0.042756994,9.9573782105,0.10102489309318777,0.03529055747532534,0.033655183966206655,9.977217884938467,0.11217898145021853,-0.035892338999999995,-0.014317708999999991,0.03471554100000063
90282.0,-0.6644986039999999,0.03912853349999999,9.956201412499999,0.0948952967601837,0.028361600344907856,0.025127505240962363,9.978428533748126,0.10218066960517629,-0.03706913700000003,-0.0036284605000000067,-0.0011767980000012557
90292.0,-0.6669502665,0.0499158485,9.935901647,0.09089849277311668,0.017969909978533618,0.017133897266828332,9.958386204037941,0.09422857363141594,-0.0024516625000000625,0.010787315000000006,-0.020299765499999012
90302.0,-0.6249778045,0.07266727649999999,9.92629113,0.08929977117828988,0.007311184236604247,0.012337732482347916,9.946212011952502,0.09044402794127696,0.041972462000000044,0.02275142799999999,-0.009610517000000485
90312.0,-0.628606265,0.0942419065,9.9214858715,0.08796808495901819,-0.00041538836197465044,0.012603022528651054,9.941826254351467,0.08886727573019211,-0.003628460500000097,0.02157463000000001,-0.004805258499999354
90322.0,-0.592713926,0.113364874,9.890398790999999,0.08903448113198674,-0.0028134707542148596,0.016601571844970065,9.908791532661569,0.09061272888425018,0.035892339000000106,0.019122967500000004,-0.031087080500000752
90332.0,-0.5902622635,0.10983448,9.903539702,0.0919648889460852,0.00011693705988362008,0.019264944283513406,9.92172221853642,0.0939611225528337,0.0024516624999999515,-0.003530394000000006,0.013140911000000699
90342.0,-0.5831034089999999,0.07747253500000001,9.902362903999999,0.09516233213573883,0.0059794980173325735,0.018465583486100008,9.91981868089241,0.09712158167747313,0.007158854500000089,-0.03236194499999999,-0.0011767980000012557
90352.0,-0.5794749484999999,0.07629573699999999,9.9214858715,0.09383064591646716,0.015571827586293408,0.015535175672001527,9.938686741908992,0.09637434103867394,0.003628460499999986,-0.0011767980000000205,0.01912296750000131
90362.0,-0.5555467224999999,0.06187996149999999,9.871177757,0.0919648889460852,0.02303311013856917,0.012603022528651054,9.886992040090215,0.09563943296767777,0.023928225999999997,-0.014415775499999998,-0.050308114499999945
90372.0,-0.5053366745,0.054721107,9.871177757,0.08929977117828988,0.02649758870377791,0.009939650090107707,9.884255655558368,0.09367693410612503,0.05021004799999995,-0.007158854499999992,0.0
90382.0,-0.46816947099999995,0.075118939,9.893929185,0.08770104958346306,0.02942799651787639,0.011538371684934512,9.90528445963909,0.09322346860226179,0.03716720350000002,0.020397831999999998,0.022751427999999407
90392.0,-0.47895678599999997,0.079826131,9.898734443499999,0.09009913197570328,0.03289247508308513,0.01633453646941493,9.910636477894803,0.09729638010500298,-0.01078731500000002,0.004707191999999999,0.004805258499999354
90402.0,-0.5053366745,0.1432751565,9.9047165,0.09436297133832543,0.03582288289718362,0.023795819021690687,9.918634072816532,0.10370096577070058,-0.026379888500000004,0.0634490255,0.00598205650000061
90412.0,-0.5508395304999999,0.14925721299999997,9.941883703499999,0.0948952967601837,0.036889279070152145,0.028857273852474243,9.95825052295396,0.10582380881311913,-0.045502855999999925,0.0059820564999999715,0.037167203499999246
90422.0,-0.5879086675,0.1552392695,9.994545414,0.08983384192940014,0.03608991827273875,0.03072303082285618,10.013025210425914,0.10157020222324845,-0.03706913700000014,0.005982056500000027,0.05266171050000068
90432.0,-0.629783063,0.1313110435,9.97532438,0.08290488479898264,0.028361600344907856,0.03205646237137985,9.996047508030816,0.09330175281003328,-0.04187439549999994,-0.023928225999999997,-0.019221033999999193
90442.0,-0.6573397495000001,0.0954187045,9.958653075,0.07837575539005735,0.0131737451940532,0.02939134460358451,9.980780096948743,0.08473581139640193,-0.027556686500000094,-0.035892338999999995,-0.016671304999999137
90452.0,-0.6585165475,0.042756994,9.903539702,0.07571063762226203,-0.00840899633610868,0.02486046986540723,9.92550103687252,0.0801302366805377,-0.0011767979999999234,-0.05266171050000001,-0.055113373000001076
90462.0,-0.61781895,0.018828768,9.830480159499999,0.08103912782860072,-0.02359859681621533,0.016067501093859796,9.84989314377606,0.08592088571654602,0.040697597500000016,-0.023928226,-0.07305954250000113
90472.0,-0.580749813,0.033146477,9.773013190499999,0.08796808495901819,-0.02599667920845554,0.006475171524898963,9.790309282955468,0.09195726805153166,0.03706913700000003,0.014317709000000001,-0.057466969000000034
90482.0,-0.536423755,0.06305675949999999,9.731138795,0.09303128511905376,-0.013739231871699363,-0.0012514010736799342,9.746116603417024,0.0940486709527264,0.044326058,0.02991028249999999,-0.04187439549999894
90492.0,-0.4945493595,0.067862018,9.712015827499998,0.09676105373056562,0.00811054503401765,-0.0052499503899989435,9.72483602720783,0.097242194745366,0.04187439549999994,0.004805258500000006,-0.01912296750000131
90502.0,-0.443064447,0.10140076099999999,9.750359828999999,0.09782744990353417,0.02889567109601812,-0.004982915014443811,9.760947956705008,0.10212736756011542,0.051484912500000035,0.033538742999999996,0.0383440015000005
90512.0,-0.39638479299999996,0.13376270599999998,9.7910574265,0.10182425389060118,0.0435512008250145,0.0014119713648634126,9.799990759927221,0.11075594537907907,0.046679654000000015,0.03236194499999999,0.04069759750000124
90522.0,-0.39991518699999995,0.144550021,9.8389138785,0.10608809325322333,0.04488288704428618,0.01180366173123765,9.84809896243454,0.11579500641133125,-0.0035303939999999923,0.01078731500000002,0.04785645199999955
90532.0,-0.38442067999999996,0.1385679645,9.889221993,0.10715274409693987,0.03715631444570728,0.02486046986540723,9.897660934121365,0.11610488892644176,0.01549450699999999,-0.005982056499999999,0.050308114499999945
90542.0,-0.4035436475,0.144550021,9.935901647,0.10155721851504605,0.02303311013856917,0.037117917202163404,9.945143725601255,0.11055375422207483,-0.019122967500000032,0.005982056499999999,0.04667965400000007
90552.0,-0.43345393,0.11934693049999999,9.8963808475,0.09276424974349862,0.013707815945163465,0.04537856055185257,9.906587701020824,0.10417448826953175,-0.029910282499999996,-0.02520309050000001,-0.03952079949999998
90562.0,-0.46816947099999995,0.08825984999999999,9.848426328999999,0.08557000256677799,0.009976302004399588,0.04937536453891959,9.85994288078987,0.09929591413705086,-0.03471554099999996,-0.031087080500000003,-0.04795451850000099
90572.0,-0.5088670685,0.0714904785,9.823321305,0.08423831634750632,0.0075782196121593785,0.04884303911706132,9.83675241343335,0.09766865322990509,-0.040697597500000016,-0.01676937149999999,-0.025105023999998366
90582.0,-0.5088670685,0.06668521999999999,9.8077287315,0.08929977117828988,0.0049131018443640375,0.04671024677112424,9.821147360805702,0.10089814099202894,0.0,-0.004805258500000006,-0.015592573500001095
90592.0,-0.5280881024999999,0.0510926465,9.783800505499999,0.09542936751129395,-0.00041538836197465044,0.04351280358147063,9.798175331864115,0.10488231884648867,-0.01922103399999997,-0.015592573499999991,-0.023928226000000663
90602.0,-0.5232828439999999,0.06668521999999999,9.793411022499999,0.10209128926615632,-0.0038798669271833943,0.03978303496995875,9.807607828059584,0.10963746888185452,0.00480525850000002,0.015592573499999991,0.009610517000000485
90612.0,-0.501708214,0.07747253500000001,9.8065519335,0.10475466170469966,-0.0030805061297699914,0.03791727799957681,9.819682986232651,0.11144841245068864,0.021574629999999928,0.01078731500000002,0.013140911000000699
90622.0,-0.4980797535,0.07747253500000001,9.8867703305,0.10342297548542799,0.0006510078109938849,0.036585591780305134,9.899611760194487,0.10970524689067768,0.003628460499999986,0.0,0.08021839699999944
90632.0,-0.469346269,0.0834545915,9.9681655255,0.09702808910612076,0.0019826940302655584,0.037117917202163404,9.979557832531126,0.10390438358716932,0.028733484500000017,0.005982056499999985,0.0813951950000007
90642.0,-0.445418043,0.1038524235,10.031614550999999,0.08343895555009292,0.002782054827678961,0.04244815273775409,10.042035304594965,0.09365705954813174,0.023928225999999997,0.020397832000000005,0.06344902549999887
90652.0,-0.4394359865,0.14925721299999997,10.078294205,0.05945638629843883,0.0022497294058206906,0.05283984310412832,10.088973970845617,0.07957494689497126,0.005982056499999999,0.04540478949999997,0.04667965400000185
90662.0,-0.42394147949999994,0.144550021,10.068781754499998,0.03760660939272182,-0.012939871074285958,0.06696304741126644,10.078739360969893,0.07788290603232144,0.015494507000000046,-0.004707191999999971,-0.0095124505000026
90672.0,-0.41668455849999997,0.100223963,10.0950635765,0.03840597019013522,-0.03212453021220763,0.07975282016988089,10.104156544592366,0.09416749074202815,0.007256920999999972,-0.044326058,0.026281822000001398
90682.0,-0.5232828439999999,0.112188076,10.074763810999999,0.045867252742410984,-0.058238146480546794,0.08747939276845978,10.088968081357802,0.11466529875583234,-0.10659828549999995,0.011964112999999998,-0.020299765500000788
90692.0,-0.6094832975,0.1420983585,9.992093751499999,0.05812470007916715,-0.09634217471008698,0.09201026750663706,10.011673155481315,0.1453484940197351,-0.08620045350000005,0.029910282499999996,-0.08267005949999984
90702.0,-0.5902622635,0.0691368825,9.891575588999999,0.07517831220040376,-0.12618555958993802,0.08161683181101084,9.909412549749588,0.1680353573186132,0.01922103399999997,-0.072961476,-0.10051816250000023
90712.0,-0.512495529,-0.060212830999999994,9.786252167999999,0.09036616735125841,-0.11952363783507568,0.06616368661385304,9.799847383910972,0.16379736759002608,0.07776673450000005,-0.1293497135,-0.10532342099999958
90722.0,-0.48493884249999997,-0.07580540449999999,9.649743599999999,0.08876744575643161,-0.07822216641588185,0.050708796087443254,9.662218362573762,0.12872353609792128,0.027556686499999983,-0.015592573499999998,-0.136508568
90732.0,-0.45865702049999996,-0.08051259649999999,9.5982586875,0.0826395947526795,-0.02359859681621533,0.03685262715586027,9.609548291819877,0.09351102887291013,0.02628182200000001,-0.004707191999999999,-0.051484912499999425
90742.0,-0.46463907699999996,-0.09973363049999999,9.558737888,0.08716872416160479,0.026230553328222776,0.03232175241768299,9.570543677368326,0.09659774365489433,-0.005982056499999999,-0.019221033999999998,-0.03952079949999998
90752.0,-0.477779988,-0.118856598,9.6341510265,0.10475466170469966,0.057939695178455757,0.031257101573966446,9.646723102133304,0.12372369952860161,-0.013140911000000033,-0.019122967500000004,0.07541313850000009
90762.0,-0.4980797535,-0.128467115,9.725156738499999,0.13113531334859393,0.0699301071396568,0.03072303082285618,9.738750475747645,0.15175834380534065,-0.02029976550000001,-0.009610516999999999,0.0910057119999994
90772.0,-0.4814084485,-0.0912999115,9.814985652499999,0.1465902038750037,0.07232818953189701,0.02939134460358451,9.82720881669398,0.16608403297934402,0.016671305000000025,0.037167203499999996,0.08982891399999993
90782.0,-0.492097697,-0.027850886,9.958653075,0.14419212148276353,0.07819075048934597,0.02805791305506084,9.970842837165305,0.16641035978806293,-0.010689248500000026,0.0634490255,0.14366742250000186
90792.0,-0.48974410099999993,0.055897905,10.028084157,0.12260763462334966,0.07685906427007429,0.025659830662820633,10.040191518099746,0.14696385520953392,0.002353596000000069,0.08374879099999999,0.06943108199999948
90802.0,-0.47297472949999997,0.11934693049999999,10.1274255215,0.09542936751129395,0.06620033852814493,0.023795819021690687,10.139166458742794,0.11855585184949603,0.016769371499999963,0.06344902549999999,0.09934136449999897
90812.0,-0.47660318999999995,0.183972754,10.166946321,0.07331255523002181,0.04035375763536089,0.02805791305506084,10.179773772978844,0.08826325959680958,-0.003628460499999986,0.0646258235,0.03952079949999998
90822.0,-0.3915795345,0.23663446449999997,10.148902085,0.05759062932805689,0.002515019452123829,0.03951599959440361,10.15920980847161,0.0698893420572201,0.08502365549999996,0.052661710499999986,-0.018044235999999714
90832.0,-0.33528936349999994,0.29057103949999996,10.0962403745,0.04773300971279292,-0.03452261260444784,0.06269920804864429,10.105984374911543,0.08603163189900297,0.056290171000000055,0.05393657499999999,-0.052661710499998904
90842.0,-0.2419300555,0.25222703799999996,10.025632494499998,0.03600788779789501,-0.05104389930382616,0.0922755575529402,10.031722461533052,0.11143081333953783,0.09335930799999995,-0.0383440015,-0.07060788000000251
90852.0,-0.1809326925,0.22113995749999998,9.887947128499999,0.017887879503689884,-0.04704709531675915,0.11998789541610616,9.89207450113624,0.13011725656986922,0.060997363,-0.031087080499999975,-0.13768536599999948
