timestamp,ax,ay,az,gx,gy,gz,acc_mag,gyro_mag,dax,day,daz
165412.0,0.015004174499999998,-0.8364091785,9.785761835499999,0.011397000015522973,0.05673890865308366,-0.008656833089891874,9.821453056460626,0.058516118494334954,0.0,0.0,0.0
165422.0,0.44718324,-0.8352323804999999,9.754674755,-0.004057890510886816,0.011974703997933095,-0.019315558831821244,9.800574756380714,0.023085727716968506,0.43217906549999996,0.0011767980000000344,-0.031087080499998976
165432.0,0.5046502089999999,-0.6807776429999999,9.834893152,0.01619316480000339,0.03515616712292178,-0.028375562978923807,9.871334932212,0.04799320001193655,0.05746696899999992,0.15445473750000005,0.08021839699999944
165442.0,0.434042329,-0.563490109,9.834893152,0.042572071114645685,0.04688128903781969,-0.03636917095305784,9.860579960507447,0.07302707098501753,-0.0706078799999999,0.11728753399999992,0.0
165452.0,0.435219127,-0.515633657,9.9450218315,0.053497832232130185,0.04874530067894963,-0.040633010315679986,9.967886084107775,0.08300098745877973,0.001176797999999979,0.047856451999999994,0.11012867950000071
165462.0,0.408937305,-0.49043056649999994,10.0048423965,0.04443782808502762,0.03275808473068157,-0.03929957876715632,10.025199411422301,0.06776628639237144,-0.02628182200000001,0.025203090500000025,0.05982056500000077
165472.0,0.41246769899999997,-0.415017428,9.9952318795,0.0279165413856493,0.01090830782496456,-0.03184004154413256,10.012343851128726,0.04372771098597479,0.0035303939999999923,0.07541313849999992,-0.009610517000000485
165482.0,0.43168873299999994,-0.3958944605,9.966498394999999,0.016458454846306526,-0.009342747485925645,-0.019582594207376378,9.983695600507424,0.02723317209589165,0.01922103399999997,0.019122967500000032,-0.028733484500001794
165492.0,0.4543420945,-0.4078585735,9.940216572999999,0.004735078260660616,-0.022132520244540092,-0.005993460651348527,9.958949787651102,0.023413478790833733,0.02265336150000008,-0.011964112999999998,-0.02628182199999962
165502.0,0.44836003799999996,-0.4497329689999999,9.850387658999999,-0.005656612105713622,-0.02586403418530397,0.005731661263549378,9.870837021228766,0.027088696271565946,-0.005982056500000055,-0.04187439549999994,-0.08982891399999993
165512.0,0.4735631285,-0.4976874875,9.804884803,-0.02084621258582027,-0.02639635960716224,0.010260790672474663,9.828922670974125,0.03516555423860373,0.025203090500000025,-0.0479545185000001,-0.045502855999998815
165522.0,0.49866815249999996,-0.5694721654999999,9.754674755,-0.030171506779225973,-0.024265312590477164,0.007063347482821052,9.783999593695379,0.039357541769088206,0.025105023999999976,-0.07178467799999988,-0.050210048000000285
165532.0,0.4974913544999999,-0.6173286175,9.662492245,-0.028305749808844035,-0.015205308443374598,0.00386590429316744,9.694965118785722,0.032362974107812824,-0.0011767980000000344,-0.047856452000000105,-0.09218251000000066
165542.0,0.503473411,-0.658026215,9.6480764695,-0.0187134202398832,-0.008543386688512244,-0.0017296212887263805,9.683587327872392,0.020643961416993928,0.005982056500000055,-0.040697597500000016,-0.014415775499999839
165552.0,0.515437524,-0.681954441,9.60855567,-0.004057890510886816,-0.0048136180770003605,-0.007857472292478471,9.646506091027778,0.010068627772275466,0.011964112999999998,-0.023928225999999997,-0.03952079949999998
165562.0,0.5094554675,-0.666459934,9.620519782999999,0.011929325437381242,-0.0018814649336498874,-0.014519394047340827,9.657024107461226,0.018885484351465854,-0.005982056499999944,0.01549450699999999,0.011964112999999443
165572.0,0.537012154,-0.6221338759999999,9.6445460755,0.02152165500634208,-0.0013491395117916165,-0.018783233409962977,9.679499037432306,0.028597406682554904,0.027556686499999983,0.04432605800000011,0.024026292500000324
165582.0,0.5082786695,-0.5850647389999999,9.719959214,0.023387411976724018,0.001048942880448592,-0.016917476439581036,9.750807919168201,0.028883772766368963,-0.028733484500000017,0.03706913700000003,0.07541313850000009
165592.0,0.535835356,-0.5682953675,9.746241035999999,0.01992293341151527,0.0037140606482439333,-0.014519394047340827,9.777489119670344,0.024930509937032212,0.027556686499999983,0.016769371499999908,0.02628182199999962
165602.0,0.53936575,-0.552702794,9.771444126499999,0.01672549022186166,0.007710864635310948,-0.013452997874372293,9.801913900258448,0.022807512104426133,0.0035303939999999923,0.015592573499999984,0.025203090499999803
165612.0,0.5537815254999999,-0.5324030285,9.7869386335,0.010330603842554437,0.01383871563906304,-0.013452997874372293,9.817041039877338,0.02189097024114084,0.01441577549999995,0.02029976550000001,0.015494507000001434
165622.0,0.570550897,-0.563490109,9.848034062999998,0.005002113636215749,0.019968311972067124,-0.01292067245251402,9.880628741887664,0.024304287697206217,0.01676937150000002,-0.031087080499999975,0.06109542949999813
165632.0,0.5860454039999999,-0.5563312545,9.854016119499999,0.004202752838802345,0.022366394364307336,-0.01265363707695889,9.887091956872297,0.026039071787588144,0.01549450699999999,0.007158854499999978,0.00598205650000061
165642.0,0.552506661,-0.5575080524999999,9.8755907495,0.005002113636215749,0.018634880423543457,-0.01292067245251402,9.906733643873832,0.023221190448694345,-0.033538742999999926,-0.0011767979999999234,0.021574630000001704
165652.0,0.552506661,-0.575454222,9.892262054499998,0.010597639218109568,0.006644468462342412,-0.016118115642167634,9.92437704478057,0.02040226874635676,0.0,-0.017946169500000053,0.01667130499999736
165662.0,0.5225963785,-0.540738681,9.9450218315,0.018057176441133332,-0.0061453042962720346,-0.023579398194443393,9.973412882507299,0.030328442181096617,-0.02991028250000005,0.03471554099999996,0.05275977700000212
165672.0,0.56094038,-0.4976874875,9.9809141705,0.02045525883337354,-0.022132520244540092,-0.03317172776340423,10.009045640020647,0.04481773743870485,0.03834400150000006,0.04305119349999997,0.035892339000000106
165682.0,0.587222202,-0.460520284,9.991701485499998,0.01432740782962145,-0.03145955976719779,-0.03237236696599082,10.019531297512875,0.04735977891463348,0.026281821999999955,0.03716720350000002,0.010787314999998188
165692.0,0.5896738645,-0.388735606,10.000037138,0.005534439058074019,-0.04185125013357203,-0.019048523456266113,10.024947550946377,0.04631418140585309,0.0024516625000000625,0.07178467799999999,0.008335652500001345
165702.0,0.6016379775,-0.40668177549999995,9.958162742499999,-0.003792600464583678,-0.04558101874508391,-0.0014625859131712482,9.984606328173847,0.04576190823902625,0.011964112999999998,-0.017946169499999942,-0.041874395500000716
165712.0,0.608796832,-0.45816668799999993,9.912659886499998,-0.013384930033544514,-0.043717007103953966,0.014259339988793671,9.94190003581168,0.04789218974995875,0.007158854499999978,-0.05148491249999998,-0.04550285600000059
165722.0,0.6039915735,-0.5168104549999999,9.828813028999999,-0.018980455615438332,-0.03625572455167821,0.023584634182199374,9.86090586235851,0.047233147551745416,-0.00480525850000002,-0.05864376699999996,-0.08384685749999932
165732.0,0.552506661,-0.5826130764999999,9.808513263499998,-0.022444934180647077,-0.024797638012335435,0.023317598806644243,9.841322779363226,0.04077264199769276,-0.05148491249999998,-0.06580262150000005,-0.020299765500000788
165742.0,0.5262248389999999,-0.643708506,9.8096900615,-0.02910511060625744,-0.01840275163302821,0.011060151469888067,9.84486121408368,0.03616760541708933,-0.026281822000000066,-0.06109542950000002,0.0011767980000012557
165752.0,0.49150929799999993,-0.6269391344999999,9.800079544499999,-0.038432150128915134,-0.021067869400823554,-0.0035936329298563246,9.832405257459406,0.04397498700689037,-0.034715541000000016,0.01676937150000002,-0.009610517000000485
165762.0,0.5250480409999999,-0.5862415369999999,9.771444126499999,-0.03869918550447027,-0.025596998809748837,-0.005726425275793395,9.803084968639892,0.04675067115256133,0.03353874299999998,0.040697597500000016,-0.028635418000000357
165772.0,0.5130839279999999,-0.5575080524999999,9.758205148999998,-0.0280404597625409,-0.027728045826433914,0.0036006142468643022,9.787575699617568,0.03959894357179515,-0.011964112999999998,0.028733484500000017,-0.01323897750000036
165782.0,0.5058270069999999,-0.573100626,9.7641872055,-0.016315337847642993,-0.027195720404575643,0.011594222220998332,9.794062337589141,0.0337671948245109,-0.007256920999999972,-0.015592573500000095,0.005982056500002386
165792.0,0.47591672449999994,-0.6185054154999999,9.746241035999999,-0.010719812265749171,-0.02906147737495758,0.011594222220998332,9.77743626977297,0.0330743077197085,-0.029910282499999996,-0.04540478949999993,-0.01794616950000183
165802.0,0.47836838699999995,-0.6520441584999999,9.770169262,-0.013917255455402783,-0.032258920564611195,-0.00039618974020271284,9.80358124903571,0.035135237607209595,0.002451662500000007,-0.033538742999999926,0.023928226000000663
165812.0,0.5094554675,-0.600559246,9.7641872055,-0.016050047801339853,-0.03252595594016632,-0.01531875484475423,9.79589547031672,0.03937265668253307,0.031087080500000086,0.05148491249999987,-0.0059820564999988335
165822.0,0.5225963785,-0.561136513,9.7869386335,-0.017114698645056395,-0.031726595142752924,-0.021181315802203185,9.816931749632262,0.04181073890970968,0.013140910999999922,0.03942273299999999,0.022751427999999407
165832.0,0.5298532994999999,-0.49886428549999995,9.770169262,-0.012585569236131109,-0.030660198969784384,-0.01478642942289596,9.797235196853656,0.036291636074204485,0.007256920999999972,0.062272227500000055,-0.016769371500000574
165842.0,0.5310300975,-0.468954003,9.759381947,-0.005124286683855352,-0.027728045826433914,-0.0043929937272697275,9.785062432545338,0.028537715978315215,0.0011767980000000344,0.02991028249999994,-0.010787314999999964
165852.0,0.5441710085,-0.49288222899999995,9.740258979499998,-0.0029932396671702756,-0.02319891641750863,0.0033335788713091696,9.767891275289989,0.02362756768571221,0.013140911000000033,-0.02392822599999994,-0.01912296750000131
165862.0,0.5561351215,-0.5179872529999999,9.7306484625,-0.005124286683855352,-0.017603390835614807,0.004399975044277704,9.760282606994016,0.01885464036570338,0.011964112999999998,-0.025105023999999976,-0.009610516999998708
165872.0,0.552506661,-0.5239693095,9.709171899,-0.011252137687607444,-0.012540190675579259,0.0017348572764823635,9.738984875852232,0.016937435298489692,-0.003628460499999986,-0.005982056500000055,-0.021476563500000267
165882.0,0.5573119194999999,-0.49043056649999994,9.7020130445,-0.014184290830957916,-0.009075712110370514,-0.00039618974020271284,9.730373879344125,0.01684397883511389,0.004805258499999909,0.03353874300000004,-0.007158854500000089
165892.0,0.5537815254999999,-0.473661195,9.698384584,-0.007789404451650692,0.0013159782560037245,0.002001892652037496,9.725723235050584,0.008149490454743287,-0.0035303939999999923,0.016769371499999963,-0.003628460499999875
165902.0,0.5202427825,-0.4976874875,9.734276923,-0.004324925886441949,0.01090830782496456,0.005731661263549378,9.760865361309301,0.013059406738725583,-0.033538742999999926,-0.024026292500000046,0.035892339000000106
165912.0,0.48552724149999993,-0.5168104549999999,9.7606568115,-0.008854055295367234,0.009042550854582622,0.0041329396687225725,9.786380901054141,0.01331327200339699,-0.03471554100000007,-0.019122967499999866,0.02637988850000106
165922.0,0.5071018715,-0.5096516005,9.7379053835,-0.014451326206513048,-1.7453292519943296e-05,0.0001361356816555577,9.76440977837213,0.014451977950034743,0.02157463000000004,0.007158854499999867,-0.022751428000001184
165932.0,0.5202427825,-0.5120051965,9.7055434385,-0.009388126046477499,-0.003214896482173555,-0.0017296212887263805,9.732953062179883,0.010072937002585524,0.013140911000000033,-0.002353595999999958,-0.03236194499999989
165942.0,0.5202427825,-0.4749360595,9.6792616165,0.004735078260660616,-0.0013491395117916165,0.0017348572764823635,9.70486075397308,0.005220236903304474,0.0,0.037069136999999974,-0.02628182199999962
165952.0,0.5345604915,-0.5096516005,9.693579325499998,0.01432740782962145,0.002647664475275398,0.008929104453202991,9.721675771837175,0.017088406848683783,0.014317708999999956,-0.034715541000000016,0.014317708999998402
165962.0,0.5250480409999999,-0.540738681,9.711525494999998,0.01619316480000339,0.005578072289373877,0.012126547642856601,9.740728987428124,0.020985390976582266,-0.009512450500000047,-0.031087080499999975,0.017946169500000053
165972.0,0.5322068955,-0.5467207374999999,9.7055434385,0.012728686234794645,0.008777260808279484,0.012393583018411734,9.735487721785729,0.019815667048945725,0.007158854500000089,-0.005982056499999944,-0.0059820564999988335
165982.0,0.540542548,-0.5706489634999999,9.7306484625,0.00873188224772763,0.011175343200519692,0.007330382858376184,9.76234326309496,0.015964603850016388,0.008335652500000013,-0.023928225999999997,0.025105024000000142
165992.0,0.548976267,-0.5814362785,9.717507551499999,0.008998917623282763,0.010641272449409428,0.0017348572764823635,9.750353639799158,0.014043750478520793,0.008433719000000006,-0.010787315000000075,-0.013140911000000699
166002.0,0.5692760324999999,-0.6018341105,9.734276923,0.012728686234794645,0.010641272449409428,-0.004927064478379992,9.76946399304438,0.01730699560815004,0.0202997654999999,-0.020397832000000005,0.016769371500000574
166012.0,0.5800633475,-0.563490109,9.770169262,0.022588051179310613,0.008777260808279484,-0.0070581114950650685,9.803581080308529,0.02524039027535993,0.010787315000000075,0.03834400150000006,0.035892339000000106
166022.0,0.5788865495,-0.5239693095,9.8096900615,0.030049333731586372,0.007710864635310948,-0.0017296212887263805,9.840715043998673,0.03107107144819372,-0.0011767980000000344,0.03952079949999998,0.03952079949999998
166032.0,0.5788865495,-0.5335798265,9.848034062999998,0.031648055326413176,0.007178539213452678,0.002801253449450899,9.879453020003083,0.03257265497423948,0.0,-0.00961051700000004,0.038344001499998726
166042.0,0.5584887175,-0.519164051,9.894713717,0.030049333731586372,0.009576621605692885,0.006263986685407649,9.924051617198163,0.03215449685947275,-0.020397832000000005,0.014415775500000061,0.04667965400000185
166052.0,0.5669224365,-0.519164051,9.895890515,0.02498613357155082,0.013039354841649637,0.007597418233931317,9.925703070600328,0.02918993678244444,0.008433719000000006,0.0,0.0011767979999994793
166062.0,0.5573119194999999,-0.5120051965,9.900695773499999,0.014060372454066319,0.014105751014618173,0.009196139828758124,9.929578173128027,0.02193707530605527,-0.00961051700000004,0.007158854499999978,0.004805258499999354
166072.0,0.5692760324999999,-0.5108283985,9.895890515,0.0026022859147235454,0.012774064795346499,0.015058700786207076,9.92540527831282,0.019917657812759837,0.011964112999999998,0.0011767980000000344,-0.004805258499999354
166082.0,0.5692760324999999,-0.52759777,9.8528393215,-0.004324925886441949,0.01383871563906304,0.023317598806644243,9.883363663418669,0.027457702900455468,0.0,-0.01676937150000002,-0.043051193500000196
166092.0,0.5573119194999999,-0.5575080524999999,9.824105836999998,-0.00699004365423729,0.0135734255927599,0.028913124388538065,9.85568198050224,0.032696595457591716,-0.011964112999999998,-0.02991028249999994,-0.028733484500001794
166102.0,0.5657456384999999,-0.6030109084999999,9.822830972499998,-0.009121090670922365,0.014105751014618173,0.029714230515203457,9.857570623513535,0.03413359052054496,0.008433719000000006,-0.045502856000000036,-0.0012748644999991399
166112.0,0.570550897,-0.620957078,9.825282634999999,-0.011519173063162575,0.010108947027551158,0.024116959604057644,9.861404305494139,0.028574637331183643,0.00480525850000002,-0.017946169500000053,0.0024516625000003955
166122.0,0.559763582,-0.631744393,9.844405602499998,-0.017114698645056395,0.001848303677861995,0.01639038700547875,9.880524171943195,0.02376918009494774,-0.010787314999999964,-0.010787314999999964,0.019122967499999532
166132.0,0.5465246045,-0.5982056499999999,9.807336465499999,-0.01684940859875326,-0.006412339671827167,0.00839677903134472,9.840751378352255,0.019887849765519126,-0.013238977500000026,0.03353874300000004,-0.037069136999999586
166142.0,0.5584887175,-0.562313311,9.790567094,-0.011252137687607444,-0.009875072907783916,0.007862708280234455,9.822591813234336,0.016910051714143014,0.011964112999999998,0.035892338999999884,-0.016769371499998798
166152.0,0.5680992345,-0.5478975355,9.791743892,-0.0045919612619970815,-0.009875072907783916,0.009196139828758124,9.823501254449239,0.014253847232091454,0.00961051700000004,0.014415775500000061,0.0011767979999994793
166162.0,0.5692760324999999,-0.5443671415,9.825282634999999,-0.00032812189937493397,-0.002415535684760152,0.009196139828758124,9.856804230761426,0.00951375133032552,0.0011767979999999234,0.0035303939999999923,0.03353874299999937
166172.0,0.552506661,-0.5324030285,9.857546513499999,-0.002726204291615143,0.0037140606482439333,0.004665265090580842,9.88736263424283,0.0065567625169627155,-0.016769371499999908,0.011964112999999998,0.03226387850000023
166182.0,0.5082786695,-0.49288222899999995,9.8910852565,-0.016582373223198124,0.004246386070102204,-0.0025289820861397836,9.91639287487564,0.01730325538047139,-0.04422799150000001,0.03952079950000004,0.03353874300000115
166192.0,0.4974913544999999,-0.45698989,9.894713717,-0.031237902952194512,-0.00268082573106329,-0.0014625859131712482,9.91774656606794,0.03138682151802665,-0.010787315000000075,0.03589233899999994,0.003628460499999875
166202.0,0.5237731765,-0.448556171,9.858821378,-0.03363598534443472,-0.014138912270406064,0.006531022060962781,9.882909487710231,0.037066731707044914,0.026281822000000066,0.008433719000000006,-0.035892339000000106
166212.0,0.5561351215,-0.45336142949999997,9.838423545999998,-0.025108306619190425,-0.022132520244540092,0.017456783178447285,9.86455273844746,0.03774936810858665,0.032361945,-0.004805258499999965,-0.020397832000002225
166222.0,0.547799469,-0.49886428549999995,9.790567094,-0.01551597705022959,-0.02612932423160711,0.021186551789959165,9.81856169994871,0.03704533851069961,-0.008335652500000013,-0.04550285599999998,-0.04785645199999777
166232.0,0.528578435,-0.5347566244999999,9.770169262,-0.012318533860575978,-0.025064673387890566,0.015858061583620478,9.7990595067855,0.03211638593779951,-0.01922103399999997,-0.035892338999999995,-0.02039783200000045
166242.0,0.5166143219999999,-0.552702794,9.733100125,-0.013384930033544514,-0.02399827721492203,0.005464625887994246,9.762459156353277,0.02801670568398192,-0.01196411300000011,-0.017946169500000053,-0.037069136999999586
166252.0,0.5118090635,-0.520340849,9.731923327,-0.01551597705022959,-0.019469147805996744,-0.0019949113350295187,9.759253801353132,0.024975446569573654,-0.004805258499999909,0.032361945,-0.0011767979999994793
166262.0,0.5071018715,-0.504846342,9.7055434385,-0.012850859282434247,-0.01467298302151633,-0.0014625859131712482,9.731885509690297,0.019559656760793118,-0.004707192000000027,0.01549450699999999,-0.02637988850000106
166272.0,0.528578435,-0.503669544,9.685243673,-0.010452776890194039,-0.011740829878165854,0.0036006142468643022,9.712724807019232,0.01612674963837812,0.021476563500000045,0.0011767980000000344,-0.020299765499999012
166282.0,0.515437524,-0.5239693095,9.685243673,-0.007789404451650692,-0.008011061266653973,0.009728465250616393,9.713092436697577,0.014815362312880838,-0.013140911000000033,-0.02029976550000001,0.0
166292.0,0.48552724149999993,-0.539561883,9.6839688085,-0.003525565089028546,-0.00214850030920502,0.012393583018411734,9.71113359046337,0.013063175831699372,-0.02991028250000005,-0.015592573499999984,-0.0012748645000009162
166302.0,0.4770935225,-0.5490743334999999,9.7163307535,-0.001127482696788337,0.006644468462342412,0.007862708280234455,9.743520111557721,0.010355788713501618,-0.00843371899999995,-0.009512450499999936,0.03236194499999989
166312.0,0.471111466,-0.5419154789999999,9.780956577,-0.003792600464583678,0.013306390217204768,-0.0001308996938995747,9.807279437282086,0.013836942351052348,-0.005982056499999999,0.007158854499999978,0.06462582350000012
166322.0,0.44836003799999996,-0.540738681,9.828813028999999,-0.008321729873508963,0.01597150798500011,-0.0038606683054114572,9.853882006795347,0.01841860513630124,-0.022751428000000018,0.0011767979999999234,0.04785645199999955
166332.0,0.43639592499999996,-0.5264209719999999,9.820477376499998,-0.012318533860575978,0.013039354841649637,-0.002261946710584651,9.844253976074892,0.018080029150477978,-0.011964112999999998,0.014317709000000067,-0.008335652500001345
166342.0,0.443652846,-0.540738681,9.816848915999998,-0.01551597705022959,0.009309586230137754,0.00386590429316744,9.841735050714577,0.018502949916258008,0.007256921000000027,-0.014317709000000067,-0.003628460499999875
166352.0,0.45797055499999995,-0.5850647389999999,9.796549150499999,-0.016050047801339853,0.0061121430404841425,0.006263986685407649,9.824683864442173,0.01828113388626639,0.014317708999999956,-0.04432605799999989,-0.020299765499999012
166362.0,0.45198849849999995,-0.6412568435,9.767815666,-0.012585569236131109,0.004513421445657336,-0.0001308996938995747,9.799271749832581,0.013371038137460845,-0.005982056499999999,-0.05619210450000012,-0.02873348449999824
166372.0,0.47836838699999995,-0.6532209565,9.7522230925,-0.008854055295367234,0.0007819075048934596,-0.011054915482132083,9.78577483787472,0.014185091851543045,0.026379888500000004,-0.011964112999999998,-0.015592573500001095
166382.0,0.4974913544999999,-0.6412568435,9.734276923,-0.0024591689160600103,-0.004279547325890096,-0.021181315802203185,9.76805278450051,0.021748797120413606,0.019122967499999977,0.011964112999999998,-0.017946169500000053
166392.0,0.5011198149999999,-0.6053645045,9.7259412705,0.009531243045141035,-0.007476990515543708,-0.026776841384097003,9.757639102237247,0.029389610675614092,0.003628460499999986,0.035892338999999995,-0.008335652499999568
166402.0,0.5322068955,-0.5934003915,9.7306484625,0.02045525883337354,-0.005878268920716902,-0.02784323755706554,9.763241659664258,0.03504593467299392,0.031087080500000086,0.011964112999999998,0.004707191999999694
166412.0,0.537012154,-0.564666907,9.759381947,0.02365444735227915,-0.0016161748873467492,-0.02810852760336868,9.790442623131712,0.036772737521669166,0.00480525850000002,0.028733484500000017,0.028733484500000017
166422.0,0.5429942105,-0.5478975355,9.765364003499998,0.01619316480000339,0.006379178416039274,-0.028375562978923807,9.795783202117992,0.03328791188817048,0.005982056499999944,0.01676937150000002,0.0059820564999988335
166432.0,0.5418174124999999,-0.5383850849999999,9.791743892,0.004468042885105484,0.011974703997933095,-0.02810852760336868,9.821490368307549,0.03087792523941004,-0.0011767980000000344,0.009512450500000047,0.02637988850000106
166442.0,0.5418174124999999,-0.503669544,9.7737977225,-0.0019268434942017398,0.01623679803130325,-0.02650980600854187,9.801753467537711,0.031146687637227225,0.0,0.03471554099999996,-0.017946169500000053
166452.0,0.5740812909999999,-0.4976874875,9.801354409,0.001270599695451872,0.019701276596511993,-0.023047072772585123,9.830758384515105,0.030346701410584775,0.03226387850000001,0.005982056499999944,0.027556686500000538
166462.0,0.6099736299999999,-0.5000410835,9.8671570305,0.007665486074759095,0.01650383340685838,-0.015585790220309363,9.89863105580912,0.023959404222040896,0.035892338999999995,-0.002353595999999958,0.0658026214999996
166472.0,0.5860454039999999,-0.5023946794999999,9.9018725715,0.007133160652900825,0.005845107664929009,-0.010255554684718681,9.931914722336447,0.013792159599060607,-0.023928225999999997,-0.002353595999999958,0.03471554100000063
166482.0,0.5968327189999999,-0.48925376849999996,9.846857264999999,0.005002113636215749,-0.006944665093685437,-0.0043929937272697275,9.87705302920581,0.009620182325761797,0.010787314999999964,0.013140910999999977,-0.055015306500001415
166492.0,0.608796832,-0.519164051,9.821654174499999,0.004735078260660616,-0.012007865253720986,-0.0027942721324429216,9.85418974944045,0.013206731269933814,0.01196411300000011,-0.029910282499999996,-0.025203090499999803
166502.0,0.6136020904999999,-0.543092277,9.7749745205,0.0063337998554874216,-0.009875072907783916,-0.00039618974020271284,9.80926009560493,0.01173844333179073,0.004805258499999909,-0.023928225999999997,-0.046679653999998294
166512.0,0.6028147755,-0.540738681,9.746241035999999,0.007665486074759095,-0.003480186528476693,0.002534218073895766,9.779826087743128,0.008791679946482141,-0.010787314999999964,0.002353595999999958,-0.028733484500001794
166522.0,0.6099736299999999,-0.5359334225,9.74388744,0.007665486074759095,0.004246386070102204,0.005731661263549378,9.777659991329095,0.010471075028799865,0.007158854499999978,0.00480525850000002,-0.0023535959999989586
166532.0,0.608796832,-0.495235825,9.785761835499999,0.003935717463247213,0.0135734255927599,0.010260790672474663,9.817180186089333,0.017464580713462366,-0.0011767979999999234,0.04069759749999996,0.04187439549999894
166542.0,0.570550897,-0.495235825,9.7953723525,-0.0016598081186466075,0.022366394364307336,0.018256143975860686,9.824464686310003,0.028918806211837282,-0.038245935000000064,0.0,0.009610517000000485
166552.0,0.548976267,-0.5251461075,9.8312646915,-0.011786208438717707,0.025563837553960942,0.025183355777026184,9.860573959475495,0.037770701714933526,-0.021574629999999928,-0.029910282499999996,0.035892339000000106
166562.0,0.5166143219999999,-0.5671185695,9.8455824005,-0.02111150263212341,0.020767672769480525,0.03024655593706173,9.87542437744336,0.04233020105905689,-0.032361945000000114,-0.04197246199999993,0.014317709000000178
166572.0,0.5058270069999999,-0.632921191,9.808513263499998,-0.025108306619190425,0.011707668622377963,0.029180159764093196,9.841919662102654,0.04023652929506593,-0.010787314999999964,-0.06580262150000005,-0.03706913700000136
166582.0,0.5166143219999999,-0.69038816,9.7522230925,-0.021378538007678544,0.0013159782560037245,0.021718877211817436,9.79026973147594,0.03050382457099492,0.010787314999999964,-0.057466969000000034,-0.05629017099999878
166592.0,0.503473411,-0.7262804989999999,9.740258979499998,-0.010719812265749171,-0.007476990515543708,0.011060151469888067,9.780266551916773,0.01712152775657897,-0.013140910999999922,-0.035892338999999884,-0.01196411300000122
166602.0,0.5237731765,-0.7214752404999999,9.7486926985,0.003935717463247213,-0.011208504456307585,-0.0014625859131712482,9.789375577270627,0.011969110311588869,0.02029976550000001,0.00480525850000002,0.008433719000001005
166612.0,0.535835356,-0.7071575314999999,9.7390821815,0.016458454846306526,-0.010142108283339049,-0.00972322926286041,9.779412714529826,0.021639877163630812,0.012062179499999992,0.014317708999999956,-0.009610516999998708
166622.0,0.5561351215,-0.6724419905,9.7834082395,0.023387411976724018,-0.0061453042962720346,-0.01718451181513617,9.822247262448137,0.029665522921184923,0.02029976550000001,0.03471554099999996,0.044326057999999335
166632.0,0.535835356,-0.611346561,9.8312646915,0.02391973739858229,-0.0016161748873467492,-0.022513002021474857,9.864817767233248,0.03288770467062968,-0.02029976550000001,0.06109542950000002,0.04785645199999955
166642.0,0.5561351215,-0.5383850849999999,9.880297941499999,0.01912357261410187,0.004513421445657336,-0.02064724505109292,9.910571738599412,0.028502468855746997,0.02029976550000001,0.07296147600000003,0.04903324999999903
166652.0,0.535835356,-0.515633657,9.936588112499999,0.007932521450314228,0.005578072289373877,-0.01478642942289596,9.964375590795798,0.017682711390040257,-0.02029976550000001,0.022751427999999962,0.056290171000000555
166662.0,0.5429942105,-0.515633657,9.961693136500001,-0.003792600464583678,0.0015812683023068625,-0.006525786073206799,9.989797341621047,0.007711686689765123,0.007158854499999978,0.0,0.02510502400000192
166672.0,0.540542548,-0.528774568,9.979737372499999,-0.01551597705022959,-0.006944665093685437,0.0033335788713091696,10.008343859702018,0.017323009703222567,-0.0024516624999999515,-0.013140911000000033,0.018044235999997937
166682.0,0.5298532994999999,-0.5478975355,9.932959652,-0.022177898805091946,-0.014138912270406064,0.009995500626171525,9.962159588997658,0.0281367743063581,-0.010689248500000081,-0.019122967499999977,-0.04677772049999973
166692.0,0.5465246045,-0.595852054,9.9114830885,-0.027773424386985764,-0.018935077054886482,0.012126547642856601,9.94440676094866,0.0357344847869474,0.016671305000000025,-0.04795451849999999,-0.02147656349999849
166702.0,0.5561351215,-0.6305675949999999,9.857546513499999,-0.032569589171466184,-0.022666590995650358,0.009995500626171525,9.893337406105479,0.040920196956148444,0.00961051700000004,-0.03471554099999996,-0.053936575000001596
166712.0,0.5669224365,-0.632921191,9.812141723999998,-0.038964475550773404,-0.02399827721492203,0.007862708280234455,9.84886366515882,0.0464324223547634,0.010787314999999964,-0.002353596000000069,-0.04540478950000093
166722.0,0.5645688405,-0.643708506,9.7834082395,-0.04136255794301361,-0.0245306026367803,0.009995500626171525,9.820803195109693,0.04911742764111906,-0.002353595999999958,-0.010787314999999964,-0.02873348449999824
166732.0,0.562117178,-0.6640082715,9.790567094,-0.04642575810304917,-0.02586403418530397,0.008929104453202991,9.829144760788637,0.053889035861830165,-0.0024516624999999515,-0.02029976550000001,0.007158854500000089
166742.0,0.5561351215,-0.6844061035,9.804884803,-0.051488958263084715,-0.032258920564611195,0.004665265090580842,9.844463621141287,0.06093862057330283,-0.005982056500000055,-0.020397832000000005,0.014317709000000178
166752.0,0.53936575,-0.7047058689999999,9.814495319999999,-0.056018087672010004,-0.04051956391430036,-0.004927064478379992,9.854534192968128,0.06931188332896593,-0.01676937150000002,-0.0202997654999999,0.009610516999998708
166762.0,0.515437524,-0.681954441,9.8671570305,-0.06374640559984089,-0.05384166209477308,-0.016917476439581036,9.904116596915266,0.08513947270867332,-0.023928225999999997,0.02275142799999985,0.05266171050000068
166772.0,0.503473411,-0.6412568435,9.897067312999999,-0.07653617835845535,-0.07142934496711993,-0.024645794367411926,9.93059098004608,0.10755162992790887,-0.011964112999999998,0.040697597500000016,0.029910282499999497
166782.0,0.535835356,-0.632921191,9.912659886499998,-0.09465618665266047,-0.08368679230387611,-0.029441959151892346,9.947287810663903,0.12973088235434574,0.032361945,0.008335652500000013,0.015592573499999318
166792.0,0.540542548,-0.6257623365,9.8528393215,-0.10824532020868832,-0.091413364902455,-0.03423812393637276,9.887477304311593,0.1457590537858739,0.004707192000000027,0.007158854499999978,-0.05982056499999899
166802.0,0.5765329535,-0.643708506,9.757028351,-0.11783764977764916,-0.0898146433076282,-0.03850021796974292,9.795220933158475,0.15308379614222434,0.03599040549999999,-0.017946169499999942,-0.09581097049999876
