timestamp,ax,ay,az,gx,gy,gz,acc_mag,gyro_mag,dax,day,daz
347092.0,0.16151552549999998,0.0850236555,9.7906651605,-0.1262536274307658,0.08979719001510825,-0.028389525612939764,9.7923664439195,0.15751025026506635,0.0,0.0,0.0
347102.0,0.23222147199999998,-0.436984324,9.850485725499999,-0.1315821176371045,0.0924623077829036,-0.056635934227215995,9.862907844026468,0.17050149878577237,0.0707059465,-0.5220079795,0.05982056499999899
347112.0,0.2405571245,-0.462089348,9.796647216999999,-0.11346210934289937,0.0956597509725572,-0.07182378937807064,9.810488825233765,0.16487296604749113,0.008335652500000013,-0.02510502400000003,-0.05383850850000016
347122.0,0.24653918099999997,-0.40825083949999996,9.7355517875,-0.09480977562683597,0.10605144133893145,-0.07448890714586599,9.74722621686883,0.16057521306933162,0.0059820564999999715,0.05383850850000005,-0.06109542949999813
347132.0,0.259680092,-0.39746352449999994,9.7571264175,-0.08281936366563492,0.12230569266275464,-0.0667605892180351,9.768670683904002,0.16209474306230942,0.013140911000000005,0.01078731500000002,0.021574629999999928
347142.0,0.23575186599999998,-0.4130560979999999,9.809788128000001,-0.07429343026964264,0.13376377920209742,-0.060098667463172745,9.821310370753347,0.16439012208313108,-0.023928225999999997,-0.015592573499999984,0.05266171050000068
347152.0,0.18907221199999996,-0.43217906549999996,9.844503669,-0.0654987161688432,0.12230569266275464,-0.051572734067180444,9.855799284429523,0.14801523967702443,-0.046679654000000015,-0.019122967500000032,0.03471554099999885
347162.0,0.17230284049999997,-0.45130203299999994,9.919916807499998,-0.049778535596130276,0.093261668580317,-0.04597720848528662,9.931672128174352,0.1152802894365711,-0.01676937149999999,-0.019122967499999977,0.07541313849999831
347172.0,0.16396718799999999,-0.48601757399999995,9.941491437499998,-0.024464280125204515,0.04503298535995769,-0.04544313773417636,9.95471497948903,0.06849488695955315,-0.008335652499999985,-0.034715541000000016,0.021574629999999928
347182.0,0.209470044,-0.448948437,9.886476131,0.002181661564992912,-0.00799360797413403,-0.044111451514904684,9.89888088054659,0.044882931838061704,0.04550285600000001,0.037069136999999974,-0.05501530649999786
347192.0,0.30518294799999995,-0.42855060500000003,9.836168016499999,0.021101030656611446,-0.04236786759216235,-0.03984761215228254,9.850228093887642,0.06187181824802785,0.09571290399999996,0.02039783199999995,-0.05030811450000172
347202.0,0.3686319735,-0.36755324199999995,9.7798778455,0.028562313208887205,-0.04529827540626083,-0.028389525612939764,9.79372225410201,0.06061109349905997,0.06344902550000003,0.06099736300000008,-0.05629017099999878
347212.0,0.40815277299999997,-0.3376429595,9.7571264175,0.02429847384626506,-0.02691297706575256,-0.01027126264798663,9.771494633948478,0.03768584617841658,0.03952079949999998,0.02991028249999994,-0.022751427999999407
347222.0,0.39020660349999997,-0.34480181399999993,9.80861133,0.016570155918434165,-0.0015987215948268059,0.0035849062835963527,9.822423616773868,0.017028726639451142,-0.017946169499999998,-0.007158854499999923,0.051484912499999425
347232.0,0.35303939999999995,-0.37951735499999995,9.8230271055,0.016037830496575894,0.011990411961201045,0.0078487456462185,9.83669313113336,0.021507784503645343,-0.03716720350000002,-0.034715541000000016,0.014415775499999839
347242.0,0.306359746,-0.355589129,9.8481321295,0.022966787626993383,0.007726572598578897,0.006517059426946826,9.85931064338285,0.02509273443845615,-0.04667965399999996,0.02392822599999994,0.025105024000000142
347252.0,0.34950900599999996,-0.343625016,9.845680467000001,0.03229208182039909,-0.007461282552275759,0.005450663253978291,9.85787292244942,0.03358807847329932,0.04314925999999997,0.011964112999999998,-0.002451662499998619
347262.0,0.39020660349999997,-0.33999655549999996,9.821752241,0.03682295655857636,-0.01332384350972471,0.01077915346031698,9.83537878959196,0.04061582308543677,0.040697597500000016,0.0036284605000000414,-0.023928226000000663
347272.0,0.37579082799999997,-0.29812215999999997,9.800275677499998,0.03575656038560783,-0.010391690366374239,0.023835961594486556,9.812007894599864,0.04421167158583864,-0.014415775500000005,0.041874395499999995,-0.021476563500002044
347282.0,0.359119523,-0.313616667,9.806257733999999,0.02269975225143825,-0.005862560957448953,0.0350270127582742,9.81784156478677,0.042149021293795,-0.01667130499999997,-0.015494507000000046,0.00598205650000061
347292.0,0.317147061,-0.36873004,9.8265574995,0.007511897100583594,0.004529129408925285,0.04035724829386488,9.838586097182818,0.04129950485302709,-0.04197246199999999,-0.055113372999999966,0.020299765500000788
347302.0,0.2525212375,-0.40825083949999996,9.85176059,-0.0010157816246606998,0.007194247176720627,0.04222300526424682,9.86344881093921,0.042843566358245266,-0.06462582350000001,-0.03952079949999998,0.025203090499999803
347312.0,0.21064684199999997,-0.4429663805,9.8265574995,-0.004480260189869444,0.001865756970381938,0.037159805104211276,9.838791775277976,0.037475390535982735,-0.04187439550000002,-0.034715541000000016,-0.025203090499999803
347322.0,0.178284897,-0.4668946065,9.785859901999999,-0.0012828170002158322,-0.009327039522657697,0.030497883349348914,9.79861368253941,0.0319180227223391,-0.032361944999999975,-0.023928225999999997,-0.04069759750000124
347332.0,0.15553346899999998,-0.45130203299999994,9.8049828695,0.01017526953912694,-0.02158274153016188,0.02303660079707316,9.816595807924331,0.03316678788238877,-0.022751428000000018,0.01559257350000004,0.01912296750000131
347342.0,0.129251647,-0.47169986499999994,9.806257733999999,0.023766148424406785,-0.030110420255406174,0.013177235852557189,9.81844679654211,0.040559915724789494,-0.026281821999999982,-0.020397832000000005,0.0012748644999991399
347352.0,0.14121576,-0.46571780849999994,9.795470418999999,0.03415783879078103,-0.03330786344505979,0.004916592502868027,9.80755197271625,0.047961907801618915,0.011964112999999998,0.005982056499999999,-0.010787314999999964
347362.0,0.17475450299999998,-0.44649677449999997,9.783506306,0.03975336437267484,-0.029578094833547904,0.00012042771838760874,9.795248549449852,0.04955005727306844,0.03353874299999998,0.01922103399999997,-0.011964112999999443
347372.0,0.1927006725,-0.393835064,9.8134165885,0.03575656038560783,-0.02424785929795722,-0.00041189770347066176,9.823206439155436,0.0432048602689706,0.017946169500000025,0.05266171049999996,0.029910282500001273
347382.0,0.19985952699999998,-0.35196066849999996,9.8469553315,0.03016103480371401,-0.018385298340508265,0.0051836278784231585,9.85527013547878,0.03570122145644753,0.007158854499999978,0.04187439550000005,0.03353874299999937
347392.0,0.21898249449999999,-0.3531374665,9.888829727,0.02083399528105631,-0.012524482712311309,0.016109388995907664,9.89755589894507,0.029162140531921392,0.019122967500000004,-0.0011767980000000344,0.04187439549999894
347402.0,0.22496455099999998,-0.3878530075,9.893634985499999,0.012308061885064012,-0.008792968771547434,0.0265010793622819,9.903789791334578,0.030514126147572006,0.005982056499999999,-0.034715541000000016,0.004805258499999354
347412.0,0.1962310665,-0.43933792,9.901970637999998,0.0037803831598197174,-0.007726572598578897,0.031030208771207185,9.913654571106647,0.03220038939734832,-0.02873348449999999,-0.05148491249999998,0.008335652499999568
347422.0,0.18191335749999998,-0.48846923649999996,9.872060355499999,-0.007143632628412791,-0.0021310470166850766,0.025701718564868494,9.885811566446053,0.026761001208937457,-0.014317709000000012,-0.049131316499999966,-0.029910282499999497
347432.0,0.153179873,-0.45130203299999994,9.857742646499998,-0.020999801559995774,0.010391690366374239,0.015042992822939126,9.869256693546228,0.027843680203967186,-0.02873348449999999,0.03716720350000002,-0.014317709000000178
347442.0,0.107677017,-0.4345326615,9.890006524999999,-0.027394687939302997,0.020251055310890206,0.00731642022436023,9.900133435385749,0.03484399766668508,-0.045502855999999994,0.016769371499999963,0.03226387850000023
347452.0,0.09571290399999999,-0.4429663805,9.888829727,-0.023132593905932843,0.01918465913792167,0.0017191493132144146,9.899208733219249,0.03010188567874392,-0.011964113000000012,-0.008433719000000006,-0.0011767979999994793
347462.0,0.11365907349999999,-0.43933792,9.855290984,-0.01407258975883028,0.012524482712311309,-0.0014782938764391971,9.865733453334856,0.018896714066642308,0.017946169499999998,0.003628460499999986,-0.03353874299999937
347472.0,0.11365907349999999,-0.42021495249999996,9.863724702999999,-0.00847706417693646,-0.0007993607974134029,-0.0009442231253289323,9.873325883807638,0.008566863606638473,0.0,0.019122967500000032,0.008433718999999229
347482.0,0.132782041,-0.474053461,9.854114185999999,-0.0026145032194875057,-0.014388494353441254,-0.002542944720155738,9.866403810154164,0.014843549598848966,0.019122967500000004,-0.05383850850000005,-0.009610517000000485
347492.0,0.11964113,-0.462089348,9.8349912185,0.002981022362406315,-0.025314255470925754,-0.007339109504636156,9.846567566085904,0.02652471588337002,-0.013140910999999991,0.011964112999999998,-0.019122967499997756
347502.0,0.16396718799999999,-0.470523067,9.794293621,0.006977826349473329,-0.03437425961802832,-0.015599752854325319,9.80696001468758,0.03838791572835191,0.04432605799999999,-0.008433719000000006,-0.04069759750000124
347512.0,0.24418558499999998,-0.45846088749999997,9.753596023499998,0.0013823007675795092,-0.023448498500543816,-0.020662953014360868,9.767417692252343,0.031284188731941595,0.080218397,0.012062179500000048,-0.04069759750000124
347522.0,0.24889277699999998,-0.392658266,9.7343749895,-0.009009389598794729,-0.0037297686115118824,-0.018531905997675794,9.745469950931254,0.020940673693675235,0.004707191999999999,0.06580262149999999,-0.019221033999999193
347532.0,0.24291072049999998,-0.3411733535,9.751144361,-0.010875146569176666,0.01119105116378764,-0.012137019618368569,9.760134283109755,0.019769058760301442,-0.005982056499999999,0.05148491249999998,0.016769371500000574
347542.0,0.2201592925,-0.3268556445,9.771542192999998,-0.0007487462491055673,0.013589133556027849,-0.005475097863506212,9.779485751101376,0.014669760337649761,-0.02275142799999999,0.014317709000000012,0.020397831999998672
347552.0,0.266937013,-0.36392478149999996,9.8157701845,0.01204102650950888,0.002930407814098479,-0.0017435839227423352,9.82614069359982,0.012514539314544127,0.04677772050000001,-0.037069136999999974,0.04422799150000145
347562.0,0.26929060899999996,-0.392658266,9.829009162,0.017369516715847567,-0.0037297686115118824,-0.0020106192982974674,9.840534490190747,0.017878866709056633,0.002353595999999958,-0.028733484500000017,0.01323897750000036
347572.0,0.258503294,-0.392658266,9.844503669,0.010709340290237207,-0.0013316862192716736,-0.003077015471266003,9.855722041323073,0.01122191524870449,-0.010787314999999964,0.0,0.015494506999999658
347582.0,0.24173392249999998,-0.37951735499999995,9.855290984,-0.0012828170002158322,0.00559552558189382,-0.004408701690537677,9.865557718210619,0.007238244026683591,-0.01676937150000002,0.013140911000000033,0.010787314999999964
347592.0,0.23222147199999998,-0.3986403225,9.836168016499999,-0.007677703379523056,0.00559552558189382,-0.007339109504636156,9.846981373375208,0.012004980801426077,-0.009512450499999991,-0.019122967500000032,-0.01912296750000131
347602.0,0.2848831825,-0.46091255,9.819398645,-0.00607898178469625,-0.0021310470166850766,-0.011602948867258302,9.834337219957767,0.013271164355180064,0.052661710500000014,-0.0622722275,-0.016769371499998798
347612.0,0.317147061,-0.42021495249999996,9.799000813,-0.0018151424220741027,-0.0031974431896536117,-0.009471901850573226,9.813133026601655,0.010160477824904092,0.03226387850000001,0.040697597500000016,-0.02039783200000045
347622.0,0.28723677849999996,-0.355589129,9.844503669,0.0037803831598197174,-0.002398082392240209,-0.0012112585008840647,9.855110404482565,0.004637805855249327,-0.02991028250000005,0.06462582349999996,0.04550285600000059
347632.0,0.2621317545,-0.3627479835,9.881670872499999,0.012840387306922283,-0.006127851003752092,0.0051836278784231585,9.891800563530659,0.015142526278594408,-0.025105023999999976,-0.007158854499999978,0.037167203499999246
347642.0,0.26330855249999996,-0.4070740415,9.891183323,0.018170622842512963,-0.01305680813416958,0.005717698629533424,9.903057517669788,0.02309423847533274,0.001176797999999979,-0.044326058,0.009512450500000824
347652.0,0.28723677849999996,-0.41178123349999995,9.887652928999998,0.014971434323607358,-0.01598721594826806,-0.0006789330790257941,9.900391365776814,0.021913371936067728,0.023928225999999997,-0.004707191999999971,-0.0035303940000019907
347662.0,0.2860599805,-0.4070740415,9.852937388,0.0035150931135165798,-0.01119105116378764,-0.005475097863506212,9.865491105847447,0.012944968225614719,-0.001176797999999979,0.004707191999999971,-0.034715540999997074
347672.0,0.266937013,-0.37353529849999995,9.8469553315,-0.009276424974349861,-0.002930407814098479,-0.006539748707222752,9.85765252424182,0.011722101493132233,-0.019122967499999977,0.03353874300000004,-0.00598205650000061
347682.0,0.2740958675,-0.381870951,9.8265574995,-0.01780235837034216,0.0007993607974134029,-0.005740387909809351,9.837793769884481,0.01872204568378195,0.007158854499999978,-0.008335652500000068,-0.02039783200000045
347692.0,0.29567049749999996,-0.39746352449999994,9.7906651605,-0.020734511513692634,0.0021310470166850766,-0.0017435839227423352,9.803189408627599,0.02091653446425627,0.021574629999999984,-0.015592573499999929,-0.035892339000000106
347702.0,0.2980240935,-0.41423289599999996,9.782329507999998,-0.018601719167755566,0.003996803987067015,0.001986184688769547,9.795630549154176,0.019129645258733424,0.0023535960000000133,-0.01676937150000002,-0.008335652500001345
347712.0,0.290865239,-0.41178123349999995,9.761931676,-0.01753706832403902,0.0031974431896536117,0.0030525808617380824,9.77494124884715,0.01808564785321567,-0.007158854499999978,0.002451662500000007,-0.020397831999998672
347722.0,0.2525212375,-0.39746352449999994,9.7428087085,-0.013273228961416875,0.009592329568960835,0.005450663253978291,9.754181962579944,0.017259812383975247,-0.0383440015,0.014317709000000012,-0.019122967499999532
347732.0,0.2201592925,-0.380694153,9.775072586999999,-0.009276424974349861,0.010391690366374239,0.009714502616600437,9.784960001620924,0.016982663220569197,-0.032361945,0.016769371499999963,0.032263878499998455
347742.0,0.21662889849999997,-0.4070740415,9.755949619499999,-0.003946189438759179,0.007726572598578897,0.00838107106807677,9.766841369304133,0.012062946881083336,-0.00353039400000002,-0.026379888500000004,-0.019122967499999532
347752.0,0.2034879875,-0.4130560979999999,9.776249385,0.0019163715186897737,0.0034644785652087444,0.004916592502868027,9.787087142703117,0.006312525118024821,-0.013140910999999977,-0.005982056499999944,0.020299765500000788
347762.0,0.201036325,-0.4333558635,9.799000813,0.008576547944300135,-0.0010663961729685354,0.001186823891356144,9.810638605186412,0.00872369912294633,-0.002451662500000007,-0.020299765500000067,0.022751427999999407
347772.0,0.213000438,-0.435807526,9.807434532,0.011508701087650609,-0.006661921754862355,-0.0014782938764391971,9.819423072959658,0.013379714308531264,0.011964112999999998,-0.002451662500000007,0.008433719000001005
347782.0,0.221434157,-0.415409694,9.7918419585,0.009642944117268671,-0.0063948863793072235,-0.002542944720155738,9.803150883261798,0.011846835480531646,0.008433719000000006,0.020397832000000005,-0.015592573500001095
347792.0,0.24173392249999998,-0.4106044355,9.806257733999999,0.002181661564992912,-0.0031974431896536117,-0.0012112585008840647,9.817826747166315,0.004055913866343009,0.020299765499999983,0.00480525850000002,0.014415775499999839
347802.0,0.2644853505,-0.4106044355,9.831362758000001,-0.004745550236172582,0.0034644785652087444,0.0014538592669112766,9.843487297826455,0.006052814679206054,0.022751428000000018,0.0,0.02510502400000192
347812.0,0.24418558499999998,-0.40226878299999996,9.817045049,-0.008742354223239598,0.012789772758614447,0.0027855454861829498,9.82831726532032,0.01574059427839958,-0.02029976550000001,0.008335652500000013,-0.014317709000000178
347822.0,0.2178056965,-0.4130560979999999,9.844503669,-0.005811946409141118,0.021050416108303608,0.0033178709080412204,9.855572390809034,0.022088617130954183,-0.026379888499999976,-0.010787314999999964,0.0274586199999991
347832.0,0.19387747049999998,-0.4250202109999999,9.8697067595,-0.0023474678439323734,0.022116812281272148,0.001186823891356144,9.880756153850067,0.022272686001298107,-0.023928226000000025,-0.011964112999999998,0.025203090499999803
347842.0,0.1711260425,-0.42855060500000003,9.9091294925,0.0027157323161031764,0.016786576745681462,-0.0009442231253289323,9.91986829764392,0.017031028100551848,-0.02275142799999999,-0.0035303940000001033,0.03942273300000032
347852.0,0.1734796385,-0.42619700899999996,9.924722066,0.006712536303170191,0.0034644785652087444,-0.003077015471266003,9.935383594144815,0.008156517612350195,0.0023535960000000133,0.002353596000000069,0.015592573499999318
347862.0,0.2034879875,-0.450125235,9.8971653795,0.00884358331985527,-0.008260643349689161,-0.004675737066092809,9.909485488026812,0.012973423279814017,0.03000834899999999,-0.023928226000000052,-0.02755668649999876
347872.0,0.2058415835,-0.436984324,9.852937388,0.0035150931135165798,-0.01119105116378764,-0.005208062487951079,9.86477071344123,0.012834306394410551,0.0023535960000000133,0.013140911000000033,-0.044227991499999675
347882.0,0.20819517949999997,-0.42021495249999996,9.8230271055,-0.007677703379523056,-0.007726572598578897,-0.006539748707222752,9.834215136677624,0.01270493472862697,0.002353595999999958,0.01676937150000002,-0.029910282500001273
347892.0,0.221434157,-0.427373807,9.845680467000001,-0.01913578991886583,-0.0005323254218582705,-0.004408701690537677,9.8574390850292,0.019644298836300405,0.013238977500000026,-0.007158854500000034,0.022653361500001523
347902.0,0.1962310665,-0.448948437,9.818221846999998,-0.02579596634447619,0.0085259333959923,-0.0060074232853644825,9.830439540908257,0.027824675280185833,-0.025203090499999997,-0.021574629999999984,-0.027458620000002654
347912.0,0.20466478549999997,-0.505238608,9.793018756499999,-0.027129397892999858,0.01332384350972471,-0.01027126264798663,9.808178734637655,0.03192221596775925,0.008433718999999978,-0.056290171,-0.025203090499999803
347922.0,0.2201592925,-0.474053461,9.796647216999999,-0.02473131550075965,0.014655529728996385,-0.016133823605435582,9.81058069088237,0.032965478643073295,0.015494507000000018,0.03118514699999997,0.003628460499999875
347932.0,0.22496455099999998,-0.45375369549999994,9.817045049,-0.01913578991886583,0.012789772758614447,-0.024127431579569612,9.830100455208072,0.033345010086409874,0.0048052584999999925,0.020299765500000067,0.020397832000002225
347942.0,0.26330855249999996,-0.43217906549999996,9.814593386499999,-0.014604915180688549,0.014655529728996385,-0.027324874769223226,9.827632140083674,0.03427443479076403,0.038344001499999975,0.021574629999999984,-0.002451662500002172
347952.0,0.2656621485,-0.36873004,9.809788128000001,-0.010608111193621535,0.01572192590196492,-0.024659757001427883,9.820309635433794,0.031109718618666186,0.0023535960000000133,0.06344902549999998,-0.004805258499997578
347962.0,0.27762626149999997,-0.3423501514999999,9.789488362499998,-0.006344271830999388,0.011458086539342773,-0.01533446280802218,9.799406225217396,0.02016638990546637,0.011964112999999998,0.02637988850000006,-0.020299765500002565
347972.0,0.2729190695,-0.3029274185,9.8157701845,0.0005829399701661061,0.001865756970381938,-0.007073819458333018,9.824235041686197,0.007338922932586013,-0.004707191999999971,0.03942273299999993,0.026281822000001398
347982.0,0.2656621485,-0.32803244249999997,9.8385216125,0.005113814708343385,-0.01119105116378764,-0.0014782938764391971,9.84757275576615,0.01239258164414903,-0.007256921000000027,-0.025105023999999976,0.022751427999999407
347992.0,0.258503294,-0.3303860385,9.8469553315,0.00884358331985527,-0.019984019935335072,0.001986184688769547,9.855886981291986,0.021943448870425875,-0.007158854499999978,-0.0023535960000000133,0.008433719000001005
348002.0,0.2621317545,-0.37235850049999997,9.821752241,0.005646140130201656,-0.01812000829420513,0.0017191493132144146,9.832302934368956,0.0190569953904875,0.003628460499999986,-0.04197246199999999,-0.025203090499999803
348012.0,0.28723677849999996,-0.4070740415,9.793018756499999,-0.007410668003967923,-0.0031974431896536117,0.001986184688769547,9.805683586948286,0.008311833301624784,0.025105023999999976,-0.034715541000000016,-0.028733484500001794
348022.0,0.27164420499999997,-0.42256854850000003,9.783506306,-0.021266836935550905,0.01625425132382319,-0.0009442231253289323,9.796394765005811,0.026783774876811637,-0.015592573499999984,-0.015494507000000046,-0.009512450499999048
348032.0,0.25134443949999996,-0.4429663805,9.760754877999998,-0.027129397892999858,0.025846580892784028,-0.0020106192982974674,9.774033406425497,0.037524559475716965,-0.02029976550000001,-0.02039783199999995,-0.022751428000001184
348042.0,0.2405571245,-0.474053461,9.806257733999999,-0.026595327141889596,0.025314255470925754,-0.003342305517569141,9.820656045278675,0.0368686040148552,-0.010787314999999964,-0.03108708050000003,0.04550285600000059
348052.0,0.2285930115,-0.450125235,9.806257733999999,-0.020734511513692634,0.0186523337160634,0.00012042771838760874,9.819244280377449,0.02788985520941627,-0.011964112999999998,0.023928225999999997,0.0
348062.0,0.2154521005,-0.43933792,9.776249385,-0.01407258975883028,0.007726572598578897,0.0035849062835963527,9.78848759785048,0.016449597554457487,-0.013140911000000005,0.01078731500000002,-0.030008348999999157
348072.0,0.21064684199999997,-0.450125235,9.7547728215,-0.004213224814314312,-0.0005323254218582705,0.005450663253978291,9.767424308296606,0.00690972963284235,-0.00480525850000002,-0.01078731500000002,-0.021476563500000267
348082.0,0.22741621349999996,-0.45130203299999994,9.7428087085,0.00884358331985527,-0.006661921754862355,0.0027855454861829498,9.755906579584291,0.011417067533247094,0.01676937149999999,-0.0011767979999999234,-0.011964112999999443
348092.0,0.2058415835,-0.44649677449999997,9.7655601365,0.013372712728780553,-0.0037297686115118824,0.0022532200643246795,9.777928968178005,0.014064765205298807,-0.021574629999999956,0.004805258499999965,0.022751427999999407
348102.0,0.201036325,-0.4250202109999999,9.7810546435,0.013639748104335684,0.0007993607974134029,-0.0009442231253289323,9.792348427362095,0.01369573887545233,-0.00480525850000002,0.021476563500000045,0.015494506999999658
348112.0,0.2309466075,-0.43816112199999996,9.789488362499998,0.011241665712095476,0.006927211801165493,-0.004941027112395947,9.802010197090745,0.014098760947194663,0.029910282500000024,-0.013140911000000033,0.008433718999999229
348122.0,0.2405571245,-0.415409694,9.80861133,0.002981022362406315,0.019984019935335072,-0.0060074232853644825,9.820350765986989,0.021079295093303654,0.009610516999999985,0.022751427999999962,0.01912296750000131
348132.0,0.23692866399999998,-0.36637644399999997,9.840973275,-0.009276424974349861,0.029578094833547904,-0.003876376268679406,9.850640684229992,0.031240071178911803,-0.0036284605000000136,0.04903325000000003,0.03236194499999989
348142.0,0.23339827,-0.38902980549999994,9.87921921,-0.015671311353657087,0.03330786344505979,0.001986184688769547,9.889630485576262,0.03686392133829382,-0.0035303939999999923,-0.02265336149999997,0.03824593500000084
348152.0,0.22976980949999998,-0.4213917505,9.9067758965,-0.01700299757292876,0.03570594583729999,0.005982988675836562,9.918395728958414,0.03999765803264499,-0.0036284605000000136,-0.03236194500000006,0.02755668649999876
348162.0,0.2201592925,-0.46924820249999993,9.911581154999999,-0.015936601399960223,0.03197617722578811,0.009447467241045306,9.925124935323216,0.03695545712647658,-0.009610516999999985,-0.04785645199999994,0.004805258499999354
348172.0,0.201036325,-0.48601757399999995,9.8840244685,-0.017270032948483893,0.02744530248761083,0.009714502616600437,9.898008303699944,0.033850704981818525,-0.019122967500000004,-0.01676937150000002,-0.02755668649999876
348182.0,0.18789541399999998,-0.5159278565,9.850485725499999,-0.015936601399960223,0.017320647496791724,0.005717698629533424,9.865776972342024,0.024221316469331306,-0.013140911000000005,-0.029910282499999996,-0.03353874300000115
348192.0,0.2154521005,-0.4931764285,9.8481321295,-0.013273228961416875,0.010391690366374239,0.0022532200643246795,9.862826625127711,0.017007140747082275,0.02755668650000001,0.022751427999999962,-0.0023535959999989586
348202.0,0.1842669535,-0.45247883099999997,9.844503669,-0.01193979741289321,0.00506320016003555,0.0035849062835963527,9.856619293226748,0.013455345078580632,-0.031185146999999996,0.040697597500000016,-0.003628460499999875
348212.0,0.179461695,-0.42256854850000003,9.8230271055,-0.004480260189869444,-0.004529129408925285,0.005450663253978291,9.833749650745709,0.008384239648291913,-0.0048052584999999925,0.02991028249999994,-0.021476563500000267
348222.0,0.16396718799999999,-0.44051471799999997,9.8134165885,0.006445500927615059,-0.01332384350972471,0.00731642022436023,9.824667098429455,0.016510581242916534,-0.015494507000000018,-0.017946169499999942,-0.009610516999998708
348232.0,0.177108099,-0.46444294399999997,9.7870367,0.015505505074717624,-0.019718729889031932,0.005982988675836562,9.799651110836022,0.025788469313898485,0.013140911000000005,-0.023928225999999997,-0.02637988850000106
348242.0,0.2178056965,-0.45247883099999997,9.7655601365,0.017369516715847567,-0.02158274153016188,0.004117231705454623,9.778463130447896,0.028008328043927992,0.040697597500000016,0.011964112999999998,-0.021476563500000267
348252.0,0.21417723599999997,-0.45846088749999997,9.745162304499999,0.013639748104335684,-0.018385298340508265,0.001986184688769547,9.758291172886553,0.02297839970574817,-0.0036284605000000414,-0.005982056499999999,-0.02039783200000045
348262.0,0.27164420499999997,-0.46924820249999993,9.751144361,0.009642944117268671,-0.007461282552275759,-0.003077015471266003,9.7662070835469,0.01257478161973684,0.05746696900000001,-0.010787314999999964,0.00598205650000061
348272.0,0.266937013,-0.46571780849999994,9.704464707,0.0019163715186897737,0.01305680813416958,-0.005475097863506212,9.719299547573991,0.014287386572257803,-0.004707191999999971,0.0035303939999999923,-0.04667965400000007
348282.0,0.2501676415,-0.42619700899999996,9.760754877999998,-0.00847706417693646,0.03490658503988659,-0.004141666314982544,9.773257569906514,0.036159144017404436,-0.01676937150000002,0.03952079949999998,0.05629017099999878
348292.0,0.21898249449999999,-0.43933792,9.807434532,-0.015404275978101954,0.04876275397146957,-0.0014782938764391971,9.819711973388701,0.051159390595243784,-0.031185146999999996,-0.013140911000000033,0.04667965400000185
348302.0,0.16279038999999998,-0.436984324,9.849308927500001,-0.013273228961416875,0.044498914608847424,-0.0017435839227423352,9.860341898728933,0.046469044463205135,-0.056192104500000006,0.0023535960000000133,0.041874395500000716
348312.0,0.14121576,-0.44051471799999997,9.87921921,-0.003146828641345776,0.028511698660579367,-0.004141666314982544,9.890043847571153,0.028982285811756436,-0.021574629999999984,-0.0035303939999999923,0.029910282499999497
348322.0,0.12562318649999998,-0.4213917505,9.899617042,0.005646140130201656,0.004263839362622147,-0.0060074232853644825,9.909377870009433,0.009281614030418363,-0.015592573500000012,0.019122967499999977,0.020397831999998672
348332.0,0.153179873,-0.401091985,9.892458187499999,0.013372712728780553,-0.017585937543094867,-0.007073819458333018,9.901770944904719,0.02319770606601467,0.02755668650000001,0.02029976550000001,-0.007158854500000089
348342.0,0.1734796385,-0.39981712049999996,9.880396008,0.018435912888816103,-0.028511698660579367,-0.004408701690537677,9.890003750743542,0.034237939411592054,0.02029976550000001,0.001274864500000028,-0.012062179499999104
348352.0,0.1962310665,-0.380694153,9.857742646499998,0.02030166985919804,-0.023448498500543816,0.0022532200643246795,9.867042350887774,0.031097698976936396,0.02275142799999999,0.019122967499999977,-0.022653361500001523
348362.0,0.21417723599999997,-0.3843226135,9.8373448145,0.016570155918434165,-0.014922565104551517,0.0078487456462185,9.847178720782827,0.023640131655298182,0.01794616949999997,-0.0036284605000000414,-0.020397831999998672
348372.0,0.21182364,-0.427373807,9.854114185999999,0.013372712728780553,-0.00799360797413403,0.014775957447383994,9.865651727894054,0.02147221769304538,-0.002353595999999958,-0.04305119349999997,0.016769371499998798
348382.0,0.1460210185,-0.436984324,9.867255097000001,0.012308061885064012,-0.009859364944515966,0.015042992822939126,9.878005901321279,0.02179419871311432,-0.06580262150000002,-0.009610516999999985,0.013140911000002475
348392.0,0.12444638849999999,-0.46571780849999994,9.850485725499999,0.017903587466957832,-0.02371553387609895,0.00838107106807677,9.862274028287997,0.03087405615502375,-0.021574629999999997,-0.02873348449999996,-0.01676937150000235
348402.0,0.14837461449999997,-0.5135742605,9.8481321295,0.023499113048851654,-0.03197617722578811,-0.003342305517569141,9.862630480118696,0.039822797870447194,0.023928225999999983,-0.04785645200000005,-0.0023535959999989586
348412.0,0.209470044,-0.4896460345,9.747613967,0.016837191293989296,-0.027979373238721097,-0.014001031259498512,9.76215186258073,0.03552977925390905,0.06109542950000002,0.023928225999999997,-0.10051816250000023
348422.0,0.2656621485,-0.44051471799999997,9.729569731,-0.00048345620280242926,0.002398082392240209,-0.020395917638805737,9.743159484700621,0.020542102749936474,0.05619210449999998,0.04913131650000002,-0.018044235999999714
348432.0,0.268113811,-0.3758888945,9.752321159,-0.021266836935550905,0.03890338902695361,-0.013201670462085108,9.763244617694287,0.046260524575660586,0.002451662500000007,0.06462582349999996,0.022751427999999407
348442.0,0.2178056965,-0.343625016,9.775072586999999,-0.03139149192637001,0.05862211891598554,0.0006544984694978735,9.78353522782883,0.06650118013847482,-0.05030811449999997,0.03226387850000001,0.022751427999999407
348452.0,0.179461695,-0.39981712049999996,9.819398645,-0.027129397892999858,0.05116083636370978,0.010246828038458708,9.829173412817836,0.058808442355844946,-0.0383440015,-0.05619210449999995,0.04432605800000111
348462.0,0.142392558,-0.44531997649999994,9.850485725499999,-0.011140436615479804,0.02664594169019743,0.011578514257730382,9.861574648620929,0.03111555123981239,-0.037069137,-0.04550285599999998,0.031087080499998976
348472.0,0.11483587149999999,-0.46326614599999993,9.820575443,0.004846779332788253,-0.006127851003752092,0.008915141819187036,9.83216684312606,0.011854179916010487,-0.02755668650000001,-0.017946169499999998,-0.029910282499999497
348482.0,0.12081792799999999,-0.520733115,9.8026292735,0.018702948264371237,-0.02691297706575256,-0.0006789330790257941,9.817194131851673,0.03278062779214678,0.005982056499999999,-0.057466969000000034,-0.017946169500000053
348492.0,0.175931301,-0.49798168699999995,9.7906651605,0.02429847384626506,-0.030110420255406174,-0.012137019618368569,9.804899890783558,0.040550714968190946,0.05511337300000002,0.022751428000000018,-0.011964112999999443
348502.0,0.245362383,-0.45247883099999997,9.794293621,0.01710422666954443,-0.007194247176720627,-0.019331266795089192,9.807809507013065,0.026795701862534327,0.06943108199999998,0.04550285599999998,0.003628460499999875
348512.0,0.22741621349999996,-0.37108363599999994,9.8026292735,0.003248057737961447,0.028244663285024237,-0.01533446280802218,9.812286271443,0.03230257935156484,-0.017946169500000025,0.08139519500000003,0.008335652499999568
348522.0,0.23222147199999998,-0.35196066849999996,9.8469553315,-0.0050125856117277144,0.04583234615737109,-0.006806784082777886,9.855979526398434,0.046605388941125106,0.00480525850000002,0.019122967499999977,0.04432605800000111
348532.0,0.2178056965,-0.4070740415,9.888829727,-0.005279620987282847,0.04183379684105209,0.0035849062835963527,9.89960110137221,0.04231775642646886,-0.014415775499999978,-0.05511337300000002,0.04187439549999894
348542.0,0.1842669535,-0.435807526,9.90079384,0.005646140130201656,0.017053612121236593,0.010246828038458708,9.912093682570417,0.02068095910738196,-0.03353874300000001,-0.028733484500000017,0.01196411300000122
348552.0,0.167497582,-0.4333558635,9.9044223005,0.023499113048851654,-0.014922565104551517,0.010513863414013842,9.915313098992256,0.029756219304051843,-0.01676937149999999,0.002451662500000007,0.003628460499999875
348562.0,0.1579851315,-0.415409694,9.921191671999999,0.04028568979453311,-0.03783699285398507,0.008115781021773632,9.931141359793767,0.05586090522044239,-0.00951245050000002,0.017946169499999998,0.016769371499998798
348572.0,0.1507282105,-0.43217906549999996,9.9893478895,0.04614825075198207,-0.04769635779850104,0.0022532200643246795,9.999828448306255,0.06640542594825155,-0.0072569209999999995,-0.016769371499999963,0.06815621750000034
348582.0,0.1471978165,-0.44178958249999994,10.007294059,0.03815464277784804,-0.0551576403507768,-0.006539748707222752,10.01812255942622,0.06738627729533998,-0.0035303939999999923,-0.009610516999999985,0.017946169500000053
348592.0,0.11846433199999999,-0.44777163899999994,10.0109225195,0.03069336022557228,-0.06501700529529277,-0.016666149027293853,10.021631749873928,0.07380415884558836,-0.028733484500000003,-0.005982056499999999,0.003628460499999875
348602.0,0.0897308475,-0.45130203299999994,10.012099317499999,0.03255911719595422,-0.0887325391713917,-0.023061035406601076,10.022667204565206,0.09729013811485186,-0.02873348449999999,-0.0035303939999999923,0.0011767979999994793
348612.0,0.0765899365,-0.44649677449999997,9.9750301805,0.050412090114604215,-0.12337208883572316,-0.029722957161463434,9.985311837388847,0.13654854563793323,-0.013140911000000005,0.004805258499999965,-0.037069136999999586
348622.0,0.11365907349999999,-0.42021495249999996,9.899617042,0.07785739260221504,-0.16414123483305873,-0.029722957161463434,9.909183446154898,0.18408577549001165,0.03706913699999999,0.02628182200000001,-0.07541313850000009
348632.0,0.209470044,-0.378340557,9.855290984,0.09837548328866039,-0.19718206290256338,-0.02892359636405003,9.864774688542871,0.2222500305273735,0.09581097050000001,0.04187439549999994,-0.044326057999999335
348642.0,0.38657814299999993,-0.35196066849999996,9.753596023499998,0.09464396934789651,-0.1918535726962247,-0.020130627592502597,9.767597164218602,0.21487325672940125,0.17710809899999994,0.02637988850000006,-0.10169496050000149
348652.0,0.568589567,-0.356765927,9.668572368,0.06799802765769908,-0.14095802637881805,-0.00840550567760469,9.691845420642167,0.15672762836094029,0.18201142400000003,-0.00480525850000002,-0.0850236554999988
348662.0,0.6308617944999999,-0.3543142645,9.676908020499999,0.021368066032166576,-0.05062851094185151,0.007049384848805097,9.703920549912038,0.05540337708922419,0.062272227499999944,0.002451662500000007,0.008335652499999568
348672.0,0.48954796799999994,-0.231044674,9.641015681499999,-0.026595327141889596,0.043699553811434026,0.02063851840483295,9.656201231606847,0.055162585790091236,-0.14131382649999996,0.12326959049999997,-0.035892339000000106
348682.0,0.33156283649999996,-0.2346731345,9.728392933,-0.05137725719095708,0.09059655081252166,0.02596875394042363,9.73686984885021,0.10733933927880233,-0.1579851315,-0.003628460499999986,0.08737725150000131
348692.0,0.258503294,-0.3758888945,9.814593386499999,-0.04444830006053959,0.08713381757656491,0.021437879202246348,9.825190062097873,0.10013758639206341,-0.07305954249999996,-0.14121576000000002,0.08620045349999828
348702.0,0.23222147199999998,-0.403445581,9.866078299,-0.01780235837034216,0.049562114768882976,0.007581710270663368,9.8770540218673,0.05320535231100629,-0.02628182200000001,-0.027556686499999983,0.0514849125000012
348712.0,0.19024901,-0.39148146799999994,9.888829727,0.004314453910929983,0.002930407814098479,-0.0036093408931242737,9.89840420447621,0.006342644889101674,-0.04197246199999999,0.011964113000000054,0.022751427999999407
348722.0,0.18544375149999998,-0.37235850049999997,9.8624498385,0.011773991133953747,-0.03943571444881188,-0.01027126264798663,9.871218620555098,0.042418171550581675,-0.00480525850000002,0.019122967499999977,-0.026379888499999282
348732.0,0.1962310665,-0.36755324199999995,9.890006524999999,0.010974630336540345,-0.062086597481194286,-0.020662953014360868,9.898779272299539,0.06634866784713342,0.01078731500000002,0.00480525850000002,0.02755668649999876
348742.0,0.2070183815,-0.381870951,9.8744139515,0.004314453910929983,-0.06714805231197785,-0.031054643380735106,9.883963421577112,0.07410712730464114,0.010787314999999992,-0.014317709000000067,-0.015592573499999318
348752.0,0.202213123,-0.3843226135,9.8469553315,-0.004745550236172582,-0.05968676975970208,-0.04224569454452275,9.856526939998549,0.07327843774904623,-0.0048052584999999925,-0.002451662500000007,-0.0274586199999991
348762.0,0.18073655949999998,-0.40579917699999996,9.880396008,-0.009009389598794729,-0.05782275811857214,-0.05077337326976704,9.89037734117845,0.07747629244209396,-0.021476563500000018,-0.021476563499999934,0.03344067649999971
348772.0,0.1842669535,-0.44531997649999994,9.9175632115,-0.0015481070465189703,-0.07141189167459998,-0.057967620446487664,9.929266047685514,0.09199076001534251,0.00353039400000002,-0.03952079949999998,0.037167203499999246
348782.0,0.19024901,-0.46326614599999993,9.965419663499999,0.016037830496575894,-0.09912422953776595,-0.06409547145023976,9.97799575453448,0.11912621184660038,0.005982056499999999,-0.017946169499999998,0.04785645199999955
348792.0,0.20819517949999997,-0.4250202109999999,9.927173728499998,0.03842167815340317,-0.14042570095695978,-0.06835931081286191,9.938448855246278,0.16083717920986632,0.01794616949999997,0.03824593500000001,-0.03824593500000084
