timestamp,ax,ay,az,gx,gy,gz,acc_mag,gyro_mag,dax,day,daz
129482.0,-0.8371937104999999,0.134351105,9.5719768655,0.00967436004380457,0.061953952458042715,-0.011616911501274257,9.609458082638307,0.06377176569814433,0.0,0.0,0.0
129492.0,-0.20034985949999998,0.19064127599999997,9.628168969999999,-0.027897342763877363,0.066483081866968,0.00010821041362364843,9.632140046593355,0.07209905420536976,0.636843851,0.05629017099999997,0.05619210449999912
129502.0,-0.12611351899999998,0.26840801049999996,9.7455545705,-0.047349037277354164,0.12483816540739841,-0.001223475805648025,9.750065710874393,0.13352151799026343,0.0742363405,0.07776673449999999,0.11738560050000046
129512.0,-0.196721399,0.28282378599999997,9.822144506999999,-0.03589095073801139,0.1402930559338082,0.0003752457891787808,9.828184538313378,0.14481174916949002,-0.07060788000000001,0.014415775500000005,0.07658993649999957
129522.0,-0.2493831095,0.284000584,9.956201412499999,-0.017770942443806264,0.10698519248874842,-0.00042411500823462205,9.963372663575482,0.10845191414048826,-0.052661710500000014,0.0011767980000000344,0.1340569054999996
129532.0,-0.266152481,0.2217283565,10.0448535285,0.004878195259324152,0.05209458751352675,-0.006553711341238708,10.050824991822191,0.05273133764221111,-0.01676937149999999,-0.0622722275,0.08865211600000045
129542.0,-0.2470295135,0.1630845895,10.087904722,0.02379756435094268,-0.018250907988104706,-0.014280283939817605,10.092246620253704,0.03321665577431501,0.019122967500000004,-0.05864376700000001,0.043051193500000196
129552.0,-0.20986230999999997,0.218099896,10.099868835,0.03498861551473033,-0.06941174435181448,-0.021741566492093363,10.104403012449474,0.08071486345853156,0.03716720350000002,0.0550153065,0.01196411300000122
129562.0,-0.1775984315,0.28635417999999996,10.0387734055,0.03152413694952158,-0.09526007057385051,-0.026804766652128914,10.044426882916158,0.10385926906839973,0.03226387849999998,0.06825428399999997,-0.06109542949999991
129572.0,-0.1464132845,0.331857036,9.9573782105,0.02060012116128907,-0.0997891999827758,-0.02653773127657378,9.963982475353967,0.1052924527512293,0.031185146999999996,0.045502856000000036,-0.0813951950000007
129582.0,-0.0842391235,0.3462728115,9.831755023999998,0.009142034621946299,-0.08779878802157474,-0.022008601867648494,9.838211623148862,0.09097572495591856,0.06217416099999999,0.014415775500000005,-0.12562318650000215
129592.0,-0.0410898635,0.355785262,9.739572514,0.0022130774915288098,-0.06541494036474747,-0.01907644872429802,9.746155359166154,0.06817567770721279,0.04314926,0.009512450499999991,-0.09218250999999711
129602.0,-0.0399130655,0.3509800035,9.689264399499999,0.00034906585039886593,-0.039568359471963445,-0.016413076285754676,9.695701347456641,0.04283883741924419,0.0011767979999999997,-0.004805258499999965,-0.05030811450000172
129612.0,-0.033931009,0.297141495,9.690441197499998,0.004611159883769018,-0.015852825595864494,-0.011082840750163993,9.695055182082658,0.019884773922277135,0.005982056499999999,-0.05383850850000005,0.0011767979999994793
129622.0,-0.048248717999999996,0.26007235799999995,9.704856973,0.010208430794914833,0.0035988689176123076,-0.004687954370856769,9.708460971573766,0.011795797258513582,-0.014317708999999998,-0.03706913700000003,0.014415775500001615
129632.0,-0.057859234999999995,0.2336924695,9.782623707499999,0.012606513187155043,0.011857766938049475,-0.004954989746411901,9.78558564746724,0.018002298044473664,-0.009610516999999999,-0.02637988849999995,0.07776673449999905
129642.0,-0.056682437,0.21574629999999997,9.816162450499998,0.012072442436044778,0.013191198486573142,-0.008152432936065514,9.818696686385321,0.019652321660832597,0.0011767979999999928,-0.017946169500000025,0.03353874299999937
129652.0,-0.082964259,0.2240819525,9.8832399365,0.010740756216773104,0.013990559283986546,-0.014014993893514467,9.886128030333017,0.022528196710392513,-0.026281821999999996,0.008335652500000013,0.0670774860000023
129662.0,-0.09620323649999998,0.2468333805,9.890398790999999,0.006476916854150957,0.007061602153569058,-0.018011797880581482,9.893946130106853,0.02040199842666878,-0.013238977499999985,0.022751428000000018,0.007158854499998313
129672.0,-0.0854159215,0.2911594385,9.8748062175,0.0024801128670839424,0.0012007865253720988,-0.019610519475408286,9.879466965957727,0.01980316444935905,0.010787314999999978,0.044326057999999974,-0.015592573499999318
129682.0,-0.0842391235,0.3258749795,9.831755023999998,0.001413716694115407,-0.00039793506945470715,-0.016678366332057812,9.837514807314973,0.01674290448867944,0.0011767980000000067,0.034715541000000016,-0.04305119350000197
129692.0,-0.032754211,0.33068023799999996,9.8293033615,0.004078834461910748,-0.00013264502315156904,-0.011349876125719124,9.834918750581377,0.012061267484763223,0.0514849125,0.004805258499999965,-0.002451662499998619
129702.0,-0.0399130655,0.34744960950000003,9.823321305,0.0099413954193597,0.0030647981665020427,-0.004954989746411901,9.829545042635809,0.011522857895179798,-0.007158854499999999,0.016769371500000074,-0.0059820564999988335
129712.0,-0.0661948875,0.33666229449999996,9.831755023999998,0.011540117014186507,0.005197590512439114,0.00277332818141899,9.837740091891956,0.012956874508845362,-0.026281821999999996,-0.010787315000000075,0.008433718999997453
129722.0,-0.069823348,0.3594137225,9.899911241499998,0.011540117014186507,0.01665567705178189,0.009433504607029351,9.906679368659574,0.02235121669899012,-0.0036284604999999998,0.022751428000000018,0.06815621750000034
129732.0,-0.129643913,0.3354854965,9.935901647,0.009407324668249437,0.026513296667045858,0.015563100940033438,9.942409144739372,0.03215062625266123,-0.059820565000000006,-0.023928225999999997,0.03599040550000154
129742.0,-0.148864947,0.26007235799999995,9.983758099,0.003811799086355616,0.027312657464459263,0.01902757950524218,9.988254311099066,0.033504624335663515,-0.019221033999999998,-0.07541313850000003,0.04785645199999955
129752.0,-0.164359454,0.2313388735,9.984934897,-0.0033824480903650108,0.02038544566329377,0.015030775518175166,9.988966743454492,0.025552525563100226,-0.01549450699999999,-0.02873348449999996,0.0011767980000012557
129762.0,-0.16798791449999997,0.2085874455,10.0028810665,-0.009245009047813963,0.0062622413561556544,0.0057037359955174685,10.006465824274946,0.012538678694482521,-0.003628460499999986,-0.02275142799999999,0.017946169500000053
129772.0,-0.159652262,0.2240819525,9.92629113,-0.011643091440054173,-0.01185602160879748,-0.001223475805648025,9.930103582728359,0.016662044283842894,0.008335652499999985,0.01549450699999999,-0.07658993650000134
129782.0,-0.140431228,0.2444797845,9.854506451999999,-0.00897797367225883,-0.02731091213520727,-0.009484119155337187,9.858538872841978,0.030272734416788617,0.019221033999999998,0.020397832000000005,-0.07178467800000021
129792.0,-0.09973363049999999,0.2576206955,9.788605764,-0.00124965574442794,-0.03557155548489643,-0.014814354690927869,9.792503154087653,0.03855336955446649,0.0406975975,0.013140911000000005,-0.06590068799999926
129802.0,-0.07825706699999999,0.27085967299999997,9.76350074,0.007543313027119492,-0.036637951657864966,-0.01587900553464441,9.767570620731322,0.04063722295972534,0.021476563500000004,0.013238977499999971,-0.025105024000000142
129812.0,-0.057859234999999995,0.306752012,9.78507537,0.012339477811599909,-0.026778586713348998,-0.014814354690927869,9.790053344314394,0.032997280553644634,0.02039783199999999,0.03589233900000005,0.021574629999999928
129822.0,-0.093751574,0.31391086649999994,9.798216281,0.008874999246391164,-0.008658578419143869,-0.008684758357923783,9.803691737248155,0.015138085070425343,-0.03589233900000001,0.007158854499999923,0.013140911000000699
129832.0,-0.11414940599999998,0.319892923,9.809003596,0.0032794736644973454,0.00999375529691953,-0.004420918995301637,9.814882226263164,0.011409409152706274,-0.020397831999999977,0.005982056500000055,0.010787314999999964
129842.0,-0.0985568325,0.3150876645,9.8832399365,0.00034906585039886593,0.02518161044777419,-0.0033562681515850955,9.888752465704712,0.025406689820138106,0.015592573499999984,-0.00480525850000002,0.07423634050000061
129852.0,-0.1309187775,0.29233623649999996,9.923937533999998,0.00034906585039886593,0.02971073985669947,-0.0038885935734433662,9.92910551762882,0.029966165416679697,-0.032361945,-0.022751428000000018,0.040697597499997684
129862.0,-0.10699055149999999,0.25409030149999995,9.951396154000001,-0.00018500490071139895,0.02358288885294738,-0.0068207467167938395,9.955214426282975,0.02455014173560737,0.02392822600000001,-0.03824593500000001,0.027458620000002654
129872.0,-0.09022118,0.249285043,9.963360267,-0.0015166911199830724,0.007595672904679321,-0.00975115453089232,9.966886710704523,0.012453096543175795,0.01676937149999999,-0.004805258499999937,0.011964112999999443
129882.0,-0.09022118,0.24330298649999998,9.9071681625,0.0008813912722571365,-0.008126252997285598,-0.011882201547577395,9.910565937655328,0.014422189569131133,0.0,-0.005982056500000027,-0.056192104500000895
129892.0,-0.060212830999999994,0.2587974935,9.887947128499999,-0.00018500490071139895,-0.022249457304423712,-0.007620107514207243,9.891516574503138,0.023518899117151267,0.030008349000000004,0.01549450699999999,-0.01922103400000097
129902.0,-0.0614876955,0.28880584249999997,9.8485243955,-0.003914773512223281,-0.03130771612227429,-0.001223475805648025,9.852949929849368,0.03157523449623018,-0.0012748645000000072,0.03000834899999999,-0.039422732999998544
129912.0,-0.0614876955,0.274390067,9.789782562,-0.006579891280018622,-0.03024306527855774,0.0035726889788323924,9.793820156445872,0.031156092072649938,0.0,-0.01441577549999995,-0.05874183350000095
129922.0,-0.0842391235,0.2672312125,9.774288055,-0.006045820528908358,-0.02198242192886858,0.0067701321684860045,9.778303315656451,0.02378263041182243,-0.022751427999999997,-0.007158854500000034,-0.015494506999999658
129932.0,-0.1189546645,0.25644389749999996,9.789782562,-0.003914773512223281,-0.014521139376592822,0.005171410573659199,9.793863195696098,0.015903849463818304,-0.034715541,-0.01078731500000002,0.015494506999999658
129942.0,-0.138077632,0.2660544145,9.823321305,0.0011484266478122688,-0.007059856824317063,-0.001223475805648025,9.827893560941764,0.0072565387887248015,-0.019122967500000004,0.00961051700000004,0.03353874300000115
129952.0,-0.11414940599999998,0.2695848085,9.846072732999998,0.004611159883769018,0.004663519761328849,-0.011349876125719124,9.850424067997793,0.013108428590306097,0.023928226000000025,0.0035303939999999923,0.02275142799999763
129962.0,-0.10571568699999999,0.2911594385,9.8485243955,0.0011484266478122688,0.015856316254368483,-0.023340288086920166,9.853394460482345,0.028240231884748803,0.008433718999999992,0.021574629999999984,0.002451662500002172
129972.0,-0.07698220249999999,0.29596469699999994,9.9047165,-0.004714134309636684,0.02411521427480565,-0.03293261765588101,9.909436427302225,0.041089219114964076,0.028733484500000003,0.004805258499999965,0.05619210449999912
129982.0,-0.067469752,0.30076995549999996,9.949042558,-0.008445648250400561,0.023849924228502514,-0.03772878244036142,9.953816481855672,0.045426962087585496,0.009512450499999991,0.00480525850000002,0.04432605800000111
129992.0,-0.0638412915,0.318716125,9.928644726,-0.008710938296703698,0.011325441516191205,-0.03692942164294802,9.933964051372595,0.03959707381143566,0.0036284604999999998,0.017946169500000053,-0.02039783200000045
130002.0,-0.035107807,0.3378390925,9.927467928,-0.007646287452987157,-0.010257300013970674,-0.0321332568584676,9.933276764089591,0.03458647295869538,0.028733484499999996,0.019122967499999977,-0.0011767979999994793
130012.0,-0.0279489525,0.38216515049999994,9.899911241499998,-0.003115412714809878,-0.027045622088904132,-0.020142844897266556,9.90732425712314,0.033865995793934005,0.007158854499999999,0.044326057999999946,-0.027556686500002314
130022.0,-0.036284605,0.41442902899999995,9.861665306499999,0.0008813912722571365,-0.03743731245527837,-0.0052220251219670345,9.87043619147926,0.03781003518675177,-0.008335652499999999,0.03226387850000001,-0.038245934999999065
130032.0,-0.02549729,0.425216344,9.793411022499999,0.001413716694115407,-0.03796963787713664,0.012098622374824694,9.802670988390181,0.03987566499484013,0.010787314999999999,0.010787315000000075,-0.068254284
130042.0,-0.057859234999999995,0.386970409,9.798216281,-0.0033824480903650108,-0.027844982886317534,0.023556708914167463,9.806025498527418,0.036629258276549184,-0.032361944999999996,-0.03824593500000001,0.0048052585000011305
130052.0,-0.09022118,0.3414675529999999,9.795764618499998,-0.010044369845227366,-0.014521139376592822,0.026487116728265946,9.802129585560927,0.03183269085325544,-0.032361945,-0.04550285600000009,-0.002451662500002172
130062.0,-0.11414940599999998,0.2791953255,9.789782562,-0.012707742283770713,-0.004396484385773717,0.022225022694895794,9.794428147059453,0.02597628577556305,-0.023928225999999983,-0.062272227499999944,-0.0059820564999988335
130072.0,-0.10699055149999999,0.26242595399999996,9.7610490775,-0.01137605606449904,0.0004014257279586958,0.012098622374824694,9.765162233819092,0.016611816805102965,0.007158854499999992,-0.01676937150000002,-0.028733484500000017
130082.0,-0.102185293,0.251638639,9.7694827965,-0.004447098934081553,0.008395033702092726,0.0003752457891787808,9.773257284541971,0.009507580617122233,0.0048052584999999925,-0.010787314999999964,0.008433719000001005
130092.0,-0.11414940599999998,0.26242595399999996,9.753890222999999,0.002747148242639075,0.018519688692911828,-0.008419468311620645,9.75808751500815,0.020528349651147932,-0.011964112999999985,0.010787314999999964,-0.015592573500001095
130102.0,-0.13209557549999998,0.275566865,9.809003596,0.009142034621946299,0.025980971245187588,-0.014814354690927869,9.813762677204576,0.031273835210615684,-0.017946169499999998,0.013140911000000033,0.055113373000001076
130112.0,-0.12493672099999999,0.274390067,9.890398790999999,0.0099413954193597,0.025980971245187588,-0.019875809521711425,9.894993043865,0.034189033532270034,0.007158854499999992,-0.001176797999999979,0.08139519499999892
130122.0,-0.11414940599999998,0.26477955,9.9226626695,0.00727627765156436,0.015055210127703087,-0.022008601867648494,9.926851099400917,0.02764022656601442,0.010787315000000006,-0.00961051700000004,0.03226387850000023
130132.0,-0.10453888899999998,0.285177382,9.898734443499999,0.004878195259324152,-0.0038624136346634514,-0.02653773127657378,9.903393261981014,0.027257406505039487,0.009610516999999999,0.020397832000000005,-0.023928226000000663
130142.0,-0.059036033,0.353431666,9.872452621499999,0.003811799086355616,-0.0174515471906913,-0.026804766652128914,9.878953383809751,0.03221151699157848,0.04550285599999998,0.068254284,-0.02628182199999962
130152.0,-0.0314793465,0.3509800035,9.8412674745,0.005677556056737553,-0.02145009650701031,-0.021209241070235092,9.847574494095719,0.030694839789658458,0.027556686500000004,-0.0024516624999999515,-0.031185146999998636
130162.0,0.00196133,0.36294411649999997,9.8412674745,0.008342673824532895,-0.013454743203624287,-0.010817550703860855,9.847958051452542,0.019174194232056293,0.033440676499999995,0.011964112999999943,0.0
130172.0,-0.0279489525,0.40246491599999995,9.825772967499999,0.008874999246391164,-0.00013264502315156904,-0.0006911503837897546,9.834051736767021,0.008902858820548787,-0.0299102825,0.03952079949999998,-0.015494507000001434
130182.0,-0.004020726499999999,0.36657257699999996,9.856860048,0.007543313027119492,0.011857766938049475,0.003837979025135531,9.863674854044438,0.014568400433115166,0.023928226,-0.035892338999999995,0.031087080500000752
130192.0,-0.026772154499999996,0.319892923,9.914327017,0.004611159883769018,0.01798736327105356,0.004637339822548933,9.919522590853765,0.01913930389403767,-0.022751427999999997,-0.04667965399999996,0.057466969000000034
130202.0,-0.050700380499999996,0.30430034949999996,9.9430605015,0.0022130774915288098,0.01532224550325822,-0.0014905111812031574,9.947845061508453,0.015552830701416376,-0.023928226,-0.01559257350000004,0.028733484500000017
130212.0,-0.056682437,0.275566865,9.962183469,0.00034906585039886593,0.004131194339470578,-0.010817550703860855,9.966155199763199,0.01158481837876576,-0.005982056500000006,-0.02873348449999996,0.019122967499999532
130222.0,-0.0279489525,0.285177382,9.9681655255,0.001947787445225672,-0.009192649170254133,-0.018544123302439753,9.972283150157587,0.02078901594004011,0.028733484500000003,0.009610516999999985,0.00598205650000061
130232.0,-0.018338435499999996,0.28880584249999997,9.911973420999999,0.005677556056737553,-0.020383700334041775,-0.02413964888433357,9.916196963124984,0.032100662459586704,0.009610517000000002,0.003628460499999986,-0.056192104500000895
130242.0,0.013925443,0.34744960950000003,9.878434678,0.007808603073422631,-0.025712190540380465,-0.027071802027684045,9.884552940655304,0.03814411474092975,0.032263878499999996,0.05864376700000007,-0.03353874299999937
130252.0,0.048640984,0.40727017449999997,9.787428966,0.007808603073422631,-0.020116664958486644,-0.02094220569467996,9.796019635793794,0.03007042517771499,0.034715541,0.05982056499999994,-0.0910057119999994
130262.0,0.058251501,0.446790974,9.774288055,0.0032794736644973454,-0.007859217621730466,-0.0041556289489984985,9.78466772015955,0.00947583775207262,0.009610516999999999,0.03952079950000004,-0.013140911000000699
130272.0,0.0414821295,0.49229383,9.76350074,-0.002848377339254746,0.008127998326537593,0.017428857910415374,9.775992056160053,0.019440748399288194,-0.016769371499999998,0.04550285599999998,-0.010787314999999964
130282.0,-0.0028439284999999996,0.46238354749999994,9.800569877,-0.005246459731494954,0.027846728215569525,0.04114264645726233,9.811471680990971,0.049956811042472224,-0.044326058,-0.02991028250000005,0.037069136999999586
130292.0,-0.06864655,0.37373143149999993,9.832931821999999,-0.005246459731494954,0.03450864997043188,0.05873032932960919,9.840271121662155,0.06832001058006608,-0.0658026215,-0.088652116,0.03236194499999989
130302.0,-0.148864947,0.2587974935,9.8952040495,-0.002848377339254746,0.027846728215569525,0.06379178416039274,9.899707071238442,0.06966308385468382,-0.080218397,-0.11493393799999996,0.062272227500001165
130312.0,-0.1883857465,0.1726951065,9.9047165,0.001947787445225672,0.012391837689159739,0.05819625857849892,9.908013006383554,0.05953281473088407,-0.03952079950000001,-0.08610238699999997,0.009512450499999048
130322.0,-0.22663168149999996,0.13670470099999998,9.9179554775,0.004345869837465881,-0.005728170605045389,0.042476078005786,9.92148632756238,0.043080340364002684,-0.03824593499999995,-0.03599040550000002,0.01323897750000036
130332.0,-0.2242780855,0.121210194,9.887947128499999,0.007543313027119492,-0.017985617941801566,0.023024383492309196,9.891233036723804,0.03017459625868232,0.002353595999999958,-0.01549450699999999,-0.030008349000000933
130342.0,-0.230260142,0.17387190449999998,9.847249531,0.005944591432292687,-0.021715386553313447,0.0035726889788323924,9.851475752289502,0.02279605858468048,-0.005982056499999999,0.052661710499999986,-0.04069759749999946
130352.0,-0.24820631149999997,0.24330298649999998,9.809003596,0.004611159883769018,-0.018784978739214968,-0.009218829109034049,9.815159410964714,0.021427203080383882,-0.01794616949999997,0.069431082,-0.038245934999999065
130362.0,-0.21829602899999997,0.27085967299999997,9.737120851499999,0.0024801128670839424,-0.009192649170254133,-0.01534668011278614,9.743333135813991,0.01806035296125286,0.029910282499999996,0.027556686499999983,-0.07188274450000165
130372.0,-0.1919161405,0.319892923,9.740749312,0.004878195259324152,0.0062622413561556544,-0.016678366332057812,9.747890051000697,0.018471068168818997,0.026379888499999976,0.04903325000000003,0.003628460500001651
130382.0,-0.18112882549999998,0.3235213835,9.729961996999998,0.012606513187155043,0.030777136029668008,-0.014014993893514467,9.737023888235715,0.036091222350619415,0.01078731500000002,0.003628460499999986,-0.01078731500000174
130392.0,-0.21231397249999998,0.3031235515,9.7945878205,0.02086541120759221,0.048630108948318006,-0.01001818990644745,9.801576999844446,0.05385737656244351,-0.031185146999999996,-0.020397832000000005,0.0646258235000019
130402.0,-0.208685512,0.2576206955,9.867647362999998,0.021399481958702473,0.05689075229800716,-0.013480923142404202,9.87321541070534,0.06225938334022792,0.003628460499999986,-0.04550285599999998,0.07305954249999758
130412.0,-0.208685512,0.216923098,9.901186106,0.014205234781981848,0.055024995327625226,-0.02227563724320363,9.905760525018364,0.06103886319884411,0.0,-0.04069759749999999,0.033538743000002924
130422.0,-0.21231397249999998,0.19417167,9.939432041,0.0032794736644973454,0.0470313873534912,-0.030801570639195926,9.943595383864267,0.05631556709961855,-0.003628460499999986,-0.022751428000000018,0.038245934999999065
130432.0,-0.21231397249999998,0.26007235799999995,9.962183469,-0.004181808887778414,0.03477394001673502,-0.03772878244036142,9.96783899971961,0.05147985483947592,0.0,0.06590068799999996,0.022751427999999407
130442.0,-0.1775984315,0.3115572705,9.9322731865,-0.003115412714809878,0.016920967098085025,-0.0430590179759521,9.938745382941427,0.04636921341764858,0.03471554099999999,0.051484912500000035,-0.029910282499999497
130452.0,-0.14405968849999998,0.322246519,9.9226626695,0.005944591432292687,-0.00039793506945470715,-0.0430590179759521,9.928939040277525,0.043469248310383235,0.03353874300000001,0.010689248500000026,-0.009610517000000485
130462.0,-0.1116977435,0.37020103749999994,9.881965071999998,0.014470524828284986,-0.012123056984352613,-0.03799581781591656,9.889527737879954,0.04242695806856998,0.032361944999999975,0.04795451849999993,-0.04069759750000124
130472.0,-0.043541526000000004,0.3929524655,9.866470565,0.017935003393493732,-0.018517943363659837,-0.033199653031436134,9.874388533708828,0.042033266998320405,0.0681562175,0.022751428000000073,-0.015494506999997881
130482.0,-0.000392266,0.4037397805,9.9095217585,0.014737560203840119,-0.009457939216557272,-0.028670523622510852,9.917743062129395,0.033595345209937295,0.04314926,0.010787314999999964,0.043051193500000196
130492.0,-0.004020726499999999,0.40844697249999995,9.9106985565,0.005677556056737553,0.00679631210726592,-0.02227563724320363,9.919112408547308,0.023971410380442097,-0.0036284604999999993,0.004707191999999971,0.0011767979999994793
130502.0,0.022359162,0.40727017449999997,9.899911241499998,-0.008710938296703698,0.01772032789549843,-0.017212437083168077,9.908310225095935,0.026194626492373935,0.026379888499999997,-0.001176797999999979,-0.01078731500000174
130512.0,0.021182364,0.386970409,9.913150219,-0.019102628663077936,0.026248006620742722,-0.017477727129471217,9.920722859471784,0.03686921777057733,-0.0011767979999999997,-0.020299765499999955,0.013238977500002136
130522.0,0.009218250999999998,0.377359892,9.9179554775,-0.023898793447558353,0.027579692840014398,-0.014547319315372738,9.925136085611824,0.03928633712452736,-0.011964113,-0.00961051700000004,0.004805258499999354
130532.0,-0.0028439284999999996,0.38814720699999994,9.880788274,-0.02256710722828668,0.020652481038848904,-0.008152432936065514,9.888409541369489,0.03165851330195479,-0.012062179499999999,0.010787314999999964,-0.037167203499999246
130542.0,-0.008825985,0.386970409,9.8269497655,-0.016439256224534588,0.012391837689159739,0.000640535835481919,9.834569929036721,0.020596530598305032,-0.0059820565,-0.0011767979999999234,-0.05383850850000016
130552.0,-0.021966895999999996,0.391677601,9.844895935,-0.008178612874845429,0.00786096295098246,0.012897983172238095,9.852708757424251,0.01717679879909651,-0.013140910999999996,0.004707191999999971,0.017946169500000053
130562.0,-0.0614876955,0.37971348799999993,9.824498102999998,0.00034906585039886593,0.0022654373690886398,0.024623105087136003,9.832025531166892,0.0247295644436638,-0.03952079950000001,-0.011964113000000054,-0.020397832000002225
130572.0,-0.08659271949999998,0.343821149,9.819790910999998,0.001947787445225672,-0.012123056984352613,0.030485666044584952,9.826189740551943,0.032865456344916305,-0.025105023999999983,-0.03589233899999994,-0.004707191999999694
130582.0,-0.07825706699999999,0.284000584,9.820967709,0.0016807520696705393,-0.020916025755900045,0.03368310923423856,9.825384839357106,0.03968446684317206,0.008335652499999999,-0.05982056499999999,0.0011767980000012557
130592.0,-0.11532620399999999,0.2552670995,9.8030215395,-0.000450294947014537,-0.028644343683730936,0.03528183082906537,9.807022623065428,0.04544786878679562,-0.037069137,-0.028733484500000017,-0.017946169500000053
130602.0,-0.15484700349999997,0.24810824499999998,9.735944053499999,-0.0033824480903650108,-0.03397283389006962,0.0331490384831283,9.740335821141482,0.04758627060363312,-0.03952079949999998,-0.007158854500000006,-0.06707748600000052
130612.0,-0.159652262,0.239674526,9.707210568999999,-0.004714134309636684,-0.028110272932620674,0.02755351290123448,9.711481336751893,0.039643493537202486,-0.00480525850000002,-0.008433718999999978,-0.028733484500000017
130622.0,-0.16798791449999997,0.23732092999999999,9.682105544999999,-0.004447098934081553,-0.010524335389525807,0.020891591146372127,9.6864704071067,0.023811696809507482,-0.008335652499999985,-0.0023535960000000133,-0.025105024000000142
130632.0,-0.18240368999999998,0.20976424349999997,9.712015827499998,-0.002848377339254746,0.010526080718777801,0.011299261577411289,9.715993185340716,0.01570302330634992,-0.014415775500000005,-0.02755668650000001,0.029910282499999497
130642.0,-0.1799520275,0.1893664115,9.7490849645,-0.00124965574442794,0.03370928917301848,-0.002022836603061428,9.752584273670529,0.033793041945827364,0.002451662499999979,-0.020397831999999977,0.03706913700000136
130652.0,-0.20986230999999997,0.19897692849999998,9.814985652499999,0.0016807520696705393,0.05209458751352675,-0.017212437083168077,9.819245254397847,0.0548902447258729,-0.02991028249999997,0.009610516999999985,0.06590068799999926
130662.0,-0.2146675685,0.195348468,9.864018902499998,0.007543313027119492,0.05182755213797162,-0.03692942164294802,9.868288205043108,0.06408415494427554,-0.00480525850000002,-0.003628460499999986,0.04903324999999903
130672.0,-0.196721399,0.20976424349999997,9.925114332,0.01740267797163546,0.03477394001673502,-0.057182222283090216,9.929279674273833,0.06915118690307977,0.017946169499999998,0.014415775499999978,0.061095429500001686
130682.0,-0.1560238015,0.27085967299999997,9.983758099,0.02406285439724582,0.01345648853287628,-0.0694379242905944,9.988650267600736,0.07471093209942439,0.04069759749999999,0.06109542949999999,0.058643766999999514
130692.0,-0.067469752,0.355785262,9.925114332,0.021399481958702473,-0.015053464798451092,-0.07423408907507482,9.931718372132949,0.078709876199529,0.08855404950000001,0.08492558900000002,-0.058643766999999514
130702.0,-0.0410898635,0.45512662649999996,9.9538478165,0.014470524828284986,-0.0283773083081758,-0.06464175950611398,9.964332139038397,0.072064032552096,0.026379888499999997,0.09934136449999997,0.028733484500000017
130712.0,-0.0075511204999999994,0.527009371,9.890398790999999,0.004078834461910748,-0.025979225915935593,-0.038795178613329956,9.904432550204826,0.04686814433492182,0.033538742999999996,0.07188274450000004,-0.06344902550000064
130722.0,-0.011179581,0.5461323385,9.855683249999998,-0.005513495107050087,-0.018250907988104706,-0.008951793733478916,9.87080938112561,0.021062499417981755,-0.0036284604999999998,0.019122967499999977,-0.03471554100000063
130732.0,-0.0171616375,0.506611539,9.813808854499998,-0.013774138456739249,-0.0035971235883603134,0.01902757950524218,9.826891370413747,0.02376373224398208,-0.005982056500000001,-0.03952079949999998,-0.041874395500000716
130742.0,-0.056682437,0.43482686099999995,9.782623707499999,-0.0180379778193614,0.014522884705844815,0.03847927401871898,9.7924467780148,0.04491032568350731,-0.0395207995,-0.07178467800000005,-0.031185146999998636
130752.0,-0.08659271949999998,0.375006296,9.764677537999999,-0.016704546270837728,0.03184353220263654,0.049403289806951495,9.772259485003035,0.06110431615691764,-0.029910282499999982,-0.05982056499999994,-0.017946169500000053
130762.0,-0.1201314625,0.2911594385,9.814985652499999,-0.010576695267085637,0.04383394416383758,0.045673521195439604,9.82003812343368,0.06418217573533554,-0.03353874300000001,-0.08384685750000004,0.050308114499999945
130772.0,-0.14523648649999998,0.27085967299999997,9.8532315875,-0.004181808887778414,0.05289394831094015,0.035014795453510245,9.858023702364298,0.0635711663739582,-0.02510502399999999,-0.02029976550000001,0.03824593500000084
130782.0,-0.196721399,0.26007235799999995,9.939432041,-0.0015166911199830724,0.0587565092683891,0.019292869551545317,9.94477984863806,0.06186147871569733,-0.05148491250000001,-0.01078731500000002,0.08620045350000005
130792.0,-0.241047457,0.25409030149999995,9.955024614500001,-0.002049016541841343,0.05049586591869994,0.005436700619962337,9.961183706424826,0.05082901393199716,-0.044326058,-0.005982056499999999,0.015592573500001095
130802.0,-0.21829602899999997,0.24330298649999998,9.9789528405,-0.00018500490071139895,0.03130946145152628,-0.010550515328305723,9.984305148203354,0.033039824105020765,0.022751428000000018,-0.010787314999999964,0.023928225999998887
130812.0,-0.2050570515,0.261249156,10.0375966075,0.0035465090400524776,0.010259045343222669,-0.025473080432857242,10.04308942361742,0.027689412497636838,0.013238977499999971,0.017946169499999998,0.058643766999999514
130822.0,-0.2050570515,0.30792880999999994,10.005332729,0.006476916854150957,-0.013454743203624287,-0.0321332568584676,10.01217017256481,0.03543341308628501,0.0,0.04667965399999996,-0.03226387850000023
130832.0,-0.196721399,0.3617673185,9.963360267,0.006743952229706089,-0.03823667325269177,-0.03293261765588101,9.971866561060347,0.05091248745423972,0.008335652500000013,0.05383850850000005,-0.0419724619999986
130842.0,-0.19309293849999998,0.40491657849999996,9.9226626695,0.009407324668249437,-0.0571560423443103,-0.02600540585471551,9.932798033340433,0.06349481921816078,0.0036284605000000136,0.04314925999999997,-0.04069759750000124
130852.0,-0.17396997099999997,0.42041108549999995,9.858036846,0.012871803233458181,-0.06541494036474747,-0.016945401707612946,9.868530867799656,0.06878912981305044,0.019122967500000004,0.01549450699999999,-0.06462582350000012
130862.0,-0.175146769,0.4384553215,9.7945878205,0.016868607220525196,-0.05875476393913711,-0.00735307213865211,9.80596094389172,0.06156898460247905,-0.0011767980000000344,0.018044236000000047,-0.06344902549999887
