timestamp,ax,ay,az,gx,gy,gz,acc_mag,gyro_mag,dax,day,daz
47452.0,0.280077924,-0.2986124925,9.6992671825,0.03121870433042257,0.04255636315137774,0.0007435102613495844,9.707903838713623,0.052784508638908614,0.0,0.0,0.0
47462.0,0.44169151599999995,-0.35127420299999995,9.829793694,0.04614126943497409,-0.0160657557646078,0.005806710421385134,9.845980348731244,0.04920206438023435,0.16161359199999997,-0.05266171049999996,0.1305265114999994
47472.0,0.4368862575,-0.25310963649999996,9.807042266,0.0671916855432777,-0.005674065398233566,0.014599679192932567,9.820031165795347,0.06899324790750681,-0.004805258499999965,0.0981645665,-0.022751427999999407
47482.0,0.45002716849999996,-0.1825017565,9.797431749,0.07092145415478959,0.008182103533349416,0.022593287167066597,9.809459731291367,0.07488161391606024,0.013140910999999977,0.07060787999999996,-0.009610517000000485
47492.0,0.51582979,-0.22918141049999996,9.78311404,0.049871038046485974,0.03376164905057831,0.026590091154133612,9.799383899552835,0.06583314005904321,0.06580262149999999,-0.04667965399999996,-0.014317709000000178
47502.0,0.46797333799999996,-0.22918141049999996,9.832147289999998,0.01949532774477666,0.06520550085450816,0.02286032254262173,9.845945535917409,0.07179428593081918,-0.047856451999999994,0.0,0.04903324999999903
47512.0,0.38775494099999996,-0.2172172975,9.913542484999999,-0.007684684696531033,0.08998568557432364,0.015666075365901103,9.923500483725643,0.09166189996141379,-0.080218397,0.01196411299999997,0.0813951950000007
47522.0,0.34107528699999995,-0.24830437799999996,9.967380993499999,-0.02633701841259443,0.10464121530332003,0.0047403142484166,9.976305492772418,0.10800876380273436,-0.046679654000000015,-0.031087080499999975,0.05383850850000016
47532.0,0.315970263,-0.24830437799999996,10.0440689965,-0.032731904791901655,0.09558121115621747,-0.006983062337229313,10.052104967502418,0.10127146032817526,-0.025105023999999976,0.0,0.076688003000001
47542.0,0.26330855249999996,-0.25664003049999995,10.064368762,-0.022073179049972285,0.06760358324674837,-0.01577777643802874,10.071083063732328,0.0728450954457511,-0.052661710500000014,-0.008335652499999985,0.020299765500000788
47552.0,0.292042037,-0.2303582085,10.005724995,0.0005759586531581288,0.031098276612034965,-0.01604306648433188,10.012636322725708,0.03499735016868393,0.028733484500000017,0.026281821999999955,-0.05864376700000129
47562.0,0.326757578,-0.19681946549999998,9.969832656,0.02615550417038702,-0.005141739976375294,-0.012046262497264863,9.977127422531204,0.029251672235015874,0.034715541000000016,0.03353874300000001,-0.035892339000000106
47572.0,0.38902980549999994,-0.15729866599999998,9.921976204,0.04614126943497409,-0.032587042463986124,0.00021118483949131387,9.930845827654107,0.05648873056333396,0.062272227499999944,0.03952079950000001,-0.04785645199999955
47582.0,0.446398708,-0.1501398115,9.877650145999999,0.05546656362837979,-0.03791553267032482,0.011669271378834088,9.888871835364998,0.0681931022386315,0.05736890250000004,0.007158854499999978,-0.04432605800000111
47592.0,0.45600922499999996,-0.158475464,9.857252314,0.050405108797596236,-0.029122563898777383,0.01806415775814131,9.869066929950039,0.06095172283411603,0.009610516999999985,-0.008335652500000013,-0.020397831999998672
47602.0,0.4608144834999999,-0.2111371745,9.799785344999998,0.03415085747377305,-0.01020319480715885,0.014332643817377436,9.812885493204124,0.0384162846884313,0.004805258499999965,-0.052661710499999986,-0.05746696900000181
47612.0,0.446398708,-0.2111371745,9.828518829499998,0.015498523757709647,0.009780825128176223,0.0023422318561763904,9.840916273132088,0.01847579034640579,-0.01441577549999995,0.0,0.028733484500000017
47622.0,0.42129368399999995,-0.2327118045,9.835775750499998,0.0016423548261266642,0.021238911667518998,-0.012845623294678265,9.847544250535549,0.024875665539324913,-0.02510502400000003,-0.02157463000000001,0.00725692099999975
47632.0,0.42374534649999995,-0.22555294999999997,9.850093459499998,-0.0028885199120506156,0.015643386085625176,-0.026436502179958108,9.861783581726925,0.03085365007607972,0.002451662500000007,0.007158854500000034,0.014317709000000178
47642.0,0.4512039665,-0.22918141049999996,9.8369525485,0.004305727264670011,0.003652974124424132,-0.0325643531837102,9.849961653719507,0.03305027390967965,0.027458620000000045,-0.003628460499999986,-0.013140910999998923
47652.0,0.48238911349999997,-0.223199354,9.785467635999998,0.021094049339603464,-0.011269590980127387,-0.030433306167025123,9.79989255367898,0.03870592619556963,0.03118514699999997,0.0059820564999999715,-0.0514849125000012
47662.0,0.5206350485,-0.18966061099999998,9.7794855795,0.040011673101970006,-0.018730873532403144,-0.022437952863639102,9.795170759141461,0.04955039188963777,0.03824593500000001,0.03353874300000001,-0.0059820564999988335
47672.0,0.5745716235,-0.15975032849999998,9.707602835,0.052003830392423046,-0.018198548110544874,-0.015243705686918473,9.725903840779392,0.05716603967291341,0.05393657500000004,0.029910282499999996,-0.07188274449999987
47682.0,0.5829072759999999,-0.1250347875,9.71839015,0.04907167724907257,-0.0006108652381980154,-0.0048520153205442364,9.736658651617399,0.04931475151561834,0.008335652499999902,0.03471554099999999,0.010787314999999964
47692.0,0.573296759,-0.09865489899999999,9.7220186105,0.03601486911490299,0.026567401873857685,0.005806710421385134,9.739406954526798,0.04512887684851544,-0.00961051699999993,0.026379888500000004,0.003628460499999875
47702.0,0.568589567,-0.10228335949999999,9.763893006,0.015498523757709647,0.05028293574995663,0.013267992973660893,9.780969410745929,0.05426432994013353,-0.004707192000000027,-0.0036284604999999998,0.041874395500000716
47712.0,0.525440307,-0.119052731,9.821359975,-0.0028885199120506156,0.06493846547895302,0.018596483179999578,9.836125905432016,0.06761048019876426,-0.04314925999999997,-0.016769371500000005,0.057466969000000034
47722.0,0.4751321925,-0.1393524965,9.890791057,-0.011681488683598048,0.0670695124956381,0.01806415775814131,9.903177139275142,0.07043500890735091,-0.0503081145,-0.02029976550000001,0.06943108199999948
47732.0,0.434434595,-0.188483813,9.9183477435,-0.005019566928735692,0.05614549670740558,0.012733922222550629,9.92964659623329,0.0577898401783853,-0.040697597500000016,-0.049131316499999994,0.027556686500000538
47742.0,0.4129580315,-0.2303582085,9.961398936999998,0.013632766787327708,0.033496359004275174,0.005007349623971731,9.972615906675058,0.03650934054564177,-0.02147656349999999,-0.041874395499999995,0.04305119349999842
47752.0,0.4176652235,-0.2519328385,9.9518864865,0.034950218271186446,0.0065833819385226105,-0.002453932928304027,9.963832547479774,0.03564941039861186,0.004707192000000027,-0.021574629999999984,-0.009512450499999048
47762.0,0.42972740299999995,-0.24232232149999997,9.961398936999998,0.04960574800018284,-0.008339183166028906,-0.006717772290926175,9.973607899373775,0.05074840564083722,0.012062179499999937,0.009610517000000013,0.009512450499999048
47772.0,0.4523807644999999,-0.20397832,9.907560428499998,0.05653295980134833,-0.01473406954533613,-0.01124690169985146,9.919980300156785,0.059494211038669885,0.02265336149999997,0.038344001499999975,-0.05383850850000016
47782.0,0.4476735725,-0.132193642,9.889614258999998,0.047472955654245766,-0.012335987153095921,-0.006717772290926175,9.900624070144074,0.04950743946261075,-0.004707191999999916,0.07178467799999999,-0.017946169500000053
47792.0,0.4476735725,-0.1046369555,9.8728448875,0.028288296516324092,0.0001884955592153876,0.004473278872861466,9.8835432256153,0.028640416795949503,0.0,0.027556686499999997,-0.016769371499998798
47802.0,0.434434595,-0.119052731,9.8751984835,0.00670380965691022,0.01644274688303858,0.015666075365901103,9.885466709195478,0.02367975731180223,-0.013238977500000026,-0.014415775499999992,0.002353596000000735
47812.0,0.42972740299999995,-0.1393524965,9.828518829499998,-0.015145967248806793,0.03083124123647983,0.023125612588924867,9.838895626085579,0.04140965729992199,-0.004707192000000027,-0.02029976550000001,-0.04667965400000185
47822.0,0.442868314,-0.190837409,9.8404829425,-0.03166550861893312,0.042022292400267475,0.025523694981165072,9.852291906041584,0.05848107813781186,0.013140911000000033,-0.05148491250000001,0.01196411300000122
47832.0,0.38902980549999994,-0.22555294999999997,9.803413805499998,-0.03752806957638207,0.05321508889330711,0.024459044137448534,9.813722054587089,0.06955894286265431,-0.05383850850000005,-0.03471554099999996,-0.03706913700000136
47842.0,0.3709855695,-0.283019919,9.786644434,-0.030066787024106312,0.05721189288037412,0.017264796960727906,9.797761981435922,0.06689757531483133,-0.018044235999999936,-0.057466969000000034,-0.016769371499998798
47852.0,0.3362700285,-0.3141069995,9.817829580999998,-0.014079571075838257,0.04815188873327156,0.0023422318561763904,9.828607145509524,0.05022275142133327,-0.034715541000000016,-0.031087080499999975,0.031185146999998636
47862.0,0.338721691,-0.32371751649999997,9.8249884355,0.005904448859496817,0.030031880439066426,-0.01364498409209167,9.83615388107321,0.033510624433367824,0.002451662500000007,-0.009610516999999985,0.0071588545000018655
47872.0,0.3686319735,-0.2986124925,9.8393061445,0.028288296516324092,0.0076497781114911465,-0.02510307063143444,9.85073623430041,0.03858640926644133,0.029910282499999996,0.025105023999999976,0.014317709000000178
47882.0,0.41531162749999995,-0.25909169299999996,9.816554716499999,0.04667359485683236,-0.008604473212332044,-0.030433306167025123,9.828751637688109,0.05637949574426289,0.04667965399999996,0.03952079950000004,-0.022751428000001184
47892.0,0.43325779699999994,-0.19564266749999998,9.805767401499999,0.05600063437949006,-0.010470230182713983,-0.024036674458465905,9.817283876120108,0.06183412075874133,0.017946169499999998,0.06344902549999998,-0.010787314999999964
47902.0,0.4751321925,-0.169262779,9.785467635999998,0.05493423820652152,-0.0003455751918948773,-0.014711380265060204,9.798457906421197,0.05687103532420792,0.04187439550000005,0.026379888499999976,-0.020299765500000788
47912.0,0.512299396,-0.15131660949999998,9.8130243225,0.04454254784014728,0.0228376332623458,-0.0064507369153710414,9.827552784972927,0.0504698728735128,0.03716720349999997,0.017946169500000025,0.027556686500002314
47922.0,0.477583855,-0.17043957699999998,9.899224775999999,0.026954864967800425,0.045486770965476216,-0.0011222467090323538,9.912203950370312,0.05288544710952134,-0.03471554099999996,-0.019122967500000004,0.08620045349999828
47932.0,0.44169151599999995,-0.18966061099999998,9.936293913,0.009901252846563832,0.05081526117181491,-0.004052654523130833,9.947914317493497,0.051929274831978935,-0.03589233900000005,-0.019221033999999998,0.03706913700000136
47942.0,0.442868314,-0.2183940955,9.971009454,0.001907644872429802,0.045486770965476216,-0.009915215480579788,9.9832288292041,0.04659395819042773,0.0011767980000000344,-0.028733484500000017,0.03471554100000063
47952.0,0.432080999,-0.21476563499999998,9.960222138999999,0.00324107642095347,0.03269699820686177,-0.01897521962768235,9.971902693362964,0.03794281523588838,-0.010787314999999964,0.0036284605000000136,-0.01078731500000174
47962.0,0.4631680795,-0.215942433,9.936293913,0.010435323597674096,0.02177123708937727,-0.024036674458465905,9.94942674377567,0.03406823244625875,0.031087080499999975,-0.0011767980000000067,-0.023928225999998887
47972.0,0.4943532265,-0.181226892,9.876473348,0.020827013964048336,0.011911872144861299,-0.024036674458465905,9.890498172118999,0.03396202184317733,0.031185147000000024,0.03471554099999999,-0.05982056500000077
47982.0,0.49553002449999994,-0.122583125,9.835775750499998,0.028288296516324092,0.004717624968140673,-0.014978415640615335,9.849013211578079,0.03235485497168127,0.0011767979999999234,0.058643767,-0.04069759750000124
47992.0,0.5278919695,-0.1369989005,9.78311404,0.03281742592524938,0.00951378975262109,0.0018099064343181197,9.798303881276897,0.034216536953895475,0.032361945,-0.014415775499999992,-0.052661710499998904
48002.0,0.5086709355,-0.1177778665,9.78311404,0.03255213587894624,0.019907225448247325,0.0148667145684877,9.79703720856999,0.040950682257925926,-0.01922103399999997,0.019221033999999998,0.0
48012.0,0.47640705699999997,-0.1405292945,9.8022370075,0.022692770934430274,0.030031880439066426,0.01539903999034597,9.814813422463752,0.040669474154618454,-0.03226387850000001,-0.022751428000000018,0.01912296750000131
48022.0,0.4523807644999999,-0.1944658695,9.830970492,0.006438519610607082,0.038025488413200456,0.006606071218798537,9.843294476193666,0.03912841014897555,-0.024026292500000046,-0.05393657499999999,0.028733484500000017
48032.0,0.40217071649999997,-0.1979962635,9.8393061445,-0.0074176493209759005,0.04308868857323601,-0.0075171330883395775,9.849512130596395,0.04436399321835336,-0.05021004799999995,-0.0035303939999999923,0.008335652499999568
48042.0,0.36382671499999997,-0.215942433,9.885985798499998,-0.011681488683598048,0.04335572394879114,-0.023237313661052503,9.895034927733267,0.050558369467091684,-0.0383440015,-0.017946169499999998,0.046679653999998294
48052.0,0.3913834015,-0.2434991195,9.866862831,-0.0023544491609403502,0.035095080599101984,-0.03602883174891894,9.877623950826248,0.050351611993071546,0.02755668650000004,-0.02755668650000001,-0.019122967499997756
48062.0,0.406975975,-0.24467591749999998,9.835775750499998,0.01629788455512305,0.020172515494550458,-0.03922627493857256,9.847232116841537,0.04702395206601081,0.015592573499999984,-0.001176797999999979,-0.03108708050000253
48072.0,0.420116886,-0.2183940955,9.833324088,0.040278708477525134,0.006051056516664341,-0.033096678605568475,9.84471720256568,0.05248218532326579,0.013140911000000033,0.026281821999999982,-0.002451662499998619
48082.0,0.469150136,-0.166909183,9.791449692499999,0.062128485383242144,-0.01020319480715885,-0.022172662817335962,9.804103610541704,0.06675088656115243,0.04903324999999997,0.05148491250000001,-0.041874395500000716
48092.0,0.5074941374999999,-0.1381756985,9.773503522999999,0.07331953654702979,-0.016332791140162936,-0.00778416846389471,9.787645985493459,0.0755189233541747,0.03834400149999995,0.02873348449999999,-0.017946169500000053
48102.0,0.5325991615,-0.1262115855,9.738787982,0.07065616410848645,-0.003543018381548489,0.005806710421385134,9.754157195242065,0.07098284575652895,0.02510502400000003,0.011964112999999998,-0.03471554099999885
48112.0,0.5194582505,-0.10228335949999999,9.7471236345,0.05466720283096639,0.024436354857172608,0.010869910581420684,9.761491582021245,0.06085879936472428,-0.013140910999999922,0.02392822600000001,0.008335652499999568
48122.0,0.48356591149999995,-0.12022952899999999,9.749575297,0.03228510050339111,0.05774421830223239,0.008204792813625343,9.762300425733732,0.06666364141692571,-0.035892339000000106,-0.017946169499999998,0.0024516625000003955
48132.0,0.4404166515,-0.15729866599999998,9.8751984835,0.012566370614359171,0.07986103058350454,-0.0035203291012725624,9.886265967784022,0.08092027306712542,-0.04314925999999997,-0.03706913699999999,0.12562318650000037
48142.0,0.3913834015,-0.169262779,9.927958260499999,0.003506366467256608,0.0779952736131226,-0.015243705686918473,9.937111556058666,0.07954827386472915,-0.04903324999999997,-0.011964113000000026,0.052759776999998564
48152.0,0.35549106249999995,-0.17642163349999998,9.985425229499999,0.014432127584741111,0.04681845718474789,-0.01897521962768235,9.99330853632666,0.0525386828889067,-0.03589233900000005,-0.007158854499999978,0.057466969000000034
48162.0,0.40932957099999995,-0.1728912395,9.993760882,0.03628190449045813,0.0127112329422747,-0.02190562744178083,10.00363427185262,0.04424713041526644,0.05383850849999999,0.0035303939999999923,0.008335652500001345
48172.0,0.47042500049999997,-0.1825017565,9.959045341000001,0.05893104219358854,-0.008339183166028906,-0.019774580425095754,9.971819827710227,0.06271717261554186,0.06109542950000002,-0.009610517000000013,-0.03471554099999885
48182.0,0.44885037049999993,-0.156121868,10.035635277499999,0.08237954069413235,-0.017132151937576338,-0.01151393707540659,10.046880914779884,0.08492626273400256,-0.02157463000000004,0.026379888500000004,0.07658993649999779
