timestamp,ax,ay,az,gx,gy,gz,acc_mag,gyro_mag,dax,day,daz
409452.0,0.2078029135,-1.929164188,9.554226829,-0.08802393549508201,0.032185616736027434,-0.06160139594913986,9.749261860013002,0.11215551313958451,0.0,0.0,0.0
409462.0,0.177892631,-1.5125776959999997,9.485972545,-0.07656584895573924,-0.0005881759579220891,-0.0906454200315775,9.60745607323263,0.11865608854994195,-0.029910282499999996,0.4165864920000002,-0.068254284
409472.0,0.20662611549999998,-1.4730568965,9.5266701425,-0.08162904911577479,-0.015510741062473608,-0.0813201258381718,9.642097021702996,0.11626197836863424,0.02873348449999999,0.03952079949999976,0.04069759750000124
409482.0,0.413644497,-1.525718607,9.590119168,-0.0832277707106016,-0.01631010185988701,-0.07998669428964814,9.719532123208678,0.11657938284071499,0.20701838150000001,-0.052661710500000014,0.06344902549999887
409492.0,0.30949787399999995,-1.4059794104999999,9.591295965999999,-0.1002813828318382,0.009803514408452148,-0.0751905295051677,9.698738337751374,0.1257222349653788,-0.10414662300000005,0.11973919650000009,0.0011767979999994793
409502.0,0.2891981085,-1.409607871,9.6319935635,-0.12026540276717326,0.011402236003278955,-0.06453180376323835,9.738887508501707,0.13696032924011967,-0.020299765499999955,-0.003628460500000097,0.04069759750000124
409512.0,0.32146198699999995,-1.4933566619999998,9.6463112725,-0.12213115973755521,0.00021118483949131387,-0.05280842717759243,9.766512842104204,0.13305936554353376,0.032263878499999954,-0.08374879099999988,0.014317709000000178
409522.0,0.271251939,-1.5161080899999997,9.6104189335,-0.1104060378226573,-0.01817585883026895,-0.04508010924976154,9.733052626609494,0.12063196625225976,-0.05021004799999995,-0.02275142799999985,-0.035892339000000106
409532.0,0.271251939,-1.5544520915,9.612870595999999,-0.09921498665886966,-0.02563714138254471,-0.04268202685752133,9.741518362895045,0.1110073511649316,0.0,-0.03834400150000028,0.002451662499998619
409542.0,0.2784107935,-1.5652394065,9.556580425,-0.09628457884477118,-0.014179054843201934,-0.050410344785352224,9.68791599824704,0.1096036887195845,0.007158854499999978,-0.010787314999999964,-0.05629017099999878
409552.0,0.32391364949999996,-1.5868140365,9.494308197499999,-0.11493691256083458,0.0023422318561763904,-0.06559819993620689,9.631447813692473,0.13235975126130903,0.04550285599999998,-0.02157463000000015,-0.062272227500001165
409562.0,0.30596747999999996,-1.5772035194999998,9.4919546015,-0.14291454047030366,0.019662879352968118,-0.07892204344593158,9.626961576617918,0.16443808453022357,-0.017946169499999998,0.009610517000000263,-0.0023535959999989586
409572.0,0.25203090499999997,-1.538859518,9.463221117,-0.16369966653230417,0.032719687487137696,-0.08531692982523881,9.590837403608145,0.1874756978566776,-0.05393657499999999,0.038344001499999836,-0.028733484500000017
409582.0,0.2664466805,-1.596326487,9.4607694545,-0.16796350589492628,0.029522244297484086,-0.08558221987154195,9.598198307903804,0.19080780534091424,0.014415775500000005,-0.057466969000000034,-0.0024516625000003955
409592.0,0.248500511,-1.5891676325,9.4595926565,-0.15090989377368969,0.010335839830310419,-0.08638158066895535,9.595368648210533,0.17419070900209166,-0.01794616949999997,0.007158854500000089,-0.0011767979999994793
409602.0,0.26281822,-1.5400363160000001,9.474008432,-0.12506156755165368,-0.01631010185988701,-0.08771501221747902,9.601959229291172,0.1536240165777123,0.014317708999999984,0.0491313164999998,0.014415775499999839
409612.0,0.286746446,-1.4850210095,9.4931313995,-0.10321179064593666,-0.03576179637336381,-0.08664861604451048,9.612858819889267,0.1394258314324128,0.023928225999999997,0.05501530650000008,0.019122967499999532
409622.0,0.331072504,-1.4993387185,9.49675986,-0.09548521804735778,-0.04135732195525763,-0.08478285907412855,9.620086976436609,0.13422364969574413,0.044326058,-0.014317708999999956,0.003628460499999875
409632.0,0.3694165055,-1.46707484,9.478715624,-0.10401115144335006,-0.028567549196643185,-0.08611629062265222,9.598688817820825,0.13802333136929867,0.0383440015,0.03226387850000001,-0.018044235999999714
409642.0,0.3574523925,-1.4861978074999997,9.485972545,-0.12293052053496861,-0.002453932928304027,-0.0922441416264043,9.608341753935251,0.1537104951856154,-0.011964112999999998,-0.019122967499999755,0.00725692099999975
409652.0,0.3598059885,-1.4742336944999999,9.4595926565,-0.1391847718587918,0.02286032254262173,-0.09357757317492797,9.580538531954678,0.1692682996471744,0.0023535960000000133,0.011964112999999887,-0.026379888499999282
409662.0,0.3598059885,-1.4491286705,9.5254933445,-0.13785308563952012,0.03245265211158256,-0.0906454200315775,9.6418078029558,0.16814648382322295,0.0,0.02510502399999992,0.06590068799999926
409672.0,0.340683021,-1.4371645575,9.5386342555,-0.12559563830276396,0.019662879352968118,-0.07758861189740791,9.652308032089003,0.14893248766234543,-0.019122967500000032,0.011964112999999887,0.013140911000000699
409682.0,0.331072504,-1.5173829545,9.5409878515,-0.11440284180972432,-0.0075171330883395775,-0.06826331770400222,9.666566568124516,0.13343312200486862,-0.009610516999999985,-0.08021839699999989,0.002353596000000735
409692.0,0.38020382049999996,-1.5772035194999998,9.5147060295,-0.10827499080597223,-0.028567549196643185,-0.06772924695289195,9.652033812355281,0.13086951285132006,0.049131316499999966,-0.05982056499999988,-0.026281822000001398
409702.0,0.38373421449999995,-1.5268954049999999,9.458415858499999,-0.11067307319821243,-0.027501153023674653,-0.07226012169106924,9.588550050842532,0.13500506559228284,0.0035303939999999923,0.050308114499999945,-0.056290171000000555
409712.0,0.408937305,-1.5652394065,9.447628543499999,-0.12053243814272839,-0.009915215480579788,-0.07732332185110478,9.585138977345975,0.14354538043680304,0.025203090500000025,-0.03834400150000006,-0.010787314999999964
409722.0,0.378928956,-1.5220901464999999,9.4237003175,-0.12719435989759076,0.019128808601857852,-0.08504989444968368,9.553348797244725,0.15420052222410496,-0.03000834899999999,0.04314926000000008,-0.023928225999998887
409732.0,0.340683021,-1.492179864,9.462044319,-0.12799372069500414,0.0343184090819645,-0.08824733763933729,9.58503773399171,0.1592097306690109,-0.03824593500000001,0.02991028249999994,0.0383440015000005
409742.0,0.3250904475,-1.4969851225,9.494308197499999,-0.12239819511311034,0.02845584812451555,-0.08318413747930174,9.617096048452348,0.15070054474887573,-0.015592573499999984,-0.00480525850000002,0.032263878499998455
409752.0,0.3023390195,-1.48864947,9.485972545,-0.11440284180972432,0.010602875205865553,-0.07892204344593158,9.606828886356688,0.13938837870659618,-0.022751428000000018,0.008335652500000013,-0.008335652499999568
409762.0,0.30351581749999995,-1.4838442115,9.472733567499999,-0.10907435160338563,-0.006717772290926175,-0.07385884328589604,9.593049397158133,0.13189947450153955,0.001176797999999979,0.00480525850000002,-0.01323897750000036
409772.0,0.340683021,-1.5280722029999998,9.4799904885,-0.10747563000855881,-0.01604306648433188,-0.06826331770400222,9.608396809063905,0.12832876361874163,0.03716720350000002,-0.0442279914999999,0.007256921000001526
409782.0,0.35500073,-1.5197365504999998,9.495484995499998,-0.10987371240079903,-0.01817585883026895,-0.06266779212210839,9.622882104701885,0.12778828854950344,0.014317709000000012,0.008335652500000013,0.015494506999997881
409792.0,0.3598059885,-1.538859518,9.4680263755,-0.11440284180972432,-0.014711380265060204,-0.057871627337627976,9.599014137538465,0.12904867366288308,0.00480525850000002,-0.0191229675000002,-0.0274586199999991
409802.0,0.341859819,-1.538859518,9.472733567499999,-0.12000011272087012,-0.005119050696099368,-0.057337556586517714,9.603001509571222,0.13309330234223993,-0.017946169499999998,0.0,0.004707191999999694
409812.0,0.307144278,-1.5580805519999998,9.494308197499999,-0.12399691670793714,0.0026092672317315226,-0.06106907052728159,9.626205938122476,0.13824425848340965,-0.034715541000000016,-0.01922103399999986,0.021574629999999928
409822.0,0.31547993049999995,-1.583185576,9.54579311,-0.12293052053496861,0.003940953451003196,-0.06879564312586049,9.681331016628148,0.14092652165650746,0.008335652499999957,-0.025105024000000142,0.0514849125000012
409832.0,0.3274440435,-1.607113802,9.5721729985,-0.11680266953121653,0.004473278872861466,-0.07705628647554966,9.711669799134183,0.14000194683965986,0.011964113000000054,-0.023928225999999997,0.026379888499999282
409842.0,0.32146198699999995,-1.55925735,9.5398110535,-0.11067307319821243,0.0047403142484166,-0.08478285907412855,9.671743184612367,0.1394959960109758,-0.005982056500000055,0.047856451999999994,-0.03236194499999989
409852.0,0.3250904475,-1.5305238654999997,9.579331853,-0.10560987303817689,0.006606071218798537,-0.08558221987154195,9.706275591174053,0.13609335699522085,0.0036284605000000414,0.02873348450000024,0.03952079949999998
409862.0,0.33823135849999997,-1.4981619204999999,9.640329216,-0.10427818681890522,0.004473278872861466,-0.0813201258381718,9.76190744602571,0.13231369292877054,0.013140910999999977,0.03236194499999989,0.06099736300000025
409872.0,0.319108391,-1.468251638,9.558934021,-0.11094010857376756,-0.0032532937257174306,-0.0719930863155141,9.676301600070532,0.1322924642134169,-0.019122967499999977,0.02991028249999994,-0.08139519499999892
409882.0,0.31547993049999995,-1.458641121,9.5505983685,-0.1181343557504882,-0.01124690169985146,-0.062400756746553265,9.666493195715562,0.1340748792614468,-0.0036284605000000414,0.009610516999999819,-0.008335652500001345
409892.0,0.260464624,-1.4933566619999998,9.5386342555,-0.12532860292720882,-0.014444344889505072,-0.059470348932454786,9.658338335370804,0.13947265041261986,-0.05501530649999997,-0.03471554099999974,-0.011964112999999443
409902.0,0.271251939,-1.5616109459999998,9.5170596255,-0.13172348930651603,-0.018441148876572087,-0.06506587451434862,9.648141286092388,0.14806998896903012,0.01078731500000002,-0.068254284,-0.021574629999999928
409912.0,0.26762347849999996,-1.5795571154999999,9.4703799715,-0.1306570931335475,-0.023504349036607638,-0.07598989030258112,9.604932056602975,0.15296468166848678,-0.0036284605000000414,-0.017946169500000053,-0.04667965400000007
409922.0,0.26997707449999997,-1.5747518569999999,9.430859172,-0.12532860292720882,-0.025902431428847843,-0.08531692982523881,9.565241019126338,0.15380888524534878,0.0023535960000000133,0.00480525850000002,-0.03952079949999998
409932.0,0.33224930199999997,-1.6142726565,9.3889847765,-0.11840139112604332,-0.02457074520957617,-0.09490925939419964,9.532539060583586,0.15372175662375082,0.0622722275,-0.0395207995000002,-0.041874395500000716
409942.0,0.35500073,-1.604760206,9.3434819205,-0.10614394378928714,-0.01577777643802874,-0.10183647119536515,9.486934975837668,0.14793965627240113,0.022751428000000018,0.009512450500000158,-0.045502855999998815
409952.0,0.378928956,-1.5652394065,9.347110380999998,-0.09388649645253097,-0.007250097712784445,-0.09917309875682179,9.48483178701413,0.13675723618882607,0.023928225999999997,0.03952079949999998,0.0036284604999980985
409962.0,0.387362675,-1.5400363160000001,9.417718261,-0.08003032752094799,-0.002186897552748895,-0.08957902385860897,9.550663795786912,0.12014173862350111,0.008433719000000006,0.025203090499999803,0.07060788000000073
409972.0,0.38373421449999995,-1.5328774615,9.4452749475,-0.07043799795198716,0.000476474885794452,-0.08185245126003006,9.576543431386073,0.10798871404492479,-0.0036284605000000414,0.007158854500000089,0.027556686500000538
409982.0,0.36215958449999996,-1.5328774615,9.555403627,-0.06990392720087689,-5.585053606381855e-05,-0.07892204344593158,9.684348783036713,0.10542889119719218,-0.021574629999999984,0.0,0.11012867950000071
409992.0,0.3334261,-1.505320775,9.602083280999999,-0.07656584895573924,0.004473278872861466,-0.08451756902782541,9.7250792765441,0.11412957077182363,-0.02873348449999996,0.027556686500000094,0.046679653999998294
410002.0,0.316754795,-1.492179864,9.605613674999999,-0.08988969246546395,0.007670722062515079,-0.09730734178643986,9.725983159559219,0.13269406751637042,-0.016671305000000025,0.013140911000000033,0.0035303940000002143
410012.0,0.31194953649999996,-1.4802157509999998,9.645134474499999,-0.10534458299187374,0.005007349623971731,-0.1061003105579873,9.763041033101286,0.14959889911523352,-0.00480525850000002,0.01196411300000011,0.03952079949999998
410022.0,0.3143031325,-1.433536097,9.648762934999999,-0.12026540276717326,-0.0008552113334772215,-0.11249519693729451,9.759735568975785,0.16468050225553718,0.002353596000000069,0.04667965399999985,0.003628460499999875
410032.0,0.35019547149999997,-1.4179435235,9.598454820499999,-0.12452924212979541,-0.009382890058721515,-0.10823135757467237,9.708941015645031,0.1652561573247177,0.03589233899999994,0.015592573499999984,-0.050308114499999945
410042.0,0.41129090099999993,-1.4383413555,9.542164649499998,-0.1213317989401418,-0.01657713723544214,-0.09890606338126666,9.65872104672013,0.15741224948063226,0.061095429499999965,-0.020397832000000005,-0.056290171000000555
410052.0,0.434042329,-1.4658980419999998,9.5147060295,-0.1128041202148975,-0.014978415640615335,-0.0906454200315775,9.636746372127204,0.14548441375371174,0.022751428000000073,-0.027556686499999872,-0.0274586199999991
410062.0,0.401680384,-1.457464323,9.4572390605,-0.10534458299187374,-0.008583529261308114,-0.0829188474329986,9.577312777139271,0.13433798197058197,-0.032361945,0.008433718999999895,-0.057466969000000034
410072.0,0.3825574165,-1.5065956394999998,9.4823440845,-0.10454522219446034,-0.0035203291012725624,-0.07758861189740791,9.608903680167248,0.13023858451640566,-0.019122967499999977,-0.0491313164999998,0.025105024000000142
410082.0,0.366964843,-1.4969851225,9.494308197499999,-0.10560987303817689,-0.0032532937257174306,-0.07918733349223472,9.618602590922448,0.1320403839316443,-0.01559257350000004,0.009610516999999819,0.011964112999999443
410092.0,0.387362675,-1.5006135829999998,9.5170596255,-0.10907435160338563,-0.005651376117957639,-0.08345117285485687,9.642422666674047,0.13745272089186453,0.020397832000000005,-0.003628460499999875,0.022751428000001184
410102.0,0.390893069,-1.48864947,9.5278469405,-0.11227179479303923,-0.008049458510197848,-0.08451756902782541,9.651359591141485,0.14075854916391736,0.0035303939999999923,0.011964112999999887,0.010787314999999964
410112.0,0.44600644199999995,-1.5209133485,9.5182364235,-0.12026540276717326,-0.010182250856134918,-0.08531692982523881,9.64929654293996,0.1478053579883097,0.055113372999999966,-0.03226387850000001,-0.009610517000000485
410122.0,0.45198849849999995,-1.48864947,9.497936658,-0.12799372069500414,0.0047403142484166,-0.08425053365227028,9.624508902104449,0.15330693244996066,0.005982056499999999,0.03226387850000001,-0.020299765499999012
410132.0,0.4315906665,-1.446677008,9.481167286499998,-0.13332221090134283,0.019128808601857852,-0.07865500807037645,9.600608209039857,0.15597222038779737,-0.02039783199999995,0.04197246199999993,-0.01676937150000235
410142.0,0.4196265535,-1.4455002099999998,9.521864884,-0.13172348930651603,0.030321605094897487,-0.07146076089365583,9.64009689633173,0.15289577403615512,-0.011964112999999998,0.0011767980000001454,0.04069759750000124
410152.0,0.35500073,-1.4287308384999997,9.5027419165,-0.12799372069500414,0.027122416575991883,-0.0642665137169352,9.616101146451587,0.14576763290799982,-0.06462582350000001,0.01676937150000013,-0.019122967499999532
410162.0,0.3694165055,-1.4491286705,9.519511288,-0.1258609283490671,0.012468632176247491,-0.06320011754396668,9.636261599840488,0.14138845402226718,0.014415775500000005,-0.020397832000000227,0.016769371500000574
410172.0,0.390893069,-1.505320775,9.523041682,-0.12479627750535054,-0.003785619147575701,-0.06399947834138008,9.649202604575585,0.1403010157464718,0.02147656349999999,-0.056192104500000006,0.0035303940000002143
410182.0,0.37059330349999997,-1.48864947,9.494308197499999,-0.12559563830276396,-0.013112658670233398,-0.07039436472068729,9.617447935406044,0.14457376235856179,-0.02029976550000001,0.016671305000000025,-0.028733484500001794
410192.0,0.38373421449999995,-1.505320775,9.441646487,-0.12372988133238201,-0.01631010185988701,-0.07039436472068729,9.568590855946551,0.14328457537932815,0.013140910999999977,-0.016671305000000025,-0.052661710499998904
410202.0,0.4160961595,-1.5245418089999998,9.47518523,-0.11920075192345672,-0.022172662817335962,-0.0634671529195218,9.606065733907393,0.1368522039838552,0.03236194500000006,-0.01922103399999986,0.03353874299999937
410212.0,0.42090141799999997,-1.560434148,9.4536106,-0.11440284180972432,-0.026701792226261248,-0.057337556586517714,9.590769839296074,0.13072333884026735,0.004805258499999965,-0.035892339000000106,-0.021574629999999928
410222.0,0.4149193615,-1.5675930024999998,9.43203597,-0.11440284180972432,-0.014711380265060204,-0.05600587036724604,9.570413180077878,0.12822282339364072,-0.005982056499999999,-0.007158854499999867,-0.021574629999999928
410232.0,0.37422176399999996,-1.5640626084999998,9.409284542,-0.11760203032862993,0.007138396640656807,-0.059470348932454786,9.545730425917089,0.13197695498140294,-0.040697597500000016,0.0035303939999999923,-0.022751427999999407
410242.0,0.34901867349999993,-1.5532752935,9.429682373999999,-0.12053243814272839,0.025790730356720207,-0.0679962823284471,9.563126468178462,0.14077188933680468,-0.025203090500000025,0.010787314999999742,0.020397831999998672
410252.0,0.3466650775,-1.5317006635,9.474008432,-0.12106476356458666,0.03405137370640937,-0.07385884328589604,9.603286904395365,0.14584684350294788,-0.002353595999999958,0.02157463000000015,0.04432605800000111
410262.0,0.3274440435,-1.5161080899999997,9.519511288,-0.11760203032862993,0.03192032668972429,-0.07705628647554966,9.6450452826592,0.1441763367505108,-0.01922103399999997,0.015592573500000206,0.04550285600000059
410272.0,0.3334261,-1.5065956394999998,9.488326140999998,-0.1152039479363897,0.02392497338633827,-0.07865500807037645,9.61297749623422,0.14153078911042066,0.005982056499999999,0.009512450499999936,-0.03118514700000219
410282.0,0.32146198699999995,-1.4861978074999997,9.505095512499999,-0.1128041202148975,0.015666075365901103,-0.07412587866145116,9.625952546831478,0.13588539782537093,-0.011964113000000054,0.020397832000000005,0.016769371500000574
410292.0,0.3334261,-1.4969851225,9.554226829,-0.11466987718527945,0.005539675045830002,-0.07066140009624243,9.67653800287742,0.13480690708143153,0.011964113000000054,-0.010787315000000186,0.049131316500000466
410302.0,0.3586291905,-1.5029671789999999,9.5409878515,-0.11760203032862993,-0.0064507369153710414,-0.06666459610917541,9.665297430493306,0.13533668356571624,0.02520309049999997,-0.005982056499999944,-0.013238977499998583
410312.0,0.3478418755,-1.4946315264999999,9.513431164999998,-0.12079947351828352,-0.013112658670233398,-0.06506587451434862,9.636404407327056,0.13783331471750032,-0.010787314999999964,0.008335652500000013,-0.027556686500002314
410322.0,0.36578804499999995,-1.511400898,9.4931313995,-0.12159883431569694,-0.01897521962768235,-0.06399947834138008,9.619650582870094,0.1387165047671829,0.017946169499999942,-0.01676937150000013,-0.020299765499999012
410332.0,0.3813806185,-1.4850210095,9.481167286499998,-0.12079947351828352,-0.014711380265060204,-0.06373244296582493,9.604336087904336,0.13737089137801287,0.01559257350000004,0.02637988849999995,-0.01196411300000122
410342.0,0.36215958449999996,-1.5101260334999997,9.458415858499999,-0.1213317989401418,0.00021118483949131387,-0.0642665137169352,9.58505455143704,0.1373012557058982,-0.019221034000000026,-0.025105023999999698,-0.022751427999999407
410352.0,0.40050358599999997,-1.5508236309999999,9.485972545,-0.12372988133238201,0.0148667145684877,-0.07066140009624243,9.620245952228075,0.14325898296493475,0.0383440015,-0.04069759750000013,0.027556686500000538
410362.0,0.410114103,-1.5772035194999998,9.4907778035,-0.12106476356458666,0.02365968334003513,-0.07705628647554966,9.629674336903143,0.1454445904050817,0.00961051700000004,-0.02637988849999995,0.0048052585000011305
410372.0,0.37775215799999995,-1.5209133485,9.4931313995,-0.1173349949530748,0.023125612588924867,-0.07865500807037645,9.62161202058636,0.14313946099102828,-0.03236194500000006,0.05629017099999989,0.0023535959999989586
410382.0,0.35617752799999997,-1.4754104925,9.5613856835,-0.11253883016859438,0.019662879352968118,-0.0751905295051677,9.681105037208821,0.13676707515857975,-0.021574629999999984,0.045502855999999925,0.068254284
410392.0,0.35019547149999997,-1.4946315264999999,9.5733497965,-0.11173946937118096,0.00793775743807021,-0.06692988615547855,9.69564781716072,0.1304926307087264,-0.005982056499999999,-0.01922103399999986,0.01196411300000122
410402.0,0.366964843,-1.5233650109999999,9.544616312,-0.11466987718527945,-0.011780972450961725,-0.06000267435431306,9.672383609846827,0.12995496518120087,0.01676937150000002,-0.028733484500000017,-0.028733484500000017
410412.0,0.3968751255,-1.5675930024999998,9.5494215705,-0.11786732037493307,-0.02510307063143444,-0.05840395275948625,9.68536576582724,0.13391747856581754,0.029910282499999996,-0.0442279914999999,0.004805258499999354
410422.0,0.375398562,-1.5556288895,9.500290254,-0.12213115973755521,-0.02510307063143444,-0.05973563897875792,9.634127891638455,0.13825531056045376,-0.02147656349999999,0.011964112999999887,-0.049131316500000466
410432.0,0.37177010149999995,-1.583185576,9.427328778,-0.1258609283490671,-0.009915215480579788,-0.06320011754396668,9.56656769509999,0.14118618785308473,-0.0036284605000000414,-0.027556686500000094,-0.07296147599999969
410442.0,0.3849110125,-1.6238831734999999,9.4344876325,-0.12532860292720882,0.010869910581420684,-0.07146076089365583,9.580955585770955,0.14467914160387566,0.013140911000000033,-0.040697597499999905,0.007158854500000089
410452.0,0.353823932,-1.6190779149999999,9.427328778,-0.11973307734531499,0.024192008761893403,-0.07998669428964814,9.571892840927736,0.14601073372153275,-0.031087080499999975,0.00480525850000002,-0.007158854500000089
410462.0,0.32391364949999996,-1.5915212284999998,9.47518523,-0.11227179479303923,0.019395843977412983,-0.08584925524709708,9.613375838690002,0.14265780489033078,-0.02991028250000005,0.027556686500000094,0.04785645199999955
410472.0,0.30949787399999995,-1.546116439,9.511077569,-0.10161306905110987,0.0012758356832078548,-0.08478285907412855,9.640895264470592,0.13234416024690968,-0.014415775500000005,0.04540478949999982,0.035892339000000106
410482.0,0.36461124699999997,-1.535329124,9.472733567499999,-0.09841562586145625,-0.02563714138254471,-0.07918733349223472,9.603273302436142,0.12889349175804463,0.05511337300000002,0.010787314999999964,-0.0383440015000005
410492.0,0.38020382049999996,-1.5340542595,9.4356644305,-0.1010807436292516,-0.03576179637336381,-0.07012732934513216,9.567112451582021,0.12811738810002749,0.015592573499999984,0.001274864500000028,-0.037069136999999586
410502.0,0.401680384,-1.538859518,9.384179518,-0.10507754761631861,-0.032032027761851926,-0.06506587451434862,9.51799668906647,0.12767501651424495,0.021476563500000045,-0.00480525850000002,-0.051484912499999425
410512.0,0.4196265535,-1.548470035,9.354269235499999,-0.10747563000855881,-0.012845623294678265,-0.06559819993620689,9.49084816146149,0.12656676071716452,0.017946169499999998,-0.00961051700000004,-0.029910282500001273
410522.0,0.4149193615,-1.5472932369999999,9.363879752499999,-0.10854202618152736,0.007405432016211941,-0.0727924471129275,9.499922023737508,0.13090054326711734,-0.004707192000000027,0.0011767980000001454,0.009610517000000485
410532.0,0.41246769899999997,-1.5317006635,9.383002719999999,-0.1096066770252439,0.026857126529688743,-0.07998669428964814,9.516142946005596,0.1383213655128284,-0.002451662500000007,0.015592573499999984,0.019122967499999532
410542.0,0.39569832749999995,-1.4981619204999999,9.463221117,-0.11014074777635416,0.048174578013547485,-0.08638158066895535,9.58924502845022,0.14803226596382654,-0.01676937150000002,0.03353874300000004,0.08021839700000122
410552.0,0.3466650775,-1.4263772424999999,9.5039187145,-0.10827499080597223,0.055634115236571254,-0.08877966306119557,9.616610611109472,0.15066670828503845,-0.04903324999999997,0.07178467799999999,0.04069759749999946
410562.0,0.31194953649999996,-1.3916617015,9.578155055,-0.10907435160338563,0.04391073865092533,-0.0821194866355852,9.683753872459093,0.14341888729125227,-0.034715541000000016,0.03471554099999996,0.07423634050000061
410572.0,0.32028518899999997,-1.3951920955,9.615224192,-0.10694330458670054,0.014599679192932567,-0.07226012169106924,9.721197449288873,0.12989051626376918,0.008335652500000013,-0.0035303939999999923,0.037069136999999586
410582.0,0.3250904475,-1.3916617015,9.5757033925,-0.10534458299187374,-0.017376498032855545,-0.06293308216841154,9.681761283548239,0.12393545368793243,0.00480525850000002,0.0035303939999999923,-0.03952079949999998
410592.0,0.4053088445,-1.446677008,9.5158828275,-0.10454522219446034,-0.042690753503781306,-0.05867098813504138,9.633751896930663,0.12725756860458975,0.080218397,-0.05501530650000008,-0.05982056499999899
410602.0,0.456793757,-1.4898262679999998,9.451257003999999,-0.10401115144335006,-0.03736051796819062,-0.05840395275948625,9.57885701954654,0.12500059849998837,0.051484912500000035,-0.043149259999999856,-0.0646258235000019
410612.0,0.4770935225,-1.5413111805,9.415266598499999,-0.10747563000855881,-0.005651376117957639,-0.06266779212210839,9.552512941900446,0.12453995851622497,0.020299765499999955,-0.05148491250000009,-0.03599040549999977
410622.0,0.48552724149999993,-1.5268954049999999,9.436841228499999,-0.11227179479303923,0.03458369912826764,-0.06906267850141562,9.571892114517699,0.13627414176297256,0.00843371899999995,0.014415775500000061,0.021574629999999928
410632.0,0.44237798149999996,-1.5197365504999998,9.4703799715,-0.11786732037493307,0.06176371156957534,-0.07359180791034091,9.601739127159725,0.15206319564815585,-0.04314925999999997,0.007158854500000089,0.03353874300000115
410642.0,0.37775215799999995,-1.4622695814999997,9.535005795,-0.11866668117234647,0.06869092337074083,-0.07359180791034091,9.65387303275413,0.15561483979844865,-0.06462582350000001,0.057466969000000034,0.06462582350000012
410652.0,0.33950622299999994,-1.4383413555,9.600906483,-0.1128041202148975,0.05723283683139805,-0.06719692153103368,9.7139845390915,0.14323335300297335,-0.03824593500000001,0.023928225999999775,0.06590068799999926
410662.0,0.33823135849999997,-1.4418717495,9.637975619999999,-0.10401115144335006,0.02898817354637382,-0.05547179961613578,9.751100894032085,0.12139091556940704,-0.0012748644999999725,-0.0035303939999999923,0.037069136999999586
410672.0,0.308321076,-1.4263772424999999,9.68700887,-0.09601754346921605,-0.0032532937257174306,-0.0432160976086316,9.79631332549579,0.10534506949282135,-0.02991028249999994,0.015494507000000102,0.049033250000000805
410682.0,0.328718908,-1.4252004444999997,9.6655323065,-0.10161306905110987,-0.031232666964438528,-0.033356732664115624,9.775569916658307,0.11141529025103525,0.02039783199999995,0.0011767980000001454,-0.021476563500000267
410692.0,0.329895706,-1.4802157509999998,9.623657910999999,-0.11840139112604332,-0.046420522115293184,-0.031223940318178555,9.742415585176943,0.13095300203902122,0.0011767980000000344,-0.05501530650000008,-0.041874395500000716
410702.0,0.3334261,-1.5006135829999998,9.557757223,-0.13492093249616965,-0.03629412179522208,-0.04001865441897798,9.680585582672876,0.14533552216862872,0.0035303939999999923,-0.020397832000000005,-0.06590068799999926
410712.0,0.3466650775,-1.5233650109999999,9.458415858499999,-0.14264925042400053,-0.01364498409209167,-0.04881162319052541,9.586576457996951,0.15138549731033182,0.013238977499999971,-0.022751428000000073,-0.09934136450000075
410722.0,0.3813806185,-1.5939728909999997,9.4823440845,-0.1445132620651305,0.016198400787759373,-0.06453180376323835,9.622943940929016,0.15909376102702164,0.034715541000000016,-0.07060787999999985,0.023928226000000663
410732.0,0.35147033599999994,-1.5975032849999997,9.4560622625,-0.14344861122141395,0.042044981680543395,-0.08078605508706153,9.596492153643974,0.16991665969645042,-0.02991028250000005,-0.0035303939999999923,-0.02628182199999962
410742.0,0.2568361635,-1.5532752935,9.5254933445,-0.13945180723434694,0.04897393881096089,-0.08744797684192389,9.65472176752871,0.17173351995848352,-0.09463417249999995,0.044227991499999675,0.06943108199999948
410752.0,0.22457228499999998,-1.5305238654999997,9.5386342555,-0.13145645393096092,0.03298497753344083,-0.08158541588447493,9.663254083084704,0.15819288260862807,-0.03226387850000001,0.022751428000000296,0.013140911000000699
410762.0,0.2197670265,-1.5233650109999999,9.5602088855,-0.12053243814272839,-0.00618370153981591,-0.0711937255181007,9.683312059263029,0.140124421006871,-0.0048052584999999925,0.007158854499999867,0.021574629999999928
410772.0,0.229279477,-1.5125776959999997,9.495484995499998,-0.10987371240079903,-0.042956043550084436,-0.05840395275948625,9.617936143725204,0.13163766957881984,0.00951245050000002,0.010787315000000186,-0.06472389000000156
410782.0,0.2807643895,-1.5101260334999997,9.405754148,-0.10374586139704695,-0.058410934076494225,-0.05120970558276562,9.530347337431357,0.12960507290448692,0.05148491249999998,0.0024516624999999515,-0.08973084749999849
410792.0,0.31793159299999996,-1.5712214629999999,9.347110380999998,-0.09708393964218458,-0.0496179653049468,-0.047745227017556874,9.483580012749263,0.11902453747193595,0.03716720349999997,-0.06109542950000013,-0.05864376700000129
410802.0,0.37422176399999996,-1.6466346015,9.348287179,-0.0949511472962475,-0.02377138441216277,-0.05280842717759243,9.499574759986054,0.11121838458957936,0.056290171,-0.07541313850000009,0.0011767980000012557
410812.0,0.37177010149999995,-1.6107422625,9.386631180499998,-0.09654986889107432,0.012468632176247491,-0.06692988615547855,9.531083283830213,0.1181395515143659,-0.002451662500000007,0.035892338999999884,0.038344001499998726
410822.0,0.36578804499999995,-1.5903444305,9.430859172,-0.09575050809366092,0.03565009530123618,-0.07678925109999452,9.57100313570024,0.12781110350700936,-0.005982056499999999,0.020397832000000005,0.04422799150000145
410832.0,0.366964843,-1.5065956394999998,9.5409878515,-0.08988969246546395,0.038580503115334654,-0.07678925109999452,9.666175189775377,0.12435916177212696,0.0011767980000000344,0.08374879100000032,0.11012867950000071
410842.0,0.329895706,-1.4275540405,9.5961012245,-0.07816457055056605,0.017264796960727906,-0.06479883913879347,9.707311699241737,0.10298865402161934,-0.037069136999999974,0.07904159899999974,0.0551133729999993
410852.0,0.3274440435,-1.4252004444999997,9.58894237,-0.0645754369945382,-0.022437952863639102,-0.04508010924976154,9.699805754952408,0.0818881251569292,-0.002451662500000007,0.002353596000000291,-0.007158854500000089
410862.0,0.36461124699999997,-1.457464323,9.543439514,-0.05018694264109695,-0.06000965567132103,-0.03229033649114709,9.660972071775866,0.08463187234229651,0.03716720349999997,-0.03226387850000023,-0.04550285600000059
410872.0,0.387362675,-1.477862155,9.4931313995,-0.03792949530434077,-0.08132710715517977,-0.026162485487395002,9.61528315544255,0.09347310104597073,0.022751428000000018,-0.020397832000000005,-0.050308114499999945
410882.0,0.38971627099999995,-1.5268954049999999,9.472733567499999,-0.029401816579096476,-0.07892902476293957,-0.02935992867704861,9.602914640385674,0.08919788775582604,0.002353595999999958,-0.04903324999999992,-0.02039783200000045
410892.0,0.4076624405,-1.560434148,9.5027419165,-0.02780309498426967,-0.05974436562501789,-0.042416736811218186,9.638633063212074,0.07836823895145464,0.017946169500000053,-0.03353874300000004,0.030008349000000933
