timestamp,ax,ay,az,gx,gy,gz,acc_mag,gyro_mag,dax,day,daz
139692.0,-0.051975244999999996,-0.482094914,9.747417833999998,0.01166229006182611,0.04848001063264649,0.01905550477327409,9.759470854650814,0.05338007776869528,0.0,0.0,0.0
139702.0,0.48552724149999993,-0.5455439394999999,9.689950864999998,-0.007789404451650692,-0.010409143658894181,0.019587830195132362,9.717432925329508,0.02350974659957507,0.5375024864999999,-0.06344902549999992,-0.057466969000000034
139712.0,0.5669224365,-0.44139731649999997,9.638564018999999,0.004202752838802345,0.0061121430404841425,0.018521434022163823,9.66530646117245,0.01995156490626155,0.08139519500000003,0.10414662299999994,-0.051386845999999764
139722.0,0.559763582,-0.331268637,9.624148243499999,0.0271171805882359,0.018634880423543457,0.019587830195132362,9.646103026116682,0.038292079379528346,-0.007158854499999978,0.11012867949999999,-0.014415775499999839
139732.0,0.5584887175,-0.37314303249999997,9.666022639,0.035110788562369925,0.03275808473068157,0.019320794819577228,9.689331196111453,0.05176053227270912,-0.001274864500000028,-0.041874395499999995,0.041874395500000716
139742.0,0.5345604915,-0.411487034,9.7020130445,0.03484549851606679,0.03755424951516199,0.015858061583620478,9.725437451028666,0.053628430339421246,-0.023928225999999997,-0.0383440015,0.03599040549999977
139752.0,0.5333836934999999,-0.37912508899999997,9.746241035999999,0.03218038074827145,0.038353610312575385,0.012126547642856601,9.768185518785527,0.05151339133513809,-0.0011767980000000344,0.032361945,0.044227991499999675
139762.0,0.48072198299999996,-0.3156760635,9.753399890499999,0.02845061213675957,0.033557445528094976,0.010794861423584929,9.770340548108429,0.0452997628523792,-0.05266171049999996,0.06344902549999998,0.007158854500000089
139772.0,0.48552724149999993,-0.285765781,9.7486926985,0.028183576761204435,0.02503151213210267,0.018788469397718957,9.76495817265063,0.04211765877851389,0.004805258499999965,0.029910282499999996,-0.004707191999999694
139782.0,0.5082786695,-0.32165812,9.765364003499998,0.031648055326413176,0.01703615882871665,0.029979520561506597,9.783871691354305,0.04680386486903369,0.022751428000000073,-0.035892338999999995,0.016671304999999137
139792.0,0.48670403949999996,-0.354020065,9.7761513185,0.03244741612382658,0.008777260808279484,0.03424335992412875,9.794659035959215,0.04798419343182447,-0.02157463000000004,-0.032361945,0.01078731500000174
139802.0,0.456793757,-0.399522921,9.7977259485,0.030581659153444643,0.0005166174585903216,0.02944719513964833,9.81650206859596,0.04245753256806751,-0.02991028249999994,-0.04550285599999998,0.021574629999999928
139812.0,0.4843504435,-0.415017428,9.7953723525,0.03271270617012972,-0.0010821041362364843,0.015591026208065345,9.816117070501134,0.03625427136980529,0.027556686499999983,-0.015494507000000046,-0.002353596000000735
139822.0,0.47591672449999994,-0.40668177549999995,9.770169262,0.0380429417057204,-0.0016161748873467492,0.006531022060962781,9.790203991915197,0.03863329760779053,-0.008433719000000062,0.008335652500000068,-0.025203090499999803
139832.0,0.48072198299999996,-0.41384063,9.7989027465,0.04470486346058276,0.0015812683023068625,0.0004031710572106901,9.819412035725128,0.04473463728895765,0.00480525850000002,-0.007158854500000034,0.028733484500000017
139842.0,0.4735631285,-0.37912508899999997,9.796549150499999,0.04790230665023637,0.005578072289373877,0.0004031710572106901,9.81531319561155,0.04822767275932079,-0.007158854499999978,0.034715541000000016,-0.002353596000000735
139852.0,0.46640427399999995,-0.380301887,9.7977259485,0.042572071114645685,0.003447025272688801,0.0036006142468643022,9.816190515366511,0.04286289356979679,-0.007158854500000034,-0.0011767980000000344,0.0011767980000012557
139862.0,0.4627758135,-0.3862839435,9.816848915999998,0.03537782393792506,0.001848303677861995,0.008662069077647858,9.835339311794833,0.03646968732761997,-0.0036284604999999304,-0.005982056499999999,0.019122967499997756
139872.0,0.4531652965,-0.37314303249999997,9.7953723525,0.031648055326413176,0.0021153390534171274,0.01345997919138027,9.812946246300172,0.03445642327762722,-0.00961051700000004,0.013140911000000033,-0.02147656349999849
139882.0,0.46640427399999995,-0.367160976,9.803708004999999,0.03431142776495653,0.004778711491960474,0.01905550477327409,9.82166130430101,0.039537607678734134,0.013238977499999971,0.005982056499999999,0.008335652499999568
139892.0,0.47473992649999996,-0.3743198305,9.851564457,0.0380429417057204,0.011175343200519692,0.023584634182199374,9.870097040239497,0.04613446302692175,0.008335652500000013,-0.007158854500000034,0.047856452000001326
139902.0,0.4531652965,-0.369514572,9.892262054499998,0.03644422011089359,0.012507029419791366,0.02491632040147105,9.909528160299702,0.04588496471337371,-0.021574629999999984,0.00480525850000002,0.040697597499997684
139912.0,0.4496349025,-0.4055049775,9.929429258,0.028183576761204435,0.008510225432724351,0.019587830195132362,9.947872698318465,0.035361292789204274,-0.0035303939999999923,-0.03599040549999999,0.0371672035000028
139922.0,0.45198849849999995,-0.4209994845,9.9150134825,0.023387411976724018,0.005578072289373877,0.012925908440270006,9.934235075076607,0.027297711230810873,0.002353595999999958,-0.015494507000000046,-0.014415775500001615
139932.0,0.44718324,-0.388735606,9.939039775,0.020189968787070404,0.005578072289373877,0.007862708280234455,9.956686189216828,0.022373464452078613,-0.004805258499999965,0.03226387850000001,0.024026292500000324
139942.0,0.4543420945,-0.399522921,9.958162742499999,0.02045525883337354,0.005045746867515607,0.004932300466135976,9.976524971619833,0.021638039728210018,0.007158854500000034,-0.010787314999999964,0.019122967499999532
139952.0,0.47238633049999995,-0.3935408645,9.912659886499998,0.01912357261410187,0.003979350694547071,0.005731661263549378,9.931709283033854,0.020356772885629284,0.018044235999999936,0.005982056499999999,-0.04550285600000059
139962.0,0.4627758135,-0.37314303249999997,9.917465145,0.01912357261410187,0.0037140606482439333,0.005199335841691108,9.935266079907159,0.0201627966616825,-0.00961051699999993,0.020397832000000005,0.0048052585000011305
139972.0,0.45797055499999995,-0.3515684025,9.898244110999999,0.019655898035960143,0.0061121430404841425,0.004399975044277704,9.915068020534683,0.021049285036258764,-0.004805258500000076,0.021574629999999984,-0.01922103400000097
139982.0,0.4280602725,-0.286942579,9.9377649105,0.014859733251479722,0.005845107664929009,0.003066543495754037,9.951117678778651,0.016259786128085922,-0.02991028249999994,0.06462582350000001,0.03952079950000176
139992.0,0.43168873299999994,-0.2821373205,9.905501032,0.0018029251173101424,0.005045746867515607,0.008129743655789588,9.918916640680632,0.009736674603709545,0.0036284604999999304,0.004805258499999965,-0.03226387850000023
140002.0,0.43286553099999997,-0.29410143349999995,9.892262054499998,-0.015783012425784722,0.0029146998508305304,0.018521434022163823,9.906094930698735,0.024508008378696832,0.0011767980000000344,-0.011964112999999943,-0.013238977500002136
140012.0,0.4627758135,-0.3372506935,9.844405602499998,-0.023244294978060482,0.0037140606482439333,0.026515041996297856,9.86104564183536,0.035456155284962314,0.02991028250000005,-0.04314926000000002,-0.04785645199999955
140022.0,0.44482964399999997,-0.411487034,9.822830972499998,-0.023244294978060482,0.007443829259755816,0.026515041996297856,9.841504118052105,0.036038247670231185,-0.017946169500000053,-0.0742363405,-0.021574629999999928
140032.0,0.43168873299999994,-0.45934348599999997,9.803708004999999,-0.018448130193580062,0.009841911651996023,0.015058700786207076,9.823952475843459,0.025767444614736033,-0.013140911000000033,-0.047856451999999994,-0.019122967499999532
140042.0,0.41246769899999997,-0.4545382275,9.7869386335,-0.0101874868438909,0.007178539213452678,-0.0025289820861397836,9.806166550639043,0.012716605829605,-0.01922103399999997,0.004805258499999965,-0.016769371499998798
140052.0,0.443652846,-0.41619422599999994,9.785761835499999,-0.002726204291615143,0.002647664475275398,-0.01798387261254957,9.804650946497175,0.018381022581936697,0.031185147000000024,0.03834400150000006,-0.0011767980000012557
140062.0,0.45797055499999995,-0.354020065,9.7834082395,0.0063337998554874216,-0.0010821041362364843,-0.021980676599616587,9.800517538190833,0.02290061382906504,0.014317708999999956,0.06217416099999995,-0.0023535959999989586
140072.0,0.4496349025,-0.307340411,9.785761835499999,0.013795082407763181,-0.002415535684760152,-0.017449801861439306,9.800906303751105,0.022374867514352293,-0.008335652499999957,0.046679654000000015,0.0023535959999989586
140082.0,0.46993466799999994,-0.30969400699999994,9.830087893499998,0.014859733251479722,-0.0018814649336498874,-0.01265363707695889,9.846185909482678,0.01960780747246043,0.020299765499999955,-0.002353595999999958,0.044326057999999335
140092.0,0.4543420945,-0.29655309599999996,9.790567094,0.009264207669585902,-0.002415535684760152,-0.013187707828069155,9.805588942011461,0.01629650251275041,-0.015592573499999929,0.013140910999999977,-0.039520799499998205
140102.0,0.4543420945,-0.28458898299999996,9.803708004999999,-0.00032812189937493397,-0.0016161748873467492,-0.012388347030655751,9.818355680834784,0.012497632871840046,0.0,0.011964112999999998,0.013140910999998923
140112.0,0.481898781,-0.274978466,9.785761835499999,-0.0075223690760955605,0.0021153390534171274,-0.008391543043588736,9.801478168777468,0.011466415764322911,0.027556686499999983,0.009610516999999985,-0.017946169500000053
140122.0,0.48072198299999996,-0.2786069265,9.7881154315,-0.008054694497953832,0.006911503837897545,0.002267182698340634,9.803872660576618,0.010852976833306858,-0.0011767980000000344,-0.0036284605000000414,0.002353596000000735
140132.0,0.4770935225,-0.298906692,9.794097488,-0.003792600464583678,0.011175343200519692,0.010527826048029796,9.810265493052762,0.01581477901302882,-0.003628460499999986,-0.020299765499999955,0.00598205650000061
140142.0,0.46875787,-0.346763144,9.785761835499999,-0.003258529713473413,0.009309586230137754,0.01345997919138027,9.803117530655848,0.01668704442081789,-0.008335652499999957,-0.04785645200000005,-0.008335652500001345
140152.0,0.443652846,-0.37196623449999994,9.74388744,-0.00699004365423729,0.0013159782560037245,0.012925908440270006,9.761072132238434,0.014753698453766126,-0.02510502400000003,-0.025203090499999914,-0.04187439549999894
140162.0,0.4615990155,-0.3958944605,9.765364003499998,-0.0101874868438909,-0.002415535684760152,0.005998696639104511,9.784280259468177,0.012066650828079995,0.017946169499999998,-0.023928226000000052,0.02147656349999849
140172.0,0.48072198299999996,-0.4078585735,9.707995101,-0.005391322059410484,-0.0029478611066184224,0.002534218073895766,9.72844340693602,0.006646690898353832,0.019122967499999977,-0.011964112999999998,-0.0573689024999986
140182.0,0.502296613,-0.40668177549999995,9.6804384145,0.002336995868420407,0.006911503837897545,0.003066543495754037,9.701988448296687,0.007914172351019275,0.021574629999999984,0.0011767980000000344,-0.027556686500000538
140192.0,0.483075579,-0.38510714549999997,9.729471664499998,0.009798278420696166,0.01730319420427178,0.0041329396687225725,9.749066027002264,0.020309800097133537,-0.01922103399999997,0.021574629999999984,0.04903324999999903
140202.0,0.47836838699999995,-0.40305331499999997,9.779779779,0.010330603842554437,0.022366394364307336,0.004665265090580842,9.799764324418765,0.025074721752731607,-0.004707192000000027,-0.017946169499999998,0.05030811450000172
140212.0,0.4735631285,-0.37912508899999997,9.796549150499999,0.007133160652900825,0.023698080583579004,0.0017348572764823635,9.81531319561155,0.024809085715029093,-0.004805258499999965,0.023928225999999997,0.016769371499998798
140222.0,0.483075579,-0.3635325155,9.8408752085,0.00047123889803846896,0.025830872929516076,-0.00039618974020271284,9.859429130234766,0.02583820869778075,0.009512450499999991,0.015592573499999984,0.04432605800000111
140232.0,0.4843504435,-0.346763144,9.86352857,-0.005124286683855352,0.0220993589887522,0.0009354964790689607,9.881499677749408,0.022704958387859478,0.001274864500000028,0.016769371499999963,0.022653361499999747
140242.0,0.49513775849999997,-0.35637366099999995,9.858821378,-0.007789404451650692,0.022898719786165606,0.007862708280234455,9.877677993812958,0.02543321393486862,0.010787314999999964,-0.00961051699999993,-0.004707191999999694
140252.0,0.493862894,-0.36480737999999996,9.822830972499998,-0.005923647481268754,0.022631684410610472,0.014791665410651944,9.842001488359864,0.02767807985327898,-0.0012748644999999725,-0.008433719000000006,-0.03599040550000154
140262.0,0.4843504435,-0.3827535495,9.838423545999998,-0.0024591689160600103,0.020500637393925398,0.015858061583620478,9.857772238303168,0.026034626221723017,-0.009512450499999991,-0.017946169500000053,0.015592573499999318
140272.0,0.48552724149999993,-0.3827535495,9.874315884999998,0.0018029251173101424,0.01650383340685838,0.012660618393966868,9.893652064766414,0.020878656906458678,0.0011767979999999234,0.0,0.035892339000000106
140282.0,0.4735631285,-0.37549662849999993,9.9234472015,0.0063337998554874216,0.012774064795346499,0.007330382858376184,9.941834041848,0.016032101074265302,-0.011964112999999943,0.007256921000000083,0.04913131650000224
140292.0,0.47591672449999994,-0.35039160449999995,9.948552225499999,0.007133160652900825,0.00797790001086608,0.00386590429316744,9.966090627154855,0.011378668001457815,0.002353595999999958,0.025105023999999976,0.025105023999998366
140302.0,0.5071018715,-0.3600021215,9.9246239995,0.003935717463247213,0.005045746867515607,0.003066543495754037,9.944089468976768,0.0070959934056412455,0.031185147000000024,-0.00961051700000004,-0.023928225999998887
140312.0,0.4974913544999999,-0.33479903099999997,9.9246239995,-0.0013945180723434693,0.003979350694547071,0.005464625887994246,9.942723448352174,0.006902321978872161,-0.00961051700000004,0.025203090500000025,0.0
140322.0,0.4735631285,-0.3060655465,9.892262054499998,-0.009121090670922365,0.003447025272688801,0.008929104453202991,9.908319065831982,0.013221391174681723,-0.02392822599999994,0.02873348449999996,-0.03236194500000167
140332.0,0.4903325,-0.3396042895,9.909031426,-0.01551597705022959,0.005845107664929009,0.013992304613238539,9.926966346042413,0.021695516030450154,0.01676937150000002,-0.03353874299999998,0.01676937150000235
140342.0,0.47238633049999995,-0.357550459,9.907854628,-0.019779816412851738,0.009042550854582622,0.017989108600305555,9.925551597042626,0.02822440241205151,-0.017946169500000053,-0.017946169499999998,-0.0011767979999994793
140352.0,0.46395261149999995,-0.368337774,9.9150134825,-0.025375341994745556,0.007178539213452678,0.021718877211817436,9.932694352472028,0.03416356295721185,-0.008433719000000006,-0.01078731500000002,0.007158854499998313
140362.0,0.44718324,-0.368337774,9.873139087,-0.03177022837405278,0.002647664475275398,0.023317598806644243,9.890122395457974,0.039497695530508116,-0.016769371499999963,0.0,-0.04187439549999894
140372.0,0.43884758749999997,-0.399522921,9.868333828499999,-0.03523470693926153,-0.0008168140899333463,0.021718877211817436,9.886162972568092,0.04139880898884847,-0.008335652500000013,-0.03118514699999997,-0.0048052585000011305
140382.0,0.42090141799999997,-0.4055049775,9.821654174499999,-0.038165114753360006,-0.008011061266653973,0.017456783178447285,9.839028560479177,0.04272578104253381,-0.017946169499999998,-0.005982056499999999,-0.04667965400000007
140392.0,0.44836003799999996,-0.4078585735,9.777426183,-0.03949854630188367,-0.01333955147299266,0.013992304613238539,9.79619508297312,0.04397571354568707,0.02745861999999999,-0.0023535960000000133,-0.044227991499999675
140402.0,0.471111466,-0.41384063,9.771444126499999,-0.03443534614184812,-0.01547234381892973,0.013725269237683408,9.791543820958307,0.04016926067040525,0.022751428000000018,-0.005982056499999999,-0.00598205650000061
140412.0,0.493862894,-0.41021216949999995,9.7737977225,-0.028305749808844035,-0.012540190675579259,0.016657422381033883,9.794860718888357,0.035155960729312,0.022751428000000018,0.0036284605000000414,0.002353596000000735
140422.0,0.48552724149999993,-0.3947176625,9.7630104075,-0.022177898805091946,-0.0077440258910988395,0.01639038700547875,9.783042009123818,0.028643915908972268,-0.008335652500000068,0.015494506999999935,-0.010787314999999964
140432.0,0.47473992649999996,-0.38393034749999994,9.759381947,-0.019247490990993467,-0.0005497787143782138,0.014524630035096811,9.778461867644328,0.024119142682516605,-0.010787314999999964,0.010787315000000075,-0.003628460499999875
140442.0,0.4770935225,-0.37912508899999997,9.779779779,-0.02057917721026514,0.004778711491960474,0.012126547642856601,9.798747194823326,0.024359634149743754,0.0023535960000000133,0.004805258499999965,0.02039783200000045
140452.0,0.455616959,-0.357550459,9.790567094,-0.023244294978060482,0.005312782243070739,0.007063347482821052,9.80768235446964,0.024867926770288873,-0.02147656349999999,0.021574629999999984,0.010787314999999964
140462.0,0.4496349025,-0.310870805,9.782133375,-0.023244294978060482,0.003979350694547071,0.007862708280234455,9.797394835834496,0.024858693901276218,-0.005982056499999999,0.046679654000000015,-0.008433718999999229
140472.0,0.44718324,-0.295376298,9.7869386335,-0.018980455615438332,0.003979350694547071,0.013725269237683408,9.801601288741137,0.023758702468079252,-0.002451662500000007,0.01549450699999999,0.004805258499999354
140482.0,0.45797055499999995,-0.307340411,9.808513263499998,-0.014983651628371319,0.004513421445657336,0.019854865570687493,9.824007715679791,0.025280357515205073,0.010787314999999964,-0.011964112999999998,0.02157462999999815
140492.0,0.44836003799999996,-0.3133224675,9.8193005785,-0.015783012425784722,0.004778711491960474,0.022785273384785976,9.834523961191312,0.0281266465824724,-0.009610516999999985,-0.005982056499999999,0.01078731500000174
140502.0,0.44002438549999995,-0.33479903099999997,9.824105836999998,-0.02057917721026514,-1.7453292519943296e-05,0.023317598806644243,9.839652806251378,0.031100052305044968,-0.008335652500000013,-0.02147656349999999,0.004805258499997578
140512.0,0.4376707895,-0.3396042895,9.828813028999999,-0.026974063589572366,-0.00721170046924057,0.020919516414404035,9.844412240071444,0.034888893608208016,-0.002353595999999958,-0.00480525850000002,0.00470719200000147
140522.0,0.43041386849999996,-0.3611789195,9.807336465499999,-0.028305749808844035,-0.01333955147299266,0.021186551789959165,9.823418695017246,0.03778927205557308,-0.007256921000000027,-0.021574629999999984,-0.021476563500000267
140532.0,0.4280602725,-0.34323275000000003,9.7606568115,-0.022977259602505348,-0.013873622224102926,0.025183355777026184,9.776065962821994,0.036805342827507054,-0.002353595999999958,0.017946169499999942,-0.046679653999998294
140542.0,0.410114103,-0.3611789195,9.712702293,-0.015783012425784722,-0.011740829878165854,0.029979520561506597,9.728064022292315,0.03585696892597454,-0.017946169499999998,-0.017946169499999942,-0.04795451850000099
140552.0,0.40648564249999997,-0.388735606,9.7163307535,-0.011786208438717707,-0.0037472219040318258,0.029979520561506597,9.732596224047349,0.03243035668099802,-0.0036284605000000414,-0.02755668650000004,0.003628460499999875
140562.0,0.40050358599999997,-0.425804743,9.7367285855,-0.013917255455402783,0.002647664475275398,0.02571568119888445,9.75426042041389,0.029359774966903833,-0.005982056499999999,-0.037069136999999974,0.02039783200000045
140572.0,0.37059330349999997,-0.4545382275,9.7390821815,-0.01684940859875326,0.004513421445657336,0.017722073224750425,9.756724149778382,0.024866552287305044,-0.029910282499999996,-0.028733484500000017,0.002353596000000735
140582.0,0.3694165055,-0.43541525999999997,9.778602980999999,-0.015783012425784722,0.003979350694547071,0.011060151469888067,9.795260653152562,0.01967906663740774,-0.001176797999999979,0.019122967500000032,0.039520799499998205
140592.0,0.3609827865,-0.437768856,9.785761835499999,-0.010719812265749171,0.003447025272688801,0.006263986685407649,9.802197959874162,0.012885413747273542,-0.008433719000000006,-0.0023535960000000133,0.007158854500000089
140602.0,0.36578804499999995,-0.43061000149999995,9.765364003499998,-0.005656612105713622,0.0021153390534171274,0.0036006142468643022,9.781695149007163,0.007031098262728217,0.004805258499999965,0.007158854500000034,-0.02039783200000045
140612.0,0.36578804499999995,-0.4329635975,9.746241035999999,-0.004857251308300219,-0.0008168140899333463,-0.00039618974020271284,9.76270826678926,0.004941360322799757,0.0,-0.002353596000000069,-0.019122967499999532
140622.0,0.37657535999999997,-0.399522921,9.7510462945,-0.005923647481268754,-0.005345943498858632,-0.0038606683054114572,9.766490229537204,0.008864167819921907,0.01078731500000002,0.033440676500000044,0.0048052585000011305
140632.0,0.40648564249999997,-0.37549662849999993,9.7486926985,-0.006723008278682157,-0.004546582701445229,-0.003061307507998054,9.764386187844103,0.008674206490211948,0.029910282499999996,0.024026292500000046,-0.002353596000000735
140642.0,0.39216793349999995,-0.330091839,9.7498694965,-0.004057890510886816,0.004246386070102204,0.002534218073895766,9.76333506077822,0.006396915764707495,-0.014317709000000012,0.04540478949999993,0.0011767980000012557
140652.0,0.39569832749999995,-0.33479903099999997,9.7606568115,-0.005923647481268754,0.011974703997933095,0.007597418233931317,9.774409902875272,0.01536892641474116,0.0035303939999999923,-0.004707191999999971,0.010787314999999964
140662.0,0.396973192,-0.3360738955,9.802531207,-0.013650220079847652,0.01650383340685838,0.007330382858376184,9.816320667266941,0.022637127428187218,0.001274864500000028,-0.001274864500000028,0.04187439549999894
140672.0,0.401680384,-0.369514572,9.790567094,-0.022444934180647077,0.018369590377240317,0.004665265090580842,9.805768311148613,0.029376548799451778,0.004707192000000027,-0.03344067649999999,-0.011964112999999443
140682.0,0.3849110125,-0.35882532349999996,9.807336465499999,-0.023776620399918753,0.017835519626130055,0.002801253449450899,9.821443918683986,0.029854320606303598,-0.01676937150000002,0.010689248500000026,0.016769371499998798
140692.0,0.387362675,-0.354020065,9.7834082395,-0.019512781037296607,0.0135734255927599,0.001202531854624093,9.79747196112968,0.023799844306067575,0.002451662500000007,0.004805258499999965,-0.023928225999998887
140702.0,0.40648564249999997,-0.38991240399999993,9.7630104075,-0.010986847641304304,0.007178539213452678,0.0017348572764823635,9.779245087290992,0.013238276931008638,0.019122967499999977,-0.03589233899999994,-0.02039783200000045
140712.0,0.408937305,-0.40668177549999995,9.7020130445,-0.0005951572749300664,-0.00028274333882308137,0.0004031710572106901,9.719139720242355,0.0007724654548414394,0.002451662500000007,-0.01676937150000002,-0.06099736300000025
140722.0,0.408937305,-0.411487034,9.698384584,0.010330603842554437,-0.0029478611066184224,-0.00519235452468313,9.715719985556378,0.011931965737702712,0.0,-0.00480525850000002,-0.003628460499999875
140732.0,0.422078216,-0.411487034,9.728294866499999,0.016458454846306526,0.001048942880448592,-0.013987068625482556,9.746137317375643,0.02162450244117337,0.013140911000000033,0.0,0.029910282499999497
140742.0,0.42688347449999997,-0.37794829099999994,9.740258979499998,0.018057176441133332,0.0061121430404841425,-0.02144660584850632,9.756931864023718,0.02869454331392547,0.004805258499999965,0.03353874300000004,0.011964112999999443
140752.0,0.42325501399999993,-0.3360738955,9.790567094,0.016992525597416794,0.010641272449409428,-0.022513002021474857,9.805472680713985,0.03014660620269479,-0.0036284605000000414,0.04187439549999994,0.05030811450000172
140762.0,0.42443181199999996,-0.3276401765,9.800079544499999,0.012196360812936374,0.01090830782496456,-0.016650441064025905,9.814736345252575,0.023344797799726456,0.0011767980000000344,0.008433719000000006,0.009512450499999048
140772.0,0.44002438549999995,-0.32646337849999996,9.807336465499999,0.010330603842554437,0.009841911651996023,-0.0054593899002382635,9.822629400769546,0.015277091961506258,0.015592573499999984,0.0011767980000000344,0.00725692099999975
140782.0,0.44836003799999996,-0.3611789195,9.779779779,0.013261011656652916,0.006911503837897545,0.002801253449450899,9.796712176097849,0.015214149215359286,0.008335652500000013,-0.034715541000000016,-0.02755668649999876
140792.0,0.48072198299999996,-0.434238462,9.723489608,0.017791886394830196,0.004246386070102204,0.008929104453202991,9.745045244825883,0.020354653582881514,0.032361945,-0.07305954250000002,-0.056290171000000555
140802.0,0.46395261149999995,-0.470130801,9.721136012,0.02232101580375548,0.004513421445657336,0.012925908440270006,9.743549679637798,0.02618545070576149,-0.01676937150000002,-0.035892338999999995,-0.0023535959999989586
140812.0,0.460324151,-0.4796432515,9.7151539555,0.025785494368964226,0.006379178416039274,0.011594222220998332,9.737873091788098,0.028982954059678573,-0.0036284604999999304,-0.009512450499999991,-0.00598205650000061
140822.0,0.47591672449999994,-0.49288222899999995,9.735453720999999,0.029515262980476107,0.009576621605692885,0.009995500626171525,9.759533225213978,0.03260019114902676,0.015592573499999929,-0.013238977499999971,0.020299765499999012
140832.0,0.4903325,-0.5012178815,9.723489608,0.03271270617012972,0.01597150798500011,0.008129743655789588,9.748738148200289,0.03730017351430173,0.014415775500000061,-0.008335652500000068,-0.011964112999999443
140842.0,0.47473992649999996,-0.507199938,9.770169262,0.033779102343098256,0.022366394364307336,0.009196139828758124,9.79483727190248,0.04154337901176668,-0.01559257350000004,-0.005982056499999944,0.04667965400000007
140852.0,0.4531652965,-0.5239693095,9.807336465499999,0.029782298356031238,0.02769488457064602,0.007330382858376184,9.831772534531902,0.04132464687809738,-0.021574629999999984,-0.01676937150000002,0.037167203499999246
140862.0,0.467581072,-0.528774568,9.838423545999998,0.026052529744519357,0.027961919946201154,0.00386590429316744,9.863711901365704,0.03841286879641714,0.014415775500000005,-0.00480525850000002,0.031087080499998976
140872.0,0.46640427399999995,-0.52759777,9.9030493695,0.024186772774137416,0.028494245368059425,-0.002261946710584651,9.928055155390142,0.03744380321554497,-0.0011767980000000344,0.0011767980000000344,0.0646258235000019
140882.0,0.467581072,-0.507199938,9.9246239995,0.024719098195995687,0.028761280743614556,-0.0054593899002382635,9.948570016210935,0.03831514091999551,0.0011767980000000344,0.020397832000000005,0.021574629999999928
140892.0,0.45797055499999995,-0.470130801,9.9964086775,0.022855086554865747,0.023698080583579004,-0.006258750697651665,10.017931245865746,0.03351307155531352,-0.00961051700000004,0.037069136999999974,0.07178467800000021
140902.0,0.47836838699999995,-0.4209994845,10.0168065095,0.018591247192243598,0.014905111812031574,-0.0038606683054114572,10.037055819730796,0.024139212705817006,0.020397832000000005,0.049131316499999966,0.02039783200000045
140912.0,0.49866815249999996,-0.41619422599999994,10.049168454499998,0.009798278420696166,0.003979350694547071,0.002534218073895766,10.070137744191555,0.010874913940152922,0.02029976550000001,0.004805258500000076,0.032361944999998116
140922.0,0.5046502089999999,-0.4198226865,10.061132567499998,-6.108652381980153e-05,-0.006412339671827167,0.008662069077647858,10.082525053891654,0.010777442754949997,0.005982056499999944,-0.0036284605000000414,0.011964112999999443
140932.0,0.5106322655,-0.426981541,10.061132567499998,-0.006455972903127025,-0.013606586848547793,0.011859512267301468,10.083126850721134,0.019169424170048986,0.005982056500000055,-0.007158854500000034,0.0
140942.0,0.5106322655,-0.4545382275,10.039557937499998,-0.011252137687607444,-0.018669787008583346,0.012925908440270006,10.062806461979068,0.025342664786738325,0.0,-0.027556686499999983,-0.021574629999999928
140952.0,0.5058270069999999,-0.4317867995,10.0299474205,-0.01684940859875326,-0.019202112430441613,0.013725269237683408,10.051972247237236,0.029000115647458358,-0.00480525850000002,0.022751428000000018,-0.009610516999998708
140962.0,0.4974913544999999,-0.401876517,10.025142162,-0.026441738167714092,-0.019202112430441613,0.01345997919138027,10.045520282744361,0.03534201011478632,-0.008335652500000013,0.029910282499999996,-0.004805258499999354
140972.0,0.4735631285,-0.411487034,10.021611768,-0.037100463909643465,-0.022132520244540092,0.014259339988793671,10.041229309419286,0.0454930945485328,-0.02392822599999994,-0.009610516999999985,-0.0035303940000002143
140982.0,0.46993466799999994,-0.41864588849999995,10.055150510999999,-0.04615872272749403,-0.023465951793063763,0.012126547642856601,10.074827778727027,0.053182062155604094,-0.0036284605000000414,-0.007158854499999978,0.03353874299999937
140992.0,0.44718324,-0.448556171,10.015629711499999,-0.055485762250151734,-0.02852740662384732,0.009461429875061262,10.035637199827454,0.06310310132191121,-0.022751427999999962,-0.02991028250000005,-0.03952079949999998
141002.0,0.41727295749999993,-0.4676791385,10.021611768,-0.0669438487894945,-0.04344997172839884,0.007063347482821052,10.04119230600455,0.08012034580312567,-0.02991028250000005,-0.019122967499999977,0.00598205650000061
141012.0,0.396973192,-0.4796432515,10.0179833075,-0.08133234314293576,-0.0642350977903993,0.0006684611035138282,10.037312135887017,0.10364142352124137,-0.020299765499999955,-0.011964112999999998,-0.003628460499999875
141022.0,0.37422176399999996,-0.5227925115,10.012001251,-0.09385682585524707,-0.08661720011797458,-0.010255554684718681,10.03262293663812,0.12812813710419224,-0.022751428000000018,-0.04314925999999997,-0.00598205650000061
141032.0,0.366964843,-0.5742774239999999,9.958162742499999,-0.10584723781644811,-0.0983405767036205,-0.02571044521112847,9.981455954009375,0.1467499021216942,-0.007256920999999972,-0.05148491249999998,-0.05383850850000016
141042.0,0.375398562,-0.587418335,9.897067312999999,-0.11730532435579089,-0.10473720841217972,-0.043031092707920195,9.92158887369855,0.16304016955287828,0.008433719000000006,-0.013140911000000033,-0.06109542949999991
141052.0,0.38020382049999996,-0.5982056499999999,9.792920689999999,-0.12396724611065324,-0.10553656920959312,-0.06035174020471192,9.818538617607244,0.17363230717388844,0.004805258499999965,-0.010787314999999964,-0.1041466230000001
