timestamp,ax,ay,az,gx,gy,gz,acc_mag,gyro_mag,dax,day,daz
48532.0,-0.10189109349999999,0.2127062385,10.318949396,0.15405148642727948,0.10190628436544491,-0.015107570005262918,10.321644363958692,0.18532401337951082,0.0,0.0,0.0
48542.0,-0.203586054,0.216334699,9.873629419499999,0.1385965959008697,0.12908455147750061,-0.00285012266850674,9.878097281207074,0.18942006500020533,-0.1016949605,0.003628460499999986,-0.4453199765000022
48552.0,-0.2083913125,0.31214566949999994,9.9430605015,0.11647978361959757,0.10989989233957895,0.004077089132658754,9.950141405759142,0.16019409784419325,-0.00480525850000002,0.09581097049999995,0.06943108200000125
48562.0,-0.2048609185,0.297729894,9.982581301,0.11381466585180222,0.09844180580023616,0.01820029343979687,9.989121108325035,0.15157776213370985,0.00353039400000002,-0.01441577549999995,0.03952079949999998
48572.0,-0.2527173705,0.26066075699999997,10.005332729,0.12553978776670013,0.0699301071396568,0.029124309228029378,10.011917554474309,0.14662429397982407,-0.047856451999999994,-0.03706913700000003,0.022751427999999407
48582.0,-0.24555851599999998,0.20191892349999999,9.9897401555,0.13539915271121608,0.040886083057219164,0.031257101573966446,9.994797577282728,0.14485029769207342,0.007158854500000006,-0.05874183349999998,-0.015592573499999318
48592.0,-0.2646814835,0.21751149699999997,9.974147581999999,0.13753019972790118,0.026230553328222776,0.028324948430615976,9.980029435154556,0.1428457226125381,-0.019122967500000004,0.015592573499999984,-0.015592573500001095
48602.0,-0.2646814835,0.2462449815,9.998075808,0.1300689171756254,0.025963517952667648,0.02113070125389535,10.004609574647905,0.13430760966974126,0.0,0.028733484500000017,0.023928226000000663
48612.0,-0.280274057,0.2786069265,9.940608839,0.11781146983886924,0.03822096528942383,0.014203489452729853,9.948461160226033,0.12466805415135004,-0.01559257350000004,0.03236194500000003,-0.057466969000000034
48622.0,-0.3233252505,0.3241097825,9.923937533999998,0.10768681484805014,0.051811844174703664,0.009405579338997442,9.93449155958457,0.11987235799634618,-0.04305119349999997,0.04550285599999998,-0.016671305000000913
48632.0,-0.314989598,0.3480380085,9.925114332,0.10209128926615632,0.05767265980290062,0.007007496946757234,9.936208703800492,0.11746434372279073,0.008335652500000013,0.023928225999999997,0.0011767980000012557
48642.0,-0.3197948565,0.333622233,9.9658119295,0.10209128926615632,0.05847202060031403,0.012870057904206186,9.976521435789143,0.11835221555833746,-0.00480525850000002,-0.014415775500000005,0.04069759749999946
48652.0,-0.3233252505,0.355196863,9.984934897,0.10342297548542799,0.0512777734235934,0.022197097426863883,9.99648082709232,0.11755183129036531,-0.0035303939999999923,0.021574629999999984,0.01912296750000131
48662.0,-0.348528341,0.30969400699999994,10.0124915835,0.09756041452797903,0.03608991827273875,0.027792623008757705,10.023341263875547,0.10767054647168367,-0.025203090500000025,-0.045502856000000036,0.02755668649999876
48672.0,-0.365199646,0.26664281349999996,10.0232788985,0.08743575953715992,0.02196671396560063,0.03178942699582472,10.03347342890512,0.09559349474210803,-0.01667130499999997,-0.04305119349999997,0.010787314999999964
48682.0,-0.3580407915,0.283412185,10.025632494499998,0.0794404062337739,0.004113741046950635,0.03152239162026959,10.036026235007494,0.08556495884092992,0.007158854499999978,0.01676937150000002,0.0023535959999989586
48692.0,-0.30655587900000003,0.253403836,9.97532438,0.0754436022467069,-0.00840899633610868,0.02805791305506084,9.983250297236435,0.08093018487774115,0.05148491249999998,-0.03000834899999999,-0.05030811449999817
48702.0,-0.28978650749999996,0.2821373205,9.949042558,0.07970744160932905,-0.007344345492392139,0.02486046986540723,9.957259939784798,0.08381681585782796,0.016769371500000074,0.028733484500000017,-0.02628182199999962
48712.0,-0.28978650749999996,0.3144992655,9.9454140975,0.08503767714491972,0.006511823439190843,0.02113070125389535,9.954604340639603,0.08786533397300765,0.0,0.032361945,-0.003628460499999875
48722.0,-0.30900754150000004,0.36235571749999995,9.9573782105,0.08317192017453777,0.027829274923049586,0.023261748270580425,9.96875960958278,0.09073668376608333,-0.01922103400000008,0.04785645199999994,0.011964112999999443
48732.0,-0.3329357675,0.3611789195,9.933449984500001,0.07198086901075014,0.04435056162242791,0.02725855225764744,9.945588219493862,0.0888326881893734,-0.02392822599999994,-0.001176797999999979,-0.023928225999998887
48742.0,-0.3592175895,0.34323275000000003,9.928644726,0.060255747095852234,0.05047841262618,0.03072303082285618,9.941067955325845,0.08439626663709932,-0.02628182200000001,-0.017946169499999942,-0.0048052585000011305
48752.0,-0.37598696099999995,0.3156760635,9.892752387,0.05119574294874967,0.0427518400276011,0.03845134875068708,9.904926418828312,0.07698850656147976,-0.016769371499999963,-0.02755668650000004,-0.035892339000000106
48762.0,-0.39275633249999997,0.3037119505,9.832931821999999,0.05386086071654501,0.02862863572046299,0.048576003741506175,9.845458176321486,0.07797576059158931,-0.01676937150000002,-0.011964112999999998,-0.05982056500000077
48772.0,-0.4035436475,0.25467870049999997,9.813710788,0.06585127267774606,0.01077566280181299,0.05656961171564021,9.8253054988857,0.08747928893032647,-0.01078731500000002,-0.04903325000000003,-0.019221033999999193
48782.0,-0.42266661499999997,0.206724182,9.809003596,0.0741119160274352,-0.000148352986419518,0.05630432166933707,9.820281742455258,0.09307402830279973,-0.019122967499999977,-0.04795451849999996,-0.004707191999999694
48792.0,-0.45022330149999995,0.1972117315,9.7814469095,0.0794404062337739,-0.0028134707542148596,0.04697728214667938,9.79378870160174,0.09233395257520695,-0.027556686499999983,-0.00951245050000002,-0.027556686500000538
48802.0,-0.4610106165,0.16720338249999997,9.747908166499998,0.0802397670311873,-0.0020141099568014562,0.030190705400997914,9.76023572369861,0.08575520709990236,-0.010787315000000075,-0.030008349000000017,-0.03353874300000115
48812.0,-0.41795942299999994,0.15651413399999997,9.739572514,0.08103912782860072,0.006511823439190843,0.01180366173123765,9.749792793125428,0.08215272675930463,0.043051193500000084,-0.010689248499999998,-0.008335652499997792
48822.0,-0.38196901749999995,0.18877801249999998,9.729961996999998,0.0839712809719512,0.01530653753999027,-0.0012514010736799342,9.739286315300395,0.08536411496747748,0.03599040549999999,0.03226387850000001,-0.009610517000002261
48832.0,-0.330484105,0.2462449815,9.755067020999999,0.09089849277311668,0.025963517952667648,-0.00445058959258554,9.76376919630802,0.09463851224857918,0.05148491249999998,0.05746696900000001,0.025105024000000142
48842.0,-0.261053023,0.3048887485,9.767031134,0.09835977532539245,0.03369183588049854,0.0022113321622768156,9.775275085761251,0.1039936305597225,0.06943108199999998,0.058643766999999986,0.01196411300000122
48852.0,-0.25036377449999997,0.2929246355,9.8065519335,0.10155721851504605,0.03395887125605367,0.015535175672001527,9.814119812092029,0.1082054307909635,0.010689248500000026,-0.011964112999999998,0.03952079949999998
48862.0,-0.2635046855,0.27262486999999996,9.859213644,0.10075785771763264,0.0318260789101166,0.02486046986540723,9.866501543964747,0.10854993391323872,-0.013140911000000033,-0.02029976550000001,0.05266171050000068
48872.0,-0.283804451,0.1995653275,9.8975576455,0.09516233213573883,0.024898867108951107,0.0269932622113443,9.9036366367281,0.10200225117923754,-0.02029976550000001,-0.07305954249999996,0.038344001499998726
48882.0,-0.28978650749999996,0.22829881199999996,9.8975576455,0.09143256352422693,0.017704619932230478,0.024595179819104092,9.904430519393083,0.09632388130619837,-0.005982056499999944,0.02873348449999996,0.0
48892.0,-0.2874329115,0.2570322965,9.880788274,0.09009913197570328,0.012374384396639796,0.02352878364613556,9.888309268812002,0.09393924968743181,0.002353595999999958,0.028733484500000017,-0.016769371499998798
48902.0,-0.282627653,0.2786069265,9.878434678,0.08983384192940014,0.012374384396639796,0.02486046986540723,9.886403385319001,0.09402812083053172,0.00480525850000002,0.02157463000000004,-0.002353596000000735
48912.0,-0.2850793155,0.307340411,9.830480159499999,0.0919648889460852,0.01610589833740367,0.027792623008757705,9.839414032892543,0.09741340079181866,-0.002451662500000007,0.02873348449999996,-0.04795451850000099
48922.0,-0.2874329115,0.306163613,9.820967709,0.09409593596277029,0.021701423919297493,0.029124309228029378,9.829942043458816,0.10086239315445922,-0.0023535960000000133,-0.001176797999999979,-0.009512450499999048
48932.0,-0.326953711,0.295376298,9.836462216,0.0964940183550105,0.024898867108951107,0.030190705400997914,9.846325955063262,0.10412745965506003,-0.03952079949999998,-0.01078731500000002,0.015494506999999658
48942.0,-0.3197948565,0.25105024,9.828126563499998,0.09782744990353417,0.022766074763014035,0.026459191460234035,9.83653225082001,0.10386815165137461,0.007158854499999978,-0.044326058,-0.008335652500001345
48952.0,-0.28625611349999996,0.23908612699999998,9.8293033615,0.0980927399498373,0.02196671396560063,0.024595179819104092,9.836376838604506,0.10348741480801898,0.03353874300000004,-0.011964112999999998,0.0011767980000012557
48962.0,-0.291061372,0.253403836,9.8173392485,0.0980927399498373,0.026230553328222776,0.023795819021690687,9.824921381187158,0.10429030904971086,-0.00480525850000002,0.014317709000000012,-0.011964112999999443
48972.0,-0.279097259,0.2427145875,9.8185160465,0.09915913612280584,0.02942799651787639,0.028324948430615976,9.825480293926836,0.10724198785585028,0.011964112999999998,-0.010689248499999998,0.0011767979999994793
48982.0,-0.2778223945,0.26066075699999997,9.8400906765,0.10102489309318777,0.027296949501191315,0.03205646237137985,9.847462304313114,0.10944756395794425,0.0012748644999999725,0.01794616949999997,0.021574629999999928
48992.0,-0.2766455965,0.253403836,9.8293033615,0.10209128926615632,0.024631831733395972,0.032855823168793256,9.83646028114573,0.11004028169114868,0.0011767980000000344,-0.007256920999999972,-0.010787314999999964
49002.0,-0.29341496799999994,0.24389138549999997,9.847249531,0.10182425389060118,0.02649758870377791,0.02965663464988765,9.854638434622919,0.1093152179078883,-0.016769371499999963,-0.00951245050000002,0.017946169500000053
49012.0,-0.29341496799999994,0.24389138549999997,9.8532315875,0.1066204186750816,0.030227357315289794,0.026193901413930895,9.860616008560283,0.11387592932660802,0.0,0.0,0.00598205650000061
49022.0,-0.317343194,0.248696644,9.872452621499999,0.11114954808400689,0.03049439269084493,0.023261748270580425,9.880682035531615,0.11758077630916658,-0.023928226000000052,0.00480525850000002,0.019221033999999193
49032.0,-0.314989598,0.24389138549999997,9.892752387,0.11114954808400689,0.025963517952667648,0.024595179819104092,9.900770234949578,0.11676150553196682,0.0023535960000000133,-0.00480525850000002,0.020299765500000788
49042.0,-0.30420228299999996,0.263014353,9.92629113,0.1098178618647352,0.01956863157336042,0.029124309228029378,9.934433611252485,0.11528711772876385,0.01078731500000002,0.019122967500000004,0.03353874299999937
49052.0,-0.31616639599999996,0.24506818349999998,9.8952040495,0.10795210489435327,0.015039502164435139,0.033655183966206655,9.903286463884847,0.11407241114430217,-0.011964112999999998,-0.017946169499999998,-0.031087080499998976
49062.0,-0.33528936349999994,0.24506818349999998,9.835285418,0.10715274409693987,0.020102702324470687,0.0355191956073366,9.8440498081513,0.11466229748632635,-0.019122967499999977,0.0,-0.05991863150000043
49072.0,-0.385597478,0.24742177949999997,9.872452621499999,0.10715274409693987,0.028361600344907856,0.03258878779323812,9.883077643921103,0.11553406437696748,-0.050308114500000056,0.0023535959999999856,0.037167203499999246
49082.0,-0.38795107399999995,0.20799904649999998,9.861665306499999,0.10768681484805014,0.03449119667791194,0.02486046986540723,9.871484805062934,0.11577623116305633,-0.002353595999999958,-0.03942273299999999,-0.010787314999999964
49092.0,-0.3892259385,0.179265562,9.927467928,0.10395530090728626,0.03715631444570728,0.014468779499032991,9.936712355421635,0.11134020778723355,-0.001274864500000028,-0.02873348449999999,0.06580262150000138
49102.0,-0.361669252,0.1983885295,9.938255242999999,0.09995849692021924,0.03289247508308513,0.007274532322312365,9.94681255134007,0.10548239115676712,0.027556686499999983,0.019122967500000004,0.010787314999998188
49112.0,-0.326953711,0.2319272725,9.970617188,0.09915913612280584,0.022500784716710895,0.004344124508213886,9.978672060875986,0.10177274196577281,0.034715541000000016,0.03353874300000001,0.03236194500000167
49122.0,-0.30420228299999996,0.2797837245,9.935901647,0.09915913612280584,0.010508627426257858,0.0083409284952809,9.944493928819847,0.10006266344230713,0.022751428000000018,0.047856451999999994,-0.03471554100000063
49132.0,-0.2646814835,0.2893942415,9.892752387,0.09942617149836097,0.001715658654710426,0.01633453646941493,9.900522971298805,0.10077362822242542,0.03952079949999998,0.009610516999999985,-0.043149259999999856
49142.0,-0.2515405725,0.2701732075,9.8628421045,0.10209128926615632,-0.000947713783832921,0.02299645822427729,9.869747747534507,0.10465355510589693,0.013140910999999977,-0.01922103399999997,-0.029910282499999497
49152.0,-0.22398388599999997,0.2319272725,9.8077287315,0.10369001086098312,0.004113741046950635,0.025659830662820633,9.813027153310417,0.10689699774734926,0.02755668650000004,-0.03824593500000001,-0.055113373000001076
49162.0,-0.25036377449999997,0.241439723,9.8030215395,0.10395530090728626,0.01823694535408875,0.02486046986540723,9.809189898423067,0.10843123961525697,-0.026379888500000004,0.009512450499999991,-0.004707191999999694
49172.0,-0.24310685349999997,0.23310407049999998,9.830480159499999,0.10395530090728626,0.03049439269084493,0.022197097426863883,9.83624819818133,0.11058627268556245,0.0072569209999999995,-0.008335652500000013,0.0274586199999991
49182.0,-0.24555851599999998,0.2427145875,9.861665306499999,0.10608809325322333,0.037421604492010416,0.020331340456481946,9.86770753382928,0.11431720525633245,-0.002451662500000007,0.009610517000000013,0.031185147000000413
49192.0,-0.235947999,0.253403836,9.870000958999999,0.10768681484805014,0.040619047681664036,0.021663026675753618,9.876072290794175,0.1171138072621582,0.009610516999999985,0.010689248499999998,0.008335652499999568
49202.0,-0.24673531399999996,0.2689964095,9.92629113,0.1082191402699084,0.040086722259805765,0.024061109067993827,9.933000200393396,0.11788665994027829,-0.010787314999999964,0.015592573499999984,0.056290171000000555
49212.0,-0.2754687985,0.29057103949999996,9.941883703499999,0.1090185010673218,0.038488000664978955,0.027792623008757705,9.94994302304601,0.1189066426397617,-0.028733484500000045,0.021574629999999984,0.015592573499999318
49222.0,-0.31616639599999996,0.3276401765,9.976599244500001,0.10528873245580993,0.037421604492010416,0.03338814859065153,9.98698361671704,0.11662273419543465,-0.04069759749999996,0.03706913700000003,0.0347155410000024
49232.0,-0.365199646,0.3013583545,9.971793986,0.0964940183550105,0.031560788863813465,0.03845134875068708,9.983028745751023,0.10856189567592434,-0.04903325000000003,-0.02628182200000001,-0.0048052585000011305
49242.0,-0.3796154215,0.24987344199999997,9.971793986,0.08743575953715992,0.02116735316818723,0.042713442784057226,9.982145055271603,0.09958668124028307,-0.014415775500000005,-0.05148491250000001,0.0
49252.0,-0.39638479299999996,0.21398110299999998,9.923937533999998,0.08290488479898264,0.006511823439190843,0.04244815273775409,9.934155474689167,0.09336738959017478,-0.016769371499999963,-0.035892338999999995,-0.047856452000001326
49262.0,-0.37598696099999995,0.204370586,9.885593532499998,0.08450360639380947,-0.006010913943868471,0.04058239576737215,9.894851844321359,0.09393573029587886,0.020397832000000005,-0.009610516999999985,-0.0383440015000005
49272.0,-0.38442067999999996,0.193583271,9.870000958999999,0.08796808495901819,-0.009475392509077215,0.036318556404750006,9.879381188752847,0.09564101930596058,-0.008433719000000006,-0.010787314999999992,-0.015592573499999318
49282.0,-0.3676513085,0.170831843,9.798216281,0.08903448113198674,-0.00334579617607313,0.02992367002544278,9.806599476499386,0.0939880801500143,0.016769371499999963,-0.02275142799999999,-0.07178467799999844
49292.0,-0.3688281065,0.16965504499999998,9.7455545705,0.09249721436794348,0.011042698177368124,0.02006430508092681,9.754006914752098,0.09529035726266454,-0.001176797999999979,-0.0011767980000000344,-0.05266171050000068
49302.0,-0.38079221950000003,0.18279595599999998,9.7814469095,0.09729337915242389,0.026230553328222776,0.012070697106792783,9.79056283976201,0.10148766074477225,-0.011964113000000054,0.013140911000000005,0.035892339000000106
49312.0,-0.365199646,0.215157901,9.810180393999998,0.10262361468801459,0.03582288289718362,0.009405579338997442,9.819333127388193,0.10910247546871514,0.01559257350000004,0.03236194500000003,0.02873348449999824
49322.0,-0.31616639599999996,0.2427145875,9.846072732999998,0.10688745405063674,0.03608991827273875,0.010471975511965976,9.854137193304698,0.11330080452266506,0.04903325000000003,0.027556686499999983,0.035892339000000106
49332.0,-0.3138128,0.28811937699999995,9.881965071999998,0.11008489724029034,0.02756223954749445,0.015002850250143257,9.891143762633048,0.11447028944187647,0.002353595999999958,0.04540478949999996,0.035892339000000106
49342.0,-0.26830994399999997,0.28458898299999996,9.920309073499999,0.10928553644287693,0.017704619932230478,0.01873261886165514,9.928016580821199,0.11228398395126596,0.045502856000000036,-0.0035303939999999923,0.0383440015000005
49352.0,-0.24908890999999997,0.331268637,9.951396154000001,0.10528873245580993,0.013973105991466603,0.025659830662820633,9.960023574710595,0.10926752391650739,0.019221033999999998,0.046679654000000015,0.03108708050000253
49362.0,-0.2550709665,0.36235571749999995,9.916680612999999,0.10022553229577437,0.015571827586293408,0.03205646237137985,9.92657631029985,0.10637319172665757,-0.005982056500000027,0.031087080499999975,-0.0347155410000024
49372.0,-0.273017136,0.369514572,9.928644726,0.09542936751129395,0.020102702324470687,0.04111472118923042,9.939268859961361,0.1058362089401356,-0.017946169499999998,0.007158854500000034,0.01196411300000122
49382.0,-0.30175062049999996,0.35882532349999996,9.937078445000001,0.0911655281486718,0.024364796357840838,0.04884303911706132,9.94813234088895,0.10625647883482733,-0.02873348449999996,-0.010689248500000026,0.008433719000001005
49392.0,-0.3460766785,0.3037119505,9.938255242999999,0.08663639873974652,0.021701423919297493,0.05390623927709686,9.94891588522564,0.10432018030907073,-0.04432605800000006,-0.055113372999999966,0.001176797999997703
49402.0,-0.37000490449999995,0.2319272725,9.890398790999999,0.08423831634750632,0.01530653753999027,0.051241121509301525,9.900034451157106,0.09977994069980542,-0.02392822599999994,-0.07178467799999999,-0.04785645199999955
49412.0,-0.38442067999999996,0.1876012145,9.828126563499998,0.08530296719122286,0.011842058974781525,0.048576003741506175,9.83743082430915,0.09887597641431345,-0.014415775500000005,-0.044326058,-0.062272227500001165
49422.0,-0.407172108,0.18877801249999998,9.764677537999999,0.08929977117828988,0.01264141977219493,0.0456455959274077,9.774986121967558,0.10108301070862478,-0.022751428000000018,0.001176797999999979,-0.06344902549999887
49432.0,-0.41668455849999997,0.170831843,9.739572514,0.0956946575575971,0.019303341527057285,0.04244815273775409,9.749978579224644,0.10645154836837127,-0.009512450499999991,-0.01794616949999997,-0.025105023999998366
49442.0,-0.4359055925,0.17563710149999998,9.757518683499999,0.10448937165839652,0.02996032193973466,0.037117917202163404,9.768829660499135,0.11486248063543518,-0.019221034000000026,0.004805258499999965,0.017946169499998277
49452.0,-0.4478697055,0.1397447625,9.793411022499999,0.11141658345956201,0.03635695364829388,0.03072303082285618,9.804642539500117,0.12115852331275712,-0.011964112999999998,-0.03589233899999997,0.035892339000000106
49462.0,-0.47062113349999996,0.16965504499999998,9.813710788,0.11701210904145583,0.039020326086837226,0.022197097426863883,9.826453404769106,0.1253280920002788,-0.022751427999999962,0.02991028249999997,0.020299765500000788
49472.0,-0.47062113349999996,0.179265562,9.847249531,0.11887786601183778,0.036889279070152145,0.015002850250143257,9.860118849121227,0.1253708556781529,0.0,0.009610517000000013,0.03353874299999937
49482.0,-0.43825918849999995,0.20917584449999996,9.871177757,0.11941019143369605,0.03395887125605367,0.010739010887521109,9.88311570105898,0.12460868793972378,0.032361945,0.02991028249999997,0.023928226000000663
49492.0,-0.42148981699999993,0.23663446449999997,9.880788274,0.1191449013873929,0.030761428066400056,0.0083409284952809,9.89260463433366,0.12333427776356123,0.01676937150000002,0.027458620000000017,0.009610517000000485
49502.0,-0.397561591,0.25585549849999994,9.923937533999998,0.11861083063628264,0.024631831733395972,0.010204940136410845,9.935192672187345,0.12157054364425203,0.02392822599999994,0.01922103399999997,0.04314925999999808
49512.0,-0.38677427600000003,0.26419115099999996,9.9789528405,0.11647978361959757,0.017170549181120213,0.010204940136410845,9.989939494199405,0.11817998373006008,0.010787314999999964,0.008335652500000013,0.055015306500001415
49522.0,-0.33774102599999994,0.276155264,9.977776042499999,0.11274826967883368,0.009976302004399588,0.007806857744170635,9.987309221445253,0.11345768349958371,0.049033250000000084,0.011964113000000054,-0.0011767980000012557
49532.0,-0.31253793550000003,0.283412185,9.939432041,0.10315594010987285,0.007311184236604247,0.002478367537831948,9.948382367269089,0.10344439907769692,0.025203090499999914,0.007256920999999972,-0.038344001499998726
49542.0,-0.3005738225,0.29057103949999996,9.914327017,0.09516233213573883,0.007845254987714512,0.0011466813185602744,9.923137424816028,0.09549205391749234,0.011964113000000054,0.007158854499999978,-0.025105024000000142
49552.0,-0.28978650749999996,0.3013583545,9.8975576455,0.09383064591646716,0.011042698177368124,0.0032777283352453507,9.90638382174603,0.09453504534921191,0.01078731500000002,0.01078731500000002,-0.016769371500000574
49562.0,-0.27066354,0.3037119505,9.864018902499998,0.09622872830870735,0.009443976582541317,0.010739010887521109,9.872404398607216,0.09728557550040448,0.019122967499999977,0.0023535960000000133,-0.03353874300000115
49572.0,-0.25987622499999996,0.307340411,9.843719136999999,0.10075785771763264,0.00518013721991917,0.02113070125389535,9.851943982214571,0.10307999926729369,0.01078731500000002,0.003628460499999986,-0.020299765499999012
49582.0,-0.2850793155,0.25585549849999994,9.836462216,0.10422233628284139,-0.000947713783832921,0.02939134460358451,9.843917979089131,0.10829148017861978,-0.025203090500000025,-0.051484912500000035,-0.00725692099999975
49592.0,-0.29341496799999994,0.237909329,9.809003596,0.10688745405063674,-0.002281145332356589,0.02992367002544278,9.816274483662964,0.11102052731475336,-0.008335652499999957,-0.017946169499999942,-0.0274586199999991
49602.0,-0.3209716545,0.25222703799999996,9.768305998499999,0.10928553644287693,0.0049131018443640375,0.022197097426863883,9.77683196961172,0.11162516821719985,-0.02755668650000004,0.014317708999999956,-0.04069759750000124
49612.0,-0.34244821799999997,0.2689964095,9.801746675,0.11035018728659349,0.017969909978533618,0.010204940136410845,9.811415174744612,0.11226852765584214,-0.02147656349999999,0.01676937150000002,0.03344067650000149
49622.0,-0.326953711,0.2821373205,9.847249531,0.11088425803770374,0.029695031893431523,-0.0012514010736799342,9.856714641427706,0.1147984303218959,0.01549450699999999,0.013140911000000033,0.045502855999998815
49632.0,-0.2993970245,0.33842749149999996,9.891575588999999,0.11141658345956201,0.035557592850880476,-0.002050761871093337,9.90189069714381,0.11697094982687994,0.027556686499999983,0.056290170999999944,0.044326057999999335
49642.0,-0.2766455965,0.35039160449999995,9.8963808475,0.11035018728659349,0.023832470935982567,0.006475171524898963,9.906445424133308,0.113079964411816,0.022751428000000018,0.011964112999999998,0.0048052585000011305
49652.0,-0.2515405725,0.3276401765,9.884416734499998,0.10741977947249501,0.00811054503401765,0.02006430508092681,9.893043764490997,0.10957812875318138,0.025105023999999976,-0.022751427999999962,-0.01196411300000122
49662.0,-0.2419300555,0.295376298,9.872452621499999,0.10369001086098312,-0.008143706289805541,0.034719834809923196,9.87983289701484,0.10965128924784136,0.009610517000000013,-0.03226387850000001,-0.011964112999999443
49672.0,-0.26830994399999997,0.298906692,9.825772967499999,0.10289065006356972,-0.018268361280624645,0.04351280358147063,9.83397934945083,0.11319709788639915,-0.026379888499999976,0.0035303939999999923,-0.04667965400000007
49682.0,-0.2874329115,0.2570322965,9.782623707499999,0.10502169708025479,-0.015603243512829306,0.044579199754439164,9.790220114103587,0.11515347635431435,-0.019122967500000032,-0.041874395499999995,-0.043149259999999856
49692.0,-0.291061372,0.22467035149999998,9.7910574265,0.11248297963253055,-0.005478588522010201,0.037117917202163404,9.797958921027096,0.11857561054716287,-0.003628460499999986,-0.032361945,0.008433719000001005
49702.0,-0.314989598,0.240262925,9.8077287315,0.11781146983886924,0.00571246264177744,0.02672622683578917,9.815726544207939,0.12093992664090117,-0.023928225999999997,0.015592573500000012,0.016671304999999137
49712.0,-0.30420228299999996,0.2701732075,9.850877991499999,0.11887786601183778,0.0131737451940532,0.017400932642383467,9.8592763321885,0.12086474691485131,0.01078731500000002,0.029910282500000024,0.043149259999999856
49722.0,-0.31253793550000003,0.27262486999999996,9.8748062175,0.1167468189951527,0.01077566280181299,0.012870057904206186,9.883511628669527,0.11794733165596814,-0.008335652500000068,0.0024516624999999515,0.023928226000000663
49732.0,-0.2993970245,0.29410143349999995,9.891575588999999,0.11408170122735736,0.0003839724354387525,0.01393645407717472,9.900474830247632,0.11493044306015882,0.013140911000000033,0.02147656349999999,0.016769371499998798
49742.0,-0.279097259,0.285765781,9.881965071999998,0.1098178618647352,-0.01107411410390402,0.016601571844970065,9.8900349365308,0.11161635621830722,0.02029976550000001,-0.008335652499999957,-0.009610517000000485
49752.0,-0.29223816999999996,0.26066075699999997,9.885593532499998,0.10448937165839652,-0.018268361280624645,0.01899965423721027,9.893346585865197,0.10776246412633428,-0.013140910999999977,-0.02510502400000003,0.003628460499999875
49762.0,-0.2766455965,0.2462449815,9.933449984500001,0.09995849692021924,-0.013205161120589098,0.020598375832037077,9.940352004408085,0.1029095256703093,0.015592573499999984,-0.014415775499999978,0.0478564520000031
49772.0,-0.247912112,0.297729894,9.9465908955,0.08610232798863626,-0.0052115531464550675,0.021663026675753618,9.954133510632708,0.08893850626143568,0.02873348449999999,0.05148491250000001,0.013140910999998923
49782.0,-0.23231953849999998,0.3252865805,9.939432041,0.06052278247140736,0.012908455147750061,0.023795819021690687,9.947466663682752,0.0663014058319718,0.015592573500000012,0.027556686499999983,-0.007158854500000089
49792.0,-0.179657828,0.34087915399999996,9.9118753545,0.025616197431520774,0.04594928321725471,0.030990066198411315,9.91936230691963,0.06105661636556723,0.052661710499999986,0.015592573499999984,-0.027556686500000538
49802.0,-0.1809326925,0.3815767515,9.8975576455,-0.011955505376161158,0.08298691527382639,0.04031536039181702,9.906562713802204,0.09303273885566708,-0.0012748645000000003,0.040697597500000016,-0.014317709000000178
49812.0,-0.12101406099999999,0.3276401765,9.879611476,-0.04419697264825241,0.1226896650981934,0.05283984310412832,9.885783499800485,0.14070598897149375,0.0599186315,-0.05393657499999999,-0.017946169500000053
49822.0,-0.17132217549999998,0.28458898299999996,9.9310963885,-0.060718259347630726,0.1559975285432532,0.06083345107826236,9.9366502230249,0.17810851944783712,-0.05030811449999999,-0.04305119350000003,0.0514849125000012
49832.0,-0.269486742,0.240262925,10.0244556965,-0.04899313743273283,0.14347479116019385,0.06989345522536491,10.030955158325385,0.16694441678985247,-0.09816456650000002,-0.044326057999999974,0.09335930800000014
