timestamp,ax,ay,az,gx,gy,gz,acc_mag,gyro_mag,dax,day,daz
294062.0,-0.11738560049999999,0.0993413645,9.8253807015,0.011508701087650609,0.030377455630961305,0.0017191493132144146,9.82658404611257,0.03252991677974351,0.0,0.0,0.0
294072.0,0.17230284049999997,-0.8846578964999999,9.9858174955,-0.005811946409141118,0.01572192590196492,-0.00840550567760469,10.026408076480733,0.01875127197887782,0.28968844099999996,-0.9839992609999999,0.16043679399999888
294082.0,0.106500219,-0.8416067029999998,9.887652928999998,-0.007410668003967923,0.03197617722578811,-0.006806784082777886,9.923977256299201,0.03352202589029491,-0.06580262149999998,0.043051193500000084,-0.09816456650000127
294092.0,0.075315072,-0.8954452115,9.929527324499999,-0.004480260189869444,0.03623827125915826,0.004651302456564889,9.97010568524029,0.0368092332134712,-0.031185146999999996,-0.05383850850000016,0.041874395500000716
294102.0,0.043051193499999994,-0.9984150365,9.9403146395,-0.007677703379523056,0.03757170280768193,0.008648106443631903,9.9904224696771,0.03931119085086461,-0.0322638785,-0.10296982499999996,0.01078731500000174
294112.0,-0.0036284604999999998,-0.9768404065,9.9307041225,-0.02179916235740918,0.026380651643894294,-0.00041189770347066176,9.978632908075895,0.03422443455134522,-0.046679653999999994,0.021574629999999928,-0.009610517000000485
294122.0,-0.02157463,-0.9780172045,9.899617042,-0.03645469208640556,0.007461282552275759,-0.008138470302049559,9.947833970026563,0.038090025089213025,-0.0179461695,-0.0011767979999999234,-0.031087080500000752
294132.0,0.0550153065,-1.0450946904999998,9.7870367,-0.03805341368123236,-0.017053612121236593,-0.014001031259498512,9.842831755303322,0.0439876898177893,0.0765899365,-0.06707748599999985,-0.11258034199999933
294142.0,0.10885381499999999,-1.053430343,9.709269965499999,-0.031126201880066876,-0.03144210647467785,-0.01826487062212066,9.766856602999427,0.04786493499302452,0.05383850849999999,-0.008335652500000235,-0.07776673450000082
294152.0,0.1471978165,-1.0738281749999998,9.655431456999999,-0.020734511513692634,-0.030377455630961305,-0.01773254520026239,9.716075893457775,0.04083078419038537,0.0383440015,-0.020397831999999783,-0.05383850850000016
294162.0,0.179461695,-1.0977564009999998,9.620715916,-0.007677703379523056,-0.022649137703130415,-0.015067427432467046,9.684805127222976,0.028265844004946392,0.03226387850000001,-0.023928225999999997,-0.03471554099999885
294172.0,0.16396718799999999,-1.0547052075,9.5919824315,0.006977826349473329,-0.012789772758614447,-0.010536552694289767,9.651187247156326,0.01798019161354921,-0.015494507000000018,0.04305119349999975,-0.028733484500000017
294182.0,0.1568083335,-1.0115559475,9.633856826999999,0.020034634483642906,0.0010663961729685354,-0.005740387909809351,9.688087099707152,0.020868057720975875,-0.007158854499999978,0.04314926000000008,0.04187439549999894
294192.0,0.106500219,-0.9780172045,9.759578079999999,0.02536487001923359,0.006127851003752092,0.0003874630939427412,9.809037885978498,0.02609745804989383,-0.050308114500000015,0.03353874300000004,0.12572125300000003
294202.0,0.0646258235,-0.9685047539999999,9.8026292735,0.01950230906178464,0.0021310470166850766,0.0030525808617380824,9.850569457105655,0.01985446222001843,-0.041874395499999995,0.009512450500000047,0.043051193500000196
294212.0,0.0646258235,-0.9505585845,9.831362758000001,0.01204102650950888,-0.0034644785652087444,0.001186823891356144,9.87742030081838,0.012585606146728896,0.0,0.017946169499999942,0.028733484500001794
294222.0,0.1028717585,-0.957717439,9.7870367,0.0077771871468867325,-0.006927211801165493,0.002518510110627818,9.834322175870001,0.010715119991546581,0.038245934999999995,-0.007158854499999978,-0.04432605800000111
294232.0,0.11365907349999999,-0.9936097779999998,9.800275677499998,0.005379104754646523,-0.0026651177677953415,0.006250024051391694,9.85117161209387,0.008666049926042078,0.010787314999999992,-0.035892338999999884,0.013238977499998583
294242.0,0.08492558899999998,-1.0211664645,9.7918419585,0.006445500927615059,-0.0007993607974134029,0.0078487456462185,9.845311688520965,0.010187554569736636,-0.028733484500000003,-0.027556686500000205,-0.008433718999999229
294252.0,0.10404855649999999,-1.049899949,9.819398645,0.006445500927615059,0.002930407814098479,0.007049384848805097,9.875915438806054,0.009991276140282526,0.019122967500000004,-0.028733484500000017,0.027556686500000538
294262.0,0.0980665,-1.029502117,9.777524249499999,0.003248057737961447,0.00559552558189382,0.0033178709080412204,9.83206347095513,0.007271042082754416,-0.005982056499999985,0.020397832000000005,-0.041874395500000716
294272.0,0.12081792799999999,-1.0450946904999998,9.785859901999999,-0.0015481070465189703,0.006661921754862355,0.0014538592669112766,9.842249433204227,0.006992248827335438,0.02275142799999999,-0.015592573499999762,0.008335652499999568
294282.0,0.11846433199999999,-1.027148521,9.763108474,-0.0020821777976292354,0.006127851003752092,0.0006544984694978735,9.81770619631894,0.006504951233614339,-0.0023535959999999995,0.01794616949999983,-0.022751427999999407
294292.0,0.11365907349999999,-1.0223432625,9.783506306,-0.003146828641345776,0.003996803987067015,-0.0022776546738526,9.837433596772575,0.005573570078715391,-0.004805258500000006,0.00480525850000002,0.02039783200000045
294302.0,0.12562318649999998,-1.0007686325,9.7798778455,-0.0023474678439323734,-0.0015987215948268059,-0.0036093408931242737,9.831751101084896,0.004592804992468241,0.011964112999999998,0.021574629999999928,-0.003628460499999875
294312.0,0.13160524299999998,-1.01400761,9.7810546435,-0.0023474678439323734,-0.00559552558189382,-0.003342305517569141,9.83435617172044,0.006927591066792107,0.005982056499999999,-0.013238977499999915,0.0011767979999994793
294322.0,0.117287534,-1.017538004,9.784683103999999,0.0016493361431346415,-0.006661921754862355,-0.0014782938764391971,9.83814837258105,0.00702046038134795,-0.014317708999999984,-0.0035303939999999923,0.003628460499999875
294332.0,0.1160126695,-0.9995918345,9.7547728215,0.005113814708343385,-0.006127851003752092,0.0030525808617380824,9.806540448810614,0.008545168735192083,-0.0012748645000000003,0.017946169499999942,-0.029910282499999497
294342.0,0.12081792799999999,-0.9780172045,9.753596023499998,0.00884358331985527,-0.0002670353755551324,0.0030525808617380824,9.803252012146745,0.009359408300980882,0.0048052584999999925,0.02157463000000004,-0.0011767980000012557
294352.0,0.12209279249999999,-0.979292069,9.788311564499999,0.00884358331985527,0.002930407814098479,0.0027855454861829498,9.837934889503547,0.009723966245711983,0.0012748645000000003,-0.001274864500000028,0.03471554100000063
294362.0,0.106500219,-0.9780172045,9.796647216999999,0.004846779332788253,0.009327039522657697,0.0033178709080412204,9.845920812361781,0.01102239554363698,-0.015592573499999998,0.001274864500000028,0.008335652499999568
294372.0,0.07776673449999999,-0.9899813175,9.794293621,0.001117010721276371,0.008792968771547434,0.0033178709080412204,9.844505991077211,0.009464263316882144,-0.028733484500000003,-0.011964112999999998,-0.0023535959999989586
294382.0,0.07060788,-0.9876277214999999,9.795470418999999,-0.0007487462491055673,0.004796164784480418,0.0017191493132144146,9.84538646872216,0.005149688529082642,-0.007158854499999992,0.002353596000000069,0.0011767979999994793
294392.0,0.09453610599999998,-1.0019454305,9.778701047499998,0.0008499753457212385,-0.0007993607974134029,-0.0009442231253289323,9.830352277381266,0.0015009973628162265,0.023928225999999983,-0.014317709000000067,-0.016769371500000574
294402.0,0.1352337035,-0.9888045194999999,9.7690905305,0.0016493361431346415,-0.004263839362622147,-0.002542944720155738,9.819936472577137,0.005231367285238557,0.040697597500000016,0.013140911000000033,-0.009610516999998708
294412.0,0.14955141249999998,-0.969681552,9.776249385,0.0008499753457212385,-0.0063948863793072235,-0.002542944720155738,9.825360043020448,0.006934233753079783,0.014317708999999984,0.019122967499999977,0.007158854500000089
294422.0,0.1507282105,-0.9924329799999999,9.772718991,-0.00048345620280242926,-0.002930407814098479,-0.0006789330790257941,9.82413755452784,0.003046632564447675,0.0011767980000000067,-0.022751427999999962,-0.0035303940000002143
294432.0,0.15553346899999998,-0.9839992609999999,9.785859901999999,-0.0015481070465189703,0.004529129408925285,0.00012042771838760874,9.836437323909461,0.00478791723671469,0.0048052584999999925,0.008433719000000006,0.013140910999998923
294442.0,0.1340569055,-1.003220295,9.773895789,-0.005279620987282847,0.0063948863793072235,0.0030525808617380824,9.826162074199878,0.008836697318062681,-0.02147656349999999,-0.01922103400000008,-0.011964112999999443
294452.0,0.11248227549999999,-0.9959633739999999,9.817045049,-0.00607898178469625,0.0034644785652087444,0.005717698629533424,9.868078272832383,0.009035967512426548,-0.021574629999999997,0.007256921000000083,0.04314926000000163
294462.0,0.07776673449999999,-0.9936097779999998,9.794293621,-0.0023474678439323734,-0.0010663961729685354,0.006250024051391694,9.844871537521112,0.006760961966983181,-0.034715541,0.002353596000000069,-0.022751428000001184
294472.0,0.1005181625,-1.0151844079999999,9.793018756499999,-0.0007487462491055673,-0.002398082392240209,0.0033178709080412204,9.846010341676443,0.004161692860837817,0.022751428000000004,-0.02157463000000004,-0.0012748645000009162
294482.0,0.11365907349999999,-0.9924329799999999,9.827734297500001,-0.003146828641345776,0.0010663961729685354,0.0006544984694978735,9.878370464152395,0.0033864582593457577,0.013140910999999991,0.022751427999999962,0.0347155410000024
294492.0,0.0920844435,-0.9720351479999999,9.796647216999999,-0.006611307206554521,0.001865756970381938,0.0030525808617380824,9.845183013435348,0.007517225683017515,-0.021574629999999984,0.020397832000000005,-0.03108708050000253
294502.0,0.0993413645,-0.9744868105,9.7702673285,-0.008210028801381325,0.0002670353755551324,0.0051836278784231585,9.819247268548322,0.009713180673356928,0.0072569209999999995,-0.0024516625000000625,-0.026379888499999282
294512.0,0.106500219,-0.982822463,9.728392933,-0.010608111193621535,-0.0037297686115118824,0.0035849062835963527,9.77849228405222,0.011802319689528258,0.007158854499999992,-0.008335652500000013,-0.04187439549999894
294522.0,0.1340569055,-1.025971723,9.720057280499999,-0.011140436615479804,-0.0037297686115118824,-0.00041189770347066176,9.774973287252957,0.011755431153176253,0.027556686499999997,-0.04314926000000008,-0.008335652500001345
294532.0,0.1160126695,-0.9972382384999999,9.716428819999999,-0.007942993425826194,0.0005323254218582705,0.0009197885158010117,9.768159092579198,0.008013771011906578,-0.01804423599999999,0.028733484500000128,-0.003628460499999875
294542.0,0.0980665,-0.9995918345,9.69485419,-0.00021642082724729686,0.0015987215948268059,0.001186823891356144,9.746742975957757,0.0020028229231077097,-0.017946169499999998,-0.002353596000000069,-0.021574629999999928
294552.0,0.1016949605,-0.9816456649999998,9.7235876745,0.00884358331985527,0.004263839362622147,-0.0017435839227423352,9.77354221049322,0.00997142802917987,0.0036284604999999998,0.017946169500000164,0.028733484500000017
294562.0,0.0801203305,-1.004397093,9.783506306,0.01017526953912694,0.005328490206338688,-0.004941027112395947,9.8352543651564,0.012503706130518412,-0.021574629999999997,-0.022751428000000073,0.05991863150000043
294572.0,0.083748791,-0.994786576,9.80861133,0.004314453910929983,0.00506320016003555,-0.007073819458333018,9.859283463557995,0.009710274462609894,0.0036284604999999998,0.00961051699999993,0.025105024000000142
294582.0,0.075315072,-0.9780172045,9.833716354,-0.0007487462491055673,0.0005323254218582705,-0.004675737066092809,9.882518269312504,0.0047651346687727966,-0.008433719000000006,0.01676937150000002,0.025105024000000142
294592.0,0.050210048,-0.9744868105,9.8253807015,-0.0007487462491055673,-0.006127851003752092,-0.0020106192982974674,9.873715183362707,0.006492593382649292,-0.025105023999999997,0.0035303939999999923,-0.008335652499999568
294602.0,0.059820565,-0.994786576,9.8373448145,-0.0018151424220741027,-0.011725121914897906,-0.002542944720155738,9.88769598193415,0.012134240552313116,0.009610516999999999,-0.02029976550000001,0.011964112999999443
294612.0,0.10885381499999999,-1.0199896665,9.799000813,-0.0050125856117277144,-0.01119105116378764,-0.004141666314982544,9.852545102966111,0.012942914684493345,0.049033249999999994,-0.025203090499999914,-0.0383440015000005
294622.0,0.1507282105,-1.01400761,9.752321159,-0.006344271830999388,-0.001865756970381938,-0.002542944720155738,9.806054171523709,0.007085012490314259,0.041874395499999995,0.005982056499999944,-0.04667965400000007
294632.0,0.14955141249999998,-1.0127327455,9.763108474,-0.003146828641345776,0.010925761117484502,0.0033178709080412204,9.816632839924253,0.011844114735038519,-0.0011767980000000067,0.001274864500000028,0.010787314999999964
294642.0,0.10532342099999999,-1.0019454305,9.7655601365,0.0027157323161031764,0.01625425132382319,0.006517059426946826,9.817390307424313,0.017721398130088144,-0.044227991499999994,0.010787314999999964,0.0024516625000003955
294652.0,0.040599530999999994,-1.0115559475,9.7810546435,0.0024486969405480446,0.011458086539342773,0.004651302456564889,9.833306854561844,0.012606287256451201,-0.06472388999999999,-0.00961051700000004,0.015494506999999658
294662.0,0.06580262149999999,-1.0103791494999999,9.788311564499999,0.0008499753457212385,0.0002670353755551324,-0.00014486232791552936,9.840540599706149,0.0009026356264744462,0.025203090499999997,0.0011767980000001454,0.00725692099999975
294672.0,0.096889702,-0.9899813175,9.7655601365,0.0008499753457212385,-0.006127851003752092,-0.003342305517569141,9.816089618730595,0.007031644344340275,0.031087080500000003,0.020397831999999894,-0.022751427999999407
294682.0,0.1340569055,-0.9972382384999999,9.7463391025,0.0016493361431346415,-0.0063948863793072235,-0.004675737066092809,9.79814172479452,0.00809181059025318,0.037167203499999996,-0.007256920999999972,-0.019221033999999193
294692.0,0.142392558,-0.982822463,9.7343749895,0.004314453910929983,-0.001865756970381938,-0.004941027112395947,9.784900207490839,0.0068197734967885585,0.008335652500000013,0.01441577549999995,-0.01196411300000122
294702.0,0.1267999845,-0.9959633739999999,9.741533844,0.0019163715186897737,0.004263839362622147,-0.004675737066092809,9.793135499533133,0.006611756424667018,-0.015592573500000012,-0.013140910999999922,0.007158854500000089
294712.0,0.144746154,-1.0103791494999999,9.772718991,-0.0036808993924560413,0.006927211801165493,-0.005740387909809351,9.825876752325676,0.009720459712928967,0.017946169499999998,-0.01441577549999995,0.031185147000000413
294722.0,0.1471978165,-1.0151844079999999,9.761931676,-0.006344271830999388,0.004263839362622147,-0.004675737066092809,9.815680140791104,0.008960615396672963,0.002451662500000007,-0.00480525850000002,-0.010787314999999964
294732.0,0.16279038999999998,-1.051076747,9.796647216999999,-0.007143632628412791,-0.0021310470166850766,-0.00041189770347066176,9.854215328148369,0.007466090558998773,0.015592573499999984,-0.035892339000000106,0.03471554099999885
294742.0,0.1364105015,-1.0570588035,9.8014524755,-0.0050125856117277144,-0.00506320016003555,0.0033178709080412204,9.859231804175284,0.007859406958410413,-0.026379888499999976,-0.005982056499999944,0.0048052585000011305
294752.0,0.09453610599999998,-1.0582356015,9.772718991,-0.0023474678439323734,-0.0021310470166850766,0.006250024051391694,9.830301935376744,0.007008192870390591,-0.04187439550000002,-0.0011767980000001454,-0.028733484500000017
294762.0,0.07413827399999999,-1.0439178924999999,9.741533844,0.0019163715186897737,0.0021310470166850766,0.0030525808617380824,9.797588615764122,0.004187133996233859,-0.02039783199999999,0.014317709000000178,-0.031185147000000413
294772.0,0.1005181625,-1.01400761,9.7810546435,0.0035150931135165798,0.005862560957448953,-0.0020106192982974674,9.833989285801728,0.007125173018192798,0.026379888500000004,0.02991028249999994,0.03952079949999998
294782.0,0.129251647,-0.9899813175,9.7918419585,0.0024486969405480446,0.007194247176720627,-0.0006789330790257941,9.84260828934548,0.007629826949033478,0.028733484500000003,0.02402629249999999,0.010787314999999964
294792.0,0.11964113,-0.9625226975,9.8385216125,0.003248057737961447,0.005862560957448953,0.0038519416591514853,9.88621623589227,0.007730262259098505,-0.009610516999999999,0.02745861999999999,0.04667965400000007
294802.0,0.0693330155,-0.9373196069999999,9.8469553315,-0.0010157816246606998,0.002930407814098479,0.005982988675836562,9.891708872245545,0.006739084193057414,-0.0503081145,0.025203090500000025,0.008433719000001005
294812.0,0.045404789499999994,-0.97085835,9.8840244685,-0.009276424974349861,-0.001865756970381938,0.004651302456564889,9.931695083145724,0.010543610573220029,-0.023928226000000004,-0.03353874300000004,0.037069136999999586
294822.0,0.063350959,-0.982822463,9.8481321295,-0.014871950556243681,-0.003996803987067015,-0.0009442231253289323,9.897255163825665,0.015428574554014945,0.017946169500000005,-0.011964112999999998,-0.035892339000000106
294832.0,0.0885540495,-1.01400761,9.7906651605,-0.018336429121452426,-0.0037297686115118824,-0.003876376268679406,9.843433219047572,0.01910921504923341,0.025203090499999997,-0.03118514699999997,-0.057466969000000034
294842.0,0.1005181625,-1.0223432625,9.741533844,-0.018336429121452426,-0.0007993607974134029,-0.0036093408931242737,9.795548544168872,0.01870537228427355,0.011964112999999998,-0.008335652500000013,-0.049131316500000466
294852.0,0.09571290399999999,-1.0163612059999998,9.7212340785,-0.013538519007720013,0.0002670353755551324,-0.0036093408931242737,9.774688898887966,0.014013926876395962,-0.004805258500000006,0.005982056500000166,-0.020299765499999012
294862.0,0.106500219,-1.0211664645,9.684164941499999,-0.007942993425826194,-0.002930407814098479,-0.004675737066092809,9.738437957857727,0.009671657129514144,0.010787315000000006,-0.004805258500000242,-0.03706913700000136
294872.0,0.1113054775,-1.027148521,9.670925964,-0.0015481070465189703,-0.00559552558189382,-0.006539748707222752,9.725956610775278,0.008744990286943236,0.004805258500000006,-0.005982056499999944,-0.013238977499998583
294882.0,0.11964113,-1.027148521,9.7116235615,0.006712536303170191,-0.005328490206338688,-0.004675737066092809,9.766523449235255,0.009762861701963173,0.008335652499999999,0.0,0.04069759749999946
294892.0,0.132782041,-1.0092023515,9.729569731,0.009909979492823802,-0.0026651177677953415,-0.003342305517569141,9.782670780879661,0.010792661971783414,0.013140910999999991,0.017946169500000053,0.017946169500000053
294902.0,0.144746154,-1.0343073754999998,9.753596023499998,0.008044222522441864,0.0010663961729685354,0.0003874630939427412,9.809351588445919,0.008123844190864973,0.011964112999999998,-0.02510502399999992,0.024026292499998547
294912.0,0.142392558,-1.030678915,9.7918419585,0.004846779332788253,0.0063948863793072235,0.0030525808617380824,9.846966213339034,0.008585108713490006,-0.0023535959999999856,0.003628460499999875,0.03824593500000084
294922.0,0.093359308,-1.0199896665,9.820575443,0.002981022362406315,0.006927211801165493,0.004651302456564889,9.873844079780257,0.008860438601210415,-0.04903325,0.010689248500000081,0.028733484500000017
294932.0,0.0789435325,-1.0223432625,9.832539555999999,0.0024486969405480446,0.002930407814098479,0.004384267081009755,9.885861214280087,0.005814224324981328,-0.014415775500000005,-0.002353596000000069,0.011964112999999443
294942.0,0.082571993,-1.003220295,9.8469553315,-0.0007487462491055673,-0.001865756970381938,0.0030525808617380824,9.89827249548547,0.0036551224241505318,0.0036284604999999998,0.019122967499999977,0.014415775500001615
294952.0,0.04903325,-1.006750689,9.843326871,-0.005811946409141118,-0.0085259333959923,0.0009197885158010117,9.894798385958058,0.010359356748824926,-0.033538742999999996,-0.0035303939999999923,-0.003628460499999875
294962.0,0.06815621749999999,-1.028325319,9.772718991,-0.011407471991034937,-0.014123204307138116,0.00012042771838760874,9.826908705627238,0.018155159596180016,0.01912296749999999,-0.021574629999999928,-0.07060788000000073
294972.0,0.096889702,-1.0163612059999998,9.741533844,-0.014604915180688549,-0.011458086539342773,-0.0006789330790257941,9.794889450586608,0.018575581947922127,0.028733484500000003,0.01196411300000011,-0.031185147000000413
294982.0,0.1005181625,-1.0019454305,9.7188804825,-0.014604915180688549,-0.007194247176720627,-0.003342305517569141,9.770907653837059,0.016620220998760295,0.0036284604999999998,0.014415775499999839,-0.022653361499999747
294992.0,0.106500219,-1.025971723,9.6853417395,-0.009541715020653,0.0002670353755551324,-0.004941027112395947,9.740113186403098,0.010748459533932515,0.005982056499999999,-0.0240262925000001,-0.03353874299999937
295002.0,0.0920844435,-0.9959633739999999,9.706818303,-0.003946189438759179,0.005328490206338688,-0.003342305517569141,9.75821418880217,0.007425377104120365,-0.014415775499999992,0.030008349000000156,0.021476563500000267
295012.0,0.110030613,-1.0235200604999999,9.681713279,0.0003159045946109737,0.00506320016003555,-0.0017435839227423352,9.73628635912112,0.005364315097859735,0.017946169499999998,-0.027556686499999983,-0.025105024000000142
295022.0,0.12444638849999999,-1.0354841735,9.7320213935,0.00404741853537485,0.003996803987067015,0.0017191493132144146,9.787745132599303,0.00594234913755968,0.014415775499999992,-0.01196411300000011,0.050308114499999945
295032.0,0.12444638849999999,-1.0354841735,9.7343749895,0.00404741853537485,0.005862560957448953,0.0051836278784231585,9.790085332283002,0.008810290333596644,0.0,0.0,0.0023535959999989586
295042.0,0.11483587149999999,-1.061864062,9.704464707,0.0037803831598197174,0.006927211801165493,0.006517059426946826,9.76306190766805,0.010234726364080843,-0.009610516999999999,-0.02637988849999995,-0.029910282499999497
295052.0,0.083748791,-1.0450946904999998,9.752321159,0.0059131755057567886,0.010391690366374239,0.0033178709080412204,9.808516950099254,0.012408107857159506,-0.03108708049999999,0.01676937150000013,0.04785645199999955
295062.0,0.07776673449999999,-1.0402894319999998,9.748790764999999,0.0077771871468867325,0.007194247176720627,-0.0012112585008840647,9.804446498761413,0.010663441260372601,-0.005982056500000013,0.00480525850000002,-0.0035303940000002143
295072.0,0.07776673449999999,-1.04146623,9.832539555999999,0.00884358331985527,0.0031974431896536117,-0.004675737066092809,9.88784777863868,0.010502148637184622,0.0,-0.0011767980000001454,0.08374879099999966
295082.0,0.1016949605,-1.0163612059999998,9.806257733999999,0.007511897100583594,-0.0031974431896536117,-0.007073819458333018,9.859311472495818,0.010802368385215777,0.02392822600000001,0.025105024000000142,-0.02628182199999962
295092.0,0.110030613,-1.0007686325,9.8230271055,0.004846779332788253,-0.007726572598578897,-0.007606144880191288,9.874487637694463,0.011876221367097942,0.008335652499999999,0.015592573499999762,0.016769371500000574
295102.0,0.1734796385,-0.9924329799999999,9.806257733999999,-0.00048345620280242926,-0.007461282552275759,-0.005208062487951079,9.85787548868419,0.009111991116288798,0.0634490255,0.008335652500000124,-0.016769371500000574
295112.0,0.178284897,-0.9625226975,9.8122397905,-0.006611307206554521,-0.0026651177677953415,-0.0009442231253289323,9.860947477497913,0.0071905349596580155,0.0048052584999999925,0.02991028249999994,0.00598205650000061
295122.0,0.152003075,-0.958894237,9.773895789,-0.008210028801381325,0.004263839362622147,0.0027855454861829498,9.821996843147181,0.009661478286750487,-0.02628182200000001,0.003628460499999986,-0.0383440015000005
295132.0,0.12562318649999998,-0.9756636084999999,9.8014524755,-0.009541715020653,0.006661921754862355,0.005450663253978291,9.850693949738908,0.012850496368293818,-0.026379888500000004,-0.016769371499999908,0.027556686500000538
295142.0,0.0693330155,-0.9936097779999998,9.783506306,-0.011674507366590071,0.003996803987067015,0.006250024051391694,9.83407662658357,0.013832258131143131,-0.056290170999999986,-0.017946169499999942,-0.017946169500000053
295152.0,0.07413827399999999,-1.005573891,9.783506306,-0.014604915180688549,-0.0002670353755551324,0.004117231705454623,9.835327700360287,0.015176509883478002,0.0048052584999999925,-0.01196411300000022,0.0
295162.0,0.059820565,-1.030678915,9.709269965499999,-0.01407258975883028,-0.0013316862192716736,-0.0006789330790257941,9.764005366077123,0.014151753277694195,-0.014317708999999991,-0.02510502399999992,-0.07423634050000061
295172.0,0.07178467799999999,-1.0462714885,9.7188804825,-0.007677703379523056,-0.0005323254218582705,-0.0014782938764391971,9.775299223080744,0.007836826674350657,0.011964112999999992,-0.015592573499999984,0.009610517000000485
295182.0,0.0909076455,-1.065394456,9.693677392,-0.00048345620280242926,-0.0031974431896536117,-0.0014782938764391971,9.752472041849584,0.003555661068803948,0.019122967500000004,-0.019122967499999977,-0.025203090499999803
295192.0,0.0920844435,-1.04146623,9.716428819999999,0.006178465552059927,-0.0034644785652087444,-0.0028099800957108708,9.77251863477843,0.007620501062599053,0.0011767980000000067,0.023928225999999997,0.022751427999999407
295202.0,0.110030613,-1.004397093,9.751144361,0.010709340290237207,-0.004263839362622147,-0.0020106192982974674,9.803353334715938,0.01170097797301705,0.017946169499999998,0.03706913700000003,0.03471554100000063
295212.0,0.1160126695,-0.9936097779999998,9.7702673285,0.0091106186954104,-0.002930407814098479,0.0003874630939427412,9.821346292681886,0.009578141292508615,0.005982056499999999,0.010787315000000075,0.019122967499999532
295222.0,0.128074849,-1.0092023515,9.7571264175,0.003248057737961447,-0.0010663961729685354,0.004117231705454623,9.810015722734388,0.005351511635346966,0.012062179499999992,-0.015592573500000095,-0.013140910999998923
295232.0,0.13160524299999998,-1.0151844079999999,9.772718991,-0.0007487462491055673,0.003996803987067015,0.0051836278784231585,9.826187246296676,0.006588251743713975,0.0035303939999999923,-0.005982056499999944,0.015592573499999318
295242.0,0.093359308,-1.004397093,9.8014524755,5.061454830783555e-05,0.0085259333959923,0.0051836278784231585,9.853222828613092,0.009978181201369464,-0.03824593499999998,0.010787314999999964,0.028733484500000017
295252.0,0.082571993,-1.028325319,9.776249385,0.0016493361431346415,0.009327039522657697,0.004117231705454623,9.830530155258023,0.010327902637354293,-0.010787315000000006,-0.023928225999999997,-0.025203090499999803
295262.0,0.08737725149999999,-1.006750689,9.814593386499999,0.003248057737961447,0.009859364944515966,0.001986184688769547,9.866479872589371,0.010568911287175426,0.0048052584999999925,0.021574629999999928,0.038344001499998726
295272.0,0.059820565,-1.006750689,9.8049828695,0.0016493361431346415,0.006927211801165493,0.0003874630939427412,9.8567141848076,0.00713138841323514,-0.02755668649999999,0.0,-0.009610516999998708
295282.0,0.035892338999999995,-1.003220295,9.789488362499998,-0.0007487462491055673,-0.0007993607974134029,-0.0028099800957108708,9.840824234779406,0.0030158890510564745,-0.023928226000000004,0.0035303939999999923,-0.015494507000001434
295292.0,0.047856451999999994,-1.0103791494999999,9.800275677499998,-0.004213224814314312,-0.006661921754862355,-0.006274458660919614,9.852337774393467,0.010074785173464065,0.011964112999999998,-0.007158854499999867,0.010787314999999964
295302.0,0.06580262149999999,-1.017538004,9.7870367,-0.004745550236172582,-0.006661921754862355,-0.006274458660919614,9.840010210448334,0.010308747741580212,0.017946169499999998,-0.007158854500000089,-0.013238977499998583
295312.0,0.07178467799999999,-0.9924329799999999,9.7906651605,-0.004745550236172582,-0.006127851003752092,-0.004408701690537677,9.841097527451689,0.008916695327551172,0.005982056499999999,0.02510502400000003,0.003628460499999875
295322.0,0.106500219,-1.0319537795,9.785859901999999,-0.007677703379523056,0.0005323254218582705,-0.002542944720155738,9.840697379822368,0.008105372748274092,0.034715541,-0.03952079950000009,-0.0048052585000011305
295332.0,0.1005181625,-1.0115559475,9.748790764999999,-0.006611307206554521,0.0034644785652087444,-0.002542944720155738,9.80164632679961,0.007885338455513405,-0.005982056499999999,0.020397832000000005,-0.037069136999999586
295342.0,0.11365907349999999,-1.025971723,9.753596023499998,-0.005544911033585984,0.008260643349689161,0.0003874630939427412,9.808066667341707,0.009956625661855277,0.013140910999999991,-0.014415775500000061,0.004805258499999354
295352.0,0.11365907349999999,-1.029502117,9.784683103999999,-0.002881538595042638,0.009859364944515966,0.0006544984694978735,9.839350407399841,0.010292653206556882,0.0,-0.0035303939999999923,0.031087080500000752
295362.0,0.0812971285,-1.0223432625,9.789488362499998,-0.0015481070465189703,0.009060004147102564,0.0003874630939427412,9.843062397902616,0.00919948032348377,-0.03236194499999999,0.007158854500000089,0.004805258499999354
295372.0,0.05266171049999999,-1.0235200604999999,9.80861133,-0.0007487462491055673,0.002930407814098479,-0.00041189770347066176,9.86200906473945,0.0030524695937230047,-0.028635418000000003,-0.0011767979999999234,0.01912296750000131
295382.0,0.06099736299999999,-1.003220295,9.796647216999999,-0.003946189438759179,-0.004529129408925285,-0.0017435839227423352,9.848069269300792,0.006255038703718142,0.008335652499999999,0.0202997654999999,-0.01196411300000122
295392.0,0.0801203305,-0.9972382384999999,9.7798778455,-0.005811946409141118,-0.010925761117484502,-0.002542944720155738,9.830916236271557,0.01263398373074908,0.01912296750000001,0.005982056500000055,-0.016769371499998798
295402.0,0.1113054775,-0.9864509235,9.741533844,-0.0050125856117277144,-0.009592329568960835,-0.0014782938764391971,9.79198427120841,0.010923559578250017,0.031185146999999996,0.010787314999999964,-0.0383440015000005
295412.0,0.0993413645,-0.9888045194999999,9.766736934499999,5.061454830783555e-05,-0.006127851003752092,-0.0022776546738526,9.817166262838315,0.006537647173869856,-0.011964112999999998,-0.002353595999999958,0.025203090499999803
295422.0,0.12444638849999999,-1.0103791494999999,9.7463391025,0.001117010721276371,-0.0021310470166850766,-0.003342305517569141,9.79936114398666,0.004118261831348493,0.02510502399999999,-0.021574629999999928,-0.020397831999998672
295432.0,0.16396718799999999,-1.025971723,9.748790764999999,-0.00021642082724729686,0.0031974431896536117,-0.005208062487951079,9.804000438335644,0.006115095731379179,0.039520799499999995,-0.015592573500000206,0.002451662499998619
295442.0,0.16877244649999998,-1.030678915,9.727216134999999,-0.00021642082724729686,0.0037297686115118824,-0.0020106192982974674,9.78312408699427,0.00424271161317522,0.0048052584999999925,-0.004707191999999916,-0.021574629999999928
295452.0,0.178284897,-1.029502117,9.716428819999999,0.0037803831598197174,0.002398082392240209,0.0030525808617380824,9.772443355043423,0.005418518793219291,0.00951245050000002,0.0011767979999999234,-0.010787314999999964
295462.0,0.12444638849999999,-1.052253545,9.7235876745,0.0037803831598197174,0.0010663961729685354,0.004916592502868027,9.781149303137338,0.006292962694314065,-0.05383850850000001,-0.02275142799999985,0.007158854500000089
295472.0,0.08737725149999999,-1.052253545,9.7320213935,0.005379104754646523,0.001865756970381938,0.005450663253978291,9.78913237782524,0.007881976081050922,-0.037069137,0.0,0.008433719000001005
295482.0,0.0669794195,-1.025971723,9.728392933,0.0077771871468867325,0.0007993607974134029,0.004384267081009755,9.782572937518866,0.008963560422051462,-0.02039783199999999,0.026281821999999844,-0.003628460499999875
295492.0,0.0550153065,-1.01400761,9.753596023499998,0.009375908741713538,-0.0015987215948268059,0.0038519416591514853,9.806318040259667,0.01026162901376836,-0.011964112999999998,0.01196411300000011,0.025203090499998027
295502.0,0.06580262149999999,-1.003220295,9.8265574995,0.010442304914682074,-0.00799360797413403,0.002518510110627818,9.877854687951015,0.013389637543737587,0.010787314999999992,0.010787314999999964,0.07296147600000147
295512.0,0.043051193499999994,-1.005573891,9.8697067595,0.006977826349473329,-0.016786576745681462,0.0006544984694978735,9.920894303138335,0.018190865500262294,-0.022751427999999997,-0.002353596000000069,0.043149259999999856
295522.0,0.035892338999999995,-0.9959633739999999,9.8828476705,-0.00021642082724729686,-0.022916173078685546,-0.003342305517569141,9.93297082350772,0.023159638009250312,-0.007158854499999999,0.009610517000000152,0.013140911000000699
295532.0,0.040599530999999994,-0.991256182,9.8744139515,-0.002881538595042638,-0.030909781052819576,-0.004941027112395947,9.9241265623655,0.031434560253539356,0.004707191999999999,0.004707191999999916,-0.008433719000001005
295542.0,0.0789435325,-1.0319537795,9.8385216125,-0.004480260189869444,-0.03250850264764638,-0.007873180255746421,9.892808913750306,0.033747036063933616,0.0383440015,-0.040697597500000016,-0.035892339000000106
295552.0,0.129251647,-1.028325319,9.8385216125,-0.00607898178469625,-0.02424785929795722,-0.009737191896876364,9.892960450218036,0.026827702214479606,0.0503081145,0.003628460500000097,0.0
295562.0,0.1375872995,-0.9888045194999999,9.80861133,-0.011140436615479804,-0.014922565104551517,-0.008672541053159824,9.859286022109902,0.02054276625972861,0.008335652500000013,0.03952079949999998,-0.029910282499999497
295572.0,0.132782041,-1.0343073754999998,9.772718991,-0.014604915180688549,-0.009060004147102564,-0.006274458660919614,9.828197153826222,0.018296339909069564,-0.00480525850000002,-0.045502855999999925,-0.035892339000000106
295582.0,0.12081792799999999,-1.0366609715,9.714075224,-0.012473868164003473,-0.009859364944515966,-0.006806784082777886,9.769980573117236,0.017295570925287437,-0.011964112999999998,-0.002353596000000069,-0.058643766999999514
295592.0,0.1387640975,-1.0163612059999998,9.646997738,-0.009541715020653,-0.013589133556027849,-0.011869984242813436,9.701381908408404,0.020410913802756513,0.017946169499999998,0.020299765500000122,-0.06707748600000052
295602.0,0.152003075,-1.0558820055,9.6398388835,-0.004213224814314312,-0.011458086539342773,-0.016399113651738722,9.698684727538403,0.020444313122275966,0.013238977499999999,-0.0395207995000002,-0.007158854500000089
295612.0,0.140038962,-1.0092023515,9.6494494005,0.0027157323161031764,-0.006661921754862355,-0.018797196043978927,9.703090952369816,0.020126872151340666,-0.011964112999999998,0.04667965400000007,0.009610517000000485
295622.0,0.175931301,-1.0115559475,9.6302283665,0.002981022362406315,0.002398082392240209,-0.020395917638805737,9.684807465744244,0.02075164450866692,0.03589233900000002,-0.002353596000000069,-0.019221033999999193
295632.0,0.23222147199999998,-1.048723151,9.679359683,0.0008499753457212385,0.016786576745681462,-0.016399113651738722,9.738775638261057,0.023482813832452678,0.05629017099999997,-0.03716720349999991,0.04913131649999869
295642.0,0.20466478549999997,-1.0319537795,9.748790764999999,0.003248057737961447,0.03224146727209125,-0.0022776546738526,9.805393294365981,0.032484608689959386,-0.02755668650000001,0.016769371499999908,0.06943108199999948
295652.0,0.128074849,-1.04146623,9.796647216999999,0.007511897100583594,0.03837106360509534,0.009447467241045306,9.852682465680633,0.040224641173124874,-0.07658993649999998,-0.009512450499999936,0.04785645199999955
295662.0,0.008335652499999999,-1.053430343,9.864901501,0.01443910890174909,0.03703763205657167,0.011313224211427244,9.920991210311989,0.041331139547471696,-0.11973919649999999,-0.01196411300000011,0.06825428400000177
295672.0,-0.016769371499999998,-1.04146623,9.887652928999998,0.017636552091402698,0.02371553387609895,0.006517059426946826,9.942364586174314,0.03026460936928667,-0.025105023999999997,0.01196411300000011,0.02275142799999763
295682.0,-0.010787315,-1.030678915,9.8948117835,0.01577079512102076,0.007194247176720627,-0.003876376268679406,9.948352407453253,0.01776236088377178,0.0059820564999999975,0.010787314999999964,0.0071588545000018655
295692.0,0.025105024,-1.004397093,9.8852012665,0.005646140130201656,-0.00559552558189382,-0.011602948867258302,9.93612841411936,0.014064751235756446,0.035892339,0.026281822000000066,-0.009610517000000485
295702.0,0.058643767,-1.0103791494999999,9.867255097000001,-0.007143632628412791,-0.017053612121236593,-0.015067427432467046,9.91902355408156,0.023851300655183816,0.033538742999999996,-0.005982056499999944,-0.017946169499998277
295712.0,0.10885381499999999,-1.0115559475,9.819398645,-0.015936601399960223,-0.02611361626833916,-0.01586678822988045,9.8719645632159,0.03446231546955536,0.05021004799999999,-0.0011767980000001454,-0.047856452000001326
295722.0,0.154356671,-1.0223432625,9.775072586999999,-0.01753706832403902,-0.029578094833547904,-0.015067427432467046,9.829600999500448,0.03754250695967208,0.04550285600000001,-0.010787314999999964,-0.04432605800000111
295732.0,0.202213123,-1.028325319,9.736826652,-0.015671311353657087,-0.02611361626833916,-0.011602948867258302,9.793065728356336,0.03259047984564725,0.047856451999999994,-0.005982056499999944,-0.038245934999999065
295742.0,0.18789541399999998,-1.007927487,9.7439855065,-0.009276424974349861,-0.023181463124988685,-0.00041189770347066176,9.79777913899545,0.024972023398957408,-0.014317709000000012,0.020397832000000005,0.007158854500000089
295752.0,0.165143986,-1.017538004,9.761931676,-0.009808750396208134,-0.02718001244130769,0.009714502616600437,9.816209358636787,0.030485016347915755,-0.02275142799999999,-0.00961051700000004,0.017946169500000053
295762.0,0.0993413645,-1.0450946904999998,9.850485725499999,-0.013538519007720013,-0.03757170280768193,0.013177235852557189,9.906268755040479,0.042054296968384676,-0.06580262149999999,-0.027556686499999872,0.08855404949999901
295772.0,0.075315072,-1.048723151,9.8265574995,-0.0196681153407241,-0.05062851094185151,0.012377875055143785,9.882647666414776,0.05570720484933664,-0.024026292500000004,-0.003628460500000097,-0.023928225999998887
295782.0,0.07776673449999999,-1.0547052075,9.7906651605,-0.022598523154822577,-0.06022084051081235,0.007049384848805097,9.847617733480057,0.06470654300265401,0.002451662499999993,-0.005982056500000166,-0.035892339000000106
295792.0,0.10885381499999999,-1.0666693205,9.761931676,-0.02020044076258237,-0.06181956210563915,-0.00041189770347066176,9.820638606487266,0.06503757164634685,0.031087080500000003,-0.011964112999999887,-0.028733484500000017
295802.0,0.144746154,-1.0343073754999998,9.741533844,-0.01407258975883028,-0.0567563619456036,-0.005475097863506212,9.797358053572855,0.0587307338659723,0.035892338999999995,0.032361945000000114,-0.02039783200000045
