timestamp,ax,ay,az,gx,gy,gz,acc_mag,gyro_mag,dax,day,daz
150782.0,-0.902015667,0.9350640775,9.962575735,-0.02231228915749551,0.059702477722970035,-0.0059306287982767315,10.04693447615516,0.06401090884882338,0.0,0.0,0.0
150792.0,-0.46993466799999994,0.9578155055,9.7663446685,-0.03670078351093676,0.01706932008450454,-0.012325515177583957,9.82444590390231,0.04231108037921946,0.4320809990000001,0.022751428000000073,-0.19623106649999933
150802.0,-0.4315906665,0.9985131029999998,9.823713571,-0.04576078765803933,0.047712065761768986,-0.01845511151058804,9.883756737461834,0.06863732255273199,0.03834400149999995,0.040697597499999794,0.057368902500000374
150812.0,-0.5118090635,1.077554702,9.8824554045,-0.038032469730208435,0.06316695628817878,-0.027780405703993743,9.95419496871617,0.07879266502391195,-0.080218397,0.07904159900000018,0.058741833499999174
150822.0,-0.49023443349999996,1.1302164125,9.878826944,-0.031637583350901215,0.06902951724562773,-0.025117033265450398,9.955347343431761,0.07998047443912408,0.02157463000000004,0.052661710500000014,-0.003628460499999875
150832.0,-0.5501530649999999,1.1685604139999999,9.890791057,-0.02790781473938933,0.07382568203010814,-0.020320868480969978,9.97476563981971,0.081498559168611,-0.059918631499999986,0.038344001499999836,0.011964112999999443
150842.0,-0.5860454039999999,1.1757192685,9.923153001999998,-0.016982053621904827,0.04744503038621385,-0.01845511151058804,10.009731790361482,0.05366574507480769,-0.035892338999999995,0.007158854500000089,0.032361944999998116
150852.0,-0.5692760324999999,1.1541446385,9.960222138999999,0.000603883921190038,0.014936527738567473,-0.016057029118347832,10.043014990827354,0.021938384643877897,0.01676937150000002,-0.021574629999999928,0.03706913700000136
150862.0,-0.6075219675,1.1757192685,9.9530632845,0.010728538912009145,-0.01783726495538205,-0.010993828958312283,10.040660709563848,0.02354004765160047,-0.038245935000000064,0.021574629999999928,-0.007158854499998313
150872.0,-0.554860257,1.1924886399999999,9.9087372265,0.010196213490150874,-0.041020473409622726,-0.0072640603468004,9.995647677121982,0.04288832686184269,0.052661710500000014,0.016769371499999908,-0.04432605800000111
150882.0,-0.5345604915,1.1865065835,9.8620575725,0.010196213490150874,-0.04128750878517786,-0.0040666171571467884,9.94754906271219,0.04272187409659921,0.02029976550000001,-0.005982056499999944,-0.04667965400000007
150892.0,-0.544072942,1.2379914959999998,9.8632343705,0.014193017477217889,-0.02849599069731142,-0.0008691739674931761,9.955502526633067,0.031846800377991494,-0.009512450500000047,0.05148491249999987,0.0011767980000012557
150902.0,-0.5177911199999999,1.2451503505,9.878826944,0.015259413650186423,-0.010643017778661421,0.00233001455141243,9.970442759918011,0.01874973333661555,0.026281822000000066,0.007158854500000089,0.015592573499999318
150912.0,-0.497393288,1.2080812134999999,9.8871625965,0.005932374127528726,0.004544837372193235,0.004993386989955777,9.973106061352587,0.008987909832664997,0.02039783199999995,-0.03706913700000003,0.008335652499999568
150922.0,-0.507003805,1.1924886399999999,9.9530632845,-0.004726351614400644,0.008274605983705116,0.007391469382195985,10.037058870011448,0.012059905613082417,-0.009610516999999985,-0.015592573499999984,0.06590068800000104
150932.0,-0.49621648999999995,1.1672855494999999,9.957868543,-0.01538333202707802,-0.002649409804527392,0.009257226352577924,10.038323180625754,0.01814834748153433,0.01078731500000002,-0.025203090500000025,0.004805258499999354
150942.0,-0.49023443349999996,1.133844873,9.933940317,-0.021779963735637238,-0.010910053154216554,0.009789551774436194,10.010449751011965,0.0262532170237834,0.005982056499999999,-0.03344067649999993,-0.023928226000000663
150952.0,-0.4794471185,1.1302164125,9.8979499115,-0.021245892984526973,-0.01304110017090163,0.008990190977022791,9.97379923244323,0.02650059992114905,0.010787314999999964,-0.003628460499999875,-0.03599040549999977
150962.0,-0.5010217485,1.157773099,9.876473348,-0.015118041980774882,-0.008244935386421213,0.010588912571849598,9.956715680132298,0.020215321474391815,-0.02157463000000004,0.027556686499999872,-0.021476563500000267
150972.0,-0.528578435,1.1661087515,9.868039628999998,-0.006058037833672318,-0.006113888369736136,0.012187634166676405,9.950749263336222,0.014920384712618438,-0.027556686499999983,0.008335652500000013,-0.008433719000001005
150982.0,-0.528578435,1.1051113885,9.9183477435,-0.0017941984710501708,-0.01197644932718509,0.01032362252554646,9.993712438525085,0.015913254497120354,0.0,-0.06099736300000003,0.05030811450000172
150992.0,-0.542896144,1.0799082979999999,9.915896080999998,-0.0001954768762233649,-0.021568778896145925,0.004993386989955777,9.98929092801138,0.022140107224479007,-0.014317708999999956,-0.025203090500000025,-0.002451662500002172
151002.0,-0.5345604915,1.1290396145,9.854898718,-0.0007278022980816355,-0.03515791245217378,0.000996583002888762,9.933756294183034,0.03517956341203591,0.008335652500000013,0.04913131650000002,-0.06099736299999847
151012.0,-0.5010217485,1.0715726455,9.775857119,-0.0001954768762233649,-0.0423521596288944,-0.0016685347649065792,9.847165741377406,0.04238546501693939,0.033538742999999926,-0.05746696899999981,-0.07904159899999996
151022.0,-0.45198849849999995,1.0871652189999998,9.7471236345,0.001403244718603441,-0.03622430862514231,-0.003532546406036523,9.817975400377009,0.03642318650558528,0.049033250000000084,0.015592573499999762,-0.028733484500000017
151032.0,-0.43041386849999996,1.0906956129999998,9.762716207999999,0.005400048705670455,-0.022635175069114458,-0.00033510321638291127,9.832878560033194,0.023272816129525538,0.021574629999999984,0.0035303939999999923,0.015592573499999318
151042.0,-0.435219127,1.1302164125,9.744770038499999,0.008330456519768934,-0.0037158059774959275,0.00526042236551091,9.81974276296677,0.010529756091843848,-0.00480525850000002,0.0395207995000002,-0.017946169500000053
151052.0,-0.4531652965,1.156596301,9.76153941,0.007531095722355532,0.012538445346327264,0.010056587149991327,9.840260435700975,0.01775006928401938,-0.017946169499999998,0.02637988849999995,0.016769371500000574
151062.0,-0.4914112315,1.1481625819999999,9.814201120499998,0.005932374127528726,0.021331414117874696,0.014320426512613475,9.893346549412522,0.026368483205531545,-0.03824593500000001,-0.008433719000000117,0.052661710499998904
151072.0,-0.5166143219999999,1.1637551554999999,9.850093459499998,0.008330456519768934,0.01653524933339428,0.018317230499680492,9.932046998506047,0.02604480580698773,-0.025203090499999914,0.015592573499999984,0.035892339000000106
151082.0,-0.5058270069999999,1.1517910425,9.8632343705,0.012861331257946215,0.005611233545161769,0.0207153128919207,9.943132092756606,0.02502047105542078,0.010787314999999964,-0.011964112999999887,0.013140911000002475
151092.0,-0.4878808375,1.1421805255,9.877650145999999,0.020322613810221976,-0.005314527572322733,0.023645720706019176,9.955429497073693,0.03162867280022144,0.017946169499999942,-0.00961051700000004,0.014415775499998063
151102.0,-0.5021985465,1.1313932105,9.864509235,0.028848547206214274,-0.015973253314252103,0.02471211687898771,9.941870871434235,0.0412076718341523,-0.014317708999999956,-0.010787314999999964,-0.013140910999998923
151112.0,-0.47827032049999996,1.1206058955,9.838129346499999,0.03364471199069469,-0.02236813969355933,0.023380430659716036,9.9132885114358,0.04667916940264864,0.023928225999999997,-0.010787314999999964,-0.02637988850000106
151122.0,-0.450713634,1.1398269294999999,9.885985798499998,0.03231302577142302,-0.015706217938696972,0.0215146736893341,9.961679748778844,0.04187717875407821,0.027556686499999983,0.01922103399999986,0.04785645199999955
151132.0,-0.437572723,1.133844873,9.841757806999999,0.02618342943841893,-0.012241739373488228,0.02018298747006243,9.916515053968679,0.03525315791899744,0.013140910999999977,-0.005982056499999944,-0.044227991499999675
151142.0,-0.3992287215,1.124234356,9.799785344999998,0.02005557843466684,-0.0037158059774959275,0.014320426512613475,9.872136509761097,0.024922039561693803,0.0383440015,-0.009610516999999819,-0.04197246200000038
151152.0,-0.40403397999999996,1.1780728645,9.796254951,0.015791739072044696,0.010939723751500458,0.011122983322959861,9.875105578982835,0.02219858861913364,-0.004805258499999965,0.05383850849999994,-0.003530393999998438
151162.0,-0.4076624405,1.1996474945,9.792626490499998,0.015526449025741554,0.018401006303776217,0.012454669542231536,9.874253205123761,0.027106944603675878,-0.0036284605000000414,0.021574629999999928,-0.003628460500001651
151172.0,-0.42198014949999996,1.1768960665,9.8022370075,0.014193017477217889,0.020266763274158155,0.012454669542231536,9.881649758472406,0.027700220795610422,-0.014317708999999956,-0.022751428000000073,0.009610517000002261
151182.0,-0.4447315775,1.215240068,9.808219064,0.016591099869458097,0.02159844949342983,0.011655308744818132,9.893217666983341,0.02962437910464295,-0.022751428000000018,0.03834400150000006,0.0059820564999988335
151192.0,-0.4566956905,1.2810426894999998,9.846464998999998,0.022720696202462184,0.021865484868984958,0.01378635576150321,9.939945387303428,0.03441501227172704,-0.011964112999999998,0.06580262149999982,0.038245934999999065
151202.0,-0.47591672449999994,1.2846711499999999,9.880003742,0.029115582581769404,0.01680228470894941,0.0207153128919207,9.974535108677252,0.03948617617251138,-0.01922103399999997,0.003628460500000097,0.03353874300000115
151212.0,-0.45551889249999994,1.2320094394999999,9.903931967999998,0.03018023342548595,0.009608037532228783,0.027642524693086194,9.990656292116842,0.04203891109728482,0.020397832000000005,-0.052661710500000014,0.023928225999998887
151222.0,-0.43639592499999996,1.1972938985,9.938647508999999,0.02778215103324574,0.004012511950334963,0.03190636405570834,10.020013392750222,0.04249663793102997,0.019122967499999977,-0.03471554099999996,0.03471554100000063
151232.0,-0.46865980349999997,1.2164168659999999,9.950611622,0.024584707843592127,-0.0002513274122871834,0.037236599591299026,10.035635687647664,0.04462101942297686,-0.03226387850000001,0.019122967499999977,0.01196411300000122
151242.0,-0.4890576354999999,1.2331862375,9.961398936999998,0.018723892215395166,-0.0018500490071139892,0.04203276437577944,10.049347961398539,0.04605171117442057,-0.02039783199999995,0.01676937150000013,0.010787314999998188
151252.0,-0.4890576354999999,1.205629551,10.003371398999999,0.011262609663119408,-0.000783652834145454,0.04736125458211813,10.087624067708735,0.04868828322892953,0.0,-0.027556686500000094,0.04197246200000038
151262.0,-0.5058270069999999,1.2223989224999998,10.0020965345,0.009129817317182338,-0.0013177235852557187,0.04975933697435834,10.089204883051817,0.05060712969355214,-0.01676937150000002,0.016769371499999908,-0.0012748644999991399
151272.0,-0.53936575,1.181701325,10.052404649,0.009663888068292601,-0.011442378576074825,0.04895997617694493,10.135984049958672,0.051199590108922936,-0.03353874300000004,-0.040697597499999905,0.050308114499999945
151282.0,-0.5561351215,1.1553214365,10.011707051499998,0.007265805676052394,-0.02050238272317739,0.04309741521949598,10.093479676506862,0.04827553032387569,-0.01676937150000002,-0.02637988849999995,-0.04069759750000124
151292.0,-0.5501530649999999,1.1757192685,9.963850599499999,7.155849933176751e-05,-0.027164304478039747,0.036969564215743884,10.048049709391746,0.045876499830484974,0.005982056500000055,0.020397832000000005,-0.04785645199999955
151302.0,-0.53936575,1.182878123,9.88118054,-0.00925548102332593,-0.023434535866527863,0.03217339943126347,9.966335581858548,0.04086525457177958,0.010787314999999964,0.007158854500000089,-0.08267005949999806
151312.0,-0.5249499745,1.206806349,9.810572659999998,-0.015917402778188285,-0.006380923745291268,0.03243868947756661,9.898448866203921,0.036692621520794735,0.01441577549999995,0.023928225999999997,-0.07060788000000251
151322.0,-0.5561351215,1.1924886399999999,9.808219064,-0.02044653218711357,0.01653524933339428,0.035637877996472216,9.896083904116209,0.04428920294030618,-0.03118514699999997,-0.014317709000000178,-0.0023535959999989586
151332.0,-0.6063451695,1.1853297855,9.808219064,-0.020713567562668705,0.036253979222426215,0.036437238793885614,9.898172678448406,0.055417283058230085,-0.05021004799999995,-0.007158854499999867,0.0
151342.0,-0.656653284,1.14933938,9.889614258999998,-0.019380136014145035,0.04238183022617831,0.035637877996472216,9.977807611776388,0.058667431794299646,-0.050308114500000056,-0.03599040549999999,0.08139519499999892
151352.0,-0.7189255115,1.126587952,9.962575735,-0.013519320385948075,0.029592057467563857,0.033505085650535144,10.05181424322435,0.04670174143767242,-0.062272227499999944,-0.022751428000000073,0.07296147600000147
151362.0,-0.7428537374999999,1.0978544675,9.9650273975,-0.008988445647770798,0.007742280561846846,0.029508281663468132,10.052804938923915,0.03180367510511719,-0.023928225999999997,-0.028733484500000017,0.0024516625000003955
151372.0,-0.7104917924999999,1.0631389265,9.997291275999999,-0.0071244340066408535,-0.010910053154216554,0.023380430659716036,10.078734832380258,0.026766235401651108,0.032361945,-0.03471554099999996,0.032263878499998455
151382.0,-0.689015229,1.040485565,9.960222138999999,-0.00872315560146766,-0.02556558288321294,0.01698379895115682,10.038096296359834,0.03190833587981615,0.021476563499999934,-0.02265336149999997,-0.037069136999999586
151392.0,-0.6422375085,0.9578155055,9.955416880499998,-0.0097878064451842,-0.02849599069731142,0.004728096943652638,10.021986071854462,0.03049881213323276,0.04677772049999995,-0.08267005949999995,-0.0048052585000011305
151402.0,-0.6518480255,0.972231281,9.9662041955,-0.008189084850357395,-0.015706217938696972,-0.01285958592869422,10.034708046500652,0.02188870354501769,-0.00961051699999993,0.01441577549999995,0.01078731500000174
151412.0,-0.668617397,1.0536264759999998,9.960222138999999,-0.005791002458117185,-0.005047492196767601,-0.028314476455104008,10.038087618302848,0.02933807191812353,-0.01676937150000002,0.08139519499999981,-0.00598205650000061
151422.0,-0.667440599,1.088342017,9.9518864865,-0.005525712411814048,0.003213151152921561,-0.037639770648509714,10.033444570003983,0.0381786612188276,0.0011767980000000344,0.03471554100000018,-0.008335652499999568
151432.0,-0.6530248234999999,1.1517910425,9.9183477435,-0.01005484182073933,0.005611233545161769,-0.04430169240337207,10.006332294436458,0.045773635815187674,0.014415775500000061,0.06344902549999998,-0.03353874299999937
151442.0,-0.623114541,1.1386501315,9.912365687,-0.016449728200046556,0.007475245186291714,-0.04217064538668699,9.996989014997745,0.04587849366293851,0.02991028249999994,-0.013140911000000033,-0.00598205650000061
151452.0,-0.5920274605,1.157773099,9.8979499115,-0.02284461457935378,0.014404202316709202,-0.03897320219703338,9.98300293064752,0.04741590396850788,0.031087080499999975,0.019122967499999977,-0.014415775499999839
151462.0,-0.5943810565,1.1661087515,9.9183477435,-0.026576128520117655,0.01973269252304789,-0.03737448060220657,10.004335081435572,0.049925159605269935,-0.002353595999999958,0.008335652500000013,0.02039783200000045
151472.0,-0.6051683715,1.1757192685,9.895596315499999,-0.027108453941975925,0.020799088696016425,-0.037639770648509714,9.983555027920831,0.050835250566721925,-0.010787315000000075,0.00961051700000004,-0.022751428000001184
151482.0,-0.5848686059999999,1.1158987034999999,9.8871625965,-0.030838222553487806,0.024528857307528306,-0.03923849224333652,9.967110183618217,0.05560863318408311,0.020299765500000122,-0.0598205650000001,-0.008433718999999229
151492.0,-0.575258089,1.0823599604999998,9.88118054,-0.03110525792904294,0.033323571408327736,-0.041104249213718455,9.956914874454245,0.061380426730853546,0.00961051699999993,-0.03353874300000004,-0.0059820564999988335
151502.0,-0.5716296285,1.040485565,9.8836322025,-0.031637583350901215,0.036253979222426215,-0.0429700061841004,9.954675090501317,0.06451131002550607,0.003628460499999986,-0.04187439549999983,0.002451662499998619
151512.0,-0.576434887,1.020087733,9.936293913,-0.028974210912357863,0.03492229300315454,-0.04829849639043908,10.005138324255624,0.06627077938404852,-0.00480525850000002,-0.020397832000000005,0.05266171050000068
151522.0,-0.612327226,1.0164592725,9.967380993499999,-0.024443336174180586,0.022397810290843232,-0.055492743567159705,10.037769570673413,0.06464196143186833,-0.035892338999999995,-0.003628460500000097,0.031087080499998976
151532.0,-0.6051683715,1.044015959,9.963850599499999,-0.0199142067652553,-0.0013177235852557187,-0.06481978308981741,10.036658649653635,0.06782268283065378,0.007158854499999978,0.027556686500000094,-0.0035303940000002143
151542.0,-0.575258089,1.0871652189999998,9.912365687,-0.017516124373015092,-0.02583261825876807,-0.07441211265877823,9.988385434852733,0.08069263466696867,0.02991028250000005,0.043149259999999856,-0.051484912499999425
151552.0,-0.4878808375,1.137375267,9.820183176999999,-0.018580775216731633,-0.0431515204263078,-0.07840891664584525,9.89786077086442,0.09140709563448494,0.08737725149999997,0.05021004800000006,-0.09218251000000066
151562.0,-0.4111928345,1.1672855494999999,9.7459468365,-0.020978857608971842,-0.03942175181479592,-0.07361275186136483,9.824210647227593,0.08609892112754812,0.076688003,0.02991028249999994,-0.07423634049999883
151572.0,-0.3741236975,1.1996474945,9.6884798675,-0.021512928360082104,-0.02130174352059079,-0.06348635154129374,9.769634834273184,0.07033553295218418,0.037069136999999974,0.032361945000000114,-0.057466969000000034
151582.0,-0.36814164099999996,1.2439735524999997,9.6633748435,-0.017516124373015092,-0.004782202150464463,-0.04936489256340761,9.750067273262594,0.052598257464060695,0.005982056500000055,0.04432605799999978,-0.025105024000000142
151592.0,-0.33705456049999993,1.217593664,9.668180101999999,-0.012452924212979541,0.005077162794051505,-0.03550872363182463,9.750376741032907,0.03797001919215757,0.03108708050000003,-0.026379888499999726,0.004805258499999354
151602.0,-0.3645131805,1.1972938985,9.6429770115,-0.0071244340066408535,0.013337806143740666,-0.0267157548602772,9.723856651682038,0.030698309243302174,-0.027458620000000045,-0.020299765500000122,-0.025203090499999803
151612.0,-0.3764772935,1.1685604139999999,9.6741621585,-0.002061233846605303,0.01653524933339428,-0.024582962514340133,9.75175276874072,0.029698235662566883,-0.011964112999999998,-0.028733484500000017,0.031185147000000413
151622.0,-0.3825574165,1.1325700085,9.7004439805,0.004068362486398782,0.02053205332046129,-0.02644871948472207,9.77382619140997,0.03372909054890925,-0.006080123000000048,-0.03599040549999999,0.02628182199999962
151632.0,-0.366964843,1.1541446385,9.744770038499999,0.00992917811459574,0.02746101045087878,-0.031244884269202487,9.819738089471816,0.042766090141729086,0.01559257350000004,0.02157463000000015,0.044326057999999335
151642.0,-0.3825574165,1.1757192685,9.773503522999999,0.016325809823154958,0.030391418264977262,-0.033642966661442696,9.851397722624679,0.04818733834028978,-0.01559257350000004,0.021574629999999928,0.028733484500000017
151652.0,-0.3609827865,1.206806349,9.8404829425,0.024319417797288988,0.026926939699768514,-0.030445523471789082,9.920775911075175,0.047364797720092985,0.02157463000000004,0.031087080500000086,0.06697941950000086
151662.0,-0.35019547149999997,1.2714321724999997,9.8632343705,0.025918139392115794,0.018401006303776217,-0.02165255470024165,9.95100843557776,0.03846011060290536,0.01078731500000002,0.06462582349999968,0.022751428000001184
151672.0,-0.34656701100000004,1.3061477135,9.899224775999999,0.02192133540504878,0.013070770768185535,-0.008328711190516942,9.99103506691709,0.026846925792539836,0.0036284604999999304,0.03471554100000018,0.03599040549999799
151682.0,-0.370495237,1.3217402870000001,9.911188888999998,0.016058774447599827,0.008274605983705116,0.007391469382195985,10.005794786040514,0.019518892401270988,-0.02392822599999994,0.015592573500000206,0.011964112999999443
151692.0,-0.4148212949999999,1.3169350284999999,9.913542484999999,0.012861331257946215,0.005077162794051505,0.02311339528416091,10.009231697686678,0.026933630749043043,-0.044326057999999946,-0.004805258500000242,0.002353596000000735
151702.0,-0.41727295749999993,1.2379914959999998,9.915896080999998,0.004600687908257053,0.007742280561846846,0.03377212102609028,10.001586611854153,0.034952330339026366,-0.002451662500000007,-0.07894353250000008,0.0023535959999989586
151712.0,-0.42678540800000003,1.182878123,9.902755169999999,0.0032690016889853793,0.014137166941154071,0.037236599591299026,9.982279619170935,0.03996386130352496,-0.009512450500000103,-0.055113372999999743,-0.013140910999998923
151722.0,-0.4663062075,1.14933938,9.890791057,0.002202605516016844,0.017601645506362812,0.03670252884018876,9.968258133836773,0.04076450685161955,-0.03952079949999998,-0.03353874300000004,-0.011964112999999443
151732.0,-0.5010217485,1.137375267,9.915896080999998,0.00033684854563490564,0.026127578902355116,0.030040607085326403,9.993479893392713,0.03981459431284528,-0.034715541000000016,-0.01196411300000011,0.025105023999998366
151742.0,-0.5561351215,1.157773099,9.963850599499999,0.0008709192967451705,0.03385589683018601,0.023645720706019176,10.046295018129339,0.04130496771944878,-0.055113372999999966,0.020397832000000005,0.04795451850000099
151752.0,-0.6207609449999999,1.157773099,9.976991510500001,0.00433365253270192,0.02985909284311899,0.01858426587523562,10.063107984126697,0.03543615255370764,-0.0646258234999999,0.0,0.013140911000002475
151762.0,-0.6028147755,1.124234356,10.0236711645,0.005667084081225588,0.018133970928221083,0.012986994964089806,10.10451741325634,0.023013447846998977,0.017946169499999942,-0.033538742999999815,0.046679653999998294
151772.0,-0.5824169435,1.126587952,10.005724995,0.0038013271108436495,0.008009315937401978,0.008990190977022791,10.085779225485515,0.012626272743454351,0.020397832000000005,0.002353595999999847,-0.017946169500000053
151782.0,-0.5704528305,1.133844873,10.020042704,0.0016702800941585732,0.0008150687606813518,0.01032362252554646,10.100112693323648,0.010489583153183508,0.011964112999999998,0.007256920999999972,0.014317709000000178
151792.0,-0.6003631129999999,1.1386501315,10.032006817,-0.002860594644018706,0.00028099800957108706,0.01698379895115682,10.114253346923364,0.017225312432930993,-0.02991028249999994,0.00480525850000002,0.011964112999999443
151802.0,-0.619584147,1.133844873,10.053581447,-0.00872315560146766,-0.004248131399354199,0.024979152254542846,10.13627094264477,0.026797352693675332,-0.01922103400000008,-0.00480525850000002,0.021574629999999928
151812.0,-0.6542996879999999,1.124234356,10.052404649,-0.015650367402633154,-0.008779006137531478,0.0308399678827398,10.136214786406434,0.0356806469617444,-0.03471554099999996,-0.009610516999999819,-0.0011767979999994793
151822.0,-0.6842099705,1.1086417825,9.9901324215,-0.024710371549735717,-0.008779006137531478,0.031107003258294935,10.07471963305887,0.040685612476652915,-0.02991028250000005,-0.015592573500000206,-0.06227222749999939
151832.0,-0.7224559054999999,1.0978544675,9.9518864865,-0.028707175536802732,-0.006380923745291268,0.025244442300845982,10.038290273118369,0.038756934634008006,-0.03824593499999995,-0.010787314999999964,-0.03824593500000084
151842.0,-0.7380484789999999,1.0799082979999999,9.893144653,-0.028440140161247598,-0.004248131399354199,0.01565211273188515,9.979239881605512,0.032739530017231906,-0.015592573499999984,-0.017946169500000053,-0.058741833499999174
151852.0,-0.7428537374999999,1.006946822,9.900401574,-0.025509732347149122,-0.0071802845427046715,-0.0006021385919380437,9.979164539384811,0.026507838490176655,-0.00480525850000002,-0.07296147599999991,0.00725692099999975
151862.0,-0.7297128265,1.010477216,9.845288201,-0.019647171389700166,-0.014374531719425298,-0.02165255470024165,9.92387246864668,0.03258023374403526,0.013140910999999922,0.0035303939999999923,-0.0551133729999993
151872.0,-0.6973508815,1.030875048,9.8261652335,-0.012985249634837812,-0.01757197490907891,-0.03843913144592311,9.904671867990475,0.04421490514070237,0.032361945,0.020397832000000005,-0.01912296750000131
151882.0,-0.6494944294999999,1.0607853305,9.8153779185,-0.007656759428499123,-0.01837133570649231,-0.04829849639043908,9.893874479410627,0.052238651343270784,0.047856452000000105,0.02991028249999994,-0.010787314999999964
151892.0,-0.576434887,1.1110934449999998,9.823713571,-0.004726351614400644,-0.019170696503905717,-0.05176297495564783,9.903138600843787,0.055400898731760975,0.07305954249999991,0.050308114499999945,0.008335652500001345
151902.0,-0.5345604915,1.1325700085,9.858429112,-0.002860594644018706,-0.014906857141283569,-0.04563337862264374,9.937660403714524,0.04809160671120881,0.04187439550000005,0.021476563500000045,0.03471554099999885
151912.0,-0.49023443349999996,1.1051113885,9.823713571,-0.006058037833672318,-0.005314527572322733,-0.036041049053682904,9.89782548370252,0.036931033597790916,0.044326058,-0.02745861999999999,-0.03471554099999885
151922.0,-0.472288264,1.0787315,9.811749458,-0.01218588883742441,0.006675884388878311,-0.030178488096233955,9.882162985903829,0.03322355283388982,0.017946169499999942,-0.02637988849999995,-0.01196411300000122
151932.0,-0.4950396919999999,1.0692190495,9.838129346499999,-0.016716763575601687,0.014404202316709202,-0.02911383725251741,9.90843492742086,0.03653144875842354,-0.022751427999999907,-0.009512450499999936,0.026379888499999282
151942.0,-0.5345604915,1.1110934449999998,9.829793694,-0.01431868118336148,0.01227140997077213,-0.030712558847344217,9.906822277057202,0.03603988629911445,-0.03952079950000004,0.04187439549999983,-0.008335652499999568
151952.0,-0.5369140874999999,1.1206058955,9.811749458,-0.012719959588534674,0.006410594342575173,-0.03284360586402929,9.890119399529441,0.03579937901571354,-0.002353595999999958,0.009512450500000158,-0.018044235999999714
151962.0,-0.5237731765,1.1517910425,9.8010602095,-0.0073897240529439915,-0.0021170843826691216,-0.035241688256269506,9.882395568699337,0.03607030162078056,0.013140910999999922,0.03118514699999997,-0.010689248500000303
151972.0,-0.5093574009999999,1.182878123,9.787821231999999,-0.0015271630954950383,-0.009311331559389747,-0.03737448060220657,9.872187705134838,0.03854717788391058,0.014415775500000061,0.031087080500000086,-0.01323897750000036
151982.0,-0.44600644199999995,1.1398269294999999,9.76153941,0.0008709192967451705,-0.011442378576074825,-0.037639770648509714,9.837976358403289,0.039350207907609236,0.06335095899999998,-0.043051193500000196,-0.02628182199999962
151992.0,-0.392069867,1.1325700085,9.702895643,0.0011362093430483087,-0.0031834805556376572,-0.03710744522665144,9.776636306200178,0.03726107904192108,0.05393657499999993,-0.007256920999999972,-0.058643766999999514
152002.0,-0.39452152949999997,1.1661087515,9.704072441,0.005667084081225588,0.010140362954087054,-0.033642966661442696,9.7818443454054,0.03559202169879151,-0.0024516624999999515,0.03353874300000004,0.0011767979999994793
152012.0,-0.390893069,1.161303493,9.763893006,0.012861331257946215,0.01706932008450454,-0.025117033265450398,9.840479146203297,0.03297940099413021,0.003628460499999986,-0.00480525850000002,0.05982056500000077
152022.0,-0.38373421449999995,1.1972938985,9.7783087815,0.016058774447599827,0.018933331725634488,-0.012325515177583957,9.858807597936135,0.02771774903170629,0.007158854500000034,0.03599040549999999,0.014415775499999839
152032.0,-0.40648564249999997,1.2080812134999999,9.852447055499999,0.014193017477217889,0.015203563114122605,-0.001933824811209717,9.934556043296594,0.020888507722529443,-0.022751428000000018,0.010787314999999964,0.07413827399999917
152042.0,-0.4196265535,1.226027383,9.8369525485,0.008597491895324067,0.012538445346327264,0.005527457741066041,9.921938572159613,0.016176596294408468,-0.013140911000000033,0.017946169500000053,-0.015494506999999658
152052.0,-0.42796220599999996,1.181701325,9.8404829425,0.004600687908257053,0.017601645506362812,0.011388273369263,9.920417038255227,0.021463387991971575,-0.008335652499999957,-0.044326058,0.0035303940000002143
152062.0,-0.473465062,1.160126695,9.866862831,0.004600687908257053,0.026127578902355116,0.012721704917786668,9.946107039397656,0.02942207478311501,-0.045502856000000036,-0.021574629999999928,0.02637988850000106
152072.0,-0.5058270069999999,1.1553214365,9.917170945499999,0.013927727430914751,0.023729496510114904,0.00845786555516452,9.997044970635889,0.028785518681494156,-0.03236194499999995,-0.00480525850000002,0.05030811449999817
152082.0,-0.5561351215,1.1672855494999999,9.9650273975,0.020322613810221976,0.014404202316709202,0.0036617007706841033,10.048562726099835,0.02517732569186299,-0.050308114500000056,0.011964112999999887,0.047856452000001326
152092.0,-0.551329863,1.1685604139999999,9.9877788255,0.021121974607635374,0.004012511950334963,0.000996583002888762,10.071009081820431,0.021522807464613467,0.00480525850000002,0.001274864500000028,0.022751427999999407
152102.0,-0.5465246045,1.179347729,9.976991510500001,0.0173904606668715,-0.0013177235852557187,0.0012636183784438947,10.061307559647028,0.017486030111477133,0.00480525850000002,0.010787315000000186,-0.010787314999998188
152112.0,-0.532108829,1.1865065835,9.9758147125,0.00939685269273747,0.0013473941825396225,0.005527457741066041,10.060209583140903,0.010984948825161635,0.01441577549999995,0.007158854499999867,-0.0011767980000012557
152122.0,-0.5118090635,1.1661087515,9.9303118565,0.000603883921190038,0.008009315937401978,0.009524261728133056,10.011635815647217,0.012458947750166274,0.02029976550000001,-0.020397832000000005,-0.04550285600000059
152132.0,-0.540542548,1.133844873,9.9446295655,-0.003659955441432109,0.015203563114122605,0.01085594794740473,10.023644428911243,0.01903668067272073,-0.028733484500000017,-0.03226387850000001,0.014317709000000178
152142.0,-0.5895757979999999,1.1421805255,9.963850599499999,-0.004991641660703782,0.015735888535980874,0.009257226352577924,10.046417010236798,0.018926989042860227,-0.04903324999999992,0.008335652500000013,0.019221033999999193
152152.0,-0.623114541,1.1625783575,9.948258026,-0.006058037833672318,0.00854164135926025,0.009257226352577924,10.035322512027525,0.01397697031717867,-0.03353874300000004,0.020397832000000005,-0.015592573499999318
152162.0,-0.6362554519999999,1.1888601795,9.968655858,-0.0044593162388455124,-0.000783652834145454,0.011122983322959861,10.05943880849415,0.012009178618262728,-0.013140910999999922,0.026281822000000066,0.02039783200000045
152172.0,-0.621937743,1.1506142445,9.960222138999999,-0.005525712411814048,-0.011177088529771687,0.014320426512613475,10.045732663874743,0.018987770305214684,0.014317708999999845,-0.03824593499999995,-0.008433719000001005
152182.0,-0.6075219675,1.0906956129999998,9.9303118565,-0.010587167242597603,-0.013840460968315035,0.012986994964089806,10.008486070758003,0.021732659943860477,0.014415775500000061,-0.05991863150000021,-0.029910282499999497
152192.0,-0.6290965974999999,1.0476444194999999,9.926683396,-0.011920598791121272,-0.0058468529941810045,0.00845786555516452,10.001618099243625,0.01574235862962357,-0.021574629999999928,-0.04305119349999997,-0.003628460499999875
152202.0,-0.6458659689999999,1.0536264759999998,9.911188888999998,-0.01005484182073933,0.002679080401811296,0.0012636183784438947,9.987939567011683,0.010482082199916158,-0.01676937150000002,0.005982056499999944,-0.015494507000001434
152212.0,-0.6458659689999999,1.054803274,9.938647508999999,-0.0073897240529439915,0.00854164135926025,-0.011793189755725684,10.0153116329401,0.016329328929978643,0.0,0.0011767980000001454,0.027458620000000877
152222.0,-0.6242913389999999,1.0511748134999999,9.926683396,-0.008456120225912526,0.010407398329642189,-0.023518311670623588,10.001687428074788,0.027072696450548023,0.02157463000000004,-0.003628460500000097,-0.011964112999999443
152232.0,-0.587222202,1.0607853305,9.917170945499999,-0.012985249634837812,0.004811872747748367,-0.029913198049930815,9.991014712940576,0.03296316497234396,0.03706913699999992,0.00961051700000004,-0.009512450500000824
152242.0,-0.5608423134999999,1.088342017,9.8979499115,-0.018048449794873363,0.0021467549799530253,-0.03257657048847416,9.9733868318211,0.037303994983547584,0.02637988850000006,0.027556686500000094,-0.019221033999999193
152252.0,-0.5776116849999999,1.113447041,9.857252314,-0.018847810592286768,0.0013473941825396225,-0.030977848893647353,9.936741052961908,0.036286120725196123,-0.01676937150000002,0.02510502399999992,-0.04069759749999946
152262.0,-0.5740812909999999,1.136198469,9.859703976499999,-0.015917402778188285,1.5707963267948964e-05,-0.027248080282135472,9.941543079112218,0.03155664489461587,0.0035303939999999923,0.022751428000000073,0.002451662499998619
152272.0,-0.5835937415,1.1506142445,9.864509235,-0.0073897240529439915,-0.00398284135305106,-0.02218488012209992,9.948519349238085,0.02372003273299126,-0.009512450500000047,0.014415775500000061,0.0048052585000011305
152282.0,-0.6015399109999999,1.156596301,9.8728448875,0.0008709192967451705,-0.01304110017090163,-0.017388715337619504,9.958545648871006,0.021753073695036696,-0.017946169499999942,0.005982056499999944,0.008335652499999568
152292.0,-0.587222202,1.137375267,9.865686033,0.00433365253270192,-0.023966861288386133,-0.014458307523521027,9.948377421179611,0.028323729287218526,0.014317708999999956,-0.01922103400000008,-0.007158854500000089
152302.0,-0.562117178,1.1182522995,9.8751984835,0.002202605516016844,-0.032492794684378434,-0.01392423677241076,9.954195548393674,0.03541916920474724,0.02510502399999992,-0.019122967499999977,0.009512450500000824
152312.0,-0.518967918,1.1206058955,9.8249884355,-0.0001954768762233649,-0.03329215548179183,-0.015789993742792698,9.902296856318303,0.03684738430649281,0.04314926000000008,0.002353596000000069,-0.050210048000000285
152322.0,-0.4890576354999999,1.1051113885,9.775857119,-0.0001954768762233649,-0.02130174352059079,-0.01765575071317464,9.850270603538576,0.027668177053646607,0.02991028250000005,-0.015494507000000102,-0.049131316500000466
152332.0,-0.5033753445,1.14933938,9.759087747499999,0.0011362093430483087,-0.0034487706019407953,-0.01845511151058804,9.839418753731028,0.018808937535232564,-0.014317709000000067,0.04422799150000012,-0.016769371500000574
152342.0,-0.493862894,1.180524527,9.763893006,0.004068362486398782,0.009873327578531921,-0.020320868480969978,9.847392819905904,0.022955867803562013,0.009512450499999991,0.03118514699999997,0.0048052585000011305
152352.0,-0.493862894,1.180524527,9.835775750499998,0.005932374127528726,0.014137166941154071,-0.02165255470024165,9.918670441699453,0.026530843879492196,0.0,0.0,0.0718827444999981
152362.0,-0.4878808375,1.1972938985,9.859703976499999,0.007265805676052394,0.010140362954087054,-0.019786797729859713,9.944108954310332,0.02339094391778916,0.005982056499999999,0.016769371499999908,0.023928226000000663
152372.0,-0.4794471185,1.228380979,9.876473348,0.008330456519768934,1.5707963267948964e-05,-0.01392423677241076,9.964111358408298,0.016225939795957177,0.008433719000000006,0.031087080500000086,0.016769371500000574
152382.0,-0.46865980349999997,1.2127884055,9.864509235,0.008597491895324067,-0.007712609964562942,-0.005398303376418462,9.949826137944932,0.012749231298375976,0.01078731500000002,-0.015592573499999984,-0.011964112999999443
152392.0,-0.4543420945,1.2235757205,9.877650145999999,0.008065166473465796,-0.005581562947877866,0.002595304597715568,9.963510259411867,0.010145755819098119,0.014317708999999956,0.010787314999999964,0.013140910999998923
152402.0,-0.473465062,1.1936654379999998,9.901578371999998,0.008330456519768934,-0.0002513274122871834,0.01085594794740473,9.984501019062922,0.013686171017954172,-0.019122967499999977,-0.029910282500000163,0.023928225999998887
152412.0,-0.4914112315,1.1541446385,9.907560428499998,0.004600687908257053,1.5707963267948964e-05,0.014585716558916611,9.986655520713715,0.015294106822771538,-0.017946169499999998,-0.03952079949999976,0.00598205650000061
152422.0,-0.540542548,1.136198469,9.924329799999999,-0.002860594644018706,0.00028099800957108706,0.012187634166676405,10.003772047898947,0.012521996173913705,-0.04913131650000002,-0.017946169500000053,0.016769371500000574
152432.0,-0.5812401455,1.126587952,9.913542484999999,-0.00872315560146766,-0.00451516677490933,0.00526042236551091,9.994266612525022,0.011142361424591699,-0.040697597500000016,-0.00961051700000004,-0.010787314999999964
152442.0,-0.5680992345,1.0931472755,9.9087372265,-0.008456120225912526,-0.009311331559389747,-0.003267256359733385,9.985027848233546,0.01299545415921247,0.013140911000000033,-0.03344067649999993,-0.004805258499999354
152452.0,-0.5201447159999999,1.0619621284999998,9.854898718,-0.0044593162388455124,-0.006380923745291268,-0.013391911350552491,9.925590301336692,0.01549015748087507,0.0479545185000001,-0.03118514700000019,-0.05383850850000016
152462.0,-0.5010217485,1.0715726455,9.8620575725,0.0011362093430483087,0.0016144295580947548,-0.020586158527273118,9.932747368697065,0.020680601475278712,0.019122967499999866,0.009610517000000263,0.007158854500000089
152472.0,-0.5297552329999999,1.1506142445,9.880003742,0.007798131097910664,0.00907396678111852,-0.02112022927838338,9.960874845537976,0.02427368547494439,-0.028733484499999906,0.07904159899999996,0.017946169500000053
152482.0,-0.4950396919999999,1.1325700085,9.8979499115,0.0088645272708792,0.008009315937401978,-0.01792278608872977,9.9748278968297,0.021539620393675647,0.034715541000000016,-0.018044236000000158,0.017946169500000053
152492.0,-0.5225963785,1.1398269294999999,9.9087372265,0.005400048705670455,0.013070770768185535,-0.013658946726107622,9.987761802719447,0.01966144450859887,-0.02755668650000004,0.007256920999999972,0.010787314999999964
152502.0,-0.5453478064999999,1.1900369775,9.8979499115,0.002469640891571976,0.010672688375945327,-0.00779638576865867,9.984137653720252,0.013445781284741559,-0.022751427999999962,0.05021004800000006,-0.010787314999999964
152512.0,-0.5501530649999999,1.161303493,9.911188888999998,0.0019355701404617114,0.007742280561846846,-0.002467895562319982,9.994146256245198,0.008353433340460504,-0.00480525850000002,-0.028733484500000017,0.013238977499998583
152522.0,-0.56682437,1.1433573234999999,9.929135058499998,-0.002593559268463574,0.003213151152921561,0.0020629791758572974,10.01080810152511,0.004615926027415877,-0.016671305000000025,-0.017946169500000053,0.017946169500000053
152532.0,-0.578788483,1.1278628165,9.895596315499999,-0.0071244340066408535,-0.000783652834145454,0.001530653753999027,9.976467164293878,0.0073290226220196755,-0.011964112999999998,-0.01549450699999988,-0.03353874299999937
152542.0,-0.5908506625,1.089518815,9.8477398635,-0.007923794804054257,-0.005581562947877866,-0.0008691739674931761,9.92542876518605,0.009731178367682308,-0.012062179499999992,-0.03834400150000006,-0.04785645199999955
152552.0,-0.553683459,1.0835367585,9.845288201,-0.006590363255530588,-0.006113888369736136,-0.00779638576865867,9.920197429514229,0.011899418048425139,0.03716720349999991,-0.005982056499999944,-0.002451662499998619
152562.0,-0.5596655155,1.0715726455,9.850093459499998,-0.0004625122517784973,-0.004248131399354199,-0.016322319164650972,9.924002951667658,0.016872422495953467,-0.005982056499999944,-0.011964112999999887,0.004805258499997578
152572.0,-0.5656475719999999,1.0607853305,9.884809000499999,0.013126621304249353,-0.012775810124598492,-0.020853193902828252,9.95764388143497,0.027755813934271855,-0.005982056499999944,-0.010787315000000186,0.03471554100000063
152582.0,-0.5680992345,1.1039345905,9.931488654499999,0.031246629598454482,-0.01837133570649231,-0.02405063709248186,10.00878989762519,0.04350047104868998,-0.0024516625000000625,0.04314926000000008,0.04667965400000007
152592.0,-0.5883989999999999,1.1529678405,9.9087372265,0.03977430832369878,-0.023434535866527863,-0.02271895087321019,9.992928582165247,0.051452150612851674,-0.0202997654999999,0.04903324999999992,-0.022751427999999407
152602.0,-0.5573119194999999,1.1924886399999999,9.909914024499999,0.03311238656883642,-0.027164304478039747,-0.020053833105414847,9.996950620320558,0.047291498224094584,0.031087080499999975,0.03952079949999998,0.0011767979999994793
152612.0,-0.5716296285,1.179347729,9.913542484999999,0.020854939232080243,-0.026631979056181476,-0.02138551932468652,9.999797302944518,0.04001913586784688,-0.014317709000000067,-0.01314091099999981,0.003628460499999875
152622.0,-0.5357372895,1.1350216709999998,9.924329799999999,0.006199409503083859,-0.024233896663941268,-0.022984240919513326,10.003379959602077,0.03397042473022292,0.035892338999999995,-0.044326058000000224,0.010787314999999964
152632.0,-0.5081806029999999,1.146985784,9.844111403,-0.005525712411814048,-0.0071802845427046715,-0.0267157548602772,9.923726781236883,0.028210309135610415,0.027556686500000094,0.01196411300000011,-0.08021839699999944
152642.0,-0.5225963785,1.218770462,9.8404829425,-0.013252285010392944,0.009608037532228783,-0.025382323311753534,9.929431653196394,0.030202645247060553,-0.014415775500000061,0.07178467799999999,-0.003628460499999875
152652.0,-0.5106322655,1.2200453265,9.853721919999998,-0.015917402778188285,0.021865484868984958,-0.01792278608872977,9.94208688284168,0.03244517531068759,0.011964112999999998,0.001274864500000028,0.013238977499998583
152662.0,-0.5177911199999999,1.2104348095,9.876473348,-0.013519320385948075,0.025862288856051976,-0.009128071987930343,9.963833893926296,0.030576980014197282,-0.007158854499999978,-0.00961051700000004,0.022751428000001184
152672.0,-0.532108829,1.2116116074999999,9.913542484999999,-0.010854202618152736,0.018133970928221083,-0.0008691739674931761,10.001473246238698,0.02115207033572007,-0.014317709000000067,0.0011767979999999234,0.037069136999999586
152682.0,-0.542896144,1.1984706964999998,9.963850599499999,-0.00872315560146766,0.005077162794051505,0.004993386989955777,10.050342631109435,0.011260769925550257,-0.010787314999999964,-0.013140911000000033,0.050308114499999945
152692.0,-0.563293976,1.1768960665,9.8871625965,-0.0073897240529439915,-0.006380923745291268,0.006592108584782583,9.972881663008424,0.011780496806817833,-0.020397832000000005,-0.021574629999999928,-0.07668800299999923
152702.0,-0.5488782004999999,1.1757192685,9.854898718,-0.004726351614400644,-0.01197644932718509,0.005792747787369179,9.93995029259927,0.01411841581048137,0.014415775500000061,-0.0011767979999999234,-0.03226387850000023
152712.0,-0.532108829,1.1936654379999998,9.874021685499999,0.00033684854563490564,-0.011709413951629957,0.00233001455141243,9.960134598965002,0.011943735171340512,0.016769371499999908,0.01794616949999983,0.019122967499999532
152722.0,-0.587222202,1.1888601795,9.901578371999998,0.010463248865706007,-0.02050238272317739,0.0007312929565856241,9.989968603443188,0.023029591041564164,-0.055113372999999966,-0.004805258499999798,0.02755668649999876
152732.0,-0.621937743,1.181701325,9.948258026,0.024052382421733857,-0.043418555801862935,-0.001933824811209717,10.037482868206954,0.049673209746112314,-0.03471554100000007,-0.007158854500000089,0.04667965400000185
152742.0,-0.5800633475,1.125411154,9.982973567,0.03817558672887197,-0.08258898020437168,-0.0030002209841782524,10.062941170059638,0.09103469887491047,0.04187439550000005,-0.05629017099999989,0.03471554100000063
152752.0,-0.527401637,1.113447041,9.913542484999999,0.054429838052695155,-0.11882725146352995,-0.005131268000863329,9.98980687509633,0.13080081372880017,0.052661710500000014,-0.01196411300000011,-0.06943108200000125
152762.0,-0.44600644199999995,1.1062881864999998,9.807042266,0.07334746181506169,-0.13534853816290826,-0.006997024971245267,9.879315426941554,0.1541039756008793,0.08139519500000003,-0.007158854500000089,-0.10650021899999906
152772.0,-0.35617752799999997,1.1325700085,9.71839015,0.09359851712595191,-0.1262885340158057,-0.0072640603468004,9.790642694084127,0.15736023260265086,0.08982891399999998,0.026281822000000066,-0.08865211600000045
