timestamp,ax,ay,az,gx,gy,gz,acc_mag,gyro_mag,dax,day,daz
380252.0,0.2807643895,-1.616724319,9.591295965999999,-0.10774266538411395,-0.013912019467646801,-0.08584925524709708,9.730651801059638,0.13846342786534846,0.0,0.0,0.0
380262.0,0.2807643895,-1.7663737979999998,9.536182593,-0.0832277707106016,-0.02696882760181638,-0.09730734178643986,9.702457600201532,0.13085449264437193,0.0,-0.1496494789999998,-0.0551133729999993
380272.0,0.177892631,-1.458641121,9.3985952935,-0.09308713565511756,-0.017908823454713816,-0.12075584028698368,9.512774211503004,0.15351844757364463,-0.1028717585,0.30773267699999973,-0.13758729949999982
380282.0,0.3347009645,-1.505320775,9.481167286499998,-0.10374586139704695,-0.01364498409209167,-0.10929775374764089,9.605756008034016,0.15131222132454689,0.15680833349999998,-0.04667965399999985,0.0825719929999984
380292.0,0.37422176399999996,-1.4694284359999998,9.489502939,-0.1152039479363897,-5.585053606381855e-05,-0.10636734593354243,9.609886986144337,0.15679912314920214,0.03952079949999998,0.035892339000000106,0.008335652500001345
380302.0,0.340683021,-1.4167667254999998,9.488326140999998,-0.12612796372462223,0.00793775743807021,-0.09410989859678624,9.599563835574282,0.15756885555325537,-0.03353874299999998,0.052661710500000014,-0.0011767980000012557
380312.0,0.33823135849999997,-1.468251638,9.506272310499998,-0.12346284595682688,0.0018099064343181197,-0.08451756902782541,9.624935146053787,0.1496314457840777,-0.002451662500000007,-0.05148491250000009,0.017946169500000053
380322.0,0.3131263345,-1.4718800985,9.530200536499999,-0.11173946937118096,-0.01710946265730041,-0.07439116870775431,9.64827452924214,0.13532364431052027,-0.025105023999999976,-0.003628460500000097,0.023928226000000663
380332.0,0.316754795,-1.4958083245,9.521864884,-0.09815033581515312,-0.03522947095150554,-0.06692988615547855,9.643841921814735,0.12391212089596247,0.003628460499999986,-0.023928225999999997,-0.008335652499999568
380342.0,0.3694165055,-1.5317006635,9.487149342999999,-0.08855626091694029,-0.04588819669343491,-0.06479883913879347,9.617098217939104,0.11894043676185072,0.052661710500000014,-0.035892338999999884,-0.03471554100000063
380352.0,0.39216793349999995,-1.5089492355,9.524218479999998,-0.08749161007322374,-0.042956043550084436,-0.06692988615547855,9.650982392386549,0.11823541420178262,0.022751427999999962,0.02275142799999985,0.037069136999999586
380362.0,0.41129090099999993,-1.4993387185,9.5602088855,-0.09601754346921605,-0.03069859621332826,-0.06879564312586049,9.685802534247317,0.12204348805418716,0.019122967499999977,0.00961051700000004,0.03599040550000154
380372.0,0.44237798149999996,-1.55925735,9.555403627,-0.1152039479363897,-0.005918411493512772,-0.07385884328589604,9.691889404906032,0.13697483690907422,0.03108708050000003,-0.059918631499999986,-0.004805258499999354
380382.0,0.378928956,-1.5029671789999999,9.56736774,-0.1354550032472799,0.010068804454755286,-0.07918733349223472,9.692111378189955,0.15722618265886604,-0.06344902549999998,0.05629017100000011,0.011964112999999443
380392.0,0.3694165055,-1.4766853569999998,9.556580425,-0.14424797201882733,0.010869910581420684,-0.07945436886778985,9.677050047282345,0.16504129519538824,-0.009512450499999991,0.026281822000000066,-0.010787314999999964
380402.0,0.4076624405,-1.525718607,9.501467051999999,-0.13651965409099645,-0.008316493885752979,-0.07439116870775431,9.63181613577533,0.15569465631608123,0.03824593500000001,-0.04903325000000014,-0.055113373000001076
380412.0,0.4196265535,-1.4969851225,9.4680263755,-0.12026540276717326,-0.02430370983402104,-0.06399947834138008,9.594820183231798,0.13838486420998314,0.011964112999999998,0.028733484500000017,-0.03344067649999971
380422.0,0.455616959,-1.5400363160000001,9.415266598499999,-0.1120047594174841,-0.026169466804402977,-0.05573883499169091,9.55125875415157,0.12781519804477942,0.03599040549999999,-0.043051193500000196,-0.05275977700000034
380432.0,0.44718324,-1.538859518,9.373392203,-0.11466987718527945,-0.0035203291012725624,-0.05627290574280118,9.509392349542493,0.12778189766710513,-0.008433719000000006,0.0011767980000001454,-0.04187439549999894
380442.0,0.3849110125,-1.5280722029999998,9.348287179,-0.12079947351828352,0.029787534343787225,-0.06106907052728159,9.480170585289107,0.13859740755022396,-0.0622722275,0.010787315000000186,-0.025105024000000142
380452.0,0.36578804499999995,-1.5376827199999998,9.4380180265,-0.12426220675424028,0.04923922885726403,-0.06586523531176201,9.569454180348558,0.1490094859683952,-0.019122967500000032,-0.00961051700000004,0.08973084750000027
380462.0,0.30351581749999995,-1.5472932369999999,9.509900771,-0.12266348515941349,0.044176028697228475,-0.07439116870775431,9.639732926124303,0.15010628929068087,-0.0622722275,-0.00961051700000004,0.07188274449999987
380472.0,0.2652698825,-1.5413111805,9.615224192,-0.1173349949530748,0.019928169399271254,-0.08531692982523881,9.741588398619493,0.14643637352464334,-0.03824593499999995,0.005982056499999944,0.10532342099999958
380482.0,0.273605535,-1.5185597524999999,9.635622024,-0.1112053986200707,-0.01151393707540659,-0.09517629476975478,9.758385906495468,0.14682553768103318,0.008335652500000013,0.022751428000000073,0.02039783200000045
380492.0,0.35500073,-1.492179864,9.5961012245,-0.10747563000855881,-0.03656115717077722,-0.09331053779937284,9.717910525194085,0.14695096367091673,0.08139519499999998,0.02637988849999995,-0.03952079949999998
380502.0,0.402857182,-1.4826674134999998,9.535005795,-0.10694330458670054,-0.037093482592635486,-0.08478285907412855,9.657998347423101,0.14142464438547298,0.047856451999999994,0.009512450500000158,-0.06109542949999991
380512.0,0.45081170049999997,-1.4766853569999998,9.485972545,-0.11173946937118096,-0.01924050967398549,-0.07092669014254556,9.610801525230853,0.13374042620854953,0.04795451849999999,0.005982056499999944,-0.049033250000000805
380522.0,0.44002438549999995,-1.4802157509999998,9.4464517455,-0.12000011272087012,0.009803514408452148,-0.05893627818134452,9.571839463206803,0.13405081437144306,-0.01078731500000002,-0.0035303939999999923,-0.03952079949999998
380532.0,0.35019547149999997,-1.5448415745,9.499113455999998,-0.1274596499438939,0.027389451951547013,-0.05174203100462389,9.630281865476368,0.14026183449003343,-0.08982891399999998,-0.06462582350000012,0.052661710499998904
380542.0,0.3023390195,-1.5987781495,9.555403627,-0.1285260461168624,0.025523694981165072,-0.05653819578910431,9.69294789673996,0.14271289752160626,-0.047856451999999994,-0.05393657500000004,0.05629017100000233
380552.0,0.226925881,-1.6238831734999999,9.582862247,-0.12506156755165368,0.006072000467688272,-0.07146076089365583,9.722126349807532,0.14416624159509983,-0.07541313849999998,-0.02510502399999992,0.0274586199999991
380562.0,0.238889994,-1.6478113995,9.584137111499999,-0.11973307734531499,-0.02110626664436743,-0.09837373795940839,9.72769422882869,0.15639333944368816,0.011964112999999998,-0.02392822600000022,0.0012748644999991399
380572.0,0.2891981085,-1.604760206,9.5625624815,-0.11387051638786605,-0.04322307892563958,-0.12075584028698368,9.700592357032255,0.17151297915221125,0.0503081145,0.043051193500000196,-0.02157462999999815
380582.0,0.3358777625,-1.4861978074999997,9.497936658,-0.1120047594174841,-0.04588819669343491,-0.12768479741740116,9.619376203982254,0.1759380579052373,0.046679654000000015,0.11856239850000017,-0.06462582350000012
380592.0,0.43041386849999996,-1.455110727,9.4919546015,-0.11546923798269285,-0.031232666964438528,-0.1202235148651254,9.612481754623238,0.16959456928964534,0.09453610599999995,0.031087080499999642,-0.00598205650000061
380602.0,0.4950396919999999,-1.409607871,9.4560622625,-0.12106476356458666,-0.009915215480579788,-0.09677501636458159,9.573357413097938,0.15530741214552715,0.06462582349999996,0.04550285600000015,-0.035892339000000106
380612.0,0.507003805,-1.4144131295,9.5170596255,-0.1274596499438939,0.010068804454755286,-0.06559819993620689,9.634938571392588,0.14370270359961443,0.011964113000000054,-0.00480525850000002,0.06099736300000025
380622.0,0.46875787,-1.4526590645,9.5170596255,-0.13092412850910265,0.026323055778578477,-0.04214970143566306,9.638691623539117,0.14003795207909073,-0.03824593499999995,-0.03824593499999995,0.0
380632.0,0.35500073,-1.5245418089999998,9.523041682,-0.13278988547948456,0.032719687487137696,-0.03868522287045431,9.650832923784295,0.1421276823966651,-0.11375714000000003,-0.07188274449999987,0.00598205650000061
380642.0,0.28802131049999996,-1.560434148,9.494308197499999,-0.1306570931335475,0.026323055778578477,-0.051474995629068765,9.625996008448285,0.14287706053332463,-0.06697941950000003,-0.035892339000000106,-0.028733484500001794
380652.0,0.26997707449999997,-1.5820087779999998,9.474008432,-0.12719435989759076,0.013000957598105762,-0.07385884328589604,9.608978882484429,0.14765689560517023,-0.01804423599999999,-0.021574629999999928,-0.020299765499999012
380662.0,0.2664466805,-1.5879908344999998,9.464397915,-0.12452924212979541,-0.002186897552748895,-0.09704030641088472,9.600392524134719,0.1578896314982267,-0.0035303939999999923,-0.005982056499999944,-0.009610517000000485
380672.0,0.30949787399999995,-1.5820087779999998,9.428505576,-0.12639499910017735,-0.008848819307611252,-0.11516031470508986,9.56531536878647,0.1712188525941227,0.04305119349999997,0.005982056499999944,-0.035892339000000106
380682.0,0.341859819,-1.5747518569999999,9.421346721499999,-0.12879308149241755,-0.009115854683166382,-0.12342095805477903,9.558163296036035,0.17861547954776102,0.03236194500000006,0.007256920999999972,-0.007158854500000089
380692.0,0.390893069,-1.4981619204999999,9.397320428999999,-0.1298577323361341,-0.002453932928304027,-0.11809072251918833,9.524017942902523,0.17554051150490474,0.04903324999999997,0.07658993650000001,-0.024026292500000324
380702.0,0.41129090099999993,-1.4861978074999997,9.4105594065,-0.12559563830276396,0.0034086280291449255,-0.09943838880312493,9.536066928851161,0.16023069703861748,0.02039783199999995,0.01196411300000011,0.01323897750000036
380712.0,0.44600644199999995,-1.505320775,9.369861809,-0.11466987718527945,0.005806710421385134,-0.07492523945886458,9.500485392952765,0.13710102161389276,0.034715541000000016,-0.0191229675000002,-0.04069759749999946
380722.0,0.44237798149999996,-1.5652394065,9.4356644305,-0.10134777900480672,0.009536479032897017,-0.05813691738393112,9.574833467125126,0.11722720633222503,-0.003628460499999986,-0.059918631499999986,0.0658026214999996
380732.0,0.40413204649999995,-1.5508236309999999,9.4715567695,-0.09228777485770416,0.016198400787759373,-0.04881162319052541,9.60618364822043,0.10565034848385979,-0.03824593500000001,0.014415775500000061,0.035892339000000106
380742.0,0.3729468995,-1.55925735,9.5254933445,-0.08775690011952689,0.019662879352968118,-0.05014330940979709,9.659471845266152,0.10296724635341398,-0.03118514699999997,-0.008433719000000117,0.05393657499999982
380752.0,0.3347009645,-1.5951496889999999,9.6104189335,-0.0933524257014207,0.019128808601857852,-0.06586523531176201,9.74764993951513,0.1158396129376284,-0.03824593500000001,-0.035892338999999884,0.08492558900000091
380762.0,0.33224930199999997,-1.628688432,9.6655323065,-0.10640923383559028,0.010869910581420684,-0.0914447808289909,9.80742220847075,0.14072394232108335,-0.002451662500000007,-0.03353874300000004,0.0551133729999993
380772.0,0.33705456049999993,-1.549646833,9.652293328999999,-0.12079947351828352,0.007138396640656807,-0.11329455773470791,9.781706272059013,0.165768291060736,0.004805258499999965,0.07904159899999996,-0.01323897750000036
380782.0,0.352647134,-1.4958083245,9.672691161,-0.1298577323361341,-0.001387536755335492,-0.1210228756625388,9.794016379445637,0.17751476653890172,0.01559257350000004,0.05383850849999994,0.02039783200000045
380792.0,0.401680384,-1.458641121,9.670337564999999,-0.13172348930651603,-0.014179054843201934,-0.11222990689099137,9.787972704897202,0.1736308591008262,0.04903325000000003,0.03716720349999991,-0.002353596000000735
380802.0,0.44482964399999997,-1.4192183879999998,9.590119168,-0.13252285010392945,-0.030433306167025123,-0.0898460592341641,9.704763773604151,0.16297486396323013,0.04314925999999997,0.03942273300000032,-0.08021839699999944
380812.0,0.45198849849999995,-1.4144131295,9.4931313995,-0.13172348930651603,-0.03975860036043083,-0.06666459610917541,9.608558782244666,0.15289209368735773,0.007158854499999978,0.004805258499999798,-0.09698776850000002
380822.0,0.467581072,-1.453933929,9.381825921999999,-0.13252285010392945,-0.039491564984875695,-0.048012262393112015,9.50532553674524,0.14637987171987907,0.01559257350000004,-0.03952079949999998,-0.1113054775000002
380832.0,0.4663062075,-1.5197365504999998,9.2860149515,-0.13039180308724438,-0.024036674458465905,-0.04055097984083625,9.421099423186247,0.13865123871576804,-0.0012748644999999725,-0.06580262149999982,-0.09581097049999876
380842.0,0.472288264,-1.5652394065,9.2477690165,-0.12532860292720882,0.0012758356832078548,-0.045347144625316665,9.391180031631274,0.13328634586500565,0.005982056499999999,-0.04550285600000015,-0.03824593500000084
380852.0,0.422078216,-1.6023085435,9.280032895,-0.11760203032862993,0.024192008761893403,-0.05893627818134452,9.426799733805577,0.13374967555557038,-0.05021004800000001,-0.03706913700000003,0.03226387850000023
380862.0,0.39814998999999995,-1.5951496889999999,9.3662333485,-0.10774266538411395,0.028188812748960415,-0.07039436472068729,9.509434950795304,0.1317514997739997,-0.023928226000000052,0.007158854500000089,0.08620045350000005
380872.0,0.37422176399999996,-1.5795571154999999,9.441646487,-0.09468585724994437,0.017264796960727906,-0.07758861189740791,9.580173849949562,0.12362636237234594,-0.023928225999999997,0.015592573499999984,0.07541313850000009
380882.0,0.38020382049999996,-1.535329124,9.519511288,-0.08749161007322374,0.003940953451003196,-0.0829188474329986,9.650019980626197,0.12060616985430264,0.005982056499999999,0.0442279914999999,0.07786480100000048
380892.0,0.3694165055,-1.4993387185,9.5027419165,-0.08775690011952689,-0.007250097712784445,-0.08185245126003006,9.627387448261087,0.12022338047446984,-0.010787314999999964,0.03599040549999999,-0.016769371500000574
380902.0,0.3968751255,-1.4491286705,9.5374574575,-0.09228777485770416,-0.012313297872819996,-0.0751905295051677,9.65508045137523,0.11967567179656265,0.02745861999999999,0.05021004800000006,0.03471554100000063
380912.0,0.456793757,-1.4514822665,9.524218479999998,-0.10294650059963353,-0.009915215480579788,-0.0634671529195218,9.645009018200637,0.12134402739091299,0.05991863150000004,-0.002353596000000069,-0.013238977500002136
380922.0,0.45797055499999995,-1.479038953,9.447628543499999,-0.11360348101231092,-5.585053606381855e-05,-0.05653819578910431,9.573660655658015,0.12689492346222508,0.0011767979999999234,-0.027556686500000094,-0.07658993649999957
380932.0,0.4531652965,-1.5185597524999999,9.451257003999999,-0.12026540276717326,0.016198400787759373,-0.05467243881872237,9.583195785515594,0.13309857571446146,-0.004805258499999965,-0.03952079949999976,0.003628460499999875
380942.0,0.434042329,-1.5436647764999998,9.4488053415,-0.11866668117234647,0.027122416575991883,-0.054407148772419235,9.583904009699255,0.1333324586847671,-0.019122967499999977,-0.02510502399999992,-0.002451662499998619
380952.0,0.38020382049999996,-1.5760267215,9.521864884,-0.1120047594174841,0.02872288350007068,-0.05520650956983264,9.658898800647886,0.12813207587333916,-0.05383850850000005,-0.032361945000000114,0.07305954249999935
380962.0,0.3609827865,-1.5675930024999998,9.582862247,-0.10747563000855881,0.02339264796448,-0.062400756746553265,9.716939087933717,0.12645980178329091,-0.01922103399999997,0.008433719000000117,0.06099736300000025
380972.0,0.29753376099999995,-1.546116439,9.645134474499999,-0.10587690841373201,0.008470082859928481,-0.0711937255181007,9.772800080482012,0.1278679341823059,-0.06344902550000003,0.021476563499999823,0.06227222749999939
380982.0,0.316754795,-1.549646833,9.6188526525,-0.10774266538411395,-0.01764178807915868,-0.07545756488072285,9.748028788308368,0.13271608315660763,0.019221034000000026,-0.0035303939999999923,-0.02628182199999962
380992.0,0.37422176399999996,-1.535329124,9.566190942,-0.10907435160338563,-0.04135732195525763,-0.07465820408330943,9.695838622133556,0.13849725518563502,0.05746696899999998,0.014317708999999956,-0.052661710499998904
381002.0,0.42325501399999993,-1.511400898,9.484795747,-0.11387051638786605,-0.042690753503781306,-0.06772924695289195,9.613783222210735,0.13919858415215908,0.04903324999999997,0.023928225999999997,-0.0813951950000007
381012.0,0.4531652965,-1.5556288895,9.4237003175,-0.12266348515941349,-0.017908823454713816,-0.059470348932454786,9.561980323230566,0.1374910140741339,0.02991028250000005,-0.0442279914999999,-0.06109542949999991
381022.0,0.4280602725,-1.572398261,9.3805510575,-0.13358924627689797,0.016730726209617644,-0.051474995629068765,9.52105088897507,0.14413770879039092,-0.025105023999999976,-0.01676937150000013,-0.043149259999999856
381032.0,0.37657535999999997,-1.5951496889999999,9.400948889499999,-0.1383854110613784,0.045242424870197015,-0.04614650542273008,9.542753876898805,0.1527314603003983,-0.051484912500000035,-0.02275142799999985,0.020397831999998672
381042.0,0.32146198699999995,-1.6394757469999999,9.428505576,-0.13651965409099645,0.05963091922363826,-0.04667883084458835,9.575381764230096,0.15611654534225092,-0.05511337300000002,-0.044326058,0.027556686500000538
381052.0,0.22457228499999998,-1.632218826,9.49675986,-0.1285260461168624,0.0529707427980279,-0.05920331355689965,9.638621210818805,0.15109558715966936,-0.09688970199999997,0.007256920999999972,0.068254284
381062.0,0.177892631,-1.6370240845,9.519511288,-0.11840139112604332,0.022326251791511462,-0.07625692567813624,9.660879297649702,0.14259196910598104,-0.04667965399999999,-0.00480525850000002,0.022751428000001184
381072.0,0.191033542,-1.607113802,9.5505983685,-0.10534458299187374,-0.01337969404578853,-0.0898460592341641,9.686755792479895,0.13910000624874036,0.013140911000000005,0.02991028249999994,0.031087080499998976
381082.0,0.2795875915,-1.5772035194999998,9.5158828275,-0.0933524257014207,-0.045621161317879785,-0.09544158481605791,9.649754719678286,0.14108529993068752,0.08855404950000001,0.029910282500000163,-0.03471554099999885
381092.0,0.38373421449999995,-1.5712214629999999,9.462044319,-0.08429416688357014,-0.05654517710611229,-0.09171181620454603,9.59928494878082,0.13679883353337927,0.10414662299999994,0.005982056499999944,-0.05383850850000016
381102.0,0.47473992649999996,-1.538859518,9.458415858499999,-0.0832277707106016,-0.0418896473771159,-0.0813201258381718,9.59453475507159,0.12367120619275808,0.09100571200000002,0.03236194499999989,-0.003628460500001651
381112.0,0.5166143219999999,-1.5305238654999997,9.440469688999999,-0.09148841406029076,-0.008848819307611252,-0.06852860775030535,9.577675167256839,0.11464990881200547,0.04187439549999994,0.008335652500000235,-0.017946169500000053
381122.0,0.514260726,-1.5173829545,9.452433802,-0.10267946522407839,0.024459044137448534,-0.06000267435431306,9.58725299061756,0.12141514876031786,-0.002353595999999958,0.01314091099999981,0.01196411300000122
381132.0,0.4663062075,-1.5209133485,9.5254933445,-0.1120047594174841,0.048706903435405756,-0.057871627337627976,9.657413854076685,0.13515381542945698,-0.04795451849999993,-0.0035303939999999923,0.07305954249999935
381142.0,0.37059330349999997,-1.4898262679999998,9.590119168,-0.11840139112604332,0.04897393881096089,-0.06293308216841154,9.71222463505982,0.14275121342551897,-0.09571290400000004,0.031087080500000086,0.06462582350000012
381152.0,0.33224930199999997,-1.4981619204999999,9.640329216,-0.12346284595682688,0.027656487327102148,-0.07545756488072285,9.761702009976483,0.14731530715021376,-0.0383440015,-0.008335652500000013,0.050210048000000285
381162.0,0.352647134,-1.481392549,9.637975619999999,-0.12293052053496861,-0.0035203291012725624,-0.08584925524709708,9.757533394104552,0.14998133291333568,0.020397832000000005,0.016769371499999908,-0.002353596000000735
381172.0,0.40050358599999997,-1.4526590645,9.5864907075,-0.1189337165479016,-0.02830051382108805,-0.08744797684192389,9.704196286403976,0.1503106671802765,0.047856451999999994,0.028733484500000017,-0.051484912499999425
381182.0,0.4315906665,-1.4418717495,9.4907778035,-0.1152039479363897,-0.03736051796819062,-0.08398349827671514,9.60937708495324,0.1473804122187779,0.03108708050000003,0.010787314999999964,-0.0957129039999991
381192.0,0.479545185,-1.4526590645,9.465574712999999,-0.11387051638786605,-0.031497957010741665,-0.0751905295051677,9.588393326804846,0.140043677206639,0.04795451849999999,-0.010787314999999964,-0.02520309050000158
381202.0,0.5106322655,-1.477862155,9.447628543499999,-0.1120047594174841,-0.01604306648433188,-0.06506587451434862,9.576142592699151,0.13052208296187331,0.031087080499999975,-0.025203090500000025,-0.017946169500000053
381212.0,0.5250480409999999,-1.4802157509999998,9.362604888,-0.11094010857376756,0.006606071218798537,-0.05573883499169091,9.493423218400617,0.12433087144204417,0.01441577549999995,-0.002353595999999847,-0.0850236554999988
381222.0,0.47836838699999995,-1.4826674134999998,9.3291642115,-0.11227179479303923,0.03485073450382277,-0.047478191642001746,9.458353126092733,0.12678212919453946,-0.04667965399999996,-0.0024516624999999515,-0.03344067649999971
381232.0,0.4292370705,-1.525718607,9.3889847765,-0.11973307734531499,0.06176371156957534,-0.048277552439415145,9.521822139894558,0.14311354913833055,-0.049131316499999966,-0.043051193500000196,0.05982056499999899
381242.0,0.35500073,-1.5365059220000001,9.4464517455,-0.12692732452203562,0.07615220592301658,-0.05867098813504138,9.577177378888917,0.15922307943889866,-0.0742363405,-0.010787315000000186,0.057466969000000034
381252.0,0.2772339955,-1.5340542595,9.511077569,-0.12879308149241755,0.07295476273336297,-0.07172605093995897,9.637986183995386,0.16448307399010814,-0.07776673449999999,0.0024516625000001735,0.06462582350000012
381262.0,0.24006679199999997,-1.5280722029999998,9.591295965999999,-0.12479627750535054,0.04284434247795681,-0.0829188474329986,9.715224908853644,0.15583736336699813,-0.03716720350000002,0.005982056500000166,0.08021839699999944
381272.0,0.3011622215,-1.501790381,9.624834709,-0.11626859878010624,-0.005918411493512772,-0.0829188474329986,9.745948707421666,0.142929877620156,0.06109542950000002,0.026281821999999844,0.03353874300000115
381282.0,0.3574523925,-1.46707484,9.5649160775,-0.10401115144335006,-0.046420522115293184,-0.06959500392327389,9.683372365487294,0.13347902108237245,0.056290171,0.03471554099999996,-0.05991863150000043
381292.0,0.399326788,-1.4981619204999999,9.536182593,-0.09654986889107432,-0.054414130089427214,-0.0541401133968641,9.661404114862748,0.12334474700974522,0.041874395499999995,-0.031087080499999864,-0.028733484500000017
381302.0,0.3729468995,-1.4958083245,9.488326140999998,-0.09974905740997993,-0.019774580425095754,-0.04508010924976154,9.612744919713311,0.11123454829835237,-0.026379888500000004,0.002353595999999847,-0.047856452000001326
381312.0,0.33950622299999994,-1.5448415745,9.508723973,-0.11573627335824797,0.024459044137448534,-0.04294906223307646,9.639379210325957,0.1258481297345075,-0.033440676500000044,-0.04903324999999992,0.020397832000002225
381322.0,0.319108391,-1.5891676325,9.5733497965,-0.13465564244986652,0.0513720212032011,-0.04961098398793881,9.70959887202035,0.15242203363798804,-0.02039783199999995,-0.044326058,0.06462582350000012
381332.0,0.2544825675,-1.6034853414999999,9.624834709,-0.14131581887547687,0.04950626423281916,-0.06160139594913986,9.760807845313721,0.16191282483367092,-0.06462582350000001,-0.014317708999999956,0.051484912499999425
381342.0,0.22212062249999998,-1.583185576,9.624834709,-0.13785308563952012,0.026323055778578477,-0.0727924471129275,9.756703199060908,0.1580984403545695,-0.032361945,0.0202997654999999,0.0
381352.0,0.169458912,-1.535329124,9.558934021,-0.12905837153872068,-0.00618370153981591,-0.07812268264851818,9.682931966077737,0.15098826104423177,-0.052661710499999986,0.047856451999999994,-0.06590068799999926
381362.0,0.19338713800000001,-1.5448415745,9.513431164999998,-0.11946604196975986,-0.0333637139811236,-0.08158541588447493,9.6399847824901,0.14846364093466582,0.023928226000000025,-0.009512450499999936,-0.04550285600000237
381372.0,0.3011622215,-1.6034853414999999,9.4021256875,-0.11706795957751964,-0.04775220833456486,-0.09037838465602237,9.542632308100922,0.15541374769788996,0.10777508349999998,-0.05864376699999996,-0.11130547749999842
381382.0,0.3574523925,-1.596326487,9.323182155,-0.12053243814272839,-0.03629412179522208,-0.09650798098902645,9.465609117289398,0.15861627380598547,0.056290171,0.007158854499999867,-0.0789435325000003
381392.0,0.37775215799999995,-1.5795571154999999,9.303961121,-0.12293052053496861,-0.009382890058721515,-0.09490925939419964,9.444648744928523,0.15558829976449987,0.020299765499999955,0.01676937150000013,-0.019221033999999193
381402.0,0.4160961595,-1.572398261,9.314748436,-0.12239819511311034,0.01353328301996403,-0.0898460592341641,9.455691975266058,0.1524361580339599,0.03834400150000006,0.007158854499999867,0.010787314999999964
381412.0,0.402857182,-1.5580805519999998,9.357897695999998,-0.1128041202148975,0.02286032254262173,-0.07892204344593158,9.495270307074554,0.1395566294587658,-0.013238977500000026,0.014317709000000178,0.04314925999999808
381422.0,0.3849110125,-1.5783803175,9.394966833,-0.09868266123701139,0.018596483179999578,-0.07092669014254556,9.534403112276364,0.12294182441325421,-0.017946169499999998,-0.020299765500000122,0.03706913700000136
381432.0,0.37775215799999995,-1.6238831734999999,9.454787397999999,-0.08216137453763306,0.01353328301996403,-0.07146076089365583,9.60066133114952,0.10972821680275277,-0.007158854500000034,-0.045502855999999925,0.05982056499999899
381442.0,0.37657535999999997,-1.6717396255,9.524218479999998,-0.07629881358018412,0.016198400787759373,-0.08931373381230583,9.677151442030837,0.1185784136734844,-0.001176797999999979,-0.047856452000000216,0.06943108199999948
381452.0,0.36814164099999996,-1.5879908344999998,9.598454820499999,-0.07949625676983772,0.022326251791511462,-0.10663263597984557,9.735891232931571,0.13486524910251785,-0.008433719000000006,0.08374879100000032,0.07423634050000061
381462.0,0.388539473,-1.5125776959999997,9.682301678,-0.08615817852470008,0.013800318395519163,-0.11196287151543624,9.807436973660213,0.14194845935230815,0.02039783200000006,0.07541313850000009,0.08384685750000109
381472.0,0.4196265535,-1.443146614,9.73015813,-0.09441882187438924,-0.00272096830385916,-0.10636734593354243,9.845543957989678,0.14225445467050982,0.031087080499999975,0.0694310819999997,0.04785645199999955
381482.0,0.42325501399999993,-1.3820511844999999,9.702601443499999,-0.10161306905110987,-0.022172662817335962,-0.08877966306119557,9.809673035064026,0.1367430852060034,0.0036284604999999304,0.06109542950000013,-0.027556686500000538
381492.0,0.43286553099999997,-1.3808743864999997,9.641604080499999,-0.10827499080597223,-0.03576179637336381,-0.07092669014254556,9.749600806409147,0.13428691331794018,0.00961051700000004,0.0011767980000001454,-0.06099736300000025
381502.0,0.460324151,-1.4263772424999999,9.5182364235,-0.11786732037493307,-0.0333637139811236,-0.05893627818134452,9.635521520683653,0.13593869025722646,0.027458620000000045,-0.04550285600000015,-0.1233676569999993
381512.0,0.471111466,-1.446677008,9.4129130025,-0.12053243814272839,-0.014179054843201934,-0.05547179961613578,9.535080050608178,0.1334400044721593,0.010787314999999964,-0.020299765500000122,-0.10532342099999958
381522.0,0.48670403949999996,-1.468251638,9.3674101465,-0.1160033087338031,0.007405432016211941,-0.0533407525994507,9.494262296108447,0.1278938776815082,0.015592573499999984,-0.021574629999999928,-0.04550285600000059
381532.0,0.456793757,-1.4658980419999998,9.390161574499999,-0.10827499080597223,0.02072753019668466,-0.04614650542273008,9.514864791534869,0.11950984940505072,-0.02991028249999994,0.002353596000000069,0.022751427999999407
381542.0,0.4280602725,-1.4861978074999997,9.418895058999999,-0.1010807436292516,0.016198400787759373,-0.03788586207304091,9.545030311757275,0.10915605098088173,-0.028733484500000017,-0.0202997654999999,0.028733484500000017
381552.0,0.39452152949999997,-1.5795571154999999,9.4488053415,-0.10774266538411395,0.009536479032897017,-0.04135034063824966,9.588043090220477,0.11579843283618874,-0.03353874300000004,-0.09335930800000014,0.029910282500001273
381562.0,0.3334261,-1.5616109459999998,9.4595926565,-0.12186412436200007,0.011934561425137226,-0.054939474194277506,9.593419355878119,0.1342074677045621,-0.061095429499999965,0.017946169500000053,0.010787314999999964
381572.0,0.2784107935,-1.5640626084999998,9.489502939,-0.1298577323361341,0.008737118235483614,-0.06932796854771876,9.621562785875003,0.1474643519820887,-0.05501530650000003,-0.0024516624999999515,0.029910282499999497
381582.0,0.274782333,-1.5868140365,9.5386342555,-0.1274596499438939,0.0036739180754480636,-0.08052076504075839,9.673625358528227,0.15080800257477747,-0.003628460499999986,-0.022751428000000296,0.049131316500000466
381592.0,0.3046926155,-1.5999549475,9.5864907075,-0.1120047594174841,-0.009915215480579788,-0.08718094146636875,9.723862273240702,0.142281039443621,0.029910282499999996,-0.01314091099999981,0.04785645199999955
381602.0,0.331072504,-1.5987781495,9.5721729985,-0.09361946107697583,-0.026701792226261248,-0.08691565142006562,9.710416905953933,0.13050639701643812,0.026379888500000004,0.0011767979999999234,-0.014317709000000178
381612.0,0.3347009645,-1.5616109459999998,9.557757223,-0.084027131508015,-0.043490114301194704,-0.08371820823041201,9.690272267388202,0.12633561358819947,0.003628460499999986,0.037167203500000134,-0.014415775499999839
381622.0,0.35147033599999994,-1.5065956394999998,9.5409878515,-0.08162904911577479,-0.04828627908567512,-0.07652396105369139,9.665599360645928,0.12186378880878501,0.016769371499999963,0.05501530650000008,-0.016769371499998798
381632.0,0.36461124699999997,-1.5568056875,9.532652199,-0.08615817852470008,-0.03656115717077722,-0.06959500392327389,9.665818292165996,0.1166336765751679,0.013140911000000033,-0.050210048000000285,-0.008335652500001345
381642.0,0.3478418755,-1.5783803175,9.4680263755,-0.09575050809366092,-0.02830051382108805,-0.06906267850141562,9.604988383344688,0.12140318136079349,-0.016769371499999963,-0.021574629999999928,-0.06462582350000012
381652.0,0.3143031325,-1.5652394065,9.430859172,-0.09388649645253097,-0.01631010185988701,-0.06959500392327389,9.565033485610822,0.11800067037899195,-0.03353874299999998,0.013140911000000033,-0.037167203499999246
381662.0,0.3586291905,-1.5556288895,9.4380180265,-0.08269544528874333,-0.010981611653548322,-0.07572460025627797,9.5720833890363,0.11266475735555456,0.044326057999999946,0.00961051700000004,0.007158854500000089
381672.0,0.37059330349999997,-1.5328774615,9.464397915,-0.06910456640346349,-0.010981611653548322,-0.07705628647554966,9.594888253754187,0.10408510065192818,0.011964112999999998,0.02275142799999985,0.026379888499999282
381682.0,0.37059330349999997,-1.4826674134999998,9.500290254,-0.05897991141264438,-0.01071457627799319,-0.07359180791034091,9.622429888853501,0.0949167334381711,0.0,0.050210048000000285,0.035892339000000106
381692.0,0.37177010149999995,-1.5173829545,9.513431164999998,-0.061643283851187725,-0.010447540902438057,-0.07465820408330943,9.640852481506482,0.09738014680524619,0.001176797999999979,-0.03471554100000018,0.013140910999998923
381702.0,0.35500073,-1.560434148,9.536182593,-0.07709817437759751,-0.012046262497264863,-0.08611629062265222,9.669527325344358,0.11621211831438467,-0.016769371499999963,-0.04305119349999997,0.022751428000001184
381712.0,0.329895706,-1.5795571154999999,9.523041682,-0.0949511472962475,-0.012845623294678265,-0.10050478497609346,9.658786400737586,0.13885943329062397,-0.025105023999999976,-0.019122967499999977,-0.013140910999998923
