timestamp,ax,ay,az,gx,gy,gz,acc_mag,gyro_mag,dax,day,daz
344372.0,-0.1305265115,-0.6560648849999999,10.082707197499998,-0.15369892991837664,0.16120908168970824,-0.018797196043978927,10.104872227497617,0.2235286640599117,0.0,0.0,0.0
344382.0,-0.09228057649999999,-0.17122410899999999,9.969048123999999,-0.12465490583593901,0.06528404067084789,-0.04384441613934956,9.970945486709368,0.1473878704028259,0.03824593500000001,0.484840776,-0.11365907349999915
344392.0,0.12081792799999999,-0.5674127689999999,9.915111549,-0.10626786216617874,0.05329188338039486,-0.07129146395621237,9.932068830372836,0.13861946543187756,0.21309850449999998,-0.39618865999999997,-0.053936574999998044
344402.0,0.117287534,-0.470523067,9.899617042,-0.10253809355466686,0.05888740896228868,-0.06729465996914537,9.911486563602239,0.13605277955440803,-0.0035303939999999923,0.09688970199999991,-0.015494507000001434
344412.0,0.1340569055,-0.360296321,9.775072586999999,-0.10733425833914728,0.08899782921769485,-0.05077337326976704,9.782628929585197,0.14838865203197946,0.01676937149999999,0.11022674600000004,-0.12454445500000055
344422.0,0.107677017,-0.44531997649999994,9.818221846999998,-0.1036027443983834,0.10978295527969532,-0.02652551397180982,9.828905557505783,0.15326261386355455,-0.02637988849999999,-0.08502365549999996,0.043149259999999856
344432.0,0.0646258235,-0.5375024865,9.8744139515,-0.07295999872111895,0.0940610293777304,-0.011869984242813436,9.889243464776998,0.11963082874789667,-0.0430511935,-0.09218251000000005,0.056192104500000895
344442.0,-0.014415775499999998,-0.5363256885,9.9067758965,-0.0281940487367164,0.04689699700108763,-0.007073819458333018,9.921293349266598,0.0551749185193549,-0.07904159899999999,0.0011767980000000344,0.03236194499999989
344452.0,-0.033538742999999996,-0.5386792844999999,9.8840244685,0.008311257897996997,-0.015187855150854655,-0.008672541053159824,9.898749411553874,0.019363907669917822,-0.019122967499999997,-0.002353595999999958,-0.022751427999999407
344462.0,-0.008433719,-0.5698644315,9.868431894999999,0.03335847799336762,-0.06261892290305256,-0.01586678822988045,9.88487555127318,0.07270263082106661,0.025105023999999997,-0.03118514700000008,-0.015592573500001095
344472.0,0.0812971285,-0.541130947,9.8157701845,0.04108505059194652,-0.07674038188093867,-0.02439272162587275,9.831010946989258,0.09039951582664824,0.08973084749999999,0.028733484500000017,-0.052661710499998904
344482.0,0.152003075,-0.5004333495,9.749967563,0.029626964052603743,-0.06128723668378088,-0.02918888641035317,9.763985147041828,0.07406668258525254,0.07070594649999999,0.040697597500000016,-0.0658026214999996
344492.0,0.21898249449999999,-0.4812123155,9.7008362465,0.007244861725028463,-0.024514894673512352,-0.028124235566636624,9.715232498859434,0.03800579835335465,0.0669794195,0.01922103399999997,-0.049131316500000466
344502.0,0.21182364,-0.48248717999999996,9.6614135135,-0.006344271830999388,0.012524482712311309,-0.02146231381177427,9.675772538261096,0.025646507879859077,-0.007158854499999978,-0.0012748644999999725,-0.03942273300000032
344512.0,0.2058415835,-0.43816112199999996,9.66739557,-0.0036808993924560413,0.03570594583729999,-0.014268066635053644,9.679508925208227,0.038626950617100426,-0.005982056499999999,0.044326058,0.00598205650000061
344522.0,0.18907221199999996,-0.42855060500000003,9.6506261985,0.0091106186954104,0.04183379684105209,-0.004675737066092809,9.661986852897854,0.043068926713615875,-0.016769371500000047,0.00961051699999993,-0.016769371500000574
344532.0,0.17230284049999997,-0.4190381544999999,9.7188804825,0.025897195441091862,0.0373046674321268,0.004916592502868027,9.729435701873493,0.04567795776712165,-0.01676937149999999,0.009512450500000103,0.068254284
344542.0,0.152003075,-0.4668946065,9.7343749895,0.03922103895081657,0.022116812281272148,0.011313224211427244,9.74675084038734,0.0464266337776553,-0.020299765499999983,-0.04785645200000005,0.015494506999999658
344552.0,0.1568083335,-0.49199963049999995,9.803806071499999,0.04774697234680887,0.0063948863793072235,0.012644910430698918,9.817396089465241,0.0498052376752845,0.00480525850000002,-0.025105023999999976,0.06943108199999948
344562.0,0.1603387275,-0.46091255,9.806257733999999,0.04987801936349395,-0.006127851003752092,0.010513863414013842,9.81839292511349,0.05134110144355886,0.0035303939999999923,0.031087080499999975,0.0024516625000003955
344572.0,0.14837461449999997,-0.44051471799999997,9.80861133,0.04881336851977741,-0.0101264003200711,0.009714502616600437,9.819619364619333,0.050790358246205244,-0.011964113000000026,0.020397832000000005,0.002353596000000735
344582.0,0.167497582,-0.435807526,9.850485725499999,0.043483132984186726,-0.009060004147102564,0.011313224211427244,9.861544132029898,0.0458350910474061,0.019122967500000032,0.004707191999999971,0.04187439549999894
344592.0,0.154356671,-0.4345326615,9.8481321295,0.039486328997119714,-0.007194247176720627,0.012644910430698918,9.858922408452289,0.04208112557797056,-0.013140911000000005,0.001274864500000028,-0.0023535959999989586
344602.0,0.154356671,-0.43816112199999996,9.849308927500001,0.03442312883708416,-0.0013316862192716736,0.012644910430698918,9.860258490528821,0.036696306992959,0.0,-0.003628460499999986,0.0011767980000012557
344612.0,0.16151552549999998,-0.45973575199999994,9.868431894999999,0.022966787626993383,0.008260643349689161,0.011845549633285515,9.880455065071537,0.027129847190295982,0.007158854499999978,-0.021574629999999984,0.019122967499997756
344622.0,0.11964113,-0.47650512349999996,9.92236847,0.010709340290237207,0.019451694513476805,0.010513863414013842,9.934524004055735,0.024568266377305917,-0.04187439549999998,-0.01676937150000002,0.053936575000001596
344632.0,0.093359308,-0.48248717999999996,9.9426682355,0.006712536303170191,0.019718729889031932,0.006250024051391694,9.954805948911071,0.021747396457989027,-0.026281821999999996,-0.005982056499999999,0.020299765499999012
344642.0,0.0909076455,-0.4896460345,9.9307041225,0.004314453910929983,0.01332384350972471,0.0038519416591514853,9.943183685709041,0.014525039516871513,-0.002451662500000007,-0.007158854500000034,-0.011964112999999443
344652.0,0.0897308475,-0.472876663,9.9403146395,0.005113814708343385,0.0010663961729685354,0.006517059426946826,9.951960565419313,0.008352267072079747,-0.0011767979999999928,0.01676937150000002,0.009610517000000485
344662.0,0.1005181625,-0.436984324,9.9163864135,0.005379104754646523,-0.005328490206338688,0.012377875055143785,9.926518961965543,0.014509974731930409,0.010787314999999992,0.035892338999999995,-0.023928226000000663
344672.0,0.0920844435,-0.43933792,9.9067758965,0.0013823007675795092,-0.007726572598578897,0.020106192982974676,9.916940355581351,0.02158401435789416,-0.008433718999999992,-0.0023535960000000133,-0.009610517000000485
344682.0,0.075315072,-0.44414317849999996,9.8840244685,-0.005811946409141118,-0.0063948863793072235,0.02197020462410462,9.894284977550685,0.02360854049050905,-0.016769371500000005,-0.004805258499999965,-0.022751427999999407
344692.0,0.046581587499999993,-0.448948437,9.8589194445,-0.010875146569176666,-0.005862560957448953,0.018240436012592738,9.869246027763163,0.022030704478304134,-0.028733484500000003,-0.00480525850000002,-0.025105024000000142
344702.0,0.043051193499999994,-0.44531997649999994,9.843326871,-0.013805554383275147,-0.006661921754862355,0.014243632025525725,9.85348908641413,0.020924999081865167,-0.003530393999999999,0.0036284605000000414,-0.015592573499999318
344712.0,0.026281822,-0.44531997649999994,9.856467782,-0.01407258975883028,-0.010391690366374239,0.009447467241045306,9.866557543198216,0.01988164099015859,-0.016769371499999994,0.0,0.013140910999998923
344722.0,0.016671304999999997,-0.46924820249999993,9.827734297500001,-0.012473868164003473,-0.0186523337160634,0.00731642022436023,9.838944721372192,0.023601630132848075,-0.009610517000000002,-0.023928225999999997,-0.02873348449999824
344732.0,0.019122967499999997,-0.470523067,9.8049828695,-0.008210028801381325,-0.024514894673512352,0.0038519416591514853,9.816284771523977,0.0261385173320604,0.0024516625,-0.0012748645000000836,-0.022751428000001184
344742.0,0.023928225999999997,-0.4968048889999999,9.8122397905,-0.004480260189869444,-0.023181463124988685,0.0003874630939427412,9.824837777999456,0.02361362089204675,0.0048052584999999995,-0.0262818219999999,0.00725692099999975
344752.0,0.050210048,-0.472876663,9.761931676,-0.002881538595042638,-0.017585937543094867,-0.004141666314982544,9.773507222805042,0.018295405538249623,0.026281822000000003,0.02392822599999994,-0.050308114499999945
344762.0,0.08737725149999999,-0.46444294399999997,9.7810546435,-0.003146828641345776,-0.00799360797413403,-0.007073819458333018,9.792465061027482,0.01112830717904678,0.03716720349999999,0.008433719000000006,0.019122967499999532
344772.0,0.083748791,-0.4561072915,9.755949619499999,-0.0034138640169009086,0.006661921754862355,-0.005740387909809351,9.766964763915942,0.00943333039540567,-0.003628460499999986,0.008335652499999957,-0.025105024000000142
344782.0,0.07060788,-0.45728408949999994,9.810964925999999,5.061454830783555e-05,0.009060004147102564,-0.0028099800957108708,9.821869831678187,0.009485896115618564,-0.013140911000000005,-0.0011767979999999234,0.05501530649999964
344792.0,0.05266171049999999,-0.487194372,9.8157701845,0.006178465552059927,-0.0005323254218582705,-0.0028099800957108708,9.827994501767918,0.006808288703561199,-0.017946169500000005,-0.02991028250000005,0.0048052585000011305
344802.0,0.058643767,-0.5112206645,9.843326871,0.010709340290237207,-0.016786576745681462,-0.006806784082777886,9.856767702881632,0.021043085273797422,0.005982056500000006,-0.024026292500000046,0.027556686500000538
344812.0,0.06580262149999999,-0.48003551749999995,9.831362758000001,0.015238469699162491,-0.02664594169019743,-0.0108035880698449,9.843295066310223,0.032541276596233744,0.007158854499999992,0.03118514700000008,-0.011964112999999443
344822.0,0.0993413645,-0.46091255,9.809788128000001,0.013906783479890817,-0.02744530248761083,-0.011070623445400031,9.821112574535432,0.032698653777531304,0.03353874300000001,0.019122967499999977,-0.021574629999999928
344832.0,0.110030613,-0.45846088749999997,9.8049828695,0.008311257897996997,-0.019984019935335072,-0.010004227272431498,9.816312046402809,0.023843712461387997,0.010689248499999998,0.002451662500000007,-0.0048052585000011305
344842.0,0.129251647,-0.45973575199999994,9.8026292735,0.006445500927615059,-0.007194247176720627,-0.009204866475018093,9.814255123217368,0.013342834836366346,0.019221033999999998,-0.0012748644999999725,-0.002353596000000735
344852.0,0.11964113,-0.45130203299999994,9.794293621,0.00404741853537485,0.010391690366374239,-0.01027126264798663,9.805415598501622,0.01516138720088028,-0.009610516999999999,0.008433719000000006,-0.008335652499999568
344862.0,0.1267999845,-0.46571780849999994,9.831362758000001,-0.003946189438759179,0.029578094833547904,-0.012669345040226838,9.843204000355405,0.03241833445470708,0.007158854499999992,-0.014415775500000005,0.03706913700000136
344872.0,0.096889702,-0.47169986499999994,9.8612730405,-0.008742354223239598,0.04023507524622528,-0.01533446280802218,9.873023567088595,0.04393672481017015,-0.029910282499999996,-0.005982056499999999,0.029910282499999497
344882.0,0.0897308475,-0.483663978,9.915111549,-0.007410668003967923,0.03570594583729999,-0.020130627592502597,9.927306759525518,0.04165422830481032,-0.007158854499999992,-0.011964113000000054,0.05383850850000016
344892.0,0.10885381499999999,-0.49445129299999996,9.9091294925,-0.003946189438759179,0.016786576745681462,-0.022261674609187675,9.922055156736569,0.028159256494633862,0.01912296749999999,-0.010787314999999964,-0.00598205650000061
344902.0,0.12444638849999999,-0.4908228324999999,9.924722066,-0.003146828641345776,-0.003996803987067015,-0.020662953014360868,9.937630605122195,0.021279910711342605,0.015592573499999998,0.0036284605000000414,0.015592573499999318
344912.0,0.12326959049999998,-0.46924820249999993,9.9067758965,-0.003146828641345776,-0.0186523337160634,-0.014001031259498512,9.918648997265953,0.023533825865822245,-0.0011767980000000067,0.021574629999999984,-0.017946169500000053
344922.0,0.128074849,-0.487194372,9.866078299,-0.0026145032194875057,-0.025846580892784028,-0.009737191896876364,9.878930231814252,0.027743364557467315,0.004805258500000006,-0.017946169500000053,-0.04069759749999946
344932.0,0.129251647,-0.47650512349999996,9.806257733999999,-0.0018151424220741027,-0.023181463124988685,-0.011602948867258302,9.81867882490352,0.02598660033640095,0.0011767980000000067,0.010689248500000026,-0.05982056500000077
344942.0,0.1591619295,-0.48003551749999995,9.867255097000001,-0.0015481070465189703,-0.01625425132382319,-0.016666149027293853,9.880206969853221,0.023331477555556944,0.029910282499999996,-0.0035303939999999923,0.060997363000002025
344952.0,0.165143986,-0.475230259,9.844503669,-0.006878342582109653,-0.0101264003200711,-0.017465509824707254,9.857351004409635,0.021328375783358295,0.005982056499999999,0.004805258499999965,-0.022751428000001184
344962.0,0.165143986,-0.42972740299999995,9.8612730405,-0.010608111193621535,-0.004263839362622147,-0.017997835246565525,9.872013176464728,0.021322158023263052,0.0,0.045502856000000036,0.016769371500000574
344972.0,0.140038962,-0.3866762095,9.878042412,-0.006344271830999388,-0.010658725741929371,-0.014268066635053644,9.88659958201717,0.018905976436291546,-0.025105024000000004,0.04305119349999997,0.016769371499998798
344982.0,0.154356671,-0.40825083949999996,9.833716354,0.0003159045946109737,-0.02238210232757528,-0.012669345040226838,9.843397384072315,0.02572101483346385,0.014317709000000012,-0.021574629999999984,-0.044326057999999335
344992.0,0.16632078399999997,-0.3986403225,9.8385216125,5.061454830783555e-05,-0.027979373238721097,-0.01293638041578197,9.847998996219632,0.030825279024300656,0.01196411299999997,0.009610516999999985,0.004805258499999354
345002.0,0.16877244649999998,-0.415409694,9.831362758000001,-0.002881538595042638,-0.028244663285024237,-0.01027126264798663,9.841582343909751,0.030192103357385383,0.002451662500000007,-0.01676937150000002,-0.007158854499998313
345012.0,0.197505931,-0.436984324,9.800275677499998,-0.007143632628412791,-0.022649137703130415,-0.006806784082777886,9.81200118463099,0.02470520664505047,0.028733484500000017,-0.021574629999999984,-0.03108708050000253
345022.0,0.18544375149999998,-0.4345326615,9.7810546435,-0.009276424974349861,-0.014388494353441254,-0.006274458660919614,9.792458218344033,0.018233202174915458,-0.01206217950000002,0.002451662500000007,-0.019221033999999193
345032.0,0.17230284049999997,-0.45728408949999994,9.785859901999999,-0.007942993425826194,-0.01305680813416958,-0.007339109504636156,9.798053430601694,0.016953876003329618,-0.013140911000000005,-0.022751427999999962,0.004805258499999354
345042.0,0.165143986,-0.475230259,9.8122397905,-0.0034138640169009086,-0.01572192590196492,-0.008138470302049559,9.825129314235648,0.018029645599681347,-0.007158854499999978,-0.017946169500000053,0.02637988850000106
345052.0,0.17475450299999998,-0.487194372,9.800275677499998,-0.0007487462491055673,-0.020783380732748477,-0.009204866475018093,9.81393401482939,0.02274289125091272,0.009610516999999985,-0.011964112999999998,-0.01196411300000122
345062.0,0.1842669535,-0.47169986499999994,9.755949619499999,-0.003146828641345776,-0.02238210232757528,-0.007339109504636156,9.769084299514226,0.023763913049434548,0.00951245050000002,0.015494507000000046,-0.044326057999999335
345072.0,0.2201592925,-0.44178958249999994,9.6888721335,-0.006344271830999388,-0.017320647496791724,-0.003077015471266003,9.701437592882431,0.018700872679747866,0.035892338999999995,0.029910282499999996,-0.06707748599999874
345082.0,0.2309466075,-0.4094276375,9.684164941499999,-0.005811946409141118,-0.006661921754862355,0.004916592502868027,9.695566922054752,0.010115967792055033,0.01078731500000002,0.03236194499999995,-0.00470719200000147
345092.0,0.213000438,-0.40579917699999996,9.690146998,0.0019163715186897737,0.0010663961729685354,0.012644910430698918,9.700978868211726,0.012833683820157236,-0.017946169500000025,0.0036284605000000414,0.00598205650000061
345102.0,0.1842669535,-0.4094276375,9.716428819999999,0.015505505074717624,0.0021310470166850766,0.019306832185561274,9.726796713956121,0.024853889394838007,-0.02873348449999999,-0.0036284605000000414,0.02628182199999962
345112.0,0.178284897,-0.42972740299999995,9.749967563,0.026963591614060395,0.0031974431896536117,0.020371483029277816,9.761061347258277,0.03394490000711512,-0.005982056499999999,-0.020299765499999955,0.03353874300000115
345122.0,0.1927006725,-0.448948437,9.755949619499999,0.03229208182039909,0.0063948863793072235,0.0163746790422108,9.76817491788967,0.03676687685723409,0.014415775500000005,-0.019221034000000026,0.0059820564999988335
345132.0,0.16279038999999998,-0.48846923649999996,9.831362758000001,0.02802824245777694,0.01332384350972471,0.012112585008840646,9.844836036495105,0.03331398950501057,-0.029910282500000024,-0.03952079949999998,0.07541313850000186
345142.0,0.11248227549999999,-0.46924820249999993,9.8744139515,0.020568705234753175,0.017852972918649995,0.006782349473249964,9.886197298427184,0.028067784761991937,-0.05030811449999999,0.019221034000000026,0.04305119349999842
345152.0,0.0897308475,-0.4908228324999999,9.905599098499998,0.013906783479890817,0.01332384350972471,0.0022532200643246795,9.918157700808168,0.01939073060218394,-0.02275142799999999,-0.021574629999999984,0.031185146999998636
345162.0,0.0801203305,-0.5112206645,9.948650292,0.01204102650950888,0.0015987215948268059,-0.002542944720155738,9.962098597568835,0.012410028122056336,-0.009610516999999999,-0.020397832000000116,0.04305119350000197
345172.0,0.1016949605,-0.5075922039999999,9.957084011,0.009909979492823802,-0.006661921754862355,-0.004941027112395947,9.970532268272567,0.012922950280084207,0.021574629999999997,0.003628460500000097,0.008433718999999229
345182.0,0.082571993,-0.48003551749999995,9.935509381,0.00884358331985527,-0.009592329568960835,-0.0014782938764391971,9.947441826521453,0.01313038861876907,-0.019122967500000004,0.027556686499999983,-0.021574629999999928
345192.0,0.09453610599999998,-0.470523067,9.945119897999998,0.0019163715186897737,-0.010658725741929371,0.002518510110627818,9.956693166785458,0.011118624349111166,0.011964112999999985,0.009512450499999936,0.009610516999998708
345202.0,0.096889702,-0.48003551749999995,9.923545267999998,-0.00607898178469625,-0.0037297686115118824,0.004916592502868027,9.935621389649482,0.008662452035846788,0.0023535960000000133,-0.009512450499999936,-0.021574629999999928
345212.0,0.0801203305,-0.4788587195,9.899617042,-0.015671311353657087,0.004263839362622147,0.008648106443631903,9.911515651950383,0.01840000192157314,-0.01676937149999999,0.001176797999999979,-0.023928225999998887
345222.0,0.06580262149999999,-0.483663978,9.890006524999999,-0.022598523154822577,0.006927211801165493,0.00731642022436023,9.902044732940444,0.02474286800305668,-0.014317709000000012,-0.00480525850000002,-0.009610517000000485
345232.0,0.0310870805,-0.495628091,9.863724702999999,-0.02233323310851944,0.001865756970381938,0.0022532200643246795,9.876217830107572,0.022524017199653197,-0.03471554099999999,-0.011964112999999998,-0.02628182199999962
345242.0,0.038245934999999995,-0.5183795189999999,9.8230271055,-0.014871950556243681,-0.010658725741929371,-0.008937831099462962,9.83676987596286,0.020363402774378155,0.0071588544999999955,-0.022751427999999907,-0.04069759749999946
345252.0,0.07060788,-0.5039637435,9.789488362499998,-0.011674507366590071,-0.020518090686445337,-0.019596556841392332,9.80270612264815,0.03068079542169142,0.032361945,0.01441577549999995,-0.03353874300000115
345262.0,0.11964113,-0.505238608,9.763108474,-0.014604915180688549,-0.022649137703130415,-0.02705783939366809,9.776904782501058,0.03818918248383968,0.04903325,-0.001274864500000028,-0.026379888499999282
345272.0,0.1471978165,-0.46091255,9.714075224,-0.016735962197373624,-0.013856168931582983,-0.027590164815526362,9.726117675283419,0.03511841458096298,0.027556686499999997,0.044326058,-0.04903324999999903
345282.0,0.16632078399999997,-0.42374534649999995,9.740357046,-0.015671311353657087,-0.0026651177677953415,-0.022261674609187675,9.750988570674904,0.027354615856648966,0.019122967499999977,0.03716720350000002,0.02628182199999962
345292.0,0.16632078399999997,-0.4250202109999999,9.761931676,-0.009541715020653,0.0037297686115118824,-0.015067427432467046,9.772595091880202,0.018220397055592252,0.0,-0.0012748644999999725,0.021574629999999928
345302.0,0.16151552549999998,-0.4429663805,9.763108474,0.0008499753457212385,0.0021310470166850766,-0.012137019618368569,9.774486869105784,0.012351966025387207,-0.0048052584999999925,-0.017946169500000053,0.0011767979999994793
345312.0,0.167497582,-0.43933792,9.7702673285,0.009375908741713538,-0.0,-0.009737191896876364,9.78157435785673,0.013517417311362962,0.005982056500000027,0.003628460499999986,0.007158854500000089
345322.0,0.186718616,-0.4561072915,9.766736934499999,0.011773991133953747,-0.001865756970381938,-0.009204866475018093,9.779163975036253,0.01506112489550041,0.019221033999999998,-0.01676937150000002,-0.0035303940000002143
345332.0,0.19387747049999998,-0.470523067,9.820575443,0.007511897100583594,-0.0007993607974134029,-0.008138470302049559,9.833752206650379,0.011104155735198433,0.007158854499999978,-0.014415775500000005,0.05383850850000016
345342.0,0.178284897,-0.4333558635,9.8122397905,0.0019163715186897737,-0.0002670353755551324,-0.009204866475018093,9.823422647692585,0.009406027562810735,-0.015592573499999984,0.03716720350000002,-0.008335652499999568
345352.0,0.17230284049999997,-0.45247883099999997,9.814593386499999,0.001117010721276371,-0.005328490206338688,-0.01027126264798663,9.826528822716442,0.011624945471460027,-0.005982056500000027,-0.019122967499999977,0.0023535959999989586
345362.0,0.18544375149999998,-0.42855060500000003,9.796647216999999,0.006178465552059927,-0.01332384350972471,-0.010536552694289767,9.807769455914533,0.018075319779444272,0.013140911000000005,0.02392822599999994,-0.017946169500000053
345372.0,0.21662889849999997,-0.43217906549999996,9.819398645,0.018435912888816103,-0.02158274153016188,-0.007873180255746421,9.831291704234475,0.029456486269432498,0.031185146999999996,-0.0036284604999999304,0.022751428000001184
345382.0,0.23692866399999998,-0.40579917699999996,9.8122397905,0.026429520862950133,-0.021050416108303608,-0.0017435839227423352,9.823485016538182,0.033833115083797556,0.02029976550000001,0.026379888500000004,-0.007158854500000089
345392.0,0.259680092,-0.38549941149999994,9.8253807015,0.02269975225143825,-0.009859364944515966,0.007581710270663368,9.836368713903349,0.02588374316079706,0.02275142799999999,0.02029976550000001,0.013140911000000699
345402.0,0.234575068,-0.3843226135,9.83018596,0.007511897100583594,0.007194247176720627,0.01664171441776593,9.840492129053088,0.019624791699582124,-0.025105023999999976,0.0011767979999999234,0.004805258499999354
345412.0,0.21662889849999997,-0.4310022675,9.872060355499999,-0.004213224814314312,0.021050416108303608,0.021704914577801483,9.883838662022475,0.030528259015186916,-0.017946169500000025,-0.04667965399999996,0.04187439549999894
345422.0,0.1352337035,-0.474053461,9.868431894999999,-0.009276424974349861,0.021849776905717013,0.02197020462410462,9.880736961618888,0.03234431483830465,-0.08139519499999998,-0.04305119350000003,-0.003628460499999875
345432.0,0.0909076455,-0.49445129299999996,9.907952694499999,-0.008210028801381325,0.00799360797413403,0.01397659664997059,9.92069921314065,0.018073394680568983,-0.044326058,-0.02039783199999995,0.03952079949999998
345442.0,0.072961476,-0.4896460345,9.866078299,-0.0026145032194875057,-0.010391690366374239,0.004651302456564889,9.878490654856156,0.011681501200520089,-0.017946169499999998,0.004805258499999965,-0.04187439549999894
345452.0,0.07413827399999999,-0.47650512349999996,9.8624498385,0.004314453910929983,-0.02664594169019743,-0.003876376268679406,9.87423265035426,0.027269892080522093,0.0011767979999999928,0.013140911000000033,-0.003628460499999875
345462.0,0.128074849,-0.5064154059999999,9.8014524755,0.008576547944300135,-0.030909781052819576,-0.008138470302049559,9.81536195765931,0.03309390333930807,0.053936575,-0.02991028249999994,-0.06099736300000025
345472.0,0.16632078399999997,-0.4776819215,9.776249385,0.004579743957233121,-0.019984019935335072,-0.008937831099462962,9.789325546687635,0.022365597068985443,0.03824593499999998,0.028733484499999906,-0.025203090499999803
345482.0,0.18073655949999998,-0.436984324,9.797824015,-0.0026145032194875057,-0.0,-0.005208062487951079,9.809229145670537,0.005827481614137767,0.014415775500000005,0.040697597500000016,0.021574629999999928
345492.0,0.1340569055,-0.42374534649999995,9.827734297500001,-0.004480260189869444,0.010658725741929371,0.0006544984694978735,9.837778854744117,0.011580567087028678,-0.04667965399999999,0.013238977500000026,0.029910282500001273
345502.0,0.096889702,-0.4213917505,9.855290984,-0.0010157816246606998,0.007726572598578897,0.0030525808617380824,9.864771614236936,0.008369586987872112,-0.037167203499999996,0.002353595999999958,0.02755668649999876
345512.0,0.11483587149999999,-0.4680714045,9.90079384,0.002981022362406315,-0.0034644785652087444,0.0030525808617380824,9.912517176745558,0.0054961219028881615,0.017946169499999998,-0.046679654000000015,0.04550285600000059
345522.0,0.093359308,-0.4668946065,9.856467782,0.0019163715186897737,-0.009327039522657697,0.0003874630939427412,9.8679614749741,0.009529757274140394,-0.02147656349999999,0.0011767980000000344,-0.04432605800000111
345532.0,0.1160126695,-0.46924820249999993,9.8122397905,-0.007410668003967923,-0.009592329568960835,0.0003874630939427412,9.824138767408849,0.0121276920505825,0.022653361499999997,-0.002353595999999958,-0.044227991499999675
345542.0,0.12444638849999999,-0.5004333495,9.83018596,-0.013006193585861744,-0.007461282552275759,-0.0036093408931242737,9.84370237507634,0.01542268298969362,0.008433718999999992,-0.031185147000000024,0.017946169500000053
345552.0,0.0920844435,-0.4931764285,9.842150072999999,-0.01193979741289321,-0.00506320016003555,-0.006539748707222752,9.854928746257713,0.014524567851579512,-0.03236194499999999,0.007256920999999972,0.011964112999999443
345562.0,0.062174161,-0.474053461,9.832539555999999,-0.007410668003967923,-0.009592329568960835,-0.010536552694289767,9.844156969008916,0.01606081347579067,-0.029910282500000003,0.019122967499999977,-0.009610517000000485
345572.0,0.117287534,-0.483663978,9.829009162,-0.006611307206554521,-0.012257447336756176,-0.014535102010608775,9.841600902085318,0.02013016613571766,0.055113373,-0.009610516999999985,-0.003530393999998438
345582.0,0.17475450299999998,-0.4931764285,9.773895789,-0.007143632628412791,-0.00559552558189382,-0.015599752854325319,9.787890529638075,0.018046985420933408,0.05746696899999998,-0.009512450499999991,-0.055113373000001076
345592.0,0.177108099,-0.4680714045,9.778701047499998,-0.009808750396208134,0.008792968771547434,-0.011070623445400031,9.791498980994666,0.017207166751745114,0.0023535960000000133,0.025105023999999976,0.004805258499999354
345602.0,0.13160524299999998,-0.42374534649999995,9.738003449999999,-0.013006193585861744,0.021317451483858742,-0.004141666314982544,9.748107059879748,0.02531300474507607,-0.04550285600000001,0.04432605800000006,-0.04069759749999946
345612.0,0.1113054775,-0.44649677449999997,9.761931676,-0.007410668003967923,0.022116812281272148,-0.0020106192982974674,9.772771271540769,0.02341183409544734,-0.020299765499999983,-0.022751428000000018,0.023928226000000663
345622.0,0.110030613,-0.4908228324999999,9.8373448145,0.0027157323161031764,0.01332384350972471,-0.004141666314982544,9.850196281702742,0.014214549157430971,-0.0012748645000000003,-0.044326057999999946,0.07541313850000009
345632.0,0.0993413645,-0.4908228324999999,9.8828476705,0.0077771871468867325,0.0026651177677953415,-0.009204866475018093,9.895526961102744,0.012341679766418777,-0.010689248499999998,0.0,0.04550285600000059
345642.0,0.12326959049999998,-0.4896460345,9.8852012665,0.005113814708343385,-0.005862560957448953,-0.017997835246565525,9.898088336151421,0.01960721284154355,0.023928225999999983,0.0011767979999999234,0.0023535959999989586
345652.0,0.132782041,-0.5027869455,9.8481321295,-0.00021642082724729686,-0.010658725741929371,-0.025726153174396416,9.861852372808444,0.02784762520518834,0.009512450500000005,-0.013140911000000033,-0.037069136999999586
345662.0,0.1471978165,-0.474053461,9.807434532,-0.007942993425826194,-0.004796164784480418,-0.030789353334431967,9.819988084541372,0.03215709284053994,0.014415775500000005,0.028733484500000017,-0.04069759749999946
345672.0,0.19985952699999998,-0.48003551749999995,9.8396984105,-0.011407471991034937,-0.0002670353755551324,-0.03292040035111705,9.8534279688944,0.034841849612152795,0.052661710499999986,-0.005982056499999944,0.03226387850000023
345682.0,0.18544375149999998,-0.4812123155,9.8385216125,-0.007410668003967923,0.004263839362622147,-0.028656560988494895,9.852028329089846,0.02990479583716644,-0.014415775500000005,-0.0011767980000000344,-0.0011767980000012557
345692.0,0.17475450299999998,-0.48003551749999995,9.854114185999999,-0.00048345620280242926,-0.0031974431896536117,-0.024127431579569612,9.867347142221494,0.024343178253422526,-0.010689248499999998,0.0011767980000000344,0.015592573499999318
345702.0,0.153179873,-0.4561072915,9.843326871,0.006445500927615059,-0.018919369091618534,-0.01773254520026239,9.855078986198052,0.026719471707204952,-0.021574629999999984,0.02392822599999994,-0.010787314999998188
345712.0,0.19024901,-0.4070740415,9.820575443,0.014172073526193957,-0.03597298121285513,-0.015067427432467046,9.830849708581844,0.04149614939732284,0.037069137,0.04903325000000003,-0.022751428000001184
345722.0,0.266937013,-0.45130203299999994,9.820575443,0.013372712728780553,-0.039969785199922135,-0.013468705837640243,9.834563077511573,0.044247250893081354,0.076688003,-0.04422799149999995,0.0
345732.0,0.266937013,-0.4165864919999999,9.747613967,-0.00048345620280242926,-0.020251055310890206,-0.00840550567760469,9.7601627918739,0.021931518342353937,0.0,0.034715541000000016,-0.07296147599999969
345742.0,0.2525212375,-0.3843226135,9.7224108765,-0.016203636775515357,-0.0031974431896536117,-0.006806784082777886,9.733280233206147,0.017863756526930567,-0.014415775500000005,0.0322638784999999,-0.025203090499999803
345752.0,0.24173392249999998,-0.44178958249999994,9.704464707,-0.023931954703346248,0.01332384350972471,-0.00840550567760469,9.717522759114143,0.028651628007687356,-0.01078731500000002,-0.05746696899999992,-0.017946169500000053
345762.0,0.2034879875,-0.44414317849999996,9.729569731,-0.023664919327791117,0.025314255470925754,-0.01293638041578197,9.741827224625588,0.03698905074613275,-0.03824593499999998,-0.0023535960000000133,0.025105024000000142
345772.0,0.16877244649999998,-0.43217906549999996,9.740357046,-0.015671311353657087,0.025314255470925754,-0.019863592216947463,9.751400836132001,0.035790554974067273,-0.034715541000000016,0.011964112999999998,0.010787314999999964
345782.0,0.177108099,-0.43217906549999996,9.763108474,-0.003146828641345776,0.01332384350972471,-0.024127431579569612,9.774274044576325,0.02774094971331083,0.008335652500000013,0.0,0.022751427999999407
345792.0,0.19985952699999998,-0.39981712049999996,9.809788128000001,0.0077771871468867325,0.0031974431896536117,-0.024659757001427883,9.81996642950613,0.02605401885003989,0.02275142799999999,0.032361945,0.04667965400000185
345802.0,0.24653918099999997,-0.393835064,9.800275677499998,0.01976934443733977,-0.00559552558189382,-0.019596556841392332,9.811283859944227,0.0283929907909985,0.04667965399999999,0.005982056499999944,-0.0095124505000026
345812.0,0.26330855249999996,-0.39148146799999994,9.800275677499998,0.02429847384626506,-0.0015987215948268059,-0.005475097863506212,9.811625374452753,0.02495893504559766,0.01676937149999999,0.002353596000000069,0.0
345822.0,0.25732649599999996,-0.381870951,9.7918419585,0.019235273686229508,0.009060004147102564,0.011845549633285515,9.802663479330626,0.024339196269480626,-0.005982056499999999,0.00961051699999993,-0.008433718999999229
345832.0,0.2393803265,-0.415409694,9.784683103999999,0.013906783479890817,0.019984019935335072,0.025169393143010227,9.796422387805023,0.03501796725567954,-0.01794616949999997,-0.03353874299999998,-0.007158854500000089
345842.0,0.19387747049999998,-0.42619700899999996,9.820575443,0.016037830496575894,0.02478018471981549,0.033962361914557655,9.831730996915175,0.044996795314782956,-0.04550285600000001,-0.010787314999999964,0.035892339000000106
345852.0,0.1340569055,-0.46326614599999993,9.8385216125,0.022966787626993383,0.021050416108303608,0.0350270127582742,9.850334730128287,0.0468773396749906,-0.05982056499999999,-0.037069136999999974,0.017946169500000053
345862.0,0.117287534,-0.495628091,9.857742646499998,0.03255911719595422,0.010391690366374239,0.028632126378966977,9.870891229004851,0.04458567036875876,-0.01676937149999999,-0.03236194500000006,0.019221033999999193
345872.0,0.07060788,-0.470523067,9.925898863999999,0.03922103895081657,-0.005862560957448953,0.021704914577801483,9.937295692876088,0.045207995246316045,-0.046679654,0.025105023999999976,0.06815621750000034
345882.0,0.062174161,-0.45846088749999997,9.941491437499998,0.04215144676491505,-0.02478018471981549,0.01664171441776593,9.952251203298133,0.051650253415507295,-0.008433719,0.012062179500000048,0.015592573499999318
345892.0,0.040599530999999994,-0.46924820249999993,9.99297635,0.042418482140470185,-0.04503298535995769,0.009180431865490174,10.004070098171354,0.06254260729109763,-0.021574630000000004,-0.010787314999999964,0.0514849125000012
345902.0,0.0058839899999999995,-0.49445129299999996,10.060053836,0.04481656453271039,-0.07247828784756853,0.0003874630939427412,10.072199356928257,0.08521605948105535,-0.034715540999999996,-0.025203090500000025,0.06707748600000052
345912.0,-0.025203090499999997,-0.49199963049999995,10.083982062,0.048014007722364006,-0.10844952373117166,-0.010004227272431498,10.096008768762072,0.11902406772749644,-0.031087080499999996,0.002451662500000007,0.023928226000000663
345922.0,-0.0479545185,-0.4668946065,10.130661715999999,0.056806976493911435,-0.15641291690522782,-0.025459117798841288,10.141528337161583,0.16834547761159724,-0.022751428000000004,0.025105023999999976,0.046679653999998294
345932.0,-0.0024516625,-0.4549304935,10.130661715999999,0.07066314542549443,-0.21796718896456385,-0.035318482743357256,10.140871489600546,0.23184126209506212,0.045502856,0.011964112999999998,0.0
345942.0,0.0765899365,-0.49445129299999996,10.074371545,0.08451931435707741,-0.2704597115475453,-0.03691720433818406,10.086788890733667,0.2857531277972633,0.07904159899999999,-0.03952079949999998,-0.05629017099999878
345952.0,0.1340569055,-0.5315204299999999,9.965419663499999,0.09064716536082949,-0.3048322258363216,-0.03851592593301086,9.980484672153555,0.320348358895058,0.05746696899999999,-0.037069136999999974,-0.10895188150000124
345962.0,0.2309466075,-0.5315204299999999,9.854114185999999,0.09944013413237693,-0.31815606934604634,-0.04304505534193615,9.87114059740563,0.3361019213384263,0.09688970200000002,0.0,-0.1113054775000002
