timestamp,ax,ay,az,gx,gy,gz,acc_mag,gyro_mag,dax,day,daz
148332.0,0.009022117999999999,-0.564666907,9.7259412705,0.009531243045141035,0.020233602018370263,0.02758143816926639,9.742323322066934,0.03551026578481794,0.0,0.0,0.0
148342.0,0.157494799,-0.7526603875,9.685243673,-0.006455972903127025,-0.02586403418530397,0.013725269237683408,9.715721654926629,0.029983509903134777,0.148472681,-0.18799348049999998,-0.04069759749999946
148352.0,0.5250480409999999,-0.691564958,9.698384584,0.010063568466999304,-0.02026850860341015,0.009995500626171525,9.737176237270244,0.024738590987853155,0.36755324199999995,0.06109542950000002,0.013140910999998923
148362.0,0.44237798149999996,-0.5383850849999999,9.6372891545,0.05030038904247658,0.01037598240310629,0.00386590429316744,9.66244787958568,0.05150471206266471,-0.08267005949999995,0.15317987300000002,-0.06109542949999991
148372.0,0.460324151,-0.531128164,9.7031898425,0.06628760499074464,0.03462384170106351,0.001467821900927231,9.728611852170024,0.07479980942945068,0.017946169500000053,0.007256920999999972,0.06590068800000104
148382.0,0.49150929799999993,-0.5790826825,9.785761835499999,0.05882632243846887,0.04741361445967796,-0.0025289820861397836,9.815194997773613,0.07559750523765785,0.031185146999999913,-0.04795451849999999,0.0825719929999984
148392.0,0.44482964399999997,-0.5179872529999999,9.839600343999999,0.043638467287614224,0.06899635598983983,-0.0054593899002382635,9.863261080195361,0.08182064473695931,-0.04667965399999996,0.06109542950000002,0.05383850850000016
148402.0,0.38020382049999996,-0.426981541,9.8899084585,0.031113984575302914,0.06340083040794602,0.0001361356816555577,9.90642001426284,0.07062410258186039,-0.06462582350000001,0.0910057119999999,0.05030811450000172
148412.0,0.39814998999999995,-0.4437509125,9.9473754275,0.01592612942444826,0.054075536214540317,0.007063347482821052,9.965225345295128,0.056812816274124385,0.017946169499999998,-0.016769371499999963,0.057466969000000034
148422.0,0.353823932,-0.45336142949999997,10.001213936000001,0.007665486074759095,0.0407516927048156,0.01345997919138027,10.017734681765877,0.043596228906895566,-0.044326057999999946,-0.009610516999999985,0.05383850850000016
148432.0,0.353823932,-0.470130801,9.9928782835,0.00020420352248333657,0.020767672769480525,0.01692271242733702,10.010186348602645,0.02679022447157105,0.0,-0.01676937150000002,-0.008335652500001345
148442.0,0.3574523925,-0.5012178815,9.953357484,-0.005656612105713622,-0.002415535684760152,0.015591026208065345,9.972377689495024,0.01676043470138636,0.003628460499999986,-0.03108708050000003,-0.03952079949999998
148452.0,0.3729468995,-0.531128164,9.9103062905,-0.0045919612619970815,-0.02026850860341015,0.012393583018411734,9.931533481188316,0.024197095885094493,0.01549450699999999,-0.02991028249999994,-0.043051193500000196
148462.0,0.39814998999999995,-0.531128164,9.8659802325,0.003935717463247213,-0.02612932423160711,0.008662069077647858,9.888285315928732,0.02780760502914451,0.02520309049999997,0.0,-0.044326057999999335
148472.0,0.4076624405,-0.561136513,9.807336465499999,0.01166229006182611,-0.027462755780130774,0.006263986685407649,9.83183153838298,0.030486874121828867,0.009512450500000047,-0.030008349000000045,-0.05864376700000129
148482.0,0.40648564249999997,-0.550349198,9.8061596675,0.012196360812936374,-0.02133315944712669,0.002534218073895766,9.829999096734525,0.024703788582359606,-0.0011767980000000344,0.010787314999999964,-0.0011767979999994793
148492.0,0.40413204649999995,-0.52759777,9.7737977225,0.005534439058074019,-0.013873622224102926,-0.0019949113350295187,9.796366879525461,0.015069408765419005,-0.0023535960000000133,0.022751428000000073,-0.03236194499999989
148502.0,0.399326788,-0.5120051965,9.7953723525,-0.003525565089028546,-0.005345943498858632,-0.007325146870620201,9.816869701130742,0.00972967099989114,-0.004805258499999965,0.015592573499999984,0.021574629999999928
148512.0,0.42325501399999993,-0.4676791385,9.816848915999998,-0.009388126046477499,0.0023806290997202655,-0.009190903841002138,9.837092620435907,0.013352041753587052,0.02392822599999994,0.044326058,0.02147656349999849
148522.0,0.422078216,-0.45816668799999993,9.854016119499999,-0.006190682856823887,0.004778711491960474,-0.0070581114950650685,9.873687275672673,0.01053458948578149,-0.0011767979999999234,0.009512450500000047,0.03716720350000102
148532.0,0.4196265535,-0.44139731649999997,9.859998175999998,-0.005124286683855352,-0.0005497787143782138,-0.0011955505376161158,9.878789504091023,0.00529054928538756,-0.002451662500000007,0.016769371499999963,0.0059820564999988335
148542.0,0.4292370705,-0.44737937299999997,9.838423545999998,-0.0075223690760955605,-0.014405947645961197,0.004665265090580842,9.857939472149566,0.01690804726929062,0.009610516999999985,-0.005982056499999999,-0.021574629999999928
148552.0,0.443652846,-0.4629719465,9.814495319999999,-0.008588765249064096,-0.02639635960716224,0.007063347482821052,9.835420136288626,0.028643071879203733,0.014415775500000005,-0.01559257350000004,-0.023928225999998887
148562.0,0.459147353,-0.45218463149999993,9.770169262,-0.0013945180723434693,-0.027728045826433914,0.008929104453202991,9.791399013463874,0.029163643673984243,0.01549450699999999,0.010787315000000075,-0.044326057999999335
148572.0,0.459147353,-0.4437509125,9.7618336095,0.007932521450314228,-0.01787042621116994,0.008929104453202991,9.782695261719814,0.02149432334047235,0.0,0.00843371899999995,-0.008335652499999568
148582.0,0.471111466,-0.4629719465,9.792920689999999,0.012995721610349778,-0.004014257279586958,0.005199335841691108,9.81517114864905,0.014561460602395725,0.011964112999999998,-0.019221034000000026,0.031087080499998976
148592.0,0.45081170049999997,-0.45934348599999997,9.790567094,0.008998917623282763,0.008243190057169218,0.002267182698340634,9.811698713757671,0.012412526660470772,-0.02029976550000001,0.0036284605000000414,-0.0023535959999989586
148602.0,0.43884758749999997,-0.43894565399999996,9.803708004999999,0.005534439058074019,0.012239994044236233,0.002267182698340634,9.823337067388104,0.013623053522545113,-0.011964112999999998,0.020397832000000005,0.013140910999998923
148612.0,0.43168873299999994,-0.45698989,9.7726209245,0.005267403682518886,0.01144063324682283,0.0067980574365179135,9.792819545755787,0.014312484604467456,-0.007158854500000034,-0.018044236000000047,-0.031087080499998976
148622.0,0.4076624405,-0.4749360595,9.758205148999998,0.007400196028455957,0.006644468462342412,0.013192943815825137,9.778257547026355,0.016521671493349484,-0.024026292499999935,-0.017946169499999998,-0.014415775500001615
148632.0,0.375398562,-0.46414874449999993,9.766638868,0.013528047032208048,0.0023806290997202655,0.01692271242733702,9.784865503178922,0.021795725436755134,-0.03226387850000001,0.010787315000000075,0.008433719000001005
148642.0,0.388539473,-0.5143587924999999,9.821654174499999,0.01592612942444826,0.001848303677861995,0.010260790672474663,9.842785104480054,0.019035273839748613,0.013140911000000033,-0.05021004800000001,0.05501530649999964
148652.0,0.388539473,-0.48091811599999995,9.9030493695,0.007665486074759095,-0.00268082573106329,0.004932300466135976,9.922329966854077,0.009501267875968016,0.0,0.03344067649999999,0.0813951950000007
148662.0,0.38971627099999995,-0.45934348599999997,9.856369715499998,-0.0045919612619970815,-0.01280722605113439,0.008662069077647858,9.874760715006632,0.016128936358684055,0.0011767979999999234,0.021574629999999984,-0.04667965400000185
148672.0,0.40648564249999997,-0.4557150254999999,9.832441489499999,-0.0101874868438909,-0.018935077054886482,0.015323990832510213,9.8513863190145,0.026403536246188613,0.01676937150000002,0.0036284605000000414,-0.023928225999998887
148682.0,0.41246769899999997,-0.482094914,9.818123780499999,-0.009121090670922365,-0.016804030038201405,0.019320794819577228,9.838602526682466,0.027182031436450153,0.005982056499999999,-0.02637988850000006,-0.014317709000000178
148692.0,0.39814998999999995,-0.508376736,9.7977259485,-0.005391322059410484,-0.010142108283339049,0.015323990832510213,9.818981825125924,0.019150807006863124,-0.014317709000000012,-0.02628182200000001,-0.020397831999998672
148702.0,0.38971627099999995,-0.5299513659999999,9.800079544499999,-0.003258529713473413,-0.0048136180770003605,0.0004031710572106901,9.822132472163808,0.005826790007043858,-0.008433719000000006,-0.021574629999999928,0.0023535959999989586
148712.0,0.410114103,-0.5227925115,9.849210861,-0.00699004365423729,-0.004546582701445229,-0.009190903841002138,9.871598663438476,0.012409868571575278,0.02039783200000006,0.007158854499999978,0.049131316500000466
148722.0,0.41844975549999996,-0.4761128575,9.813318522,-0.005923647481268754,-0.005878268920716902,-0.011054915482132083,9.833768558654565,0.01385116606295988,0.008335652499999957,0.04667965399999996,-0.035892339000000106
148732.0,0.4160961595,-0.4629719465,9.849210861,-0.0016598081186466075,-0.009342747485925645,-0.00519235452468313,9.868861819968755,0.01081676657261737,-0.002353595999999958,0.013140910999999977,0.035892339000000106
148742.0,0.4149193615,-0.468954003,9.836069949999999,0.004735078260660616,-0.014405947645961197,0.001202531854624093,9.85598031627348,0.015211784135141458,-0.0011767980000000344,-0.005982056499999999,-0.013140911000000699
148752.0,0.4076624405,-0.4665023405,9.873139087,0.008998917623282763,-0.01227490062927612,0.002534218073895766,9.892557229065375,0.015429710466994912,-0.007256920999999972,0.002451662500000007,0.03706913700000136
148762.0,0.42443181199999996,-0.45934348599999997,9.895890515,0.004735078260660616,-0.01067443370519732,-0.007325146870620201,9.9156335090621,0.013784856826873113,0.016769371499999963,0.007158854500000034,0.022751427999999407
148772.0,0.4292370705,-0.437768856,9.9150134825,-0.009653416092780637,-0.010142108283339049,-0.011588986233242348,9.933950794730752,0.01817568168200608,0.00480525850000002,0.021574629999999984,0.019122967499999532
148782.0,0.44836003799999996,-0.425804743,9.877944345500001,-0.0187134202398832,-0.01227490062927612,-0.00972322926286041,9.89727845903267,0.024400952232058865,0.019122967499999977,0.011964112999999998,-0.03706913699999781
148792.0,0.4627758135,-0.43894565399999996,9.827636231,-0.016582373223198124,-0.01280722605113439,-0.00039618974020271284,9.848312983937399,0.020956075661930012,0.014415775500000061,-0.013140910999999977,-0.05030811450000172
148802.0,0.4627758135,-0.45816668799999993,9.7881154315,-0.006455972903127025,-0.011208504456307585,0.011060151469888067,9.809754424445186,0.01701872817838761,0.0,-0.01922103399999997,-0.03952079949999998
148812.0,0.43041386849999996,-0.47130759899999997,9.778602980999999,0.0028693212902786776,-0.006944665093685437,0.015591026208065345,9.799411370643359,0.017307266570746518,-0.03236194500000006,-0.013140911000000033,-0.009512450500000824
148822.0,0.408937305,-0.5096516005,9.8061596675,0.0015376350710070044,-0.0010821041362364843,0.009728465250616393,9.827906282510869,0.009908496712705791,-0.02147656349999999,-0.03834400150000006,0.027556686500000538
148832.0,0.39569832749999995,-0.5000410835,9.827636231,-0.011519173063162575,-0.0010821041362364843,-0.0006632251157578452,9.848301992751747,0.011588881092449018,-0.013238977500000026,0.00961051700000004,0.021476563500000267
148842.0,0.387362675,-0.4796432515,9.808513263499998,-0.022710224226950213,-0.00268082573106329,-0.004927064478379992,9.82787056950528,0.023392671403941905,-0.008335652499999957,0.020397832000000005,-0.01912296750000131
148852.0,0.37775215799999995,-0.46532554249999997,9.792920689999999,-0.022977259602505348,-0.007476990515543708,-0.0025289820861397836,9.811244579257345,0.024295176401962403,-0.00961051700000004,0.014317709000000012,-0.015592573499999318
148862.0,0.39569832749999995,-0.470130801,9.754674755,-0.013650220079847652,-0.011740829878165854,0.00386590429316744,9.774010421125482,0.01841523310903879,0.017946169499999998,-0.00480525850000002,-0.038245934999999065
148872.0,0.4160961595,-0.4784664535,9.7163307535,-0.004324925886441949,-0.012540190675579259,0.009461429875061262,9.736998997251945,0.016293557665034434,0.02039783200000006,-0.008335652500000013,-0.0383440015000005
148882.0,0.39452152949999997,-0.494059027,9.7414357775,-0.0008604473212332044,-0.006944665093685437,0.007597418233931317,9.761931805055607,0.010329061267963435,-0.02157463000000004,-0.015592573499999984,0.025105024000000142
148892.0,0.410114103,-0.528774568,9.745064238,-0.004857251308300219,-0.0029478611066184224,-0.0019949113350295187,9.768012752038645,0.0060218308354292914,0.01559257350000004,-0.034715541000000016,0.003628460499999875
148902.0,0.41727295749999993,-0.5335798265,9.7641872055,-0.012051498485020845,0.0007819075048934596,-0.012121311655100619,9.787654261178133,0.017110703998396634,0.007158854499999923,-0.00480525850000002,0.01912296750000131
148912.0,0.42688347449999997,-0.5120051965,9.767815666,-0.00992045146833577,0.004246386070102204,-0.01798387261254957,9.790536333980853,0.02097300231574807,0.00961051700000004,0.02157463000000004,0.003628460499999875
148922.0,0.44836003799999996,-0.48690017249999995,9.7522230925,-0.002726204291615143,0.006644468462342412,-0.016118115642167634,9.774658753508797,0.01764581544845612,0.02147656349999999,0.02510502400000003,-0.015592573500001095
148932.0,0.434042329,-0.508376736,9.7641872055,0.00606676447993229,0.004513421445657336,-0.012388347030655751,9.787042016519582,0.014513708917883285,-0.014317708999999956,-0.021476563500000045,0.01196411300000122
148942.0,0.45081170049999997,-0.519164051,9.758205148999998,0.011397000015522973,0.0023806290997202655,-0.008923868465447007,9.782399001836334,0.014669506898763335,0.016769371499999963,-0.010787314999999964,-0.005982056500002386
148952.0,0.434042329,-0.508376736,9.767815666,0.017791886394830196,0.005845107664929009,-0.0150517194691991,9.790662006934198,0.02402645966597291,-0.016769371499999963,0.010787314999999964,0.009610517000002261
148962.0,0.44002438549999995,-0.507199938,9.820477376499998,0.022055725757452342,0.010641272449409428,-0.02784323755706554,9.843406378855347,0.03708015096638216,0.005982056499999944,0.0011767980000000344,0.05266171049999713
148972.0,0.4531652965,-0.44139731649999997,9.880297941499999,0.020989329584483806,0.01597150798500011,-0.036102135577502706,9.900529167159423,0.044710236154346085,0.013140911000000033,0.06580262149999999,0.05982056500000077
148982.0,0.45198849849999995,-0.367160976,9.90667783,0.015393804002589986,0.01383871563906304,-0.031573006168577424,9.9237778296618,0.037753595467584694,-0.0011767980000000344,0.0742363405,0.02637988850000106
148992.0,0.467581072,-0.345586346,9.9689500575,0.008998917623282763,0.004778711491960474,-0.0150517194691991,9.985891408901038,0.018176106868454847,0.01559257350000004,0.021574629999999984,0.062272227500001165
149002.0,0.471111466,-0.357550459,9.961693136500001,0.0007382742735936014,-0.00721170046924057,0.001467821900927231,9.979234363913847,0.007396497393627368,0.0035303939999999923,-0.011964112999999998,-0.00725692099999975
149012.0,0.44836003799999996,-0.423451147,9.907854628,-0.007789404451650692,-0.014138912270406064,0.014791665410651944,9.927029813955029,0.021894680347571003,-0.022751428000000018,-0.06590068800000004,-0.05383850850000016
149022.0,0.44718324,-0.5000410835,9.820477376499998,-0.014184290830957916,-0.016536994662646274,0.015323990832510213,9.843362730168641,0.0266362721469136,-0.001176797999999979,-0.07658993649999996,-0.08737725150000308
149032.0,0.4843504435,-0.52759777,9.804884803,-0.013650220079847652,-0.014138912270406064,0.006531022060962781,9.831008125270163,0.020709698152780925,0.03716720350000002,-0.027556686499999983,-0.015592573499997542
149042.0,0.4974913544999999,-0.5216157135,9.8096900615,-0.014184290830957916,-0.00721170046924057,0.0009354964790689607,9.836137438195149,0.015939820692140547,0.013140910999999922,0.005982056499999944,0.004805258499999354
149052.0,0.5082786695,-0.507199938,9.7749745205,-0.013384930033544514,-0.0016161748873467492,0.0033335788713091696,9.801312455962217,0.013888164794551192,0.010787315000000075,0.014415775500000061,-0.03471554099999885
149062.0,0.4963145565,-0.49288222899999995,9.777426183,-0.011519173063162575,0.0023806290997202655,0.010260790672474663,9.80241418195904,0.015609054045452857,-0.011964112999999998,0.014317709000000012,0.002451662499998619
149072.0,0.4878808375,-0.508376736,9.757028351,-0.010986847641304304,0.0061121430404841425,0.015858061583620478,9.782437163586767,0.02023727330522747,-0.008433719000000006,-0.015494507000000046,-0.020397831999998672
149082.0,0.47836838699999995,-0.5251461075,9.768992464,-0.012318533860575978,0.008777260808279484,0.01639038700547875,9.794785781710194,0.02230316950480542,-0.009512450500000047,-0.01676937150000002,0.011964112999999443
149092.0,0.47591672449999994,-0.5143587924999999,9.755851553,-0.013650220079847652,0.009576621605692885,0.013192943815825137,9.780986720175699,0.021262501173060958,-0.002451662500000007,0.010787315000000075,-0.013140911000000699
149102.0,0.45081170049999997,-0.494059027,9.796549150499999,-0.015250687003926452,0.009576621605692885,0.005464625887994246,9.819353378386488,0.018819066702844004,-0.025105023999999976,0.020299765499999955,0.04069759749999946
149112.0,0.435219127,-0.4749360595,9.807336465499999,-0.014983651628371319,0.013306390217204768,0.0009354964790689607,9.828470302984389,0.02006103163835967,-0.015592573499999984,0.019122967499999977,0.010787314999999964
149122.0,0.39569832749999995,-0.4545382275,9.821654174499999,-0.016315337847642993,0.014372786390173304,-0.003061307507998054,9.840125654183407,0.021957660197726173,-0.03952079950000004,0.020397832000000005,0.014317709000000178
149132.0,0.40050358599999997,-0.448556171,9.844405602499998,-0.022444934180647077,0.008243190057169218,-0.0033283428835531865,9.862754555775703,0.024141315602980135,0.00480525850000002,0.005982056499999999,0.022751427999999407
149142.0,0.39814998999999995,-0.437768856,9.857546513499999,-0.02670702821401723,-0.004546582701445229,-0.002261946710584651,9.875291805898017,0.027185532424562116,-0.0023535960000000133,0.01078731500000002,0.013140911000000699
149152.0,0.41727295749999993,-0.4497329689999999,9.812141723999998,-0.024843016572887285,-0.014938273067819467,-0.003061307507998054,9.831302135339348,0.029149598253629807,0.019122967499999977,-0.011964112999999943,-0.04540478950000093
149162.0,0.4412011835,-0.45816668799999993,9.7845850375,-0.015250687003926452,-0.022132520244540092,-0.0033283428835531865,9.805237353291533,0.027083385549395544,0.023928226000000052,-0.008433719000000006,-0.02755668649999876
149172.0,0.44600644199999995,-0.47130759899999997,9.7522230925,-0.0013945180723434693,-0.023731241839366896,-0.0009302604913129776,9.773786771004925,0.023790374197862216,0.004805258499999965,-0.013140911000000033,-0.03236194499999989
149182.0,0.443652846,-0.4665023405,9.759381947,0.008464846872172497,-0.021867230198236953,0.001467821900927231,9.780592429341148,0.02349433740808317,-0.002353595999999958,0.004805258499999965,0.007158854500000089
149192.0,0.4376707895,-0.47728965549999997,9.746241035999999,0.009531243045141035,-0.019202112430441613,0.0017348572764823635,9.767731336755695,0.021507567169408853,-0.005982056499999999,-0.010787314999999964,-0.013140911000000699
149202.0,0.4412011835,-0.47130759899999997,9.740258979499998,0.0018029251173101424,-0.014138912270406064,-0.0017296212887263805,9.76163072057775,0.014357958384508656,0.0035303939999999923,0.005982056499999999,-0.00598205650000061
149212.0,0.42560861,-0.472484397,9.740258979499998,-0.004324925886441949,-0.005345943498858632,-0.003061307507998054,9.760995296692082,0.007526998038709045,-0.015592573499999984,-0.0011767980000000344,0.0
149222.0,0.43041386849999996,-0.4497329689999999,9.7510462945,-0.006723008278682157,0.009309586230137754,-0.0001308996938995747,9.770896564752125,0.01148409207649705,0.004805258499999965,0.022751428000000073,0.01078731500000174
149232.0,0.422078216,-0.45336142949999997,9.7641872055,-0.006723008278682157,0.020500637393925398,0.007862708280234455,9.783815124491566,0.022962951800073714,-0.008335652499999957,-0.0036284605000000414,0.013140911000000699
149242.0,0.4076624405,-0.4880769705,9.7989027465,-0.008321729873508963,0.021299998191338796,0.015858061583620478,9.81951642546068,0.0278283888902787,-0.014415775500000005,-0.034715541000000016,0.03471554099999885
149252.0,0.396973192,-0.5108283985,9.830087893499998,-0.008054694497953832,0.011175343200519692,0.01718974780289215,9.851353275657917,0.022028477673952072,-0.010689248500000026,-0.022751427999999962,0.031185146999998636
149262.0,0.39814998999999995,-0.5718257615,9.813318522,-0.0021938788697568722,-0.003480186528476693,0.011859512267301468,9.838024625415425,0.012552801838092974,0.001176797999999979,-0.06099736300000003,-0.016769371499998798
149272.0,0.399326788,-0.5970288519999999,9.7989027465,0.004468042885105484,-0.01067443370519732,0.001202531854624093,9.825192128864456,0.011634131897618317,0.0011767980000000344,-0.025203090499999914,-0.014415775499999839
149282.0,0.39569832749999995,-0.5826130764999999,9.7749745205,0.012995721610349778,-0.012540190675579259,-0.0070581114950650685,9.800313364363372,0.01938974213934695,-0.0036284605000000414,0.01441577549999995,-0.023928225999998887
149292.0,0.4160961595,-0.562313311,9.770169262,0.01592612942444826,-0.010409143658894181,-0.014519394047340827,9.795179410394077,0.02393333812191124,0.02039783200000006,0.0202997654999999,-0.0048052585000011305
149302.0,0.435219127,-0.5324030285,9.7737977225,0.013528047032208048,-0.007476990515543708,-0.016118115642167634,9.797958491114809,0.022331750838871827,0.019122967499999977,0.02991028250000005,0.003628460499999875
149312.0,0.456793757,-0.5143587924999999,9.785761835499999,0.010862929264412706,-0.0005497787143782138,-0.01265363707695889,9.809911325031667,0.01668592281277263,0.02157463000000004,0.018044236000000047,0.011964112999999443
149322.0,0.4531652965,-0.507199938,9.796549150499999,0.008199556825869361,0.00797790001086608,-0.008391543043588736,9.820131660075713,0.01418793908136204,-0.0036284605000000414,0.007158854499999978,0.010787314999999964
149332.0,0.46875787,-0.4976874875,9.828813028999999,0.007133160652900825,0.012774064795346499,-0.0067928214487619305,9.852562729307595,0.01613075123887798,0.01559257350000004,0.009512450499999936,0.03226387850000023
149342.0,0.456793757,-0.482094914,9.864803434499999,0.005534439058074019,0.013306390217204768,-0.008656833089891874,9.887134207841108,0.01681162679357072,-0.011964112999999998,0.01559257350000004,0.03599040549999977
149352.0,0.460324151,-0.48690017249999995,9.895890515,0.004468042885105484,0.013306390217204768,-0.012121311655100619,9.918549248092756,0.01854587889736538,0.0035303939999999923,-0.004805258499999965,0.031087080500000752
149362.0,0.46993466799999994,-0.48327171199999996,9.912659886499998,0.0015376350710070044,0.008510225432724351,-0.013187707828069155,9.935553138362948,0.015770348641862535,0.00961051699999993,0.003628460499999986,0.016769371499998798
149372.0,0.456793757,-0.45336142949999997,9.90667783,0.0010035643198967395,0.0023806290997202655,-0.010522590060273812,9.927560765344424,0.010835102114478568,-0.013140910999999922,0.029910282499999996,-0.0059820564999988335
149382.0,0.47836838699999995,-0.4317867995,9.918641942999999,-0.003258529713473413,-0.00214850030920502,-0.007592182246175334,9.939554021551581,0.008536703153523796,0.021574629999999928,0.021574629999999984,0.011964112999999443
149392.0,0.48552724149999993,-0.4616970819999999,9.917465145,-0.008854055295367234,-0.0061453042962720346,0.0006684611035138282,9.940071217051504,0.010798421195439221,0.007158854499999978,-0.02991028249999994,-0.0011767979999994793
149402.0,0.455616959,-0.4676791385,9.8910852565,-0.014184290830957916,-0.008543386688512244,0.010794861423584929,9.912612074588019,0.019766451265744365,-0.02991028249999994,-0.005982056500000055,-0.026379888499999282
149412.0,0.4543420945,-0.482094914,9.881572806,-0.021910863429536815,-0.008276351312957111,0.018256143975860686,9.903752993952242,0.029696308190592567,-0.0012748644999999725,-0.014415775500000005,-0.009512450500000824
149422.0,0.48552724149999993,-0.5143587924999999,9.8551929175,-0.030171506779225973,-0.00721170046924057,0.023317598806644243,9.88054295627537,0.038807716489050736,0.031185146999999913,-0.032263878499999954,-0.026379888499999282
149432.0,0.49150929799999993,-0.5299513659999999,9.846857264999999,-0.037100463909643465,-0.00214850030920502,0.024651030355167913,9.873349372813108,0.04459522141957389,0.005982056499999999,-0.015592573499999984,-0.008335652500001345
149442.0,0.4735631285,-0.5598616485,9.836069949999999,-0.04136255794301361,0.001848303677861995,0.02491632040147105,9.863365508964414,0.04832287707104699,-0.017946169499999942,-0.02991028250000005,-0.010787314999999964
149452.0,0.45198849849999995,-0.5862415369999999,9.813318522,-0.04802447969787597,-0.0018814649336498874,0.018256143975860686,9.8411987662433,0.05141184059548549,-0.02157463000000004,-0.02637988849999995,-0.022751427999999407
149462.0,0.4531652965,-0.620957078,9.808513263499998,-0.051488958263084715,-0.010409143658894181,0.007330382858376184,9.83859130764794,0.05303958528853287,0.0011767980000000344,-0.03471554100000007,-0.0048052585000011305
149472.0,0.459147353,-0.6233106740000001,9.821654174499999,-0.04909087587084451,-0.01840275163302821,-0.0014625859131712482,9.852117701873162,0.052447254637273365,0.005982056499999999,-0.002353596000000069,0.013140911000000699
149482.0,0.45797055499999995,-0.5910467954999999,9.834893152,-0.040563197145600215,-0.02160019482268182,-0.0067928214487619305,9.8632751484978,0.046455180575317966,-0.0011767980000000344,0.03226387850000012,0.01323897750000036
149492.0,0.42090141799999997,-0.564666907,9.826459432999998,-0.036566393158533196,-0.02586403418530397,-0.008656833089891874,9.851665428135997,0.0456178707537873,-0.037069136999999974,0.02637988849999995,-0.008433719000001005
149502.0,0.42090141799999997,-0.6065413024999999,9.8312646915,-0.038165114753360006,-0.031726595142752924,-0.00972322926286041,9.858945977620904,0.05057364937185605,0.0,-0.04187439549999994,0.0048052585000011305
149512.0,0.43884758749999997,-0.5897719309999999,9.791743892,-0.04722511890046257,-0.03625572455167821,-0.008923868465447007,9.819300717575022,0.0602023657867246,0.017946169499999998,0.01676937150000002,-0.03952079949999998
149522.0,0.4627758135,-0.550349198,9.742710642,-0.056552158423120266,-0.029860838172370986,-0.007857472292478471,9.769209607078757,0.0644325705640966,0.023928226000000052,0.03942273299999988,-0.04903324999999903
