timestamp,ax,ay,az,gx,gy,gz,acc_mag,gyro_mag,dax,day,daz
75822.0,0.290865239,0.062958693,9.671710496,-0.011681488683598048,0.056944857504818994,0.01832944780444445,9.676288043600158,0.06095196986911106,0.0,0.0,0.0
75832.0,0.32911117399999995,-0.38353808149999996,9.772326725,-0.005019566928735692,0.022570597886790666,0.010068804454755286,9.785386310461206,0.025219214188141475,0.03824593499999995,-0.44649677449999997,0.10061622899999989
75842.0,0.3219523195,-0.424235679,9.763893006,0.020294688542190065,0.022305307840487534,-0.005918411493512772,9.778406610485357,0.030731559275278555,-0.007158854499999978,-0.040697597500000016,-0.008433718999999229
75852.0,0.32793437599999997,-0.433846196,9.7902728945,0.03974638305566686,0.024968680279030882,-0.02190562744178083,9.805366225976854,0.05179832501637836,0.005982056499999999,-0.00961051700000004,0.026379888499999282
75862.0,0.330287972,-0.43149259999999995,9.833324088,0.05306848123613958,0.023636994059759206,-0.0317649923862968,9.8483266917758,0.06621167518038706,0.0023535960000000133,0.002353596000000069,0.043051193500000196
75872.0,0.3566678605,-0.37755602499999996,9.8944195175,0.062128485383242144,0.014576989912656641,-0.033096678605568475,9.908042092311295,0.07188760300392356,0.026379888500000004,0.05393657499999999,0.06109542949999991
75882.0,0.38422454699999997,-0.3476457425,9.912365687,0.06612528937030916,0.005251695719250937,-0.030433306167025123,9.925899434187851,0.07298164376396718,0.027556686499999983,0.02991028249999994,0.017946169500000053
75892.0,0.40334751449999995,-0.292630436,9.923153001999998,0.06106208921027362,0.00045553093477052005,-0.023504349036607638,9.93565736580265,0.06543119035131964,0.019122967499999977,0.05501530650000003,0.010787314999998188
75902.0,0.42727574049999995,-0.26144528899999997,9.911188888999998,0.05146975964131278,0.0025865779514555962,-0.009915215480579788,9.923839145763958,0.0524798822508187,0.023928225999999997,0.031185147000000024,-0.011964112999999443
75912.0,0.43325779699999994,-0.28537351499999997,9.902755169999999,0.038412951507143196,0.016975072304896848,-0.0005881759579220891,9.916335528746819,0.04200064135467563,0.005982056499999999,-0.023928225999999997,-0.008433718999999229
75922.0,0.432080999,-0.28900197549999995,9.9518864865,0.025090853326670482,0.029499555017208155,0.0015428710587629874,9.96545336508686,0.038757645929258275,-0.0011767979999999234,-0.003628460499999986,0.049131316500000466
75932.0,0.397365458,-0.316558662,9.9399223735,0.014432127584741111,0.03562740602096025,-0.0008552113334772215,9.952897341222034,0.03844905399134688,-0.034715541000000016,-0.02755668650000004,-0.011964112999999443
75942.0,0.35902145649999995,-0.30930174099999996,9.9399223735,0.009635962800260694,0.034561009847991715,-0.005918411493512772,9.951212024895202,0.03636403134152665,-0.03834400150000006,0.007256921000000027,0.0
75952.0,0.36147311899999995,-0.316558662,9.949434823999999,0.010168288222118965,0.029232519641653028,-0.010447540902438057,9.961030344260111,0.0326662731402869,0.002451662500000007,-0.007256921000000027,0.009512450499999048
75962.0,0.3829496825,-0.30331968449999996,9.901578371999998,0.014699162960296242,0.022570597886790666,-0.012580333248375127,9.913622322198387,0.02972813592105494,0.021476563500000045,0.013238977500000026,-0.047856452000001326
75972.0,0.397365458,-0.29978929049999997,9.865686033,0.01736253539883959,0.01644274688303858,-0.01124690169985146,9.878235360004401,0.02642563827766048,0.014415775500000005,0.0035303939999999923,-0.03589233899999833
75982.0,0.4284525385,-0.2866483795,9.807042266,0.017629570774394723,0.01910786465083392,-0.008583529261308114,9.820581290245883,0.02737862728085018,0.031087080499999975,0.013140910999999977,-0.058643766999999514
75992.0,0.43325779699999994,-0.281843121,9.832147289999998,0.018161896196252993,0.025502751030141144,-0.0064507369153710414,9.84572334548207,0.03196649480784787,0.004805258499999965,0.00480525850000002,0.025105023999998366
76002.0,0.42727574049999995,-0.260268491,9.821359975,0.016030849179567916,0.024436354857172608,-0.0035203291012725624,9.834094569626593,0.029436648605182338,-0.005982056499999999,0.021574629999999984,-0.010787314999998188
76012.0,0.4392398535,-0.283019919,9.845288201,0.01176700981694577,0.020439550870105593,-0.00272096830385916,9.85914457162503,0.023741133677950988,0.011964113000000054,-0.022751428000000018,0.023928226000000663
76022.0,0.40217071649999997,-0.31773545999999997,9.819006379,0.009368927424705562,0.022305307840487534,-0.0011222467090323538,9.832374249315077,0.024219062670224226,-0.03706913700000003,-0.03471554099999996,-0.026281822000001398
76032.0,0.37461402999999993,-0.340486888,9.850093459499998,0.010168288222118965,0.027101472624967947,-0.001921607506445757,9.863093234541456,0.029009937594190013,-0.02755668650000004,-0.022751428000000018,0.031087080499998976
76042.0,0.37579082799999997,-0.3464689445,9.8489166615,0.01176700981694577,0.031098276612034965,-0.004052654523130833,9.862171103823142,0.033496109280849194,0.0011767980000000344,-0.005982056499999999,-0.001176797999997703
76052.0,0.38177288449999996,-0.3499993385,9.805767401499999,0.012034045192500903,0.03029891581462156,-0.0048520153205442364,9.819436053287884,0.03296034884383772,0.005982056499999999,-0.0035303939999999923,-0.04314926000000163
76062.0,0.35784465849999997,-0.36323831599999995,9.8249884355,0.013632766787327708,0.027366762671271087,-0.001921607506445757,9.838210845043738,0.030634696094333475,-0.023928225999999997,-0.013238977499999971,0.01922103400000097
76072.0,0.365003513,-0.3703971705,9.829793694,0.015763813804012785,0.027101472624967947,-0.0003228859116189509,9.843539287015565,0.03135429634677508,0.007158854500000034,-0.007158854500000034,0.004805258499999354
76082.0,0.3566678605,-0.37157396849999996,9.864509235,0.018161896196252993,0.024436354857172608,-0.0005881759579220891,9.877946225009568,0.030452189791648973,-0.008335652500000013,-0.001176797999999979,0.03471554100000063
76092.0,0.34352694949999996,-0.35480459699999994,9.885985798499998,0.0189612569936664,0.01910786465083392,-0.002186897552748895,9.898313607641898,0.027007818853077906,-0.013140911000000033,0.01676937150000002,0.02147656349999849
76102.0,0.3566678605,-0.35480459699999994,9.914719283,0.018161896196252993,0.010847221301144759,-0.0035203291012725624,9.927474841340976,0.021445498371004203,0.013140911000000033,0.0,0.028733484500001794
76112.0,0.3662783775,-0.33931008999999995,9.913542484999999,0.016563174601426187,0.006316346562967479,-0.0016545721308906243,9.926107786484076,0.017803724209197368,0.009610516999999985,0.01549450699999999,-0.0011767980000012557
76122.0,0.38059608649999993,-0.3213639205,9.8944195175,0.014699162960296242,0.005784021141109208,-0.001387536755335492,9.906950375304358,0.015857034733566998,0.014317708999999956,0.017946169499999942,-0.019122967499999532
76132.0,0.40334751449999995,-0.35607946149999997,9.880003742,0.010967649019532366,0.010047860503731356,-0.00272096830385916,9.894642779923359,0.01512125967731194,0.022751428000000018,-0.03471554099999996,-0.014415775499999839
76142.0,0.4176652235,-0.3763792269999999,9.8477398635,0.002707005669843205,0.016708036929341717,-0.0048520153205442364,9.863776456337877,0.017607624212244134,0.014317709000000067,-0.020299765499999955,-0.03226387850000023
76152.0,0.3925601995,-0.3607866535,9.838129346499999,-0.003155555287605748,0.023104668637900935,-0.005119050696099368,9.852566140759459,0.02387441982686857,-0.02510502400000003,0.015592573499999929,-0.009610517000000485
76162.0,0.3709855695,-0.37755602499999996,9.828518829499998,-0.006085963101704227,0.026302111827554545,-0.003785619147575701,9.842761869852742,0.02726116185702623,-0.021574629999999984,-0.016769371499999963,-0.009610517000000485
76172.0,0.338721691,-0.3763792269999999,9.808219064,-0.004754276882432553,0.024169319481617477,-0.004584979944989104,9.82128071658091,0.025055562136485365,-0.03226387850000001,0.0011767980000000344,-0.020299765499999012
76182.0,0.3207755215,-0.35607946149999997,9.8022370075,-0.0018221237390820802,0.02150594704307413,-0.009915215480579788,9.813946192500666,0.023751576603803892,-0.017946169499999998,0.020299765499999955,-0.0059820564999988335
76192.0,0.338721691,-0.344017282,9.7783087815,0.005105088062083414,0.017507397726755122,-0.01764178807915868,9.790219757524781,0.0253732848861625,0.017946169499999998,0.012062179499999992,-0.023928226000000663
76202.0,0.38177288449999996,-0.3260711125,9.7543805555,0.012034045192500903,0.015908676131928312,-0.02190562744178083,9.767293019422675,0.02962702707974327,0.04305119349999997,0.017946169499999998,-0.023928226000000663
76212.0,0.3913834015,-0.30812494299999993,9.7783087815,0.020827013964048336,0.018041468477865384,-0.017908823454713816,9.79098792634474,0.03286312603859502,0.00961051700000004,0.017946169500000053,0.023928226000000663
76222.0,0.41413482949999997,-0.32371751649999997,9.7794855795,0.02775422576521383,0.022305307840487534,-0.01124690169985146,9.793601936322629,0.037340549052357216,0.022751427999999962,-0.01559257350000004,0.0011767979999994793
76232.0,0.40815277299999997,-0.32371751649999997,9.8130243225,0.028820621938182363,0.021238911667518998,-0.006717772290926175,9.826842222737328,0.036425925963207144,-0.005982056499999999,0.0,0.03353874300000115
76242.0,0.38775494099999996,-0.32734597699999995,9.838129346499999,0.025890214124083884,0.02150594704307413,-0.006983062337229313,9.851207962549188,0.034374003334148494,-0.020397832000000005,-0.003628460499999986,0.025105023999998366
76252.0,0.395011862,-0.30930174099999996,9.857252314,0.020827013964048336,0.021238911667518998,-0.01071457627799319,9.870011404246942,0.031617369028688544,0.007256921000000027,0.01804423599999999,0.01912296750000131
76262.0,0.40815277299999997,-0.32969957299999997,9.8585271785,0.014432127584741111,0.022305307840487534,-0.01657713723544214,9.872479355449022,0.0313147655811734,0.013140910999999977,-0.020397832000000005,0.0012748644999991399
76272.0,0.40932957099999995,-0.304594549,9.859703976499999,0.009635962800260694,0.026567401873857685,-0.02190562744178083,9.872896790769436,0.03575660966916699,0.001176797999999979,0.025105023999999976,0.0011767979999994793
76282.0,0.432080999,-0.29616083,9.880003742,0.008037241205433887,0.03029891581462156,-0.021638592066225697,9.893880895222921,0.03809002772832246,0.022751428000000073,0.008433719000000006,0.020299765500000788
76292.0,0.418940088,-0.2901787735,9.888437460999999,0.009368927424705562,0.03322932362872004,-0.01684242728174528,9.901560984917051,0.03841395718553987,-0.013140911000000033,0.005982056499999999,0.008433718999999229
76302.0,0.434434595,-0.283019919,9.877650145999999,0.012566370614359171,0.028700194219794757,-0.01124690169985146,9.891248965558262,0.03328825042740294,0.01549450699999999,0.007158854499999978,-0.010787314999999964
76312.0,0.4751321925,-0.2878251775,9.895596315499999,0.014964453006599382,0.020971876291963863,-0.0016545721308906243,9.911176538256694,0.025816507469610936,0.040697597500000016,-0.004805258499999965,0.017946169500000053
76322.0,0.4751321925,-0.27340940199999997,9.8728448875,0.015498523757709647,0.01910786465083392,0.009269443657341885,9.888051854338483,0.026291392429833655,0.0,0.014415775500000005,-0.022751427999999407
76332.0,0.44885037049999993,-0.2662505475,9.880003742,0.012034045192500903,0.0220382724649324,0.016198400787759373,9.893777334823946,0.029881296575192905,-0.026281822000000066,0.007158854499999978,0.007158854500000089
76342.0,0.442868314,-0.3248943145,9.864509235,0.004305727264670011,0.02523571565458601,0.0148667145684877,9.879789021357688,0.029604050971745816,-0.005982056499999944,-0.05864376700000001,-0.015494506999999658
76352.0,0.42374534649999995,-0.35725625949999995,9.899224775999999,-0.003954916085019151,0.024436354857172608,0.00793775743807021,9.914728605433664,0.025995861076156826,-0.019122967500000032,-0.03236194499999995,0.03471554099999885
76362.0,0.4164884255,-0.36206151799999997,9.829793694,-0.006618288523562497,0.02470339023272774,-0.0003228859116189509,9.845272734566274,0.025576619934687798,-0.007256920999999972,-0.00480525850000002,-0.06943108199999948
76372.0,0.4249221445,-0.3847148795,9.8153779185,-0.0007557275661135447,0.02683443724941282,-0.008848819307611252,9.83210089708057,0.028265876066126305,0.008433719000000006,-0.022653361500000024,-0.014415775499999839
76382.0,0.40815277299999997,-0.3607866535,9.795078153,0.009368927424705562,0.028700194219794757,-0.01151393707540659,9.810214662219641,0.03231174239065054,-0.01676937150000002,0.023928225999999997,-0.020299765499999012
76392.0,0.40932957099999995,-0.3225407185,9.796254951,0.0197606177910798,0.027633798046826218,-0.0075171330883395775,9.810106741405903,0.03479390894748283,0.001176797999999979,0.03824593500000001,0.0011767979999994793
76402.0,0.4164884255,-0.2901787735,9.8273420315,0.026422539545942154,0.02336995868420407,0.00021118483949131387,9.840442964280216,0.03527534782244837,0.007158854500000034,0.032361945,0.031087080500000752
76412.0,0.410506369,-0.23987065899999999,9.852545122,0.02615550417038702,0.01937315469713706,0.014599679192932567,9.864010279449461,0.03567324142635323,-0.005982056499999999,0.0503081145,0.025203090499999803
76422.0,0.38657814299999993,-0.2411455235,9.8836322025,0.01949532774477666,0.019907225448247325,0.030054569719342353,9.894128528498324,0.04098344287561033,-0.023928226000000052,-0.0012748645000000003,0.031087080499998976
76432.0,0.3686319735,-0.2866483795,9.876473348,0.007237880408020485,0.02336995868420407,0.03671649147420471,9.887506390344878,0.044120773201266075,-0.017946169499999942,-0.04550285600000001,-0.007158854500000089
76442.0,0.33754489299999996,-0.3380352255,9.878826944,-0.006352998477259359,0.027101472624967947,0.03378433833085424,9.890370375166423,0.043774786402078235,-0.03108708050000003,-0.051386845999999986,0.002353596000000735
76452.0,0.3195987235,-0.40148425099999996,9.868039628999998,-0.015145967248806793,0.026035076451999414,0.022060961745208326,9.881373339135521,0.03733512505519337,-0.017946169499999942,-0.06344902549999998,-0.01078731500000174
76462.0,0.3231291175,-0.49013636699999996,9.853721919999998,-0.013280210278424853,0.02470339023272774,0.009269443657341885,9.871194545824773,0.029538856777916185,0.0035303939999999923,-0.088652116,-0.014317709000000178
76472.0,0.33754489299999996,-0.5080825365,9.773503522999999,-0.003420845333908886,0.01937315469713706,-0.005918411493512772,9.792520387151615,0.02054382876496672,0.01441577549999995,-0.017946169500000053,-0.08021839699999944
76482.0,0.3482341415,-0.482879446,9.7459468365,0.010435323597674096,0.018308503853420515,-0.01817585883026895,9.764113852089183,0.027829105917308115,0.010689248500000026,0.025203090500000025,-0.02755668649999876
76492.0,0.351862602,-0.443456713,9.730354262999999,0.026689574921497285,0.01937315469713706,-0.026169466804402977,9.746807437847187,0.04210099197449117,0.0036284605000000414,0.03942273299999999,-0.015592573500001095
76502.0,0.3482341415,-0.38598974399999997,9.7351595215,0.040011673101970006,0.020172515494550458,-0.025902431428847843,9.749030003484016,0.051757128202045304,-0.0036284605000000414,0.057466969000000034,0.0048052585000011305
76512.0,0.36382671499999997,-0.31057660549999994,9.786644434,0.04694063023238749,0.020172515494550458,-0.020839231268812295,9.798328274964804,0.05517813613983942,0.015592573499999984,0.07541313850000003,0.051484912499999425
76522.0,0.351862602,-0.284196717,9.823811637499999,0.04960574800018284,0.020706586245660723,-0.012313297872819996,9.83421832957354,0.0551462623675569,-0.011964112999999943,0.02637988849999995,0.037167203499999246
76532.0,0.34352694949999996,-0.29616083,9.8751984835,0.04667359485683236,0.0220382724649324,-0.008316493885752979,9.885609090530526,0.0522807228397819,-0.008335652500000068,-0.011964112999999998,0.05138684600000154
76542.0,0.32793437599999997,-0.31175340349999997,9.913542484999999,0.04507487326200555,0.02150594704307413,-0.00618370153981591,9.923862944511894,0.050323832550183356,-0.015592573499999984,-0.015592573499999984,0.038344001499998726
76552.0,0.34352694949999996,-0.34529214649999995,9.957868543,0.04960574800018284,0.020172515494550458,-0.008049458510197848,9.969773485447716,0.05415214121660304,0.015592573499999984,-0.03353874299999998,0.04432605800000111
76562.0,0.35784465849999997,-0.38834334,10.015335511999998,0.05946336761544681,0.016708036929341717,-0.01577777643802874,10.029247667061952,0.06374942207997206,0.014317709000000012,-0.04305119350000003,0.05746696899999826
76572.0,0.36382671499999997,-0.40148425099999996,10.004548197,0.07358657192258491,0.008714428955207687,-0.02110626664436743,10.019208756605718,0.07704803262248985,0.005982056499999999,-0.013140910999999977,-0.010787314999998188
76582.0,0.350685804,-0.35480459699999994,9.984150365,0.09330530181161686,-0.003543018381548489,-0.022704988239194233,9.996605691238855,0.09609343794635955,-0.013140910999999977,0.046679654000000015,-0.02039783200000045
76592.0,0.330287972,-0.353627799,9.961398936999998,0.11222292557398339,-0.01979726970537168,-0.020306905846954024,9.973144516487173,0.11575097121513969,-0.020397832000000005,0.0011767979999999234,-0.022751428000001184
