timestamp,ax,ay,az,gx,gy,gz,acc_mag,gyro_mag,dax,day,daz
290382.0,-0.1309187775,-0.3266595115,9.690539264,-0.050577896393543674,0.4143219658016819,0.06030287098565608,9.696927213807536,0.42173125470906087,0.0,0.0,0.0
290392.0,-0.0232417605,-1.1359042695,9.7061318375,-0.04418301001423645,0.3698213058635825,0.06083519640751435,9.772400622970313,0.3773868807556834,0.107677017,-0.809244758,0.015592573499999318
290402.0,0.006766588499999999,-1.3765594604999998,9.8689222275,-0.023132593905932843,0.3671579334250391,0.05523967082562053,9.964466251006902,0.3720100619750562,0.030008349,-0.24065519099999988,0.1627903900000014
290412.0,-0.09267284249999999,-1.256820264,9.967086793999998,-0.006878342582109653,0.3596966508727634,0.05550670620117566,10.04644238478812,0.3640192119642357,-0.099439431,0.11973919649999987,0.09816456649999772
290422.0,-0.08786758399999998,-1.269961175,10.026907358999999,0.0008499753457212385,0.3546334507127278,0.05976880023454582,10.107393001377442,0.35963581065291883,0.004805258500000006,-0.013140911000000033,0.05982056500000077
290432.0,-0.1201314625,-1.315464031,10.055640843499999,0.0005829399701661061,0.3533017644934561,0.05896943943713241,10.142030859675124,0.3581897142586984,-0.03226387850000001,-0.04550285600000015,0.028733484500000017
290442.0,-0.112972608,-1.2855537485000001,10.110754216499998,0.0035150931135165798,0.3426430387515268,0.05390798460634885,10.19277989936569,0.34687559540676155,0.007158854499999992,0.02991028249999994,0.0551133729999993
290452.0,-0.1189546645,-1.3083051765,10.120266667,-0.0036808993924560413,0.321325587267668,0.05896943943713241,10.205175650534109,0.32671252935995393,-0.005982056499999999,-0.02275142799999985,0.009512450500000824
290462.0,-0.121406327,-1.2951642654999997,10.150176949499999,-0.007143632628412791,0.3098675007283253,0.06083519640751435,10.233195105978625,0.31586361078270675,-0.002451662499999993,0.013140911000000255,0.029910282499999497
290472.0,-0.17642163349999998,-1.269961175,10.159787466500001,-0.006878342582109653,0.295479006374884,0.06882880438164837,10.24037144556899,0.3034675585916439,-0.055015306499999986,0.025203090499999803,0.009610517000002261
290482.0,-0.190837409,-1.3334102005,10.121443464999999,0.0019163715186897737,0.2773589980806789,0.0752236907609556,10.2106816371221,0.2873852639712335,-0.014415775500000033,-0.06344902549999998,-0.03834400150000228
290492.0,-0.25664003049999995,-1.3561616285,10.132230779999999,0.017636552091402698,0.2536452095338319,0.07575776151206587,10.225807500977622,0.2653039364925694,-0.06580262149999994,-0.022751428000000073,0.010787314999999964
290502.0,-0.28900197549999995,-1.3298798065,10.063976496,0.03415783879078103,0.22593287167066597,0.07362496916612879,10.155576071972472,0.24006885790731797,-0.032361945,0.026281822000000066,-0.06825428399999822
290512.0,-0.2686041435,-1.347825976,10.038871471999999,0.0472146469249506,0.19928518465121656,0.07362496916612879,10.132508252097361,0.21763373771185074,0.02039783199999995,-0.017946169500000053,-0.02510502400000192
290522.0,-0.2662505475,-1.3645953474999999,9.999350672499999,0.058405698088738245,0.1816992471081217,0.07362496916612879,10.095544744494418,0.20456411721903853,0.0023535960000000133,-0.016769371499999908,-0.03952079949999998
290532.0,-0.27095773949999996,-1.3694006059999997,9.932371253,0.06826506303325422,0.17210691753916085,0.07309264374427053,10.029988774855578,0.1990563851407247,-0.004707191999999971,-0.004805258499999798,-0.06697941949999908
290542.0,-0.2793914585,-1.3645953474999999,9.886868397,0.07226186702032122,0.17130755674174744,0.06776415353793185,9.984505333220007,0.19788895099727524,-0.008433719000000062,0.004805258499999798,-0.045502855999998815
290552.0,-0.24585271549999996,-1.35135637,9.861665306499999,0.07226186702032122,0.17530436072881445,0.06403263959716797,9.95685945536463,0.20013389330541115,0.033538743000000065,0.013238977499999915,-0.02520309050000158
290562.0,-0.27095773949999996,-1.3501795719999998,9.794685887,0.07012907467438415,0.18303093332739334,0.06083519640751435,9.891019896766867,0.2052299461368221,-0.025105024000000004,0.0011767980000001454,-0.06697941949999908
290572.0,-0.26742734549999997,-1.3549848304999998,9.7887038305,0.07039611004993929,0.19182564742819277,0.058704149390829276,9.885657487352656,0.21260025512004752,0.0035303939999999923,-0.00480525850000002,-0.00598205650000061
290582.0,-0.26144528899999997,-1.3538080325,9.7887038305,0.07146250622290783,0.1974211730100866,0.05737071784230561,9.885336236529701,0.21765433286309538,0.005982056499999999,0.0011767979999999234,0.0
290592.0,-0.27340940199999997,-1.3753826625,9.7922342245,0.07572634558552997,0.1974211730100866,0.05550670620117566,9.89213229171935,0.2186105976427522,-0.011964112999999998,-0.02157463000000015,0.0035303940000002143
290602.0,-0.272232604,-1.3885235734999999,9.807826797999999,0.07892378877518359,0.19502309061784637,0.05284158843338032,9.909368032544393,0.21692211454097818,0.001176797999999979,-0.01314091099999981,0.015592573499999318
290612.0,-0.260268491,-1.3897003715,9.816260517,0.08318588280855374,0.1976864630563897,0.05017647066558498,9.917559041798933,0.22026689942621447,0.011964112999999998,-0.0011767980000001454,0.008433719000001005
290622.0,-0.25664003049999995,-1.3741077979999998,9.8461707995,0.08638332599820735,0.2043483848112521,0.048577749070758174,9.944904009526985,0.2271126132346279,0.0036284605000000414,0.015592573500000206,0.029910282499999497
290632.0,-0.2829218525,-1.3789130565,9.908443027,0.08718268679562075,0.21047798114425617,0.04511501583480143,10.007931315277554,0.23224376434522315,-0.026281822000000066,-0.004805258500000242,0.062272227500001165
290642.0,-0.3141069995,-1.3765594604999998,9.922760736,0.09118123611193976,0.21553943597503974,0.03898541950179733,10.0227121967724,0.23725751666295145,-0.03118514699999997,0.002353596000000291,0.014317709000000178
290652.0,-0.284196717,-1.3322334025,9.9407069055,0.09464396934789651,0.21553943597503974,0.036587337109557125,10.033606898505926,0.2382296426373767,0.029910282499999996,0.04432605799999978,0.017946169500000053
290662.0,-0.2662505475,-1.3609668869999998,9.941883703499999,0.09784141253755012,0.21367542433390976,0.03445629009287205,10.03813587253497,0.23752339863386854,0.017946169499999998,-0.028733484499999795,0.001176797999997703
290672.0,-0.226729748,-1.3538080325,9.925114332,0.101572926478314,0.21553943597503974,0.032323497746934986,10.01958567360754,0.24045605910519982,0.03952079949999998,0.007158854499999867,-0.016769371499998798
290682.0,-0.23869386099999998,-1.314287233,9.9287427925,0.10370397349499907,0.21740519294542168,0.03259053312249011,10.018196401035796,0.2430672229805895,-0.01196411299999997,0.03952079949999998,0.003628460499999875
290692.0,-0.2578168285,-1.303499918,9.9503174225,0.1031716480731408,0.21527414592873662,0.03418925471731692,10.038645245340172,0.2411560739637312,-0.019122967500000004,0.010787314999999964,0.021574629999999928
290702.0,-0.24467591749999998,-1.2735896355,9.9622815355,0.10023949492979033,0.21021094576870103,0.03498861551473033,10.046340142401199,0.23550117044377689,0.013140911000000005,0.02991028249999994,0.01196411300000122
290712.0,-0.2242780855,-1.2747664335,9.992191818,0.09650972631827845,0.2043483848112521,0.03578797631214373,10.075675036806219,0.22880814866939317,0.020397831999999977,-0.0011767979999999234,0.029910282499999497
290722.0,-0.2327118045,-1.2496614094999998,9.998173874499999,0.0922458869556563,0.19955222002677167,0.037653733282525664,10.078655130873438,0.22304303577552115,-0.008433719000000006,0.025105024000000142,0.0059820564999988335
290732.0,-0.2350654005,-1.2472097469999999,10.0077843915,0.08771675754673101,0.1976864630563897,0.03951774492365561,10.087940142679031,0.21985408659860847,-0.0023535959999999856,0.0024516624999999515,0.009610517000000485
290742.0,-0.217119231,-1.2616255224999997,10.029260954999998,0.08078780041631353,0.2006186161997402,0.038718384126242206,10.110633759709671,0.21971256480081428,0.017946169499999998,-0.014415775499999839,0.02147656349999849
290752.0,-0.215942433,-1.28074849,10.037694673999999,0.0743929140370063,0.2014179769971536,0.03845309407993906,10.121376497169502,0.2181333251955417,0.0011767980000000067,-0.0191229675000002,0.008433719000001005
290762.0,-0.20996037649999996,-1.2735896355,10.011314785499998,0.06799802765769908,0.2043483848112521,0.036320301734002,10.094183357445212,0.21840594877052621,0.005982056500000027,0.007158854499999867,-0.02637988850000106
290772.0,-0.215942433,-1.290359007,9.993368616,0.06240250207580526,0.20621414178163405,0.03498861551473033,10.078644442412369,0.21827172916274426,-0.005982056500000027,-0.016769371499999908,-0.017946169499998277
290782.0,-0.2327118045,-1.2951642654999997,10.018571706499998,0.061336105902836724,0.20568181635977578,0.03392221934176179,10.104621927457952,0.21729667377447617,-0.01676937150000002,-0.004805258499999798,0.025203090499998027
290792.0,-0.21476563499999998,-1.2879073445,10.0101379875,0.06187017665394699,0.19715413763453143,0.03418925471731692,10.094933983676395,0.20944349568256337,0.017946169500000025,0.00725692099999975,-0.008433718999997453
290802.0,-0.192014207,-1.277218096,9.987386559499999,0.06160314127839185,0.18969285508225572,0.036055011687698854,10.070553401343986,0.2026777988641659,0.02275142799999999,0.010689248500000081,-0.022751428000001184
290812.0,-0.19554460099999998,-1.2712360395,9.941883703499999,0.06187017665394699,0.1840973295003619,0.038186058704383935,10.024735923355923,0.1979341318917232,-0.0035303939999999923,0.005982056499999944,-0.04550285600000059
290822.0,-0.207508714,-1.2556434659999998,9.911973420999999,0.06187017665394699,0.18489669029777528,0.04298222348886435,9.993343658591195,0.19965514363098366,-0.011964113000000026,0.015592573500000206,-0.029910282499999497
290832.0,-0.207508714,-1.257997062,9.951494220499999,0.06293482749766353,0.18809413348742887,0.0472460628514865,10.03283876552551,0.20389307496703754,0.0,-0.002353596000000291,0.03952079949999998
290842.0,-0.20878357849999998,-1.2712360395,9.946688962,0.06213546670025012,0.19155861205263763,0.04831245902445504,10.029768340173543,0.20709807283164292,-0.0012748644999999725,-0.013238977499999915,-0.004805258499999354
290852.0,-0.20996037649999996,-1.2843769505,9.9036377685,0.059737384308009914,0.1926250082256062,0.049111819821868435,9.988781134870028,0.2075690721762117,-0.001176797999999979,-0.013140911000000033,-0.043051193500000196
290862.0,-0.23153500649999997,-1.291535805,9.8952040495,0.05574058032094291,0.19129157667708252,0.04378158428627776,9.981820293717632,0.20400075177492868,-0.02157463000000001,-0.007158854500000089,-0.008433718999999229
290872.0,-0.2470295135,-1.3179156935,9.8700990255,0.05467592947722636,0.19102628663077936,0.04085117647217927,9.96076202551239,0.20285294690318018,-0.015494507000000018,-0.02637988849999995,-0.025105024000000142
290882.0,-0.2219244895,-1.314287233,9.850976058,0.053876568679812956,0.19075925125522425,0.03738669790697054,9.940740953528357,0.20171648859860578,0.025105024000000004,0.003628460500000097,-0.019122967499999532
290892.0,-0.21476563499999998,-1.327428144,9.835383484500001,0.057873372666879974,0.19182564742819277,0.03259053312249011,9.926880579650167,0.20299888946566436,0.007158854500000006,-0.013140911000000033,-0.015592573499999318
290902.0,-0.20878357849999998,-1.304676716,9.805473202,0.06453354909249033,0.1960877414615629,0.03099181152766331,9.894093017101868,0.20874739205972323,0.005982056499999999,0.022751428000000073,-0.029910282500001273
290912.0,-0.20633191599999998,-1.2855537485000001,9.843719136999999,0.07146250622290783,0.19955222002677167,0.033656929295458646,9.929452540194884,0.21461772341275018,0.002451662500000007,0.019122967499999755,0.038245934999999065
290922.0,-0.19319100499999997,-1.277218096,9.841365541,0.07306122781773462,0.20221733779456702,0.03738669790697054,9.925778787618885,0.21823739343967619,0.013140911000000005,0.008335652500000235,-0.0023535959999989586
290932.0,-0.1787752295,-1.269961175,9.876081081999999,0.06986378462808103,0.20328373396753555,0.04005181567476587,9.959002937389286,0.21865354521980218,0.014415775499999978,0.007256920999999972,0.03471554099999885
290942.0,-0.19681946549999998,-1.2855537485000001,9.8700990255,0.06639930606287227,0.2054147809842206,0.04378158428627776,9.955412654202645,0.22027466312547783,-0.01804423599999999,-0.015592573500000206,-0.0059820564999988335
290952.0,-0.20280152199999998,-1.299969524,9.889221993,0.06853035307955735,0.20621414178163405,0.04591437663221483,9.976360100131169,0.2221009039726528,-0.005982056499999999,-0.014415775499999839,0.019122967499999532
290962.0,-0.21829602899999997,-1.3179156935,9.9167786795,0.0711954708473527,0.20568181635977578,0.045647341256659694,10.006350698912993,0.22239038741374303,-0.01549450699999999,-0.017946169500000053,0.027556686500000538
290972.0,-0.2434991195,-1.311933637,9.922760736,0.07332826319328975,0.20354902401383868,0.04538030588110456,10.012074825578992,0.22106246067976637,-0.025203090500000025,0.005982056499999944,0.00598205650000061
290982.0,-0.215942433,-1.3190924914999997,9.968263592,0.0735935532395929,0.19955222002677167,0.04191582731589582,10.057480558027164,0.21678107891515322,0.02755668650000001,-0.007158854499999645,0.045502855999998815
290992.0,-0.21231397249999998,-1.2986946594999997,9.987386559499999,0.07306122781773462,0.1976864630563897,0.037653733282525664,10.073707129473926,0.21409270028679594,0.0036284605000000136,0.020397832000000005,0.019122967499999532
291002.0,-0.207508714,-1.2867305464999998,9.991015019999999,0.07226186702032122,0.19582245141525978,0.03285756849804525,10.07566953088219,0.21130033059876668,0.004805258499999965,0.011964112999999887,0.003628460499999875
291012.0,-0.20152665749999998,-1.2639791185,10.004155931,0.06959674925252589,0.19715413763453143,0.029925415354694774,10.085702360145753,0.2112084088692629,0.005982056500000027,0.02275142799999985,0.013140911000000699
291022.0,-0.18956254449999999,-1.2376972964999997,9.983856165499999,0.06693163148473055,0.20008454544862994,0.03152413694952158,10.062068002624166,0.21332472859704948,0.011964112999999998,0.026281822000000288,-0.020299765500000788
291032.0,-0.1536702055,-1.232892038,9.977874109,0.059737384308009914,0.20594710640607888,0.03845309407993906,10.05492958923506,0.21785638885587058,0.035892338999999995,0.004805258499999798,-0.0059820564999988335
291042.0,-0.1787752295,-1.2496614094999998,9.9658119295,0.0541418587261161,0.21260902816094124,0.04458094508369116,10.045447806605777,0.22387809268977996,-0.025105024000000004,-0.016769371499999908,-0.01206217950000088
291052.0,-0.20996037649999996,-1.2604487245,9.969440389999999,0.05174377633387589,0.2131413535827995,0.04884478444631331,10.050997763235102,0.2247052913573798,-0.03118514699999997,-0.010787315000000186,0.003628460499999875
291062.0,-0.2219244895,-1.2712360395,9.983856165499999,0.04934569394163568,0.20834518879831912,0.04937710986817158,10.066909927110494,0.21972895618220714,-0.011964113000000026,-0.010787314999999964,0.014415775499999839
291072.0,-0.230260142,-1.2687843769999998,9.9503174225,0.04961272931719081,0.19955222002677167,0.049111819821868435,10.033526316147288,0.211410695742031,-0.008335652500000013,0.0024516625000001735,-0.03353874299999937
291082.0,-0.23153500649999997,-1.2616255224999997,9.941883703499999,0.05254313713128929,0.19289029827190932,0.0480454236488999,10.024288453161013,0.2056108245220224,-0.0012748644999999725,0.007158854500000089,-0.008433719000001005
291092.0,-0.226729748,-1.278394894,9.9263891965,0.056806976493911435,0.19235797285005105,0.0472460628514865,10.010939134967575,0.206060216326023,0.004805258499999965,-0.016769371500000352,-0.015494506999997881
291102.0,-0.24585271549999996,-1.2975178615,9.9144250835,0.05760633729132485,0.19422372982043298,0.04404861966183289,10.001990846574706,0.20732011049484622,-0.01912296749999995,-0.019122967499999977,-0.01196411300000122
291112.0,-0.22555294999999997,-1.2891822089999998,9.867647362999998,0.05254313713128929,0.19528838066414952,0.04005181567476587,9.954060949269731,0.2061612980674808,0.020299765499999983,0.008335652500000235,-0.04677772050000151
291122.0,-0.19681946549999998,-1.291535805,9.850976058,0.045081854579013536,0.19848582385380314,0.039784780299210745,9.937229590428407,0.20739292328009354,0.02873348449999999,-0.002353596000000291,-0.01667130499999736
291132.0,-0.194367803,-1.291535805,9.7910574265,0.04081976054564338,0.2046154201868072,0.04058414109662414,9.877785637857345,0.21255774636031977,0.002451662499999979,0.0,-0.05991863150000043
291142.0,-0.20878357849999998,-1.290359007,9.805473202,0.040020399748229976,0.20861222417387423,0.04458094508369116,9.892215205136685,0.2170441271615843,-0.014415775499999978,0.0011767980000001454,0.014415775499999839
291152.0,-0.18956254449999999,-1.2951642654999997,9.7551650875,0.044549529157155265,0.2107432711905593,0.04777838827334477,9.842592662367185,0.22063581143191677,0.019221033999999998,-0.004805258499999798,-0.050308114499999945
291162.0,-0.20633191599999998,-1.2951642654999997,9.782721773999999,0.0549412195235295,0.21127734194166958,0.05097583146299838,9.87024156957073,0.2241766897204387,-0.01676937149999999,0.0,0.02755668649999876
291172.0,-0.2111371745,-1.3322334025,9.800667943499999,0.06826506303325422,0.21047798114425617,0.05097583146299838,9.89305397154696,0.2270674674426965,-0.00480525850000002,-0.03706913700000025,0.017946169500000053
291182.0,-0.21947282699999998,-1.3453743135,9.839011945000001,0.07998843961890012,0.2046154201868072,0.053108623808935454,9.932993326237044,0.22602244705729813,-0.008335652499999985,-0.013140911000000033,0.03834400150000228
291192.0,-0.2242780855,-1.3634185494999997,9.866470565,0.08585100057634908,0.20008454544862994,0.051509902214108644,9.962753244498613,0.2237353115926321,-0.00480525850000002,-0.018044235999999714,0.0274586199999991
291202.0,-0.22310128749999997,-1.3705774039999998,9.8485243955,0.08878315371969955,0.1976864630563897,0.04484798045924629,9.945938335501491,0.22130008452649555,0.0011767980000000344,-0.007158854500000089,-0.017946169500000053
291212.0,-0.2350654005,-1.3597900889999999,9.900009308,0.08851611834414443,0.20035158082418508,0.03951774492365561,9.995722541524524,0.22257023904672352,-0.011964113000000026,0.010787314999999964,0.051484912499999425
291222.0,-0.22908334399999997,-1.3310566044999999,9.9395301075,0.08744972217117589,0.20221733779456702,0.033122858544348384,10.030874818318702,0.22279234585300903,0.005982056500000027,0.028733484500000017,0.03952079949999998
291232.0,-0.207508714,-1.3287030085,9.9407069055,0.08371995355966401,0.20195030241901188,0.029660125308391638,10.031259409079116,0.22061885301232112,0.021574629999999956,0.002353595999999847,0.0011767980000012557
291242.0,-0.207508714,-1.2986946594999997,9.921583938,0.07945611419704186,0.20594710640607888,0.03019245073024991,10.008371272278989,0.2227982692963047,0.0,0.030008349000000267,-0.01912296750000131
291252.0,-0.20633191599999998,-1.301146322,9.913150219,0.07705803180480164,0.2115426319879727,0.033122858544348384,10.000305089109737,0.22756394523776738,0.0011767980000000344,-0.0024516625000001735,-0.008433718999999229
291262.0,-0.21476563499999998,-1.2891822089999998,9.92040714,0.07812442797777018,0.21713815756986654,0.036320301734002,10.0061277659913,0.23360558648657984,-0.008433719000000006,0.01196411300000011,0.00725692099999975
291272.0,-0.2542864345,-1.3023231199999998,9.94786576,0.08451931435707741,0.21980327533766186,0.03791902332882881,10.03597231356472,0.23852640666971597,-0.03952079950000001,-0.013140911000000033,0.0274586199999991
291282.0,-0.263798885,-1.277218096,9.935901647,0.09144652615824289,0.2123419927853861,0.037653733282525664,10.02112855198128,0.2342421667347507,-0.009512450499999991,0.02510502399999992,-0.011964112999999443
291292.0,-0.24222425499999997,-1.2616255224999997,9.989838222,0.09810844791310525,0.2046154201868072,0.041116466518482414,10.072102027405492,0.2306150505693582,0.02157463000000001,0.015592573500000206,0.05393657499999982
291302.0,-0.2470295135,-1.2855537485000001,9.982581301,0.10477036966796761,0.20035158082418508,0.04431390970813603,10.068048542388803,0.23039381261816338,-0.00480525850000002,-0.02392822600000044,-0.00725692099999975
291312.0,-0.262622087,-1.278394894,9.993368616,0.1108982206717197,0.19555541603970464,0.04591437663221483,10.078228026832855,0.22945253555395784,-0.015592573500000012,0.007158854500000089,0.010787314999999964
291322.0,-0.25301156999999996,-1.256820264,9.993368616,0.10983356982800316,0.18916052966039745,0.04591437663221483,10.07526815155848,0.22350223494204666,0.00961051700000004,0.02157463000000015,0.0
291332.0,-0.25899362649999996,-1.2436793529999999,10.029260954999998,0.10477036966796761,0.18543076104888553,0.0464467020540731,10.109396190432621,0.2179878290988543,-0.005982056499999999,0.013140911000000033,0.03589233899999833
291342.0,-0.25546323249999997,-1.2628023204999999,10.006509527,0.10450333429241247,0.17770244312105465,0.04431390970813603,10.089111163911383,0.2108621060386247,0.0035303939999999923,-0.019122967499999977,-0.02275142799999763
291352.0,-0.22310128749999997,-1.2867305464999998,9.992191818,0.10743548743576295,0.1790341293403263,0.03951774492365561,10.077169593268067,0.21250236608814446,0.032361945,-0.023928225999999997,-0.014317709000000178
291362.0,-0.20280152199999998,-1.2496614094999998,10.001802334999999,0.11702781700472378,0.18383203945405874,0.03338989391990352,10.08160860399423,0.22046454068333105,0.020299765499999983,0.03706913700000003,0.009610516999998708
291372.0,-0.19554460099999998,-1.234068836,10.0616229,0.12688718194923976,0.1859630864707438,0.028061403713564827,10.138906201596454,0.22687015857340181,0.0072569209999999995,0.015592573499999762,0.05982056500000077
291382.0,-0.18720894849999997,-1.2161226664999998,10.163415927,0.1319486367800233,0.19422372982043298,0.027260297586899435,10.237627891048337,0.23638194473773452,0.008335652500000013,0.017946169500000275,0.10179302700000115
291392.0,-0.18240368999999998,-1.208963812,10.2855087195,0.1319486367800233,0.2030166985919804,0.03045948610580504,10.357922292803789,0.24403688850074134,0.0048052584999999925,0.007158854499999867,0.12209279249999838
291402.0,-0.23751706299999997,-1.234068836,10.394460601,0.12635311119812948,0.21367542433390976,0.026727972165041164,10.470155272628187,0.24967314667336268,-0.05511337299999999,-0.025105024000000142,0.10895188150000124
291412.0,-0.2434991195,-1.267607579,10.2507931785,0.11569438545620012,0.21607350672615,0.011540117014186507,10.331741459401588,0.24536936531630127,-0.005982056500000027,-0.03353874300000004,-0.14366742250000009
