timestamp,ax,ay,az,gx,gy,gz,acc_mag,gyro_mag,dax,day,daz
330812.0,-0.065900688,-0.4968048889999999,10.2647186215,-0.04231725304385451,0.0676821230630881,-0.00014486232791552936,10.276945381628826,0.07982255741705263,0.0,0.0,0.0
330822.0,-0.11973919649999999,0.20829324599999996,9.8253807015,-0.04551469623350813,0.0085259333959923,-0.019331266795089192,9.82831773402327,0.050179447878631885,-0.05383850849999999,0.7050981349999998,-0.4393379199999998
330832.0,0.167497582,-0.4429663805,9.788311564499999,-0.048979174798716864,0.017053612121236593,-0.02652551397180982,9.799761116371844,0.058252795141637,0.2872367785,-0.6512596264999999,-0.03706913700000136
330842.0,0.10885381499999999,-0.38304774899999994,9.795470418999999,-0.037254052883818965,0.03597298121285513,-0.023061035406601076,9.80356136618515,0.056689780275066486,-0.05864376700000001,0.05991863150000004,0.007158854500000089
330852.0,0.032263878499999996,-0.29812215999999997,9.7571264175,-0.028993409534129804,0.0474310677521979,-0.011070623445400031,9.761733130300957,0.05668229607202939,-0.0765899365,0.08492558899999997,-0.038344001499998726
330862.0,0.037069136999999995,-0.35196066849999996,9.776249385,-0.023931954703346248,0.0474310677521979,-0.0012112585008840647,9.782653140677215,0.05314049107029938,0.0048052584999999995,-0.05383850849999999,0.019122967499999532
330872.0,0.013140911,-0.45728408949999994,9.8253807015,-0.006878342582109653,0.03463954966433146,0.0009197885158010117,9.836024977167373,0.03532783617118869,-0.023928225999999997,-0.10532342099999997,0.049131316500000466
330882.0,-0.030008348999999997,-0.427373807,9.85176059,0.017903587466957832,0.0063948863793072235,-0.0020106192982974674,9.861071726470533,0.019117416299122243,-0.043149259999999995,0.02991028249999994,0.026379888499999282
330892.0,-0.032361944999999996,-0.39030467,9.8744139515,0.037088246604879506,-0.025579545517228894,-0.005475097863506212,9.882177690999379,0.04538532672249161,-0.0023535959999999995,0.037069136999999974,0.022653361499999747
330902.0,-0.0072569209999999995,-0.381870951,9.8481321295,0.045348889954568664,-0.04769635779850104,-0.009471901850573226,9.855535730045842,0.06649196411613288,0.025105023999999997,0.008433719000000006,-0.02628182199999962
330912.0,0.046581587499999993,-0.36637644399999997,9.810964925999999,0.03922103895081657,-0.04716403237664277,-0.011869984242813436,9.817913949623629,0.06247905546926199,0.05383850849999999,0.015494507000000046,-0.03716720350000102
330922.0,0.0980665,-0.3376429595,9.775072586999999,0.024031438470709925,-0.025579545517228894,-0.012402309664671705,9.781393759973117,0.03722419198394924,0.05148491250000001,0.02873348449999996,-0.035892339000000106
330932.0,0.12326959049999998,-0.324403982,9.771542192999998,0.010709340290237207,0.007194247176720627,-0.009737191896876364,9.777702703859363,0.016163541317682998,0.025203090499999983,0.013238977500000026,-0.0035303940000002143
330942.0,0.11365907349999999,-0.320873588,9.7918419585,-0.0020821777976292354,0.03543891046174486,-0.004675737066092809,9.797757252795456,0.03580662447380015,-0.009610516999999999,0.0035303939999999923,0.020299765500000788
330952.0,0.09571290399999999,-0.3496070725,9.832539555999999,-0.005279620987282847,0.04769635779850104,0.0006544984694978735,9.839218474321973,0.04799213803591754,-0.017946169499999998,-0.028733484500000017,0.04069759749999946
330962.0,0.09571290399999999,-0.3543142645,9.8744139515,0.0005829399701661061,0.04130147141919382,0.0038519416591514853,9.88123223305667,0.041484802216532356,0.0,-0.004707191999999971,0.041874395500000716
330972.0,0.0789435325,-0.33401449899999996,9.899617042,0.006445500927615059,0.02931105945799277,0.012112585008840646,9.905564867544031,0.03236351965337307,-0.01676937149999999,0.02029976550000001,0.025203090499999803
330982.0,0.06580262149999999,-0.30410421649999997,9.924722066,0.0059131755057567886,0.013856168931582983,0.019306832185561274,9.929598050617994,0.024489034914913905,-0.013140911000000005,0.029910282499999996,0.025105024000000142
330992.0,0.0538385085,-0.33881975749999993,9.886476131,0.0027157323161031764,0.002398082392240209,0.02623404398672677,9.892426785268748,0.026483033532248804,-0.011964112999999992,-0.03471554099999996,-0.038245934999999065
331002.0,0.0669794195,-0.3507838705,9.8971653795,0.0019163715186897737,-0.0005323254218582705,0.027567475535250435,9.903606318690828,0.027639130911427612,0.013140910999999998,-0.011964113000000054,0.010689248500000303
331012.0,0.026281822,-0.38304774899999994,9.878042412,-0.0010157816246606998,-0.0007993607974134029,0.026768114737837034,9.885501413962388,0.026799305151653616,-0.0406975975,-0.032263878499999954,-0.01912296750000131
331022.0,-0.0036284604999999998,-0.38304774899999994,9.836168016499999,-0.0026145032194875057,0.0034644785652087444,0.02063851840483295,9.843624332153126,0.021089966352750063,-0.0299102825,0.0,-0.041874395500000716
331032.0,-0.0132389775,-0.43217906549999996,9.831362758000001,-0.004745550236172582,0.006661921754862355,0.010246828038458708,9.840866206517141,0.013111023352953404,-0.009610517,-0.04913131650000002,-0.004805258499997578
331042.0,-0.039520799499999995,-0.4310022675,9.831362758000001,-0.004480260189869444,0.010391690366374239,-0.0012112585008840647,9.84088504798083,0.011380997636213095,-0.026281821999999996,0.001176797999999979,0.0
331052.0,-0.04314926,-0.435807526,9.836168016499999,-0.005811946409141118,0.014388494353441254,-0.009471901850573226,9.845912416184408,0.018180330455979936,-0.0036284605000000067,-0.00480525850000002,0.004805258499997578
331062.0,0.0058839899999999995,-0.395011862,9.800275677499998,-0.010608111193621535,0.016521286699378322,-0.012669345040226838,9.808234925176755,0.02336658385489017,0.04903325,0.04079566400000001,-0.035892339000000106
331072.0,0.040599530999999994,-0.3747120965,9.8157701845,-0.013805554383275147,0.020251055310890206,-0.007873180255746421,9.823003705186109,0.02574267935498901,0.034715540999999996,0.02029976550000001,0.015494507000001434
331082.0,0.0214765635,-0.3411733535,9.832539555999999,-0.01513724060254682,0.020518090686445337,0.0051836278784231585,9.838480300342267,0.026019187082969224,-0.019122967499999994,0.03353874299999998,0.016769371499998798
331092.0,0.0106892485,-0.36873004,9.7918419585,-0.010875146569176666,0.009859364944515966,0.02063851840483295,9.798787937427415,0.025326356468249708,-0.010787315,-0.027556686499999983,-0.04069759749999946
331102.0,-0.0263798885,-0.403445581,9.8026292735,-0.0020821777976292354,-0.0021310470166850766,0.02623404398672677,9.810963505641269,0.0264026871675172,-0.037069137,-0.034715541000000016,0.010787314999999964
331112.0,-0.030008348999999997,-0.41178123349999995,9.766736934499999,0.009642944117268671,-0.012524482712311309,0.021704914577801483,9.775459816959964,0.026850555958665187,-0.0036284604999999963,-0.008335652499999957,-0.035892339000000106
331122.0,-0.050308114499999994,-0.395011862,9.778701047499998,0.021633356078469716,-0.012789772758614447,0.012644910430698918,9.786805375293964,0.028133150236602674,-0.020299765499999997,0.016769371499999963,0.011964112999999443
331132.0,-0.06472388999999999,-0.3866762095,9.824203903499999,0.026963591614060395,-0.010925761117484502,0.00012042771838760874,9.83202369863268,0.029093333111926526,-0.014415775499999998,0.008335652500000013,0.04550285600000059
331142.0,-0.033538742999999996,-0.393835064,9.83018596,0.025897195441091862,-0.004263839362622147,-0.011335913491703169,9.83812923848325,0.028589298566347045,0.031185146999999996,-0.007158854500000034,0.00598205650000061
331152.0,-0.028831550999999997,-0.393835064,9.8852012665,0.018702948264371237,0.009327039522657697,-0.018797196043978927,9.893085534613665,0.028109224805261755,0.004707191999999999,0.0,0.05501530649999964
331162.0,-0.027556686499999997,-0.36637644399999997,9.8852012665,0.005646140130201656,0.01625425132382319,-0.019863592216947463,9.892026847360562,0.02628006621432026,0.0012748645000000003,0.027458620000000045,0.0
331172.0,0.0095124505,-0.37353529849999995,9.9163864135,-0.00607898178469625,0.017585937543094867,-0.01826487062212066,9.923423734164906,0.026073448518581285,0.037069136999999995,-0.007158854499999978,0.031185147000000413
331182.0,0.0095124505,-0.37108363599999994,9.8971653795,-0.011674507366590071,0.01305680813416958,-0.012669345040226838,9.904124196555438,0.021616814396515575,0.0,0.002451662500000007,-0.019221033999999193
331192.0,0.0299102825,-0.37706569249999994,9.8959885815,-0.007143632628412791,0.002398082392240209,-0.0028099800957108708,9.903214789483167,0.008042280424605178,0.020397831999999998,-0.005982056499999999,-0.0011767980000012557
331202.0,0.035892338999999995,-0.3878530075,9.898440244,0.002981022362406315,-0.00506320016003555,0.00731642022436023,9.906101023079891,0.009383629099936652,0.005982056499999996,-0.010787315000000075,0.0024516625000003955
331212.0,0.025105024,-0.395011862,9.878042412,0.008311257897996997,-0.0085259333959923,0.01077915346031698,9.885969174877166,0.016061092660245063,-0.010787314999999995,-0.007158854499999978,-0.02039783200000045
331222.0,0.0214765635,-0.4094276375,9.8708835575,0.011508701087650609,-0.013589133556027849,0.009979792662903575,9.879394436849479,0.020413500756190653,-0.0036284604999999998,-0.014415775500000005,-0.007158854500000089
331232.0,0.003530394,-0.395011862,9.867255097000001,0.010442304914682074,-0.017320647496791724,0.0035849062835963527,9.875159238416108,0.02054015858511028,-0.0179461695,0.014415775500000005,-0.0036284604999980985
331242.0,0.017946169499999998,-0.36755324199999995,9.887652928999998,0.006712536303170191,-0.013589133556027849,-0.0060074232853644825,9.894498365003992,0.016303736656192627,0.014415775499999998,0.027458620000000045,0.020397831999996896
331252.0,-0.018044235999999998,-0.332837701,9.881670872499999,-0.0018151424220741027,-0.001865756970381938,-0.014001031259498512,9.887291123562342,0.014240950369072856,-0.035990405499999996,0.03471554099999996,-0.0059820564999988335
331262.0,-0.030008348999999997,-0.2825295865,9.9067758965,-0.006344271830999388,0.004796164784480418,-0.020929988389916002,9.910849213449417,0.02239011826023974,-0.011964112999999998,0.0503081145,0.025105024000000142
331272.0,-0.012062179499999999,-0.29812215999999997,9.905599098499998,-0.0034138640169009086,-0.0002670353755551324,-0.025459117798841288,9.91009161504884,0.025688371970854166,0.017946169499999998,-0.015592573499999984,-0.0011767980000012557
331282.0,0.0418743955,-0.312439869,9.911581154999999,-0.005811946409141118,-0.01119105116378764,-0.025726153174396416,9.916592818548633,0.028650537592962332,0.053936575,-0.014317709000000012,0.00598205650000061
331292.0,0.072961476,-0.27654753,9.892458187499999,-0.014604915180688549,-0.016786576745681462,-0.01906423141953406,9.896591883308362,0.02930081271724916,0.031087080499999996,0.035892338999999995,-0.019122967499999532
331302.0,0.1005181625,-0.27654753,9.818221846999998,-0.024197244749649387,-0.014655529728996385,-0.004941027112395947,9.822630130176416,0.02871767668244358,0.027556686499999997,0.0,-0.07423634050000061
331312.0,0.132782041,-0.323227184,9.7798778455,-0.0281940487367164,-0.0085259333959923,0.01077915346031698,9.786118615456814,0.03136536423767943,0.032263878499999996,-0.046679654000000015,-0.038344001499998726
331322.0,0.10532342099999999,-0.36873004,9.784683103999999,-0.02766172331485813,-0.0015987215948268059,0.023303636172628286,9.7921947647661,0.03620478292093133,-0.027458620000000003,-0.04550285599999998,0.004805258499999354
331332.0,0.0573689025,-0.393835064,9.748790764999999,-0.023664919327791117,-0.0021310470166850766,0.027832765581553575,9.756911326252752,0.03659552715969395,-0.04795451849999999,-0.02510502400000003,-0.035892339000000106
331342.0,-0.006080123,-0.4310022675,9.724862539,-0.01407258975883028,-0.009859364944515966,0.025169393143010227,9.73441068195355,0.03047528852721325,-0.0634490255,-0.03716720349999997,-0.023928225999998887
331352.0,-0.028831550999999997,-0.44531997649999994,9.720057280499999,-0.0020821777976292354,-0.018385298340508265,0.016908749793321066,9.730295713697712,0.025065124755795077,-0.022751427999999997,-0.014317708999999956,-0.0048052585000011305
331362.0,-0.006080123,-0.4345326615,9.7080931675,0.008311257897996997,-0.019718729889031932,0.005450663253978291,9.717815009078231,0.02208200729534994,0.022751427999999997,0.010787314999999964,-0.011964112999999443
331372.0,-0.0155925735,-0.41776328999999995,9.7116235615,0.013107422682477415,-0.0063948863793072235,-0.004941027112395947,9.720617341254718,0.015398469083217473,-0.0095124505,0.01676937150000002,0.0035303940000002143
331382.0,-0.0072569209999999995,-0.356765927,9.709269965499999,0.013639748104335684,0.013856168931582983,-0.011070623445400031,9.715825124637172,0.022373977055502117,0.0083356525,0.06099736299999997,-0.002353596000000735
331392.0,0.0226533615,-0.3758888945,9.766736934499999,0.01470614427730422,0.02931105945799277,-0.012669345040226838,9.773993860419706,0.03515567080576326,0.0299102825,-0.019122967500000032,0.057466969000000034
331402.0,0.033440676499999995,-0.3758888945,9.840973275,0.01204102650950888,0.03890338902695361,-0.008672541053159824,9.848206219363881,0.04163739863997189,0.010787314999999995,0.0,0.07423634050000061
331412.0,0.002353596,-0.3423501514999999,9.901970637999998,0.008311257897996997,0.039969785199922135,-0.005208062487951079,9.907887347031167,0.04115561506833952,-0.031087080499999996,0.03353874300000009,0.06099736299999847
331422.0,-0.0155925735,-0.34833220800000003,9.924722066,0.0059131755057567886,0.027712337863165966,0.0017191493132144146,9.930845207877615,0.028388286118842566,-0.0179461695,-0.00598205650000011,0.022751428000001184
331432.0,0.038245934999999995,-0.4106044355,9.936686179,0.002981022362406315,0.008792968771547434,0.00838107106807677,9.945239613700915,0.012507803419894653,0.05383850849999999,-0.062272227499999944,0.01196411300000122
331442.0,0.003530394,-0.401091985,9.9642428655,5.061454830783555e-05,-0.0037297686115118824,0.012112585008840646,9.972312827362602,0.012673928014799154,-0.034715540999999996,0.009512450499999991,0.02755668649999876
331452.0,-0.008433719,-0.3986403225,9.933155784999999,-0.0012828170002158322,-0.01119105116378764,0.014243632025525725,9.941155319348853,0.01815946857386354,-0.011964112999999998,0.002451662500000007,-0.031087080500000752
331462.0,-0.0348136075,-0.39981712049999996,9.9044223005,-0.005279620987282847,-0.009592329568960835,0.005982988675836562,9.91254996576329,0.012477312924829063,-0.026379888500000004,-0.001176797999999979,-0.02873348449999824
331472.0,-0.05511337299999999,-0.4345326615,9.9283505265,-0.00607898178469625,-0.003996803987067015,-0.003876376268679406,9.93800786349289,0.008243467390975989,-0.02029976549999999,-0.034715541000000016,0.023928225999998887
331482.0,-0.050308114499999994,-0.43816112199999996,9.898440244,-0.007677703379523056,-0.0034644785652087444,-0.014535102010608775,9.908260964430418,0.016799372945783837,0.0048052584999999995,-0.003628460499999986,-0.029910282499999497
331492.0,-0.032361944999999996,-0.42256854850000003,9.8697067595,-0.008210028801381325,-0.0021310470166850766,-0.024659757001427883,9.87880169819121,0.02607775967517733,0.017946169499999998,0.015592573499999929,-0.028733484500000017
331502.0,-0.0012748644999999999,-0.36755324199999995,9.824203903499999,-0.00847706417693646,-0.0,-0.027590164815526362,9.831077222183174,0.028863087354054975,0.031087080499999996,0.05501530650000008,-0.04550285600000059
331512.0,0.040599530999999994,-0.335191297,9.836168016499999,-0.006878342582109653,0.0034644785652087444,-0.023593360828459344,9.84196132771916,0.02481855925688543,0.041874395499999995,0.03236194499999995,0.011964112999999443
331522.0,0.0789435325,-0.33881975749999993,9.8026292735,-0.009808750396208134,0.0063948863793072235,-0.014535102010608775,9.808800720938063,0.018664815739732485,0.0383440015,-0.0036284604999999304,-0.03353874299999937
331532.0,0.0993413645,-0.356765927,9.777524249499999,-0.015671311353657087,0.007194247176720627,-0.003876376268679406,9.784535302349795,0.01767409078168931,0.020397832000000005,-0.017946169500000053,-0.025105024000000142
331542.0,0.110030613,-0.3758888945,9.755949619499999,-0.02020044076258237,0.004263839362622147,0.0033178709080412204,9.76380828237772,0.020910437596455788,0.010689248499999998,-0.019122967500000032,-0.021574629999999928
331552.0,0.08737725149999999,-0.3747120965,9.7583032155,-0.0196681153407241,0.0031974431896536117,0.007049384848805097,9.76588580646839,0.02113651415805482,-0.02265336150000001,0.0011767980000000344,0.002353596000000735
331562.0,0.0646258235,-0.38304774899999994,9.749967563,-0.014337879805133418,0.001865756970381938,0.01077915346031698,9.757703088054544,0.018034577779921686,-0.02275142799999999,-0.008335652499999957,-0.008335652499999568
331572.0,0.026281822,-0.38549941149999994,9.764285272,-0.004745550236172582,-0.003996803987067015,0.006517059426946826,9.771927517303359,0.0089981527398366,-0.0383440015,-0.002451662500000007,0.014317709000000178
331582.0,0.016671304999999997,-0.392658266,9.778701047499998,0.006977826349473329,-0.010391690366374239,-0.00014486232791552936,9.786595558346432,0.012517918130745565,-0.009610517000000002,-0.007158854500000034,0.014415775499998063
331592.0,0.035892338999999995,-0.378340557,9.8014524755,0.016570155918434165,-0.01305680813416958,-0.00840550567760469,9.80881748563786,0.022709091384508988,0.019221033999999998,0.014317708999999956,0.022751428000001184
331602.0,0.04903325,-0.3531374665,9.775072586999999,0.018702948264371237,-0.005328490206338688,-0.011070623445400031,9.781572185030914,0.02237748388735059,0.013140911000000005,0.025203090500000025,-0.02637988850000106
331612.0,0.0885540495,-0.310086273,9.806257733999999,0.016037830496575894,0.0063948863793072235,-0.008138470302049559,9.81155879878527,0.01908772583883401,0.039520799499999995,0.04305119349999997,0.031185147000000413
331622.0,0.106500219,-0.335191297,9.8708835575,0.008044222522441864,0.01918465913792167,0.0009197885158010117,9.87714724543253,0.020823224369501517,0.017946169499999998,-0.025105023999999976,0.06462582350000012
331632.0,0.0812971285,-0.33401449899999996,9.888829727,-0.0012828170002158322,0.023448498500543816,0.011313224211427244,9.89480309446547,0.02606658288775251,-0.025203090499999997,0.0011767980000000344,0.017946169500000053
331642.0,0.0538385085,-0.36392478149999996,9.899617042,-0.006878342582109653,0.01918465913792167,0.01850747138814787,9.90645029310924,0.027529788231990024,-0.027458619999999996,-0.029910282499999996,0.010787314999999964
331652.0,0.033440676499999995,-0.3531374665,9.915111549,-0.005811946409141118,0.011458086539342773,0.024370032345596825,9.921454599916487,0.027549318407743446,-0.020397832000000005,0.010787314999999964,0.015494507000001434
331662.0,0.032263878499999996,-0.392658266,9.924722066,-0.004745550236172582,0.0037297686115118824,0.02463532239189996,9.932538928142254,0.02536396125001583,-0.0011767979999999997,-0.03952079949999998,0.009610516999998708
331672.0,-0.0263798885,-0.395011862,9.924722066,-0.003946189438759179,-0.0005323254218582705,0.02410299697004169,9.93261488013027,0.024429700046852194,-0.058643767,-0.0023535960000000133,0.0
331682.0,-0.0263798885,-0.42619700899999996,9.92236847,-0.005544911033585984,-0.006661921754862355,0.017441075215179333,9.931552539429472,0.019476096747034162,0.0,-0.03118514699999997,-0.0023535959999989586
331692.0,-0.045502855999999994,-0.436984324,9.844503669,-0.008210028801381325,-0.008792968771547434,0.00731642022436023,9.85430252723552,0.014080159006074707,-0.019122967499999994,-0.01078731500000002,-0.07786480100000048
331702.0,-0.0514849125,-0.3878530075,9.85176059,-0.011674507366590071,-0.0013316862192716736,-0.0009442231253289323,9.859526731761473,0.01178809008065216,-0.005982056500000006,0.049131316499999966,0.00725692099999975
331712.0,-0.028831550999999997,-0.3843226135,9.818221846999998,-0.016203636775515357,0.009060004147102564,-0.003876376268679406,9.825783193541806,0.018964910041303393,0.022653361500000004,0.0035303939999999923,-0.03353874300000115
331722.0,-0.028831550999999997,-0.3651015795,9.810964925999999,-0.01913578991886583,0.021050416108303608,-0.0036093408931242737,9.817798286830334,0.02867622387683696,0.0,0.019221034000000026,-0.00725692099999975
331732.0,-0.0514849125,-0.3651015795,9.8396984105,-0.01753706832403902,0.02691297706575256,-0.0006789330790257941,9.846604220195141,0.03212970666018493,-0.022653361500000004,0.0,0.028733484500001794
331742.0,-0.035990405499999996,-0.3758888945,9.842150072999999,-0.012739158210306611,0.01625425132382319,0.0051836278784231585,9.849391140052788,0.021292177812220058,0.015494507000000005,-0.01078731500000002,0.002451662499998619
331752.0,-0.040795663999999995,-0.3986403225,9.818221846999998,-0.006611307206554521,-0.00559552558189382,0.007581710270663368,9.826396014299046,0.011510934807623155,-0.0048052584999999995,-0.022751427999999962,-0.023928226000000663
331762.0,-0.028831550999999997,-0.415409694,9.8122397905,-0.00048345620280242926,-0.022916173078685546,0.0078487456462185,9.821071539219828,0.024227825463531267,0.011964112999999998,-0.01676937150000002,-0.0059820564999988335
331772.0,-0.033538742999999996,-0.436984324,9.753596023499998,0.0024486969405480446,-0.025047220095370623,0.006250024051391694,9.763437690503215,0.025931103945948036,-0.004707191999999999,-0.021574629999999984,-0.05864376700000129
331782.0,-0.016769371499999998,-0.4680714045,9.7320213935,0.0008499753457212385,-0.011725121914897906,0.004117231705454623,9.743285506186956,0.01245602420212621,0.016769371499999998,-0.03108708050000003,-0.02157462999999815
331792.0,-0.035990405499999996,-0.43816112199999996,9.729569731,-0.0023474678439323734,0.00799360797413403,-0.0028099800957108708,9.739497298552516,0.008792289909956732,-0.019221033999999998,0.02991028250000005,-0.0024516625000003955
331802.0,-0.0479545185,-0.450125235,9.748790764999999,-0.003146828641345776,0.020783380732748477,-0.009737191896876364,9.759294735931364,0.02316601716344373,-0.011964113000000005,-0.011964113000000054,0.019221033999999193
331812.0,-0.045502855999999994,-0.44531997649999994,9.753596023499998,0.002981022362406315,0.021050416108303608,-0.016666149027293853,9.763862748984598,0.02701420063703278,0.002451662500000007,0.004805258500000076,0.004805258499999354
331822.0,-0.0479545185,-0.36637644399999997,9.797824015,0.013906783479890817,0.014388494353441254,-0.022528709984742806,9.804788970879148,0.030132543372444105,-0.002451662500000007,0.07894353249999997,0.04422799150000145
331832.0,-0.037167203499999996,-0.33881975749999993,9.8230271055,0.02030166985919804,0.00799360797413403,-0.023061035406601076,9.828938993832248,0.03174691987485585,0.010787315000000006,0.02755668650000004,0.025203090499999803
331842.0,-0.0072569209999999995,-0.360296321,9.87921921,0.01976934443733977,0.00559552558189382,-0.018797196043978927,9.885789715599941,0.027847288290524484,0.029910282499999996,-0.021476563500000045,0.056192104500000895
331852.0,0.007158854499999999,-0.332837701,9.9067758965,0.011773991133953747,0.012257447336756176,-0.012402309664671705,9.912368074677113,0.021040179834169236,0.014415775499999998,0.02745861999999999,0.02755668649999876
331862.0,0.019122967499999997,-0.36873004,9.905599098499998,5.061454830783555e-05,0.015187855150854655,-0.0060074232853644825,9.912478046910792,0.016332869939033438,0.011964112999999998,-0.035892338999999995,-0.0011767980000012557
331872.0,0.032263878499999996,-0.4106044355,9.911581154999999,-0.009541715020653,0.016786576745681462,-0.0036093408931242737,9.920134976524222,0.019643340501472446,0.013140910999999998,-0.041874395499999995,0.00598205650000061
331882.0,0.028635417999999996,-0.43933792,9.90079384,-0.010875146569176666,0.01332384350972471,-0.0020106192982974674,9.910578008234229,0.01731577918360576,-0.0036284604999999998,-0.028733484500000017,-0.010787314999998188
331892.0,0.0538385085,-0.43816112199999996,9.87921921,-0.007942993425826194,0.0031974431896536117,-0.002542944720155738,9.889077608809774,0.008932040940543676,0.025203090500000004,0.0011767980000000344,-0.021574629999999928
331902.0,0.063350959,-0.4130560979999999,9.8385216125,-0.0036808993924560413,-0.0015987215948268059,-0.004675737066092809,9.84739235552899,0.006161773136555988,0.009512450499999998,0.02510502400000003,-0.04069759750000124
331912.0,0.058643767,-0.37353529849999995,9.8157701845,5.061454830783555e-05,-0.0005323254218582705,-0.002542944720155738,9.823050036803874,0.0025985572991613897,-0.004707191999999999,0.03952079949999998,-0.022751427999999407
331922.0,0.0538385085,-0.36873004,9.809788128000001,-0.00048345620280242926,0.005862560957448953,0.0009197885158010117,9.816863223232035,0.005953936663555664,-0.0048052584999999995,0.004805258499999965,-0.0059820564999988335
331932.0,0.0226533615,-0.3376429595,9.8708835575,0.0008499753457212385,0.0085259333959923,0.0009197885158010117,9.876682547728818,0.008617424747279789,-0.031185147,0.031087080499999975,0.06109542949999813
331942.0,0.0095124505,-0.36637644399999997,9.9091294925,0.0013823007675795092,0.005328490206338688,-0.003077015471266003,9.915904874723532,0.006306471874313605,-0.013140911,-0.02873348449999996,0.03824593500000084
331952.0,-0.0155925735,-0.34597861199999996,9.9163864135,0.001117010721276371,-0.0021310470166850766,-0.009737191896876364,9.922432354526645,0.010030053857051987,-0.025105024,0.020397832000000005,0.00725692099999975
331962.0,0.003530394,-0.336368095,9.9091294925,-0.00021642082724729686,-0.011725121914897906,-0.012669345040226838,9.914837530597717,0.017263766264694558,0.0191229675,0.009610516999999985,-0.00725692099999975
331972.0,0.007158854499999999,-0.29567049749999996,9.875688815999998,-0.0036808993924560413,-0.017053612121236593,-0.0108035880698449,9.88011649135561,0.020520531715866087,0.003628460499999999,0.040697597500000016,-0.03344067650000149
331982.0,0.05138684599999999,-0.313616667,9.817045049,-0.010341075818066403,-0.012524482712311309,-0.004675737066092809,9.822187613554194,0.016901568962590922,0.044227991499999994,-0.017946169500000053,-0.05864376699999774
331992.0,0.0550153065,-0.300475756,9.821752241,-0.01780235837034216,-0.0005323254218582705,0.005717698629533424,9.826501383884379,0.018705598400452644,0.0036284605000000067,0.013140911000000033,0.004707191999999694
332002.0,0.0418743955,-0.33881975749999993,9.80861133,-0.01913578991886583,0.006127851003752092,0.013711306603667452,9.814550856563697,0.024325479286602503,-0.013140910999999998,-0.03834400149999995,-0.013140911000000699
332012.0,0.039422733,-0.38549941149999994,9.796647216999999,-0.014871950556243681,0.005862560957448953,0.021437879202246348,9.804308269454701,0.02674186229523419,-0.0024516625,-0.046679654000000015,-0.01196411300000122
332022.0,0.0214765635,-0.4106044355,9.7906651605,-0.00607898178469625,-0.0005323254218582705,0.022769565421518024,9.799294950671733,0.023573088456505114,-0.0179461695,-0.02510502400000003,-0.0059820564999988335
332032.0,-9.80665e-05,-0.436984324,9.7655601365,0.0024486969405480446,-0.0085259333959923,0.023303636172628286,9.775332223952118,0.024934857445868337,-0.02157463,-0.026379888500000004,-0.025105024000000142
332042.0,-0.02157463,-0.4561072915,9.7583032155,0.00404741853537485,-0.012257447336756176,0.021704914577801483,9.768980549251634,0.025253315205008356,-0.0214765635,-0.019122967500000032,-0.00725692099999975
332052.0,-0.018044235999999998,-0.46091255,9.7439855065,0.0027157323161031764,-0.006661921754862355,0.015310028198494259,9.754897207253512,0.016916068305588176,0.0035303940000000027,-0.004805258499999965,-0.014317709000000178
332062.0,-0.06707748599999999,-0.4549304935,9.736826652,0.0035150931135165798,0.0010663961729685354,0.009447467241045306,9.747679436365445,0.010136454886450087,-0.049033249999999994,0.005982056499999999,-0.007158854500000089
332072.0,-0.0946341725,-0.42619700899999996,9.753596023499998,0.008044222522441864,0.005328490206338688,0.0014538592669112766,9.763361864988939,0.009757870189626016,-0.02755668650000001,0.028733484500000017,0.016769371499998798
332082.0,-0.099439431,-0.43933792,9.810964925999999,0.014172073526193957,0.0026651177677953415,-0.00840550567760469,9.82130025951705,0.016691406365082324,-0.0048052584999999925,-0.013140911000000033,0.057368902500000374
332092.0,-0.0695291485,-0.4165864919999999,9.814593386499999,0.016837191293989296,-0.002398082392240209,-0.014268066635053644,9.82367660044535,0.022199539079284788,0.029910282499999996,0.022751428000000073,0.003628460499999875
332102.0,-0.033538742999999996,-0.3507838705,9.857742646499998,0.013906783479890817,-0.0034644785652087444,-0.014535102010608775,9.864038942325287,0.02041250667958637,0.0359904055,0.06580262149999994,0.043149259999999856
332112.0,-0.0012748644999999999,-0.343625016,9.8481321295,0.01017526953912694,-0.004263839362622147,-0.008937831099462962,9.854125340028443,0.014198635887530108,0.032263878499999996,0.007158854499999978,-0.009610516999998708
332122.0,0.016671304999999997,-0.35196066849999996,9.9044223005,0.006445500927615059,-0.0010663961729685354,0.0006544984694978735,9.91068793531625,0.006565824491424028,0.017946169499999998,-0.008335652499999957,0.056290171000000555
332132.0,0.0299102825,-0.36990683799999996,9.888829727,0.003248057737961447,0.004529129408925285,0.008648106443631903,9.895790977147671,0.010288471088179757,0.013238977500000002,-0.017946169499999998,-0.015592573500001095
332142.0,0.0214765635,-0.3758888945,9.867255097000001,-0.0012828170002158322,0.009327039522657697,0.013177235852557189,9.874435520730321,0.016195024866519348,-0.008433719,-0.005982056500000055,-0.02157462999999815
332152.0,-0.02157463,-0.42256854850000003,9.899617042,-0.0026145032194875057,0.013856168931582983,0.01291194580625405,9.908655167130293,0.01911929363362877,-0.0430511935,-0.046679654000000015,0.032361944999998116
332162.0,-0.044326057999999995,-0.450125235,9.890006524999999,-0.0036808993924560413,0.014123204307138116,0.00731642022436023,9.900343761261231,0.016326173009556626,-0.022751427999999994,-0.027556686499999983,-0.009610517000000485
332172.0,-0.041972461999999995,-0.448948437,9.888829727,-0.005544911033585984,0.009859364944515966,0.0006544984694978735,9.899104492642248,0.011330555314110115,0.0023535959999999995,0.0011767980000000344,-0.0011767979999994793
332182.0,-0.0610954295,-0.4190381544999999,9.868431894999999,-0.007942993425826194,0.004796164784480418,-0.005740387909809351,9.877513537965202,0.010910838398477616,-0.019122967500000004,0.02991028250000005,-0.02039783200000045
332192.0,-0.0575650355,-0.39628672649999996,9.8732371535,-0.006878342582109653,0.002398082392240209,-0.009204866475018093,9.881354603097947,0.011738482127589897,0.003530393999999999,0.022751427999999962,0.0048052585000011305
332202.0,-0.0072569209999999995,-0.3758888945,9.854114185999999,-0.005811946409141118,0.00506320016003555,-0.007606144880191288,9.861283461833823,0.010829042287375763,0.0503081145,0.02039783199999995,-0.01912296750000131
332212.0,-0.0036284604999999998,-0.3866762095,9.8253807015,-0.009276424974349861,0.009060004147102564,-0.0028099800957108708,9.8329872158021,0.01326769473527895,0.0036284604999999998,-0.010787314999999964,-0.02873348449999824
332222.0,-0.024026292499999997,-0.3843226135,9.7810546435,-0.011140436615479804,0.003996803987067015,0.001186823891356144,9.78863172629922,0.01189505447838099,-0.020397831999999998,0.002353595999999958,-0.04432605800000111
332232.0,-0.012062179499999999,-0.41423289599999996,9.776249385,-0.006611307206554521,-0.008260643349689161,0.0033178709080412204,9.78502868805277,0.01108854719485965,0.011964112999999998,-0.02991028249999994,-0.004805258499999354
332242.0,0.004707192,-0.45846088749999997,9.771542192999998,0.0037803831598197174,-0.020783380732748477,0.0022532200643246795,9.782292439535992,0.021244227737804555,0.016769371499999998,-0.04422799150000001,-0.00470719200000147
332252.0,-0.006080123,-0.4310022675,9.747613967,0.015505505074717624,-0.027712337863165966,-0.0014782938764391971,9.757139845884106,0.03178961639041078,-0.010787314999999999,0.02745861999999999,-0.023928225999998887
332262.0,-0.008433719,-0.4094276375,9.763108474,0.022432716875883118,-0.029578094833547904,-0.00840550567760469,9.771693261306128,0.038062356812369476,-0.0023535959999999995,0.021574629999999984,0.015494506999999658
332272.0,0.003530394,-0.415409694,9.784683103999999,0.021900391454024847,-0.020251055310890206,-0.016933184402848984,9.793497900303754,0.03429963733139386,0.011964112999999998,-0.005982056499999999,0.021574629999999928
332282.0,0.062174161,-0.360296321,9.7918419585,0.016837191293989296,-0.0021310470166850766,-0.019863592216947463,9.798665623719552,0.02612651273742608,0.058643767,0.05511337300000002,0.007158854500000089
332292.0,0.04903325,-0.30410421649999997,9.809788128000001,0.01257335193136715,0.01332384350972471,-0.01586678822988045,9.814623107911398,0.024235695851233984,-0.013140910999999998,0.056192104500000006,0.01794616950000183
332302.0,0.038245934999999995,-0.2825295865,9.8828476705,0.011508701087650609,0.018919369091618534,-0.008672541053159824,9.886959279631892,0.02378246614353784,-0.010787315000000006,0.021574629999999984,0.07305954249999935
332312.0,0.020299765499999997,-0.3423501514999999,9.912757953,0.016570155918434165,0.005328490206338688,-0.0009442231253289323,9.918688720868106,0.017431420835682672,-0.017946169499999998,-0.05982056499999994,0.029910282499999497
332322.0,0.017946169499999998,-0.33401449899999996,9.967871326,0.024565509221820186,-0.016521286699378322,0.004916592502868027,9.973482166336636,0.03000983237823307,-0.0023535959999999995,0.008335652499999957,0.0551133729999993
332332.0,0.0310870805,-0.3496070725,9.924722066,0.025097834643678457,-0.03277553802320151,0.01077915346031698,9.93092642199424,0.042665294395243754,0.013140911000000002,-0.01559257350000004,-0.043149259999999856
332342.0,0.0310870805,-0.3496070725,9.929527324499999,0.02030166985919804,-0.03837106360509534,0.016109388995907664,9.935728679855753,0.046303441935558236,0.0,0.0,0.004805258499999354
332352.0,0.032263878499999996,-0.42021495249999996,9.934332583,0.014172073526193957,-0.03890338902695361,0.014243632025525725,9.943268347672001,0.04378586985652934,0.0011767979999999963,-0.07060787999999996,0.0048052585000011305
332362.0,-0.008433719,-0.44051471799999997,9.9175632115,0.009642944117268671,-0.03117681642837471,0.008115781021773632,9.927345284540523,0.03362805607600182,-0.040697597499999995,-0.02029976550000001,-0.016769371500000574
332372.0,-0.049131316499999994,-0.45973575199999994,9.925898863999999,0.007511897100583594,-0.028511698660579367,-0.004141666314982544,9.936661366187563,0.02977413237066868,-0.040697597499999995,-0.01922103399999997,0.008335652499999568
332382.0,-0.014415775499999998,-0.4788587195,9.899617042,5.061454830783555e-05,-0.03250850264764638,-0.017997835246565525,9.911202301743279,0.037158140155113366,0.034715540999999996,-0.019122967500000032,-0.02628182199999962
332392.0,-0.0348136075,-0.43217906549999996,9.8600962425,-0.003946189438759179,-0.03304082806950465,-0.029722957161463434,9.869624544190433,0.044617518006129966,-0.020397832000000005,0.046679654000000015,-0.03952079949999998
332402.0,-0.045502855999999994,-0.393835064,9.868431894999999,-0.003946189438759179,-0.03757170280768193,-0.034786157321498985,9.876392288370957,0.05135447404220421,-0.010689248499999991,0.03834400149999995,0.008335652499999568
332412.0,-0.037167203499999996,-0.4130560979999999,9.852937388,-0.00048345620280242926,-0.043167228389575756,-0.036117843540770654,9.861661721685614,0.05628625017509526,0.008335652499999999,-0.019221033999999915,-0.015494506999997881
332422.0,-0.010787315,-0.42972740299999995,9.8708835575,0.007244861725028463,-0.050094440190741246,-0.03558551811891238,9.880239076701427,0.06187301559832021,0.026379888499999997,-0.016671305000000025,0.017946169499998277
332432.0,-0.053936574999999994,-0.39628672649999996,9.8828476705,0.017636552091402698,-0.06261892290305256,-0.03345272577297532,9.89093678081253,0.07315232283976421,-0.043149259999999995,0.03344067649999999,0.01196411300000122
332442.0,-0.076688003,-0.4094276375,9.8589194445,0.03362376803967076,-0.08659974682545464,-0.03398679652408558,9.867715270177445,0.0989200498654748,-0.02275142800000001,-0.013140911000000033,-0.023928226000000663
332452.0,-0.07305954249999999,-0.36755324199999995,9.840973275,0.05813866271318312,-0.12017464564606957,-0.03904825135486913,9.848105811866526,0.13909283048420826,0.0036284605000000136,0.04187439550000005,-0.017946169500000053
332462.0,-0.046777720499999995,-0.296945362,9.8049828695,0.08824908296858928,-0.1545489052640979,-0.04331209071749128,9.809589888182733,0.18316441238801892,0.026281821999999996,0.07060787999999996,-0.03599040549999977
332472.0,0.039422733,-0.2729190695,9.747613967,0.11303101301765678,-0.17133548200977936,-0.038248890557455735,9.751513575852078,0.2087937617080485,0.0862004535,0.02402629249999999,-0.057368902500000374
