timestamp,ax,ay,az,gx,gy,gz,acc_mag,gyro_mag,dax,day,daz
6182.0,0.16455558699999998,-0.49906041849999994,10.172143845499999,0.042704716137797256,-0.009843656981248018,-0.02271895087321019,10.185708137192515,0.049363357786455855,0.0,0.0,0.0
6192.0,0.07835513350000001,-0.0034323275,9.646605472,0.03391174736624982,-0.016238543360555243,-0.024317672468036993,9.646924299497648,0.04477774105699961,-0.08620045349999997,0.49562809099999994,-0.5255383734999999
6202.0,0.200447926,-0.4092315045,9.7255490045,0.01232726050683595,-0.0058468529941810045,-0.03497639820996636,9.736218631185515,0.03754324803851018,0.12209279249999999,-0.405799177,0.0789435325000003
6212.0,0.2136869035,-0.5122013295,9.759087747499999,0.000603883921190038,0.017868680881917946,-0.030977848893647353,9.774855802418447,0.03576704564718395,0.013238977499999999,-0.10296982499999996,0.03353874299999937
6222.0,0.139450563,-0.45110589999999995,9.792626490499998,-0.0004625122517784973,0.02479589268308344,-0.02325127629506846,9.804003089298684,0.033995177023861026,-0.0742363405,0.06109542950000002,0.03353874299999937
6232.0,0.186130217,-0.5241654425,9.7471236345,-0.005791002458117185,0.01973269252304789,-0.015522958367237567,9.762981768651429,0.02576581262351452,0.04667965399999999,-0.07305954250000002,-0.045502855999998815
6242.0,0.2603665575,-0.6869558324999999,9.7243722065,-0.016716763575601687,0.02399653188567004,-0.010461503536454012,9.752082540186985,0.03106005124312872,0.0742363405,-0.16279038999999995,-0.022751427999999407
6252.0,0.2842947835,-0.6846022365,9.6741621585,-0.017516124373015092,0.05144183437328087,-0.011260864333867414,9.702521178286574,0.05549670262533407,0.023928225999999997,0.002353595999999958,-0.050210048000000285
6262.0,0.23163307299999997,-0.645081437,9.662198045499998,-0.005791002458117185,0.08101992920682878,-0.014191272147965894,9.686477946670472,0.08245699996560085,-0.052661710500000014,0.03952079949999998,-0.01196411300000122
6272.0,0.17897136249999998,-0.6163479525,9.657392787,0.0088645272708792,0.11432779265188857,-0.02165255470024165,9.678695727707616,0.11669728849221966,-0.052661710499999986,0.028733484500000017,-0.004805258499999354
6282.0,0.09031924649999999,-0.5577041854999999,9.717213352,0.016058774447599827,0.14870030694066488,-0.03470936283441123,9.733623521232964,0.15353958899703243,-0.08865211599999999,0.05864376700000007,0.05982056500000077
6292.0,0.0448163905,-0.4894499015,9.8045906035,0.009663888068292601,0.1644222328426298,-0.04030488841630505,9.816902088600878,0.1695657554337056,-0.045502855999999994,0.06825428399999989,0.08737725149999953
6302.0,-0.031773546,-0.38049802,9.9303118565,-0.0097878064451842,0.16069246423111794,-0.036041049053682904,9.937649715541085,0.1649752297545528,-0.0765899365,0.10895188150000001,0.12572125300000003
6312.0,0.01372931,-0.39726739149999996,10.0020965345,-0.0377671796839053,0.13084733402201487,-0.02138551932468652,10.009992255729232,0.13785762626250192,0.045502856,-0.016769371499999963,0.07178467800000021
6322.0,0.04726805299999999,-0.44159344949999996,10.005724995,-0.0641460859985476,0.08714778021058087,-0.003267256359733385,10.015576454655191,0.10825955342917776,0.03353874299999999,-0.044326058,0.003628460499999875
6332.0,0.08198359399999999,-0.47268053,9.980619971,-0.07453952169417383,0.05197590512439114,0.012986994964089806,9.992143073367709,0.09179486394179803,0.034715541,-0.03108708050000003,-0.025105024000000142
6342.0,0.04246279449999999,-0.5133781275,9.9446295655,-0.06627887834448466,0.01866804167933135,0.028176595444196456,9.95796251176559,0.07439963726773245,-0.0395207995,-0.040697597500000016,-0.03599040549999977
6352.0,0.07482473949999999,-0.5696682985,9.878826944,-0.054553756429586764,-0.0029164451800825246,0.036969564215743884,9.895521335506155,0.06596488968662888,0.032361944999999996,-0.056290171,-0.0658026214999996
6362.0,0.0891424485,-0.6593991459999999,9.828518829499998,-0.04389503068765739,0.0013473941825396225,0.0409663682028109,9.851017002914274,0.06005691062552087,0.014317709000000012,-0.08973084749999993,-0.05030811450000172
6372.0,0.038834334,-0.6618508084999999,9.775857119,-0.03377037569683829,0.017868680881917946,0.039634681983539234,9.798312967511922,0.055051212948505644,-0.0503081145,-0.0024516624999999515,-0.052661710499998904
6382.0,-0.0281450855,-0.609189098,9.7459468365,-0.019380136014145035,0.03358886145463087,0.03297276022867687,9.765008102548826,0.05090190765426149,-0.0669794195,0.0526617104999999,-0.029910282499999497
6392.0,-0.019809433,-0.6630276065,9.719566947999999,-0.019380136014145035,0.04984311277845406,0.01911659129709389,9.742175305201139,0.05679233774192235,0.008335652499999999,-0.05383850850000005,-0.02637988850000106
6402.0,0.12748644999999997,-0.7683510275,9.6286593025,-0.04176398367097231,0.08848121175910453,-0.010461503536454012,9.660108491109904,0.09840019422070254,0.14729588299999996,-0.10532342099999992,-0.09090764549999975
6412.0,0.2638969515,-0.8724976504999998,9.614243527,-0.09319185541023722,0.1550969386492241,-0.04483401782523034,9.657358455996153,0.1864131740181386,0.1364105015,-0.10414662299999988,-0.014415775499999839
6422.0,0.3668667765,-0.8103234894999999,9.693285126,-0.13076181288866717,0.23556708914167465,-0.05815786133495505,9.73401211850837,0.2756317144881342,0.10296982500000001,0.06217416099999995,0.07904159899999996
6432.0,0.315381864,-0.5325991615,9.846464998999998,-0.12516628730677334,0.2955226396061839,-0.03657511980479317,9.865900899740614,0.3230138842011333,-0.05148491249999998,0.2777243279999999,0.15317987299999913
6442.0,0.211235241,-0.343428883,9.963850599499999,-0.09105906306430016,0.30298217682920764,0.022581069862302638,9.97200493852041,0.3171748053651797,-0.10414662300000002,0.18917027849999996,0.11738560050000046
6452.0,0.07835513350000001,-0.265564082,10.0236711645,-0.048958230847692935,0.2584832622203602,0.09425825158320576,10.027494573552413,0.27945504684535294,-0.13288010749999998,0.07786480100000004,0.05982056500000077
6462.0,-0.079629998,-0.22486648449999996,10.0799613355,-0.01005484182073933,0.17321520161417725,0.15687717448625832,10.082783663136277,0.23391249173370818,-0.1579851315,0.040697597500000016,0.056290171000000555
6472.0,-0.277135929,-0.2835102515,10.069174020499998,0.02245366082690705,0.07382568203010814,0.2051076030358696,10.076976125850472,0.21914270928976917,-0.19750593100000002,-0.05864376700000001,-0.01078731500000174
6482.0,-0.44718324,-0.3984441895,10.065545559999999,0.04137302991852558,-0.016238543360555243,0.2221612151571062,10.083349544804985,0.22656350856921748,-0.17004731099999998,-0.11493393800000001,-0.003628460499999875
6492.0,-0.5010217485,-0.551722129,10.011707051499998,0.03391174736624982,-0.08631874881588357,0.19977736750027894,10.039407262640214,0.22025423848796521,-0.05383850850000005,-0.15327793949999996,-0.05383850850000016
6502.0,-0.42198014949999996,-0.7995361745,9.9303118565,0.002469640891571976,-0.12202469465318355,0.1464854841198841,9.971379990164381,0.19066757010349933,0.07904159900000007,-0.24781404550000008,-0.08139519499999892
6512.0,-0.3645131805,-0.865338796,9.8404829425,-0.03350334032128315,-0.13108469880028611,0.08173551420014644,9.885180101154173,0.15807076375411042,0.05746696899999998,-0.06580262149999994,-0.08982891399999993
6522.0,-0.331072504,-0.8462158285,9.8022370075,-0.050024627020661475,-0.1326834203951129,0.03430444644794855,9.844264349483478,0.14589087840712567,0.03344067649999999,0.019122967499999977,-0.038245934999999065
6532.0,-0.26399501799999997,-0.7671742294999999,9.705249238999999,-0.04789183467472441,-0.13454917736549488,0.00046425758103049166,9.739102240917681,0.14281920211702653,0.06707748600000002,0.07904159900000007,-0.09698776850000179
6542.0,-0.138273765,-0.7995361745,9.665728439499999,-0.03483502654055482,-0.13108469880028611,-0.014990632945379296,9.699725975231487,0.136460237467718,0.12572125299999998,-0.032361945000000114,-0.03952079949999998
6552.0,0.004118793,-0.8126770855,9.6082614705,-0.024710371549735717,-0.10950195727012424,-0.016589354540206103,9.64256965208172,0.11347461298534911,0.142392558,-0.013140910999999922,-0.05746696899999826
6562.0,0.0879656505,-0.809048625,9.57717439,-0.021245892984526973,-0.0719302544624423,-0.0040666171571467884,9.611689077875655,0.07511249463867163,0.08384685750000001,0.003628460499999986,-0.031087080500000752
6572.0,0.049621649,-0.691761091,9.613066729,-0.015118041980774882,-0.02316750049097273,0.019915952094507295,9.638052067263267,0.03408714449997833,-0.03834400150000001,0.11728753399999992,0.035892339000000106
6582.0,-0.042560861,-0.6211532109999999,9.6896566655,-0.010321877196294465,0.011739084548913861,0.050558697771771736,9.709638975455949,0.05292002622145314,-0.09218251,0.07060788000000018,0.07658993649999957
6592.0,-0.18377662099999997,-0.6115426939999999,9.7316291275,-0.01538333202707802,0.030923743686835533,0.0782710356349377,9.7525567821068,0.08555278982727631,-0.14121575999999997,0.00961051699999993,0.04197246200000038
6602.0,-0.298710559,-0.6786201799999999,9.781839175499998,-0.02817485011494446,0.03252246528166233,0.09052848297169387,9.809899642815303,0.10023442101470326,-0.11493393800000001,-0.06707748599999996,0.05021004799999851
6612.0,-0.3968751255,-0.7767847465,9.774680320999998,-0.04123165824911404,0.022397810290843232,0.08093615340273304,9.813525349505158,0.09355411522443613,-0.0981645665,-0.09816456650000005,-0.007158854500000089
6622.0,-0.45198849849999995,-0.8593567394999999,9.7208418125,-0.055086081851445035,0.014137166941154071,0.05322381553956708,9.769214561680414,0.07789165836889098,-0.055113372999999966,-0.08257199299999995,-0.05383850849999838
6632.0,-0.4566956905,-0.8821081675,9.7351595215,-0.05748590957293723,0.013870131565598937,0.01565211273188515,9.785704710543007,0.0611718806482732,-0.004707192000000027,-0.022751428000000073,0.014317709000000178
6642.0,-0.4914112315,-0.873772515,9.754282489,-0.04682718383100786,0.00614355896702004,-0.020853193902828252,9.805661134346108,0.05162735862188971,-0.034715541000000016,0.008335652500000013,0.019122967499999532
6652.0,-0.43394426249999996,-0.8617103355,9.767521466499998,-0.025509732347149122,-0.019970057301319122,-0.053628731926029766,9.815056185463355,0.06265453312438869,0.057466969000000034,0.012062179499999992,0.013238977499998583
6662.0,-0.2688002765,-0.9503624514999999,9.659746383,-0.0007278022980816355,-0.049281116759311884,-0.08133932445994374,9.710105177687272,0.09510648699657677,0.16514398599999996,-0.08865211599999989,-0.1077750834999982
6672.0,-0.115522337,-0.945557193,9.6310128985,0.023785347046178722,-0.054342571590095444,-0.099726368129704,9.678007711644652,0.11603536668392551,0.1532779395,0.004805258499999909,-0.028733484500000017
6682.0,-0.0640374245,-0.785120399,9.615420325,0.05203175566045495,-0.03809006559552425,-0.10345613674121588,9.647633018470676,0.1219070503440953,0.05148491250000001,0.160436794,-0.015592573499999318
6692.0,-0.046091255,-0.677443382,9.6429770115,0.07174874022023489,-0.01863662575279545,-0.08880060701221949,9.666853654831055,0.1156752062819823,0.017946169499999998,0.10767701699999999,0.02755668649999876
6702.0,-0.0293218835,-0.6487098975,9.6896566655,0.07334746181506169,0.007742280561846846,-0.07281339106395143,9.711391795166902,0.10364160834936038,0.016769371499999998,0.028733484500000017,0.04667965400000007
6712.0,-0.065312289,-0.6414529764999999,9.7686982645,0.06535385384092766,0.026926939699768514,-0.05975658292978185,9.789953697490118,0.09255828162244696,-0.035990405499999996,0.007256921000000083,0.07904159899999996
6722.0,-0.115522337,-0.642727841,9.866862831,0.05709321049123851,0.022664845666398363,-0.049630182609710756,9.888449151090974,0.07897141849524902,-0.05021004800000001,-0.001274864500000139,0.09816456650000127
6732.0,-0.14307902349999999,-0.642727841,9.914719283,0.04883431247080134,0.001879719604397893,-0.04643273942005714,9.936560227022945,0.06741159180985085,-0.027556686499999983,0.0,0.04785645199999955
6742.0,-0.158671597,-0.6666560669999999,9.915896080999998,0.04137302991852558,-0.019970057301319122,-0.047766170968580816,9.939547377851445,0.06627320636770846,-0.015592573500000012,-0.023928225999999886,0.001176797999997703
6752.0,-0.16102519299999998,-0.622330009,9.866862831,0.03737622593145857,-0.03675663404700058,-0.0530946611749195,9.887780634634446,0.07461283707663222,-0.0023535959999999856,0.04432605799999989,-0.04903324999999725
6762.0,-0.104735022,-0.6390993805,9.823713571,0.035777504336631766,-0.050080477556725296,-0.05869018675681332,9.845037621463842,0.08504482388962303,0.056290170999999986,-0.01676937150000002,-0.043149259999999856
6772.0,-0.032950344,-0.6701864609999999,9.833324088,0.03737622593145857,-0.049281116759311884,-0.06268699074388033,9.856190858405617,0.08806400821247977,0.07178467799999999,-0.031087080499999864,0.009610516999998708
6782.0,0.0412859965,-0.6558687519999999,9.816554716499999,0.03844087677517511,-0.03968878719035106,-0.06934891249874268,9.838527067371183,0.08866889251954961,0.0742363405,0.014317708999999956,-0.016769371500000574
6792.0,0.072373077,-0.622330009,9.858429112,0.0368421551803483,-0.02796366527545315,-0.07094763409356951,9.878317521658508,0.08469284360231079,0.031087080499999996,0.033538742999999926,0.041874395500000716
6802.0,0.104735022,-0.5780039509999999,9.844111403,0.02991494337918281,-0.01863662575279545,-0.06828251632577416,9.861621940983115,0.07684223898748062,0.032361945,0.04432605800000011,-0.014317709000000178
6812.0,0.150237878,-0.5780039509999999,9.869216427,0.021654300029493645,-0.01543918256314184,-0.061622339900163796,9.887269232215951,0.06711624127405133,0.045502855999999994,0.0,0.025105024000000142
6822.0,0.14660941749999998,-0.5432884099999999,9.870491291499999,0.014193017477217889,-0.012241739373488228,-0.05176297495564783,9.886518849085219,0.05505186195085547,-0.0036284605000000136,0.03471554099999996,0.0012748644999991399
6832.0,0.162201991,-0.531324297,9.846464998999998,0.005932374127528726,-0.010643017778661421,-0.03977256299444678,9.862123907708671,0.04159715924643308,0.015592573500000012,0.011964112999999998,-0.024026292500000324
6842.0,0.162201991,-0.5385812179999999,9.838129346499999,-0.006857398631085722,-0.004248131399354199,-0.02644871948472207,9.854195464508061,0.027651497224441796,0.0,-0.007256920999999972,-0.008335652499999568
6852.0,0.14660941749999998,-0.5361295555,9.8153779185,-0.016982053621904827,0.006942919764433442,-0.01392423677241076,9.83110232397963,0.023032122129034646,-0.015592573500000012,0.0024516624999999515,-0.022751427999999407
6862.0,0.0914960445,-0.5565273875,9.8045906035,-0.019647171389700166,0.009608037532228783,-0.0022008601867648495,9.820798906475847,0.021981117223623014,-0.05511337299999998,-0.020397832000000005,-0.010787314999999964
6872.0,0.06276256,-0.6032070415,9.777033916999999,-0.01218588883742441,0.005344198169606637,0.006059783162924312,9.795825135639227,0.014621125565966278,-0.028733484500000003,-0.04667965400000007,-0.027556686500000538
6882.0,0.023339827,-0.631940526,9.7663446685,-0.0012618730491919003,0.0008150687606813518,0.006326818538479445,9.786796297045521,0.006502714317557144,-0.039422732999999995,-0.028733484499999906,-0.010689248499998527
6892.0,0.01372931,-0.645081437,9.723195408499999,0.008065166473465796,0.0021467549799530253,0.002595304597715568,9.744580417144215,0.008740198690166796,-0.009610517,-0.013140911000000033,-0.04314926000000163
6902.0,-0.0066685220000000005,-0.6642044045,9.6884798675,0.01499237827463129,0.008009315937401978,-0.004865977954560191,9.71122310026372,0.01768044935992927,-0.020397832,-0.019122967499999977,-0.03471554099999885
6912.0,-0.031773546,-0.6606740105,9.687303069499999,0.017924531417981764,0.01706932008450454,-0.014458307523521027,9.709857901468984,0.028665190931619313,-0.025105024,0.0035303939999999923,-0.0011767980000012557
6922.0,0.022064962499999997,-0.642727841,9.6310128985,0.016591099869458097,0.030391418264977262,-0.02218488012209992,9.652460587396357,0.04112264345913417,0.05383850849999999,0.017946169499999942,-0.05629017099999878
6932.0,0.046091255,-0.5708450964999999,9.6298361005,0.01499237827463129,0.045579273415831914,-0.02271895087321019,9.646850877383699,0.05308853266218738,0.0240262925,0.0718827445000001,-0.0011767979999994793
6942.0,0.0293218835,-0.5098477335,9.6884798675,0.016858135245013228,0.05117654432697773,-0.015522958367237567,9.701930046498989,0.05607314553029163,-0.016769371499999998,0.060997362999999916,0.058643766999999514
6952.0,-0.0066685220000000005,-0.49307836199999994,9.717213352,0.02325302162432045,0.04504694799397364,-0.0016685347649065792,9.729717676713202,0.05072193358394948,-0.0359904055,0.016769371500000074,0.028733484500000017
6962.0,0.001765197,-0.540934814,9.7783087815,0.030447268801041077,0.02985909284311899,0.014053391137058342,9.79325973388216,0.0449009955937282,0.008433719000000001,-0.04785645200000005,0.06109542949999991
6972.0,-0.032950344,-0.5612345795,9.8369525485,0.037109190555903435,0.011472049173358728,0.025511477676401113,9.85300489291652,0.046470801899513484,-0.034715541,-0.02029976550000001,0.058643766999999514
6982.0,-0.065312289,-0.6067374355,9.8489166615,0.03950727294814364,-0.002649409804527392,0.031107003258294935,9.86780398142889,0.05035364574509993,-0.032361944999999996,-0.045502856000000036,0.01196411300000122
6992.0,-0.060507030499999996,-0.704902002,9.8369525485,0.03870791215073024,-0.006380923745291268,0.02631083847381452,9.862361957188764,0.04723641468302849,0.0048052584999999995,-0.09816456649999994,-0.01196411300000122
7002.0,-0.0820816605,-0.7515816559999999,9.833324088,0.037109190555903435,0.004277801996638102,0.01565211273188515,9.86234632348039,0.040501607950900353,-0.021574630000000004,-0.04667965399999996,-0.003628460499999875
7012.0,-0.067665885,-0.7455995995,9.845288201,0.03497814353921836,0.023464206463811768,0.00046425758103049166,9.87371243228793,0.042121906955028675,0.014415775500000005,0.005982056499999944,0.01196411300000122
7022.0,-0.09522257149999999,-0.7000967435,9.8751984835,0.026982790235832336,0.04531398336952878,-0.014723597569824165,9.900441802106766,0.054755934684041246,-0.027556686499999997,0.045502856000000036,0.029910282499999497
7032.0,-0.11199194299999998,-0.6487098975,9.906383630499999,0.016325809823154958,0.058103756128143225,-0.02271895087321019,9.92823264035698,0.06448821032839958,-0.01676937149999999,0.051386845999999986,0.031185146999998636
7042.0,-0.1167972015,-0.597224985,9.914719283,0.004068362486398782,0.05996951309852516,-0.024582962514340133,9.933376954977522,0.06494009640104001,-0.00480525850000002,0.05148491249999998,0.008335652500001345
7052.0,-0.11081514499999999,-0.5708450964999999,9.891967854999999,-0.004726351614400644,0.04744503038621385,-0.02271895087321019,9.909044967347395,0.05281590704239625,0.005982056500000013,0.02637988850000006,-0.022751428000001184
7062.0,-0.1395486295,-0.563686242,9.905206832499998,-0.005791002458117185,0.025862288856051976,-0.01792278608872977,9.922214389642065,0.031994061254022675,-0.028733484500000003,0.007158854499999978,0.013238977499998583
7072.0,-0.1311149105,-0.519360184,9.868039628999998,-0.0009948376736367678,0.0013473941825396225,-0.007529350393103538,9.882567087553435,0.007713383850305716,0.008433719000000006,0.044326058,-0.037167203499999246
7082.0,-0.1071866845,-0.539758016,9.889614258999998,0.007265805676052394,-0.01757197490907891,0.001530653753999027,9.904912816021474,0.01907640257601221,0.023928225999999983,-0.020397832000000005,0.021574629999999928
7092.0,-0.06168382849999999,-0.566039838,9.8369525485,0.006998770300497262,-0.023434535866527863,0.007658504757751119,9.853417753974613,0.025628362259871383,0.045502856000000015,-0.026281822000000066,-0.052661710499998904
7102.0,-0.055701772,-0.5828092094999999,9.822536773,0.0016702800941585732,-0.01250877474904336,0.009257226352577924,9.839969406406668,0.015651054950325562,0.005982056499999992,-0.016769371499999908,-0.014415775499999839
7112.0,-0.080806796,-0.5684915005,9.8404829425,-0.003125884690321844,0.0021467549799530253,0.008190830179609388,9.857221559144037,0.00902604071962572,-0.025105024000000004,0.014317708999999956,0.017946169500000053
7122.0,-0.1060098865,-0.5839860075,9.854898718,-0.00632507320922745,0.015470598489677736,0.004728096943652638,9.872755770048682,0.017369538549986966,-0.025203090499999997,-0.01549450699999999,0.014415775499999839
7132.0,-0.1179739995,-0.6487098975,9.8489166615,-0.011121237993707867,0.021331414117874696,-0.0030002209841782524,9.870962556956885,0.024242782198725846,-0.011964112999999998,-0.06472389,-0.0059820564999988335
7142.0,-0.11316874099999999,-0.6749917195,9.874021685499999,-0.016182692824491425,0.02159844949342983,-0.01392423677241076,9.897713131378245,0.030368683495769808,0.004805258500000006,-0.026281822000000066,0.025105023999998366
7152.0,-0.114345539,-0.645081437,9.865686033,-0.018048449794873363,0.01600292391153601,-0.023518311670623588,9.88741451868902,0.03368903527192586,-0.0011767980000000067,0.02991028250000005,-0.008335652499999568
7162.0,-0.0975761675,-0.6402761785,9.820183176999999,-0.018580775216731633,0.009341002156673653,-0.02911383725251741,9.84151778553757,0.03577869545570046,0.01676937149999999,0.00480525850000002,-0.04550285600000059
7172.0,-0.10238142599999998,-0.5780039509999999,9.792626490499998,-0.013519320385948075,0.0008150687606813518,-0.03151191964475762,9.81020408076222,0.03429923381768478,-0.004805258499999979,0.062272227500000055,-0.027556686500000538
7182.0,-0.104735022,-0.519360184,9.814201120499998,-0.003659955441432109,-0.009311331559389747,-0.02937912729882055,9.828491647205144,0.031035935463305415,-0.0023535960000000133,0.05864376699999996,0.021574629999999928
7192.0,-0.080806796,-0.5325991615,9.838129346499999,0.004068362486398782,-0.021568778896145925,-0.025382323311753534,9.852866620612236,0.03355631286500282,0.023928225999999997,-0.013238977500000026,0.023928226000000663
7202.0,-0.053348176000000004,-0.563686242,9.821359975,0.001403244718603441,-0.034625587030315506,-0.02112022927838338,9.837667404717168,0.0405828098793778,0.027458619999999996,-0.031087080499999975,-0.016769371499998798
7212.0,-0.016180972499999998,-0.566039838,9.7830159735,-0.00872315560146766,-0.03942175181479592,-0.01845511151058804,9.79939102494794,0.044393232599834645,0.03716720350000001,-0.002353596000000069,-0.0383440015000005
7222.0,0.034127142,-0.6067374355,9.723195408499999,-0.018048449794873363,-0.029562386870279952,-0.014990632945379296,9.742167311709117,0.03774122856465136,0.0503081145,-0.040697597500000016,-0.05982056500000077
7232.0,0.04726805299999999,-0.6043838395,9.683674608999999,-0.022045253781940374,-0.00398284135305106,-0.010461503536454012,9.702632015452016,0.024724467553356326,0.013140910999999991,0.002353596000000069,-0.03952079949999998
7242.0,0.012552512,-0.5899680639999999,9.716036553999999,-0.018580775216731633,0.018401006303776217,-0.004598942579005058,9.733939911503542,0.026551695115214515,-0.03471554099999999,0.014415775500000061,0.03236194499999989
7252.0,-0.018632634999999998,-0.6115426939999999,9.7363363195,-0.00872315560146766,0.029592057467563857,0.00046425758103049166,9.75554081371641,0.030854478506572795,-0.031185146999999996,-0.02157463000000004,0.020299765500000788
7262.0,-0.03893240049999999,-0.622330009,9.755557353499999,7.155849933176751e-05,0.02719397507532365,0.0017959438003021652,9.775464676900967,0.027253308334035234,-0.020299765499999994,-0.010787315000000075,0.019221033999999193
7272.0,-0.046091255,-0.6379225824999999,9.780662377499999,0.005400048705670455,0.017601645506362812,0.0007312929565856241,9.801552232564742,0.01842588505184017,-0.007158854500000006,-0.015592573499999873,0.025105024000000142
7282.0,-0.041384063,-0.6653812024999999,9.772326725,0.0035342917352885177,0.011739084548913861,-0.003532546406036523,9.795040296265245,0.012758377962244199,0.004707191999999999,-0.02745861999999999,-0.008335652499999568
7292.0,-0.054524974,-0.6354709199999999,9.729177465,0.0027349309378751144,0.01626995928709114,-0.008328711190516942,9.750061046394487,0.018481310898677935,-0.013140910999999998,0.02991028249999994,-0.043149259999999856
7302.0,-0.09277090899999998,-0.588791266,9.7830159735,0.006998770300497262,0.023464206463811768,-0.010194468160898877,9.801157234440774,0.026523177633516866,-0.03824593499999999,0.04667965399999996,0.05383850850000016
7312.0,-0.11199194299999998,-0.5552525229999999,9.823713571,0.01232726050683595,0.02053205332046129,-0.009662142739040609,9.840030278644694,0.025824088899073634,-0.019221033999999998,0.03353874300000004,0.04069759750000124
7322.0,-0.126309652,-0.5792788154999999,9.846464998999998,0.012861331257946215,0.009873327578531921,-0.010194468160898877,9.864298811918031,0.019152640034293036,-0.014317709000000012,-0.02402629249999999,0.02275142799999763
7332.0,-0.12748644999999997,-0.5684915005,9.854898718,0.010728538912009145,-0.004248131399354199,-0.010993828958312283,9.872105354133552,0.015937767809116155,-0.001176797999999979,0.010787314999999964,0.008433719000001005
7342.0,-0.115522337,-0.573296759,9.838129346499999,0.011527899709422546,-0.01543918256314184,-0.012060225131280817,9.855496112458791,0.022731252938316113,0.01196411299999997,-0.00480525850000002,-0.016769371500000574
7352.0,-0.08924051499999999,-0.5612345795,9.788998029999998,0.014727088228328153,-0.021568778896145925,-0.009927432785343747,9.805479618768674,0.027940173092937514,0.02628182200000001,0.012062179499999992,-0.049131316500000466
7362.0,-0.088063717,-0.5708450964999999,9.8045906035,0.021121974607635374,-0.023966861288386133,-0.006729989595690135,9.821589293219832,0.032647220575424685,0.0011767979999999928,-0.00961051699999993,0.015592573500001095
7372.0,-0.055701772,-0.6259584694999999,9.8010602095,0.021387264653938514,-0.02130174352059079,-0.0056653387519735934,9.821186686097912,0.030712789348563786,0.032361945,-0.055113372999999966,-0.0035303940000002143
7382.0,-0.011375713999999999,-0.7108840584999999,9.788998029999998,0.010728538912009145,-0.010643017778661421,-0.011793189755725684,9.814783134784093,0.01916910794058896,0.044326058,-0.08492558900000002,-0.01206217950000088
7392.0,0.000588399,-0.6714613255,9.808219064,-0.008988445647770798,0.013870131565598937,-0.02112022927838338,9.831176016391357,0.02681859037275144,0.011964112999999998,0.03942273299999988,0.01922103400000097
7402.0,-0.059330232499999996,-0.575650355,9.865686033,-0.023911010752322315,0.03918438703652469,-0.023783601716926728,9.88264409505024,0.05169924886548389,-0.0599186315,0.09581097050000009,0.057466969000000034
7412.0,-0.08924051499999999,-0.550545331,9.877650145999999,-0.029506536334216137,0.04611334416694218,-0.01845511151058804,9.893383467640238,0.057772548304272656,-0.029910282499999996,0.02510502399999992,0.011964112999999443
7422.0,-0.09277090899999998,-0.563686242,9.857252314,-0.02497740692529085,0.036253979222426215,-0.011260864333867414,9.873792169315452,0.04544258940374598,-0.0035303939999999923,-0.013140910999999922,-0.020397831999998672
7432.0,-0.11199194299999998,-0.5445632745,9.846464998999998,-0.013252285010392944,0.01600292391153601,-0.0037995817815916553,9.862148058702177,0.021122344884744678,-0.019221033999999998,0.019122967499999977,-0.01078731500000174
7442.0,-0.1334685065,-0.5241654425,9.819006379,0.007265805676052394,-0.009311331559389747,0.00526042236551091,9.833892897737968,0.012929225459965114,-0.021476563500000018,0.020397832000000005,-0.0274586199999991
7452.0,-0.14670748399999997,-0.5229886445,9.792626490499998,0.02858151183065914,-0.03275983005993357,0.01591914810744028,9.80767932747497,0.046298256560570995,-0.013238977499999971,0.0011767979999999234,-0.02637988850000106
7462.0,-0.196917532,-0.48582144099999997,9.742318376,0.04590215932745086,-0.049281116759311884,0.02311339528416091,9.756411549657567,0.07120298969516298,-0.050210048000000035,0.03716720350000008,-0.05030811449999817
7472.0,-0.26399501799999997,-0.4559111584999999,9.808219064,0.06428745766795912,-0.06660001892685162,0.027377234646783054,9.822357637623803,0.09652954320502946,-0.06707748599999996,0.02991028250000005,0.06590068799999926
7482.0,-0.3394081565,-0.45110589999999995,9.878826944,0.08293979138402255,-0.09218130977333251,0.027377234646783054,9.89494397251515,0.1269878570701045,-0.07541313850000003,0.004805258499999965,0.07060788000000073
7492.0,-0.34303661699999993,-0.5002372165,9.906383630499999,0.09679596031560553,-0.13055237337842784,0.025244442300845982,9.924935668709033,0.1644708545464559,-0.0036284604999999304,-0.04913131650000002,0.02755668649999876
7502.0,-0.30351581749999995,-0.446398708,9.969832656,0.10958747840347197,-0.17105448400020828,0.018050195124125357,9.984435730006016,0.20394818328052824,0.03952079949999998,0.05383850849999999,0.06344902550000064
7512.0,-0.2329079375,-0.4583628209999999,10.018865906,0.11891277259687766,-0.21155659462198867,0.012454669542231536,10.032049472836285,0.24300526539179224,0.07060787999999996,-0.011964112999999943,0.049033250000000805
7522.0,-0.1311149105,-0.49425515999999997,10.0009197365,0.12424300813246834,-0.25152637982191084,0.011655308744818132,10.013983965378479,0.280780503308292,0.10179302700000001,-0.03589233900000005,-0.017946169500000053
7532.0,-0.022163028999999997,-0.5361295555,9.950611622,0.12184492574022814,-0.2811027293262067,0.01671850890485368,9.96506887843815,0.3068296577961231,0.10895188149999999,-0.041874395499999995,-0.050308114499999945
7542.0,0.050798447,-0.5780039509999999,9.8944195175,0.11678172558019258,-0.28883104725403763,0.02657787384936965,9.91141799329814,0.31267831499114956,0.072961476,-0.04187439549999994,-0.056192104500000895
7552.0,0.13582210249999999,-0.645081437,9.7783087815,0.1191798079724328,-0.27337615672762783,0.03430444644794855,9.800505105873345,0.3001918465608529,0.08502365549999999,-0.06707748600000007,-0.11611073599999955
7562.0,0.1262115855,-0.701371608,9.707602835,0.13196958073104725,-0.24086765407998145,0.039100611232428965,9.733725098795576,0.27742035761470635,-0.009610516999999985,-0.056290171,-0.0707059465000004
