timestamp,ax,ay,az,gx,gy,gz,acc_mag,gyro_mag,dax,day,daz
281222.0,-0.19162194099999996,-0.25379610199999997,9.7188804825,0.06826506303325422,0.053558918755949994,-0.026258478596254686,9.724081923903276,0.09065420181894819,0.0,0.0,0.0
281232.0,-0.075511205,-0.8464119615,9.959437606999998,0.042950807562328455,0.03330786344505979,-0.0473088947045583,9.995624672744404,0.07205773487765145,0.11611073599999996,-0.5926158595,0.24055712449999866
281242.0,0.046581587499999993,-0.8834810985,9.982189035,0.020568705234753175,0.05036147556629638,-0.06862634618841704,10.021317609285468,0.0875724000323235,0.12209279249999999,-0.03706913700000003,0.022751428000001184
281252.0,0.07776673449999999,-0.805714364,10.069566286499999,0.005113814708343385,0.05862211891598554,-0.06516186762320829,10.10204872783576,0.08779961799014697,0.031185146999999996,0.07776673450000005,0.08737725149999953
281262.0,0.082571993,-0.9074093245,10.087512455999999,-0.01220683278844834,0.049029789347024705,-0.05397081645942065,10.12857923729546,0.0739308869109199,0.004805258500000006,-0.10169496050000004,0.017946169500000053
281272.0,0.0897308475,-0.9816456649999998,10.1007514335,-0.029792770331543206,0.03384018886691806,-0.05050633789421191,10.148736835584941,0.06770271570669135,0.007158854500000006,-0.07423634049999983,0.01323897750000036
281282.0,0.0442279915,-0.9110377849999999,10.046814858499998,-0.04578173160906326,0.00799360797413403,-0.048642326253081965,10.08813336360628,0.0672751114520051,-0.045502856,0.07060787999999996,-0.053936575000001596
281292.0,0.110030613,-0.957717439,9.937862976999998,-0.0569727827728509,-0.021849776905717013,-0.04304505534193615,9.984510502693116,0.07467387439461279,0.06580262149999999,-0.04667965400000007,-0.10895188149999946
281302.0,0.16279038999999998,-0.9636994954999999,9.8014524755,-0.05457470038061069,-0.03863635365139847,-0.033719761148530446,9.850060307337635,0.07488783637563115,0.05275977699999998,-0.005982056499999944,-0.13641050149999856
281312.0,0.197505931,-0.9289839544999999,9.682890077,-0.04391597463868132,-0.03943571444881188,-0.021729349187329404,9.729356608931738,0.06289636729301959,0.034715541000000016,0.03471554099999996,-0.11856239849999994
281322.0,0.19024901,-0.9349660109999999,9.6637671095,-0.031126201880066876,-0.026380651643894294,-0.005208062487951079,9.71075439264042,0.041132750206053385,-0.0072569209999999995,-0.005982056499999944,-0.019122967499999532
281332.0,0.11365907349999999,-0.9205502354999999,9.597964488,-0.018868754543310697,-0.014123204307138116,0.008648106443631903,9.64267874783647,0.025105468387928164,-0.07658993650000001,0.01441577549999995,-0.0658026214999996
281342.0,0.083748791,-0.9289839544999999,9.566779340999998,-0.007410668003967923,-0.012257447336756176,0.017708110590734467,9.612142945623352,0.02277586872486025,-0.029910282499999982,-0.008433719000000006,-0.03118514700000219
281352.0,0.07178467799999999,-0.9050557284999999,9.554815227999999,0.002981022362406315,-0.013856168931582983,0.025701718564868494,9.597852517772239,0.029350609005154182,-0.011964113000000012,0.023928225999999997,-0.011964112999999443
281362.0,0.019122967499999997,-0.9026040659999999,9.5607972845,0.013906783479890817,-0.018919369091618534,0.03236364031973085,9.603327782760948,0.039984326533360086,-0.05266171049999999,0.0024516625000000625,0.00598205650000061
281372.0,0.0058839899999999995,-0.9085861224999999,9.584725510499998,0.023766148424406785,-0.021317451483858742,0.03262893036603399,9.627695802992914,0.04564987015895116,-0.013238977499999999,-0.005982056500000055,0.023928225999998887
281382.0,-0.024026292499999997,-0.913391381,9.6541565925,0.0346901642126393,-0.014655529728996385,0.028366836332663837,9.697298623334623,0.04714731644814489,-0.029910282499999996,-0.00480525850000002,0.06943108200000125
281392.0,-0.032361944999999996,-0.9301607525,9.759578079999999,0.04135208596750165,-0.00559552558189382,0.018772761434451005,9.803856925750804,0.04575720153457908,-0.008335652499999999,-0.01676937150000002,0.10542148749999924
281402.0,-0.02157463,-0.9289839544999999,9.814593386499999,0.04401720373529699,0.0026651177677953415,0.011845549633285515,9.858484670308496,0.04566107886926778,0.010787314999999995,0.0011767980000000344,0.05501530649999964
281412.0,-0.009610516999999999,-0.924178696,9.8600962425,0.04375016835974186,0.0085259333959923,0.004384267081009755,9.903317451013063,0.044788286075895786,0.011964113000000002,0.004805258499999909,0.04550285600000059
281422.0,-0.008433719,-0.9026040659999999,9.923545267999998,0.04108505059194652,0.00506320016003555,0.0030525808617380824,9.964512828714762,0.04150825975538891,0.0011767979999999997,0.02157463000000015,0.06344902549999887
281432.0,0.032263878499999996,-0.8990736719999999,9.94982709,0.03122568564743055,-0.0005323254218582705,0.005982988675836562,9.990417085709549,0.03179815982100372,0.040697597499999995,0.0035303939999999923,0.026281822000001398
281442.0,0.040599530999999994,-0.903780864,9.960614405,0.016837191293989296,-0.008260643349689161,0.011046188835872111,10.00161524440645,0.021765742050729592,0.008335652499999999,-0.004707192000000138,0.010787314999999964
281452.0,0.023928225999999997,-0.9205502354999999,9.936686179,0.005113814708343385,-0.010658725741929371,0.012644910430698918,9.979264377498385,0.017310496674368858,-0.016671304999999997,-0.016769371499999908,-0.023928225999998887
281462.0,0.025105024,-0.9301607525,9.9318809205,-0.0023474678439323734,-0.009327039522657697,0.011313224211427244,9.975374073522923,0.014849017260193983,0.0011767980000000032,-0.00961051700000004,-0.0048052585000011305
281472.0,0.050210048,-0.9433016634999999,9.910404356999999,-0.008742354223239598,-0.0034644785652087444,0.008115781021773632,9.955322877562867,0.012421645248789193,0.025105024,-0.013140910999999922,-0.021476563500000267
281482.0,0.0310870805,-0.9505585845,9.866078299,-0.014604915180688549,0.0034644785652087444,0.0030525808617380824,9.91181260068709,0.015317454392990607,-0.0191229675,-0.007256921000000083,-0.044326057999999335
281492.0,0.028635417999999996,-0.9289839544999999,9.809788128000001,-0.016735962197373624,0.00799360797413403,0.00012042771838760874,9.8537188051584,0.018547363746673384,-0.0024516625000000035,0.02157463000000004,-0.05629017099999878
281502.0,0.008335652499999999,-0.9050557284999999,9.761931676,-0.016470672151070488,0.0034644785652087444,-0.0014782938764391971,9.803800559052874,0.016895887239856845,-0.020299765499999997,0.023928225999999997,-0.047856452000001326
281512.0,0.032263878499999996,-0.8990736719999999,9.728392933,-0.01220683278844834,-0.003996803987067015,-0.0017435839227423352,9.769902941400378,0.01296230279432701,0.023928225999999997,0.005982056500000055,-0.03353874299999937
281522.0,0.028635417999999996,-0.9110377849999999,9.682890077,-0.007942993425826194,-0.009859364944515966,-0.0028099800957108708,9.72569638000934,0.012968971038989937,-0.0036284604999999998,-0.011964112999999998,-0.04550285600000059
281532.0,0.063350959,-0.8715169855,9.636210423,-0.00048345620280242926,-0.012524482712311309,-0.0020106192982974674,9.675748369834505,0.01269405321690827,0.034715541,0.03952079949999987,-0.04667965400000007
281542.0,0.0909076455,-0.901427268,9.625423108,0.0024486969405480446,-0.00559552558189382,-0.00014486232791552936,9.667968004059833,0.006109583319533881,0.027556686499999997,-0.02991028249999994,-0.010787314999999964
281552.0,0.07060788,-0.9218251,9.644644141999999,0.006712536303170191,0.004529129408925285,0.0006544984694978735,9.688854814348444,0.008124009174708305,-0.020299765499999997,-0.020397832000000005,0.019221033999999193
281562.0,0.058643767,-0.9433016634999999,9.709269965499999,0.009375908741713538,0.009859364944515966,0.001186823891356144,9.755161730219042,0.013657353066798281,-0.011964112999999998,-0.021476563499999934,0.06462582350000012
281572.0,0.037069136999999995,-0.9529121805,9.7439855065,0.012308061885064012,0.008792968771547434,0.0009197885158010117,9.790539785708715,0.015154230369694571,-0.021574630000000004,-0.009610517000000152,0.03471554100000063
281582.0,0.045404789499999994,-0.9600710349999999,9.783506306,0.016837191293989296,0.006661921754862355,-0.00014486232791552936,9.830604947138161,0.018107821438051192,0.008335652499999999,-0.007158854499999867,0.03952079949999998
281592.0,0.0789435325,-0.9732119459999999,9.810964925999999,0.017903587466957832,0.003996803987067015,0.0006544984694978735,9.859432354469645,0.018355959646518604,0.033538743,-0.013140911000000033,0.0274586199999991
281602.0,0.0646258235,-0.9433016634999999,9.8373448145,0.019235273686229508,0.0026651177677953415,0.001186823891356144,9.882679167351075,0.019455260405593793,-0.014317708999999998,0.02991028250000005,0.02637988850000106
281612.0,0.0310870805,-0.9313375504999999,9.8828476705,0.018170622842512963,-0.0007993607974134029,0.001186823891356144,9.92668293630116,0.01822687749227467,-0.033538742999999996,0.011964112999999998,0.04550285600000059
281622.0,0.026281822,-0.9278071564999999,9.907952694499999,0.014971434323607358,-0.00559552558189382,-0.0012112585008840647,9.95133375233039,0.01602875227207909,-0.0048052584999999995,0.0035303939999999923,0.025105023999998366
281632.0,0.063350959,-0.9325143484999999,9.898440244,0.007244861725028463,-0.009592329568960835,-0.006806784082777886,9.942470297577126,0.013814236045612553,0.037069137,-0.004707192000000027,-0.009512450499999048
281642.0,0.11248227549999999,-0.90025047,9.876865614,-0.0026145032194875057,-0.007461282552275759,-0.006274458660919614,9.918446326318072,0.010093324323392881,0.049131316499999994,0.0322638784999999,-0.021574629999999928
281652.0,0.093359308,-0.854747614,9.8589194445,-0.009541715020653,-0.004529129408925285,0.0003874630939427412,9.896342862753347,0.010569175293622234,-0.01912296749999999,0.045502856000000036,-0.017946169500000053
281662.0,0.07178467799999999,-0.8571012100000001,9.8396984105,-0.015404275978101954,-0.002930407814098479,0.005982988675836562,9.87721824876697,0.01678318092203164,-0.02157463000000001,-0.002353596000000069,-0.019221033999999193
281672.0,0.04903325,-0.8811275024999999,9.7918419585,-0.018336429121452426,-0.002930407814098479,0.004916592502868027,9.831528816796936,0.01920897719094476,-0.02275142799999999,-0.02402629249999988,-0.047856452000001326
281682.0,0.0693330155,-0.9218251,9.753596023499998,-0.017270032948483893,-0.004263839362622147,0.0014538592669112766,9.797305954784882,0.017847915030051804,0.020299765499999997,-0.040697597500000016,-0.03824593500000084
281692.0,0.1016949605,-0.8942684134999999,9.7463391025,-0.015671311353657087,-0.002398082392240209,0.004651302456564889,9.787807913996648,0.016521967596072832,0.032361945,0.027556686500000094,-0.007256920999997973
281702.0,0.083748791,-0.9218251,9.720057280499999,-0.009808750396208134,-0.0013316862192716736,0.008648106443631903,9.76403036205772,0.0131443796955999,-0.017946169499999998,-0.027556686500000094,-0.026281822000001398
281712.0,0.0310870805,-0.9529121805,9.7188804825,-0.0050125856117277144,-0.0015987215948268059,0.009447467241045306,9.765533567780038,0.010813721030398809,-0.0526617105,-0.031087080500000086,-0.0011767979999994793
281722.0,0.0214765635,-0.9565406409999999,9.703287909,0.0027157323161031764,-0.00506320016003555,0.0051836278784231585,9.75034499315845,0.0077382941179097685,-0.009610516999999999,-0.003628460499999875,-0.015592573499999318
281732.0,0.07060788,-0.957717439,9.752321159,0.004579743957233121,-0.004263839362622147,-0.0009442231253289323,9.799488565938628,0.006328186006626642,0.049131316499999994,-0.0011767980000000344,0.04903324999999903
281742.0,0.0812971285,-0.957717439,9.761931676,0.0059131755057567886,0.0010663961729685354,-0.0022776546738526,9.809135637912203,0.0064257728074471,0.010689248499999998,0.0,0.009610517000000485
281752.0,0.08492558899999998,-0.933789213,9.766736934499999,0.0077771871468867325,0.006927211801165493,0.0009197885158010117,9.811642319087493,0.010455472929031288,0.003628460499999986,0.023928225999999997,0.004805258499999354
281762.0,0.037069136999999995,-0.9205502354999999,9.806257733999999,0.0077771871468867325,0.004263839362622147,0.0027855454861829498,9.849440471551254,0.009296463288990088,-0.04785645199999999,0.013238977500000026,0.03952079949999998
281772.0,0.026281822,-0.9026040659999999,9.8134165885,0.0091106186954104,-0.00506320016003555,0.001186823891356144,9.85487341235667,0.010490372720873137,-0.010787314999999995,0.017946169500000053,0.0071588545000018655
281782.0,0.0214765635,-0.889463155,9.8959885815,0.008044222522441864,-0.00799360797413403,0.0009197885158010117,9.935904385211279,0.011377754407109494,-0.0048052584999999995,0.013140910999999922,0.0825719929999984
281792.0,0.008335652499999999,-0.90025047,9.866078299,0.0027157323161031764,-0.0085259333959923,0.001186823891356144,9.907069263603468,0.009026366557741694,-0.013140911000000002,-0.010787315000000075,-0.029910282499999497
281802.0,0.008335652499999999,-0.8882863569999999,9.850485725499999,-0.003146828641345776,-0.004796164784480418,0.0027855454861829498,9.890459603244642,0.006376910756273636,0.0,0.01196411300000011,-0.015592573500001095
281812.0,0.001176798,-0.889463155,9.829009162,-0.009808750396208134,-0.0063948863793072235,0.002518510110627818,9.869172568945991,0.011977021721475536,-0.007158854499999999,-0.0011767980000000344,-0.02147656349999849
281822.0,0.035892338999999995,-0.924178696,9.800275677499998,-0.018601719167755566,-0.0101264003200711,-0.0006789330790257941,9.8438202887465,0.021190301780866085,0.034715540999999996,-0.03471554100000007,-0.028733484500001794
281832.0,0.0299102825,-0.944576528,9.749967563,-0.020734511513692634,-0.011725121914897906,-0.0022776546738526,9.795661637776181,0.023928772689880987,-0.005982056499999996,-0.020397832000000005,-0.05030811449999817
281842.0,0.0573689025,-0.944576528,9.6888721335,-0.015936601399960223,-0.01119105116378764,-0.004141666314982544,9.734976077399237,0.019909000230960566,0.02745862,0.0,-0.06109542949999991
281852.0,0.06815621749999999,-0.946930124,9.655431456999999,-0.006878342582109653,-0.008260643349689161,-0.004675737066092809,9.701993534864249,0.011722301068427685,0.010787314999999992,-0.002353595999999958,-0.03344067650000149
281862.0,0.0993413645,-0.9517353824999999,9.6614135135,0.005113814708343385,-0.004529129408925285,-0.0022776546738526,9.708685803127196,0.007200821125912213,0.03118514700000001,-0.004805258499999909,0.00598205650000061
281872.0,0.0909076455,-0.9373196069999999,9.6661207055,0.010974630336540345,-0.0007993607974134029,-0.0009442231253289323,9.711885591324313,0.011044140800377321,-0.008433719000000006,0.01441577549999995,0.004707191999999694
281882.0,0.083748791,-0.9313375504999999,9.7188804825,0.013107422682477415,0.004796164784480418,-0.00041189770347066176,9.763761638123123,0.013963430299719977,-0.007158854499999992,0.005982056500000055,0.05275977700000034
281892.0,0.0693330155,-0.933789213,9.741533844,0.016837191293989296,0.007194247176720627,-0.0014782938764391971,9.78643198490394,0.018369364602382393,-0.014415775500000005,-0.0024516625000000625,0.022653361499999747
281902.0,0.07178467799999999,-0.9145681789999999,9.8253807015,0.016570155918434165,0.008260643349689161,-0.003342305517569141,9.868115013691499,0.01881433766797959,0.002451662499999993,0.01922103400000008,0.08384685750000109
281912.0,0.046581587499999993,-0.912214583,9.8385216125,0.013107422682477415,0.004796164784480418,-0.0020106192982974674,9.880830572849707,0.0141014295721994,-0.025203090499999997,0.002353595999999847,0.013140910999998923
281922.0,0.032263878499999996,-0.9205502354999999,9.831362758000001,0.0077771871468867325,0.0021310470166850766,-0.00041189770347066176,9.874418837244264,0.008074383011917811,-0.014317708999999998,-0.008335652499999902,-0.007158854499998313
281932.0,0.0299102825,-0.9170198414999999,9.854114185999999,0.004314453910929983,0.0021310470166850766,-0.002542944720155738,9.896736149126657,0.0054426502539323,-0.002353595999999996,0.0035303939999999923,0.02275142799999763
281942.0,0.0646258235,-0.9145681789999999,9.867255097000001,-0.0012828170002158322,-0.0002670353755551324,-0.0028099800957108708,9.909759563197026,0.003100470204038718,0.034715541,0.0024516625000000625,0.013140911000002475
281952.0,0.072961476,-0.9050557284999999,9.850485725499999,-0.006611307206554521,-0.0013316862192716736,-0.0012112585008840647,9.892245360733325,0.006852001045096369,0.008335652499999999,0.009512450499999936,-0.01676937150000235
281962.0,0.0885540495,-0.903780864,9.832539555999999,-0.007942993425826194,-0.0013316862192716736,0.001986184688769547,9.874385843692766,0.008295146916554209,0.015592573499999998,0.001274864499999917,-0.017946169500000053
281972.0,0.0801203305,-0.9062325265,9.797824015,-0.009009389598794729,0.0026651177677953415,0.0038519416591514853,9.839971142658738,0.01015428028983816,-0.008433718999999992,-0.0024516624999999515,-0.03471554099999885
281982.0,0.0801203305,-0.9062325265,9.775072586999999,-0.010875146569176666,0.005862560957448953,0.0030525808617380824,9.817317390232672,0.012726220326488513,0.0,0.0,-0.022751428000001184
281992.0,0.096889702,-0.9409480674999999,9.753596023499998,-0.008742354223239598,0.006661921754862355,0.0027855454861829498,9.79935744167548,0.011338836910728444,0.01676937149999999,-0.03471554099999996,-0.021476563500000267
282002.0,0.096889702,-0.925355494,9.728392933,-0.0036808993924560413,0.007194247176720627,0.0030525808617380824,9.77278360875109,0.008638545172341555,0.0,0.015592573499999984,-0.025203090499998027
282012.0,0.07060788,-0.8966220094999999,9.7439855065,-0.0010157816246606998,0.006127851003752092,0.0051836278784231585,9.785405972749418,0.008090263791443987,-0.026281821999999996,0.028733484500000017,0.015592573499999318
282022.0,0.043051193499999994,-0.9218251,9.720057280499999,-0.00021642082724729686,-0.0015987215948268059,0.001986184688769547,9.763766100048322,0.002558843162472947,-0.027556686500000004,-0.025203090500000025,-0.023928226000000663
282032.0,0.0646258235,-0.9384964049999999,9.751144361,0.0005829399701661061,-0.004263839362622147,-0.0014782938764391971,9.796416097140987,0.0045503294280942914,0.021574630000000004,-0.016671304999999914,0.031087080500000752
282042.0,0.0812971285,-0.9265322919999999,9.761931676,0.0008499753457212385,-0.002398082392240209,-0.0009442231253289323,9.806139982588117,0.0027138191831277926,0.016671304999999997,0.011964112999999998,0.010787314999999964
282052.0,0.082571993,-0.9170198414999999,9.793018756499999,0.0024486969405480446,0.0005323254218582705,0.002518510110627818,9.83620658022662,0.0035527989302436584,0.0012748645000000003,0.009512450499999936,0.031087080499998976
282062.0,0.059820565,-0.8966220094999999,9.820575443,0.0024486969405480446,0.0005323254218582705,0.005982988675836562,9.86160288997541,0.006486573868892151,-0.022751427999999997,0.020397832000000005,0.027556686500000538
282072.0,0.035892338999999995,-0.9085861224999999,9.8373448145,0.001117010721276371,-0.0,0.007581710270663368,9.879279832121798,0.0076635529344899,-0.023928226000000004,-0.011964112999999998,0.016769371500000574
282082.0,0.015494507,-0.9218251,9.842150072999999,-0.0015481070465189703,-0.0,0.009714502616600437,9.885237460688087,0.009837082723827143,-0.020397831999999998,-0.013238977500000026,0.004805258499999354
282092.0,0.028635417999999996,-0.9325143484999999,9.8396984105,-0.007410668003967923,0.0013316862192716736,0.009180431865490174,9.883828600644522,0.01187315112716668,0.013140910999999996,-0.01068924849999997,-0.002451662499998619
282102.0,0.023928225999999997,-0.9265322919999999,9.8122397905,-0.009276424974349861,0.001865756970381938,0.0051836278784231585,9.855916210804034,0.010789027173903882,-0.004707191999999999,0.005982056500000055,-0.027458620000000877
282112.0,0.026281822,-0.9301607525,9.789488362499998,-0.007942993425826194,-0.0010663961729685354,0.0033178709080412204,9.833614399557362,0.008673904122300773,0.002353596000000003,-0.003628460500000097,-0.022751428000001184
282122.0,0.043051193499999994,-0.9205502354999999,9.7571264175,-0.005811946409141118,-0.0037297686115118824,0.001986184688769547,9.800550090092763,0.007185737580516713,0.016769371499999994,0.00961051700000004,-0.032361944999998116
282132.0,0.040599530999999994,-0.9218251,9.7690905305,-0.004480260189869444,-0.003996803987067015,0.0003874630939427412,9.812570490448065,0.006016419294657866,-0.0024516625,-0.001274864500000028,0.011964112999999443
282142.0,0.0095124505,-0.933789213,9.7702673285,-0.0015481070465189703,-0.0021310470166850766,-0.00014486232791552936,9.814793754908159,0.00263798823137124,-0.031087080499999996,-0.011964112999999998,0.0011767979999994793
282152.0,0.016671304999999997,-0.9170198414999999,9.755949619499999,0.0013823007675795092,-0.0005323254218582705,-0.0020106192982974674,9.798967103748092,0.0024973417326216462,0.007158854499999997,0.01676937150000002,-0.014317709000000178
282162.0,-0.0024516625,-0.9181966395,9.753596023499998,-0.0023474678439323734,0.0007993607974134029,-0.004675737066092809,9.79672018938344,0.0052926458481530846,-0.019122967499999997,-0.0011767980000000344,-0.002353596000000735
282172.0,0.026281822,-0.9158430435,9.7224108765,-0.003146828641345776,0.0031974431896536117,-0.007873180255746421,9.765486801280337,0.009061630139689638,0.0287334845,0.002353595999999958,-0.031185146999998636
282182.0,0.047856451999999994,-0.9110377849999999,9.712898425999999,0.004314453910929983,0.004796164784480418,-0.006539748707222752,9.755648411022662,0.009186186496204547,0.021574629999999994,0.004805258500000131,-0.009512450500000824
282192.0,0.059820565,-0.9158430435,9.7571264175,0.013107422682477415,0.004529129408925285,-0.002542944720155738,9.800197085130515,0.014099081900240288,0.011964113000000005,-0.004805258500000131,0.04422799150000145
282202.0,0.0789435325,-0.925355494,9.7798778455,0.015505505074717624,0.005862560957448953,0.0009197885158010117,9.823875281399966,0.016602298621446916,0.019122967499999997,-0.009512450499999936,0.022751427999999407
282212.0,0.0812971285,-0.8906399529999999,9.833716354,0.012308061885064012,0.0063948863793072235,0.004117231705454623,9.874301295783376,0.0144683985322224,0.0023535959999999995,0.03471554100000007,0.05383850850000016
282222.0,0.0801203305,-0.90025047,9.8708835575,0.006977826349473329,0.0085259333959923,0.00838107106807677,9.91217495718364,0.013842830385598696,-0.0011767979999999928,-0.009610517000000152,0.037167203499999246
282232.0,0.0442279915,-0.9181966395,9.864901501,0.0019163715186897737,0.006927211801165493,0.008115781021773632,9.907639618418369,0.010840878411329632,-0.035892339,-0.017946169499999942,-0.0059820564999988335
282242.0,0.007158854499999999,-0.9181966395,9.843326871,-0.004480260189869444,-0.0010663961729685354,0.005717698629533424,9.886061916017798,0.007341798811246418,-0.037069137,0.0,-0.021574629999999928
282252.0,0.0106892485,-0.9062325265,9.818221846999998,-0.007677703379523056,-0.00799360797413403,-0.0009442231253289323,9.85996206326516,0.011123688908742678,0.003530394000000001,0.011964112999999998,-0.02510502400000192
282262.0,0.0310870805,-0.9074093245,9.8134165885,-0.010075785771763265,-0.009592329568960835,-0.005208062487951079,9.855328671749641,0.014854566986500502,0.020397831999999998,-0.0011767980000000344,-0.004805258499997578
282272.0,0.0789435325,-0.9170198414999999,9.755949619499999,-0.01220683278844834,-0.007726572598578897,-0.003876376268679406,9.799270914167566,0.01495770650275732,0.047856451999999994,-0.00961051699999993,-0.05746696900000181
282282.0,0.0789435325,-0.912214583,9.720057280499999,-0.013273228961416875,-0.007194247176720627,-0.0017435839227423352,9.763087680798657,0.01519789078779006,0.0,0.004805258499999909,-0.035892339000000106
282292.0,0.09571290399999999,-0.9289839544999999,9.703287909,-0.011407471991034937,-0.004263839362622147,-0.00041189770347066176,9.748126404220258,0.012185253508016032,0.01676937149999999,-0.016769371499999908,-0.016769371499998798
282302.0,0.107677017,-0.9552657764999999,9.657785053,-0.005279620987282847,-0.0007993607974134029,-0.0006789330790257941,9.705510763153702,0.005382780469199384,0.011964113000000012,-0.026281821999999955,-0.04550285600000059
282312.0,0.0897308475,-0.958894237,9.6637671095,0.0037803831598197174,-0.0010663961729685354,0.0022532200643246795,9.711638611964455,0.004528299713032008,-0.017946169499999998,-0.003628460500000097,0.00598205650000061
282322.0,0.082571993,-0.9529121805,9.691323795999999,0.012840387306922283,0.003996803987067015,-0.00014486232791552936,9.738409350437529,0.013448827956251607,-0.007158854500000006,0.005982056499999944,0.02755668649999876
282332.0,0.0765899365,-0.97085835,9.704464707,0.020034634483642906,0.008792968771547434,-0.0022776546738526,9.753208046768325,0.021997513257727665,-0.005982056499999999,-0.017946169499999942,0.013140911000000699
282342.0,0.07060788,-0.9384964049999999,9.747613967,0.026963591614060395,0.011990411961201045,-0.0020106192982974674,9.792943327956591,0.02957782685884525,-0.005982056499999999,0.032361945000000114,0.043149259999999856
282352.0,0.06815621749999999,-0.912214583,9.852937388,0.026963591614060395,0.010658725741929371,-0.0009442231253289323,9.895309792384978,0.029009227230002214,-0.002451662500000007,0.026281821999999844,0.10532342100000136
282362.0,0.05619210449999999,-0.8906399529999999,9.9307041225,0.022167426829579978,0.009592329568960835,0.0022532200643246795,9.97072120997907,0.024258701520539345,-0.011964112999999998,0.02157463000000015,0.07776673449999905
282372.0,0.032263878499999996,-0.8882863569999999,9.947473493999999,0.011508701087650609,0.0063948863793072235,0.006517059426946826,9.98710781576532,0.014690705772817583,-0.023928225999999997,0.002353595999999958,0.016769371499998798
282382.0,0.015494507,-0.875145446,9.963066067499998,-0.00048345620280242926,0.0013316862192716736,0.006250024051391694,10.001440151136814,0.006408581647260248,-0.016769371499999998,0.013140910999999922,0.015592573499999318
282392.0,-0.0024516625,-0.8823043004999999,9.933155784999999,-0.01220683278844834,-0.004529129408925285,0.004384267081009755,9.972264072837659,0.013738325144119832,-0.017946169499999998,-0.007158854499999867,-0.029910282499999497
282402.0,0.015494507,-0.903780864,9.891183323,-0.02179916235740918,-0.008260643349689161,0.0017191493132144146,9.932399884170646,0.023375140264746533,0.017946169499999998,-0.021476563500000156,-0.0419724619999986
282412.0,0.032263878499999996,-0.9289839544999999,9.856467782,-0.024996605547062786,-0.009859364944515966,-0.0009442231253289323,9.900202486978653,0.02688733760146226,0.016769371499999998,-0.025203090499999914,-0.03471554100000063
282422.0,0.028635417999999996,-0.9050557284999999,9.777524249499999,-0.02473131550075965,-0.009592329568960835,-0.00041189770347066176,9.819364862780851,0.026529613881016045,-0.0036284604999999998,0.023928225999999997,-0.0789435325000003
282432.0,0.046581587499999993,-0.9230018979999999,9.752321159,-0.022066197732964307,-0.004796164784480418,-0.0006789330790257941,9.796012981631083,0.022591618559898816,0.017946169499999998,-0.017946169499999942,-0.025203090499999803
282442.0,0.062174161,-0.944576528,9.687695335499999,-0.01780235837034216,-0.0005323254218582705,-0.0028099800957108708,9.733834360467258,0.018030621787368827,0.015592573500000005,-0.02157463000000015,-0.06462582350000012
282452.0,0.093359308,-0.9492837199999999,9.673377626499999,-0.013006193585861744,0.0021310470166850766,-0.0028099800957108708,9.720292703736757,0.0134758458405595,0.031185147000000003,-0.004707191999999916,-0.014317709000000178
282462.0,0.1005181625,-0.9517353824999999,9.648174535999999,-0.0026145032194875057,0.0034644785652087444,-0.0006789330790257941,9.69552350398954,0.004393084217186921,0.007158854499999992,-0.0024516624999999515,-0.025203090499999803
282472.0,0.0669794195,-0.9373196069999999,9.672102762,0.01017526953912694,0.002930407814098479,0.0038519416591514853,9.71764509163569,0.0112676907437292,-0.033538742999999996,0.01441577549999995,0.023928226000000663
282482.0,0.043051193499999994,-0.936142809,9.729569731,0.01950230906178464,-0.0002670353755551324,0.005717698629533424,9.774596867108924,0.020324946352975534,-0.023928226000000004,0.0011767979999999234,0.057466969000000034
282492.0,0.0418743955,-0.9193734375,9.753596023499998,0.022966787626993383,-0.0007993607974134029,0.004117231705454623,9.79691973899011,0.023346603789507772,-0.0011767979999999928,0.01676937150000002,0.024026292499998547
282502.0,0.038245934999999995,-0.903780864,9.821752241,0.020034634483642906,0.002398082392240209,0.001986184688769547,9.863320925797009,0.02027516480009592,-0.0036284605000000067,0.015592573499999984,0.06815621750000211
282512.0,0.017946169499999998,-0.8977988075,9.866078299,0.01443910890174909,0.004529129408925285,0.0017191493132144146,9.906859530938494,0.015230113375825121,-0.020299765499999997,0.005982056500000055,0.044326057999999335
282522.0,0.025105024,-0.9050557284999999,9.919916807499998,0.005646140130201656,0.008260643349689161,0.0017191493132144146,9.961149813231486,0.010152467743448532,0.007158854500000002,-0.007256920999999972,0.05383850849999838
282532.0,0.020299765499999997,-0.8906399529999999,9.924722066,-0.003146828641345776,0.00799360797413403,0.001986184688769547,9.964625416627888,0.008817325476585054,-0.004805258500000003,0.014415775500000061,0.0048052585000011305
282542.0,0.011866046499999998,-0.8918167509999999,9.941491437499998,-0.011407471991034937,0.0002670353755551324,0.001986184688769547,9.98141923387198,0.011582169690345027,-0.008433719,-0.0011767980000000344,0.016769371499998798
282552.0,0.0346174745,-0.9230018979999999,9.90079384,-0.015671311353657087,-0.004529129408925285,0.00012042771838760874,9.943784467466816,0.016313108703782043,0.022751428000000004,-0.03118514699999997,-0.040697597499997684
282562.0,0.025105024,-0.909860987,9.855290984,-0.018868754543310697,-0.007461282552275759,-0.0012112585008840647,9.897233838664535,0.02032652903219255,-0.009512450500000002,0.013140910999999922,-0.04550285600000059
282572.0,0.028635417999999996,-0.936142809,9.795470418999999,-0.0196681153407241,-0.010925761117484502,-0.0017435839227423352,9.840143498725539,0.02256650398152112,0.0035303939999999957,-0.026281822000000066,-0.05982056500000077
282582.0,0.0226533615,-0.9565406409999999,9.7188804825,-0.0196681153407241,-0.011458086539342773,-0.003077015471266003,9.765865092545123,0.02296933896326808,-0.005982056499999996,-0.020397831999999894,-0.07658993649999957
282592.0,0.0646258235,-0.9301607525,9.712898425999999,-0.021266836935550905,-0.006927211801165493,-0.003876376268679406,9.757549454465895,0.02270002003430613,0.041972462,0.02637988849999995,-0.00598205650000061
282602.0,0.05138684599999999,-0.9313375504999999,9.6529797945,-0.01913578991886583,0.0007993607974134029,-0.0006789330790257941,9.697940459393346,0.019164508436931117,-0.013238977500000006,-0.0011767979999999234,-0.059918631499998654
282612.0,0.06580262149999999,-0.9505585845,9.572761397499999,-0.012739158210306611,0.00506320016003555,0.0014538592669112766,9.620065092348858,0.01378534927144721,0.014415775499999998,-0.01922103400000008,-0.08021839700000122
282622.0,0.075315072,-0.9552657764999999,9.597964488,-0.004213224814314312,0.00799360797413403,0.0014538592669112766,9.645679207641711,0.00915219856362813,0.009512450500000005,-0.004707191999999916,0.02520309050000158
282632.0,0.062174161,-0.9636994954999999,9.6290515685,0.005379104754646523,0.009592329568960835,0.001186823891356144,9.677355860603416,0.011061469408270989,-0.013140910999999998,-0.008433719000000006,0.031087080499998976
282642.0,0.05619210449999999,-0.945753326,9.6757312225,0.010974630336540345,0.009327039522657697,0.001986184688769547,9.722005019352208,0.014538951368610905,-0.005982056500000006,0.017946169499999942,0.04667965400000007
282652.0,0.050210048,-0.9193734375,9.720057280499999,0.016837191293989296,0.010391690366374239,0.002518510110627818,9.763569127255758,0.019945453931117203,-0.005982056499999992,0.02637988849999995,0.044326057999999335
282662.0,0.05266171049999999,-0.9289839544999999,9.773895789,0.021368066032166576,0.012789772758614447,0.0003874630939427412,9.81808654156721,0.024906277538427835,0.002451662499999993,-0.00961051699999993,0.05383850850000016
282672.0,0.05266171049999999,-0.9397712694999999,9.8122397905,0.023766148424406785,0.01332384350972471,-0.0009442231253289323,9.85728121750627,0.027262541593053503,0.0,-0.010787314999999964,0.0383440015000005
282682.0,0.06099736299999999,-0.913391381,9.8589194445,0.021101030656611446,0.010658725741929371,-0.0028099800957108708,9.901328047606453,0.023806677999066043,0.008335652499999999,0.02637988849999995,0.04667965400000007
282692.0,0.05619210449999999,-0.8990736719999999,9.905599098499998,0.01630486587213103,0.00559552558189382,-0.00041189770347066176,9.946475985015782,0.01724320786176214,-0.0048052584999999995,0.014317709000000067,0.046679653999998294
282702.0,0.047856451999999994,-0.901427268,9.905599098499998,0.00884358331985527,0.0015987215948268059,0.001986184688769547,9.946645407356993,0.009203793038247355,-0.008335652499999999,-0.002353596000000069,0.0
282712.0,0.07178467799999999,-0.8954452115,9.92236847,-0.0020821777976292354,-0.0015987215948268059,0.0017191493132144146,9.962949925661777,0.0031379690055561883,0.023928225999999997,0.005982056499999944,0.01676937150000235
282722.0,0.062174161,-0.8871095589999999,9.9163864135,-0.014871950556243681,-0.0021310470166850766,0.0003874630939427412,9.95618142149954,0.015028852330894956,-0.009610516999999992,0.008335652500000124,-0.00598205650000061
282732.0,0.062174161,-0.8882863569999999,9.8612730405,-0.022598523154822577,0.001865756970381938,-0.00041189770347066176,9.901395066232864,0.022679152487906272,0.0,-0.0011767980000000344,-0.0551133729999993
282742.0,0.0669794195,-0.9193734375,9.827734297500001,-0.024996605547062786,0.005862560957448953,0.0014538592669112766,9.870871044769807,0.02571601867753324,0.0048052584999999995,-0.031087080500000086,-0.03353874299999937
282752.0,0.050210048,-0.9289839544999999,9.7798778455,-0.024197244749649387,0.0063948863793072235,0.0051836278784231585,9.824028853252637,0.025559171020607254,-0.016769371499999998,-0.00961051699999993,-0.047856452000001326
282762.0,0.0299102825,-0.9301607525,9.740357046,-0.02179916235740918,0.004263839362622147,0.0078487456462185,9.784715071684634,0.023558153871090264,-0.0202997655,-0.0011767980000000344,-0.03952079949999998
282772.0,0.0106892485,-0.945753326,9.724862539,-0.016203636775515357,0.0015987215948268059,0.009447467241045306,9.770747925113977,0.018824675103736147,-0.019221033999999998,-0.015592573499999984,-0.015494506999999658
282782.0,-0.027556686499999997,-0.9397712694999999,9.7008362465,-0.010341075818066403,0.001865756970381938,0.007581710270663368,9.74628920622391,0.01295767065393348,-0.038245934999999995,0.005982056500000055,-0.024026292500000324
282792.0,-0.0132389775,-0.9325143484999999,9.7080931675,-0.005811946409141118,0.002398082392240209,0.002518510110627818,9.752785818910604,0.006772917643086722,0.014317708999999996,0.007256920999999972,0.00725692099999975
282802.0,0.0058839899999999995,-0.9325143484999999,9.7355517875,-0.004213224814314312,0.0021310470166850766,-0.0036093408931242737,9.780111770250437,0.005943060356925156,0.0191229675,0.0,0.027458620000000877
282812.0,0.045404789499999994,-0.9085861224999999,9.7235876745,-0.0023474678439323734,0.0005323254218582705,-0.006539748707222752,9.76605076786914,0.006968664777895027,0.039520799499999995,0.023928225999999997,-0.01196411300000122
282822.0,0.07178467799999999,-0.9205502354999999,9.7439855065,0.0027157323161031764,0.0010663961729685354,-0.0060074232853644825,9.787636043854345,0.006678438241085146,0.026379888499999997,-0.011964112999999998,0.02039783200000045
282832.0,0.07413827399999999,-0.9278071564999999,9.7571264175,0.004846779332788253,0.005862560957448953,-0.002542944720155738,9.80142023027279,0.008020440058395554,0.0023535959999999995,-0.007256920999999972,0.013140911000000699
282842.0,0.059820565,-0.9301607525,9.818221846999998,0.006178465552059927,0.010658725741929371,0.0017191493132144146,9.862365728485045,0.01243934666213562,-0.014317708999999991,-0.002353596000000069,0.06109542949999813
282852.0,0.037069136999999995,-0.9278071564999999,9.849308927500001,0.004846779332788253,0.012789772758614447,0.0033178709080412204,9.892981683491675,0.014074012380276132,-0.022751428000000004,0.002353596000000069,0.03108708050000253
282862.0,0.035892338999999995,-0.8930916154999999,9.8744139515,0.0005829399701661061,0.012524482712311309,0.0051836278784231585,9.914784504932678,0.013567331506297318,-0.0011767979999999997,0.03471554099999996,0.025105023999998366
282872.0,0.0299102825,-0.9205502354999999,9.863724702999999,-0.0023474678439323734,0.009859364944515966,0.005450663253978291,9.90663274668294,0.011507710992882818,-0.005982056499999996,-0.02745861999999999,-0.010689248500000303
282882.0,-0.022849494499999998,-0.9218251,9.849308927500001,-0.0018151424220741027,0.004263839362622147,0.0035849062835963527,9.892379388383775,0.005858892487904833,-0.052759776999999994,-0.001274864500000028,-0.014415775499998063
282892.0,-0.031185147,-0.9265322919999999,9.829009162,-0.0012828170002158322,-0.0026651177677953415,0.001186823891356144,9.87263165058801,0.003187008490944904,-0.008335652500000002,-0.004707191999999916,-0.020299765500000788
282902.0,-0.0348136075,-0.9181966395,9.821752241,-0.0012828170002158322,-0.00799360797413403,-0.0017435839227423352,9.86463958488321,0.008281513919316169,-0.0036284605000000032,0.008335652499999902,-0.00725692099999975
282912.0,0.002353596,-0.9349660109999999,9.788311564499999,-0.0015481070465189703,-0.007194247176720627,-0.0060074232853644825,9.832863787567883,0.009499629592609062,0.0371672035,-0.016769371499999908,-0.03344067650000149
282922.0,0.0058839899999999995,-0.9193734375,9.7439855065,-0.005279620987282847,-0.00506320016003555,-0.007073819458333018,9.787263953209852,0.010175918403713364,0.0035303939999999996,0.015592573499999873,-0.044326057999999335
282932.0,0.0299102825,-0.933789213,9.709269965499999,-0.00607898178469625,-0.0026651177677953415,-0.006539748707222752,9.75411606360488,0.009318003295154434,0.0240262925,-0.01441577549999995,-0.03471554100000063
282942.0,0.043051193499999994,-0.9384964049999999,9.6529797945,0.0005829399701661061,-0.0021310470166850766,-0.006539748707222752,9.698589991358794,0.006902861258185716,0.013140910999999995,-0.004707191999999916,-0.05629017099999878
282952.0,0.045404789499999994,-0.9409480674999999,9.644644141999999,0.010709340290237207,-0.001865756970381938,-0.004408701690537677,9.690542063602862,0.011730629527897319,0.0023535959999999995,-0.0024516625000000625,-0.008335652500001345
282962.0,0.038245934999999995,-0.9301607525,9.6661207055,0.01976934443733977,0.005328490206338688,-0.005740387909809351,9.710847093345214,0.021264332595130032,-0.007158854499999999,0.010787314999999964,0.021476563500000267
282972.0,0.0765899365,-0.9421248655,9.690146998,0.029094638630745476,0.016521286699378322,-0.007339109504636156,9.73613959038257,0.03425366315560663,0.0383440015,-0.011964112999999998,0.024026292500000324
282982.0,0.06099736299999999,-0.9492837199999999,9.7439855065,0.03442312883708416,0.025047220095370623,-0.0060074232853644825,9.7903071356435,0.042993071162339316,-0.015592573500000005,-0.007158854499999978,0.05383850850000016
282992.0,0.058643767,-0.9313375504999999,9.7690905305,0.036555921183021235,0.028511698660579367,-0.003077015471266003,9.813559930906015,0.04646203136176199,-0.0023535959999999925,0.017946169500000053,0.025105024000000142
283002.0,0.023928225999999997,-0.9110377849999999,9.845680467000001,0.03682295655857636,0.02664594169019743,-0.0006789330790257941,9.887769529270116,0.04545764279412208,-0.034715541,0.02029976550000001,0.07658993650000134
283012.0,-9.80665e-05,-0.8990736719999999,9.87921921,0.03282440724225736,0.018919369091618534,0.0030525808617380824,9.920045648913801,0.03800924213330092,-0.024026292499999997,0.011964112999999998,0.03353874299999937
283022.0,-0.052759777,-0.8930916154999999,9.965419663499999,0.026963591614060395,0.009859364944515966,0.004916592502868027,10.00549775360616,0.02912756824175744,-0.0526617105,0.005982056499999944,0.08620045349999828
283032.0,-0.0850236555,-0.909860987,10.019356238499999,0.010442304914682074,-0.0015987215948268059,0.0014538592669112766,10.060943070688156,0.010663552383560685,-0.0322638785,-0.01676937150000002,0.05393657499999982
283042.0,-0.12336765699999998,-0.8918167509999999,10.064761027999998,-0.016735962197373624,-0.019718729889031932,-0.006274458660919614,10.104947859682673,0.026613710199746846,-0.038344001499999975,0.018044236000000047,0.045404789499999154
283052.0,-0.11973919649999999,-0.9205502354999999,9.997781608499999,-0.04071853144902771,-0.049562114768882976,-0.017198474449152124,10.040786189463374,0.06640925799244805,0.003628460499999986,-0.028733484500000017,-0.06697941949999908
283062.0,-0.08865211599999999,-0.9672298894999999,9.852937388,-0.05031086101798855,-0.07727445263204895,-0.031054643380735106,9.900695330564503,0.09729807110862358,0.031087080500000003,-0.04667965399999996,-0.1448442204999978
283072.0,-0.022849494499999998,-0.9625226975,9.738003449999999,-0.05031086101798855,-0.09539271559700208,-0.04251272992007788,9.785483290814689,0.11592361765662496,0.06580262149999999,0.004707191999999916,-0.11493393800000185
283082.0,0.05619210449999999,-0.982822463,9.619441051499999,-0.04258428841940965,-0.09992359033517936,-0.049174651674940235,9.669681674681382,0.1192320925464781,0.07904159899999999,-0.02029976550000001,-0.11856239849999994
283092.0,0.128074849,-0.9744868105,9.534515462499998,-0.026595327141889596,-0.08926486459324998,-0.0489076162993851,9.585041096178795,0.10520210268204368,0.0718827445,0.008335652500000013,-0.08492558900000091
283102.0,0.19152387449999997,-0.9505585845,9.4446865485,-0.0007487462491055673,-0.0644846798734345,-0.04277976529563301,9.494332362861908,0.07738826059599947,0.06344902549999998,0.023928225999999997,-0.08982891399999815
