timestamp,ax,ay,az,gx,gy,gz,acc_mag,gyro_mag,dax,day,daz
262772.0,-0.121406327,-0.468954003,9.894713717,0.013795082407763181,0.04874530067894963,-0.0043929937272697275,9.906564333539318,0.05084984789363697,0.0,0.0,0.0
262782.0,0.5177911199999999,-0.3515684025,9.8336182875,-0.010452776890194039,-0.01067443370519732,-0.006525786073206799,9.853514936805125,0.01630306607715515,0.6391974469999999,0.11738560050000002,-0.06109542949999991
262792.0,0.6112484945,-0.2701732075,9.9030493695,0.0020699604928652747,-0.0048136180770003605,0.0033335788713091696,9.925573288169993,0.006210346489889804,0.09345737450000002,0.08139519499999998,0.06943108199999948
262802.0,0.607620034,-0.193583271,9.842052006499998,0.026052529744519357,-0.0050789081233034985,0.010794861423584929,9.86269051968984,0.02865412094216862,-0.003628460499999986,0.07658993650000001,-0.060997363000002025
262812.0,0.5968327189999999,-0.20554738399999997,9.802531207,0.024186772774137416,-0.008276351312957111,0.012393583018411734,9.822834473091106,0.028409485534192723,-0.010787315000000075,-0.01196411299999997,-0.039520799499998205
262822.0,0.6506712275000001,-0.2462449815,9.7869386335,0.01992293341151527,-0.016004669240788003,0.010527826048029796,9.811634800231058,0.027638882656943132,0.05383850850000016,-0.040697597500000016,-0.015592573499999318
262832.0,0.656653284,-0.19240647299999997,9.771444126499999,0.018057176441133332,-0.0050789081233034985,0.007862708280234455,9.79537309669987,0.020339102985413256,0.005982056499999944,0.05383850850000002,-0.015494507000001434
262842.0,0.630371462,-0.15886772999999998,9.778602980999999,0.012995721610349778,0.007443829259755816,0.007862708280234455,9.800187926553319,0.01691512801376852,-0.026281821999999955,0.03353874299999998,0.007158854500000089
262852.0,0.643512373,-0.15288567349999999,9.813318522,0.009531243045141035,0.017835519626130055,0.01345997919138027,9.835583491465766,0.024292414333532384,0.013140910999999922,0.005982056499999999,0.03471554100000063
262862.0,0.619584147,-0.161221326,9.810866859499999,0.0028693212902786776,0.025563837553960942,0.017722073224750425,9.831733589047575,0.031238032501032555,-0.023928225999999997,-0.008335652500000013,-0.0024516625000003955
262872.0,0.6016379775,-0.157690932,9.820477376499998,-0.005923647481268754,0.021032962815783665,0.01692271242733702,9.84015297586138,0.027637896450179177,-0.017946169499999942,0.0035303939999999923,0.009610516999998708
262882.0,0.6172305509999999,-0.170831843,9.807336465499999,-0.008588765249064096,0.015172147187586705,0.01345997919138027,9.828224947527227,0.022025711761886745,0.015592573499999873,-0.013140911000000005,-0.013140910999998923
262892.0,0.6124252925,-0.1505320775,9.802531207,-0.0019268434942017398,0.01144063324682283,0.01345997919138027,9.822797091941737,0.017769970590066977,-0.004805258499999909,0.02029976550000001,-0.004805258499999354
262902.0,0.6207609449999999,-0.1552392695,9.7845850375,0.004468042885105484,0.010108947027551158,0.018521434022163823,9.805485594181507,0.021568443046876256,0.008335652499999902,-0.004707191999999999,-0.017946169500000053
262912.0,0.6147788885,-0.134939504,9.747417833999998,0.004468042885105484,0.0061121430404841425,0.025183355777026184,9.767718064218801,0.026296826956170177,-0.005982056499999944,0.02029976550000001,-0.03716720350000102
262922.0,0.6064432359999999,-0.1660265845,9.7498694965,0.00020420352248333657,0.0021153390534171274,0.028647834342234925,9.7701224876678,0.02872655167070425,-0.008335652500000013,-0.031087080500000003,0.002451662500002172
262932.0,0.5980095169999999,-0.193583271,9.785761835499999,-0.002726204291615143,0.005045746867515607,0.025183355777026184,9.805928031877551,0.025828146652110803,-0.008433719000000006,-0.02755668650000001,0.03589233899999833
262942.0,0.607620034,-0.21868829499999998,9.7641872055,-0.005656612105713622,0.006911503837897545,0.02038719099254576,9.78551881405059,0.022257666148595125,0.00961051700000004,-0.025105023999999976,-0.02157462999999815
262952.0,0.5848686059999999,-0.215157901,9.7486926985,-0.006190682856823887,0.009576621605692885,0.016123351629923614,9.768591174700388,0.01974838483001983,-0.022751428000000073,0.0035303939999999645,-0.015494507000001434
262962.0,0.5777097514999999,-0.21751149699999997,9.7163307535,-0.0019268434942017398,0.01037598240310629,0.012660618393966868,9.73592025027502,0.016482263036317894,-0.007158854499999978,-0.002353595999999958,-0.03236194499999989
262972.0,0.570550897,-0.23065240799999998,9.693579325499998,0.005267403682518886,0.009576621605692885,0.009728465250616393,9.713094717912757,0.014632165221377455,-0.007158854499999978,-0.013140911000000005,-0.022751428000001184
262982.0,0.5645688405,-0.21996315949999998,9.6947561235,0.007665486074759095,0.0061121430404841425,0.008129743655789588,9.713671708542629,0.01273619649732664,-0.005982056499999944,0.010689248499999998,0.0011767980000012557
262992.0,0.5669224365,-0.242616521,9.704366640499998,0.008998917623282763,0.0015812683023068625,0.007063347482821052,9.723939310717569,0.011548671157219087,0.002353595999999958,-0.022653361500000024,0.009610516999998708
263002.0,0.5680992345,-0.237909329,9.731923327,0.009531243045141035,0.0015812683023068625,0.002001892652037496,9.75139319439389,0.009866740982701001,0.0011767980000000344,0.004707191999999999,0.027556686500002314
263012.0,0.5788865495,-0.25467870049999997,9.740258979499998,0.008998917623282763,0.003979350694547071,-0.0054593899002382635,9.76076922508727,0.011252585854977732,0.010787314999999964,-0.016769371499999963,0.008335652499997792
263022.0,0.5788865495,-0.22947561,9.7522230925,0.0063337998554874216,0.004778711491960474,-0.01265363707695889,9.772083909723,0.014935448952346771,0.0,0.02520309049999997,0.01196411300000122
263032.0,0.618407349,-0.21996315949999998,9.768992464,0.007400196028455957,0.0061121430404841425,-0.016385151017722765,9.791017577480046,0.01898932246501953,0.03952079950000009,0.00951245050000002,0.016769371500000574
263042.0,0.6494944294999999,-0.241439723,9.758205148999998,0.00873188224772763,0.003979350694547071,-0.016118115642167634,9.782775878234354,0.01875832219023498,0.031087080499999864,-0.021476563500000018,-0.01078731500000174
263052.0,0.6626353405000001,-0.25585549849999994,9.7726209245,0.01112996463996784,0.0005166174585903216,-0.01531875484475423,9.798401265745726,0.018942208331636942,0.013140911000000144,-0.01441577549999995,0.014415775500001615
263062.0,0.6506712275000001,-0.241439723,9.771444126499999,0.014594443205176584,-0.004014257279586958,-0.01798387261254957,9.796059743766879,0.02350599302561482,-0.011964112999999998,0.01441577549999995,-0.0011767980000012557
263072.0,0.6830331725,-0.2354576665,9.785761835499999,0.017791886394830196,-0.010941469080752452,-0.01798387261254957,9.812395697717115,0.027562413560427112,0.03236194499999989,0.005982056499999999,0.014317709000000178
263082.0,0.6901920269999999,-0.22947561,9.790567094,0.018591247192243598,-0.01227490062927612,-0.021181315802203185,9.817546949815664,0.030740133323301822,0.007158854499999978,0.005982056499999999,0.0048052585000011305
263092.0,0.6926436895,-0.22712201399999998,9.8408752085,0.02125636496003894,-0.010409143658894181,-0.02650980600854187,9.867834846566774,0.03553805196738266,0.0024516625000000625,0.0023535960000000133,0.050308114499999945
263102.0,0.6842099705,-0.18642441649999997,9.857546513499999,0.020189968787070404,-0.003214896482173555,-0.031573006168577424,9.88302183608915,0.03761416113028439,-0.008433719000000006,0.040697597500000016,0.016671304999999137
263112.0,0.6866616329999999,-0.11934693049999999,9.916288346999998,0.016458454846306526,0.0002495820830351891,-0.03317172776340423,9.940750598868375,0.03703115647604711,0.0024516624999999515,0.06707748599999998,0.058741833499999174
263122.0,0.6782279139999999,-0.069038816,9.9377649105,0.009798278420696166,0.0021153390534171274,-0.02864259835447894,9.961120964921998,0.03034599413129172,-0.008433719000000006,0.05030811449999999,0.021476563500002044
263132.0,0.6687154635,-0.05354430899999999,9.966498394999999,-0.0008604473212332044,-0.0008168140899333463,-0.01824916265885271,9.989050886930542,0.018287686912220342,-0.009512450499999936,0.015494507000000012,0.02873348449999824
263142.0,0.643512373,-0.05354430899999999,9.95571108,-0.00992045146833577,-0.011208504456307585,-0.007857472292478471,9.976630607357633,0.01690520039247507,-0.025203090500000025,0.0,-0.010787314999998188
263152.0,0.6375303164999999,-0.090613446,9.930606055999998,-0.01684940859875326,-0.023731241839366896,0.0001361356816555577,9.951461819276423,0.02910486114534955,-0.005982056500000055,-0.03706913700000001,-0.02510502400000192
263162.0,0.6494944294999999,-0.1313110435,9.8910852565,-0.016050047801339853,-0.033857642159438,0.0017348572764823635,9.913256435473071,0.037509381450399996,0.011964112999999998,-0.0406975975,-0.039520799499998205
263172.0,0.6662638009999999,-0.183972754,9.8096900615,-0.009653416092780637,-0.03652275992723334,0.001467821900927231,9.834011009218425,0.037805488174278604,0.01676937150000002,-0.052661710499999986,-0.0813951950000007
263182.0,0.6794047119999999,-0.20790097999999999,9.7390821815,-0.001127482696788337,-0.03492403833240653,0.0001361356816555577,9.764964685967051,0.03494249853114081,0.013140910999999922,-0.023928225999999997,-0.07060787999999896
263192.0,0.6938204874999999,-0.21388303649999998,9.7367285855,0.005801474433629151,-0.030393163594229257,-0.0001308996938995747,9.763760360120994,0.03094218210791699,0.014415775500000061,-0.005982056499999999,-0.002353596000000735
263202.0,0.7057846005,-0.1995653275,9.698384584,0.008998917623282763,-0.022399555620095227,0.0001361356816555577,9.726079465098564,0.024139990540432872,0.01196411300000011,0.014317708999999984,-0.0383440015000005
263212.0,0.7021561399999999,-0.17563710149999998,9.6804384145,0.008199556825869361,-0.010142108283339049,0.005731661263549378,9.707458963770605,0.01424594796465675,-0.003628460500000097,0.023928226000000025,-0.017946169500000053
263222.0,0.6782279139999999,-0.17563710149999998,9.722312809999998,0.007400196028455957,0.005578072289373877,0.011594222220998332,9.747523165924878,0.014842633884689994,-0.023928225999999997,0.0,0.04187439549999894
263232.0,0.6506712275000001,-0.1983885295,9.767815666,0.0007382742735936014,0.020767672769480525,0.012393583018411734,9.791473532614413,0.02419591248945856,-0.027556686499999872,-0.022751428000000018,0.04550285600000237
263242.0,0.6172305509999999,-0.216334699,9.828813028999999,-0.009388126046477499,0.026895523773232618,0.009728465250616393,9.850550229003419,0.03010231130384378,-0.033440676500000155,-0.017946169499999998,0.06099736299999847
263252.0,0.5980095169999999,-0.204370586,9.86352857,-0.014451326206513048,0.02156703356689393,0.009728465250616393,9.883753263313022,0.027724011292290136,-0.01922103399999997,0.011964112999999998,0.03471554100000063
263262.0,0.5645688405,-0.191229675,9.8755907495,-0.014451326206513048,0.012239994044236233,0.013992304613238539,9.893563534736819,0.023546610620631705,-0.03344067649999993,0.013140911000000005,0.01206217950000088
263272.0,0.5825150099999999,-0.193583271,9.870785491,-0.008321729873508963,-0.0010821041362364843,0.02198591258737257,9.88985361009062,0.02353300851461409,0.017946169499999942,-0.0023535960000000133,-0.0048052585000011305
263282.0,0.5980095169999999,-0.21152944049999997,9.834893152,-0.003258529713473413,-0.010142108283339049,0.026249751949994717,9.855327665677956,0.02832895786577429,0.01549450699999999,-0.01794616949999997,-0.035892339000000106
263292.0,0.6016379775,-0.2713500055,9.807336465499999,-0.001127482696788337,-0.013606586848547793,0.024116959604057644,9.829519196226292,0.027713501464852453,0.003628460500000097,-0.05982056500000002,-0.027556686500000538
263302.0,0.6339999224999999,-0.28458898299999996,9.766638868,0.001270599695451872,-0.0061453042962720346,0.018256143975860686,9.791331960918457,0.019304558563904443,0.03236194499999989,-0.013238977499999971,-0.04069759749999946
263312.0,0.6459640354999999,-0.2689964095,9.771444126499999,0.0031363566658338103,0.00797790001086608,0.010794861423584929,9.796466144523476,0.013784507784941006,0.011964112999999998,0.015592573499999984,0.004805258499999354
263322.0,0.6159556865,-0.24506818349999998,9.768992464,0.0028693212902786776,0.020233602018370263,0.004665265090580842,9.791459216275399,0.020961783170094,-0.030008348999999934,0.023928225999999997,-0.002451662499998619
263332.0,0.607620034,-0.2127062385,9.814495319999999,-0.0016598081186466075,0.02449744138099241,-0.0014625859131712482,9.835586634050705,0.024597128994240193,-0.008335652500000013,0.032361944999999975,0.045502855999998815
263342.0,0.595655921,-0.18877801249999998,9.8671570305,-0.0101874868438909,0.021299998191338796,-0.0025289820861397836,9.886922219718905,0.023745958846454317,-0.011964112999999998,0.023928226000000025,0.05266171050000068
263352.0,0.5980095169999999,-0.16484978649999998,9.886279998,-0.013917255455402783,0.011175343200519692,0.0017348572764823635,9.90572173207922,0.017932875531551096,0.002353595999999958,0.023928225999999997,0.019122967499999532
263362.0,0.5896738645,-0.1624961905,9.8851032,-0.009121090670922365,0.0029146998508305304,0.0113271868454432,9.90400855982322,0.01483222613363213,-0.008335652499999902,0.0023535959999999856,-0.0011767979999994793
263372.0,0.5860454039999999,-0.183972754,9.859998175999998,-0.006190682856823887,-0.00268082573106329,0.018256143975860686,9.879112268847194,0.019462738083359663,-0.003628460500000097,-0.02147656349999999,-0.02510502400000192
263382.0,0.595655921,-0.2234935535,9.8455824005,-0.006723008278682157,-0.007476990515543708,0.01718974780289215,9.866116163400559,0.019914609135300517,0.00961051700000004,-0.03952079950000001,-0.014415775499998063
263392.0,0.6099736299999999,-0.24389138549999997,9.7845850375,-0.012585569236131109,-0.0077440258910988395,0.007862708280234455,9.806612829784061,0.016738837220653245,0.014317708999999956,-0.020397831999999977,-0.06099736300000025
263402.0,0.643512373,-0.253403836,9.7845850375,-0.02084621258582027,-0.009075712110370514,-0.00519235452468313,9.808997198203926,0.0233215281444749,0.03353874300000004,-0.00951245050000002,0.0
263412.0,0.6459640354999999,-0.22947561,9.7510462945,-0.024575981197332154,-0.008011061266653973,-0.011321950857687217,9.775112911277624,0.02821954155640363,0.0024516624999999515,0.023928225999999997,-0.03353874299999937
263422.0,0.6710690595,-0.216334699,9.700738179999998,-0.02084621258582027,-0.004546582701445229,-0.009990264638415543,9.726327961852784,0.023559316224794565,0.02510502400000003,0.013140911000000005,-0.05030811450000172
263432.0,0.6662638009999999,-0.2319272725,9.6804384145,-0.011786208438717707,-0.0029478611066184224,-0.007325146870620201,9.706110735468636,0.014186696977837055,-0.00480525850000002,-0.015592573500000012,-0.020299765499999012
263442.0,0.663910205,-0.2234935535,9.698384584,-0.004324925886441949,-0.0005497787143782138,-0.005726425275793395,9.723651046182605,0.007197165205637877,-0.002353595999999958,0.008433719000000006,0.017946169500000053
263452.0,0.6830331725,-0.22829881199999996,9.7414357775,-0.00032812189937493397,0.003447025272688801,-0.014252358671785694,9.76802056045405,0.014666948384740077,0.019122967499999977,-0.004805258499999965,0.043051193500000196
263462.0,0.6758743179999999,-0.17563710149999998,9.7749745205,-0.0024591689160600103,0.0029146998508305304,-0.02544515516482533,9.799886803508473,0.02572933944624666,-0.007158854500000089,0.052661710499999986,0.03353874300000115
263472.0,0.6961740835,-0.15406247149999996,9.780956577,-0.00699004365423729,-0.0008168140899333463,-0.024378758991856795,9.806911091715948,0.02537423467867938,0.020299765500000122,0.02157463000000001,0.0059820564999988335
263482.0,0.7165719154999999,-0.09904716499999999,9.765364003499998,-0.004057890510886816,-0.0016161748873467492,-0.01292067245251402,9.792120289897964,0.013638998250971007,0.020397831999999894,0.05501530649999997,-0.015592573500001095
263492.0,0.6938204874999999,-0.100223963,9.755851553,0.003403392041388943,0.001048942880448592,0.0017348572764823635,9.781005635199618,0.003961450280338906,-0.022751427999999962,-0.0011767980000000067,-0.009512450499999048
263502.0,0.7081381964999999,-0.13248784149999998,9.7390821815,0.008464846872172497,0.002647664475275398,0.010794861423584929,9.765691704712903,0.013971141431442381,0.014317708999999956,-0.03226387849999998,-0.016769371499998798
263512.0,0.7165719154999999,-0.16367298849999998,9.771444126499999,0.009531243045141035,0.0023806290997202655,0.011594222220998332,9.799050182265585,0.015196643636207166,0.008433719000000006,-0.031185146999999996,0.032361944999998116
263522.0,0.7057846005,-0.157690932,9.753399890499999,0.005002113636215749,0.0013159782560037245,0.007063347482821052,9.780174219120198,0.008754645467576892,-0.010787314999999853,0.0059820564999999715,-0.018044235999999714
263532.0,0.6794047119999999,-0.16367298849999998,9.759381947,0.00020420352248333657,-0.003480186528476693,0.0067980574365179135,9.784370986286335,0.0076398286801329365,-0.02637988850000017,-0.0059820564999999715,0.00598205650000061
263542.0,0.6961740835,-0.14572681899999998,9.7641872055,0.00020420352248333657,-0.010142108283339049,0.010794861423584929,9.790058551630977,0.0148132742047115,0.01676937150000013,0.017946169499999998,0.0048052585000011305
263552.0,0.7034310045,-0.13376270599999998,9.7163307535,0.007400196028455957,-0.010409143658894181,0.017456783178447285,9.742678838544263,0.021629897177527044,0.007256920999999972,0.011964112999999998,-0.047856452000001326
263562.0,0.7057846005,-0.16367298849999998,9.7055434385,0.014859733251479722,-0.006412339671827167,0.025183355777026184,9.732548185654046,0.02993545023152815,0.002353596000000069,-0.029910282499999996,-0.010787314999999964
263572.0,0.6626353405000001,-0.1995653275,9.682792010499998,0.018324211816688467,-0.0029478611066184224,0.02704911274740812,9.707490563117862,0.03280428515040033,-0.04314925999999997,-0.03589233900000002,-0.022751428000001184
263582.0,0.6351767205,-0.22467035149999998,9.722312809999998,0.01912357261410187,0.0013159782560037245,0.0222529479629277,9.74562941059213,0.029370674512817538,-0.0274586200000001,-0.025105023999999976,0.03952079949999998
263592.0,0.6172305509999999,-0.2223167555,9.728294866499999,0.01912357261410187,0.004246386070102204,0.012925908440270006,9.750390725629105,0.023469595931532958,-0.017946169500000053,0.0023535959999999856,0.00598205650000061
263602.0,0.63154826,-0.21996315949999998,9.791743892,0.01592612942444826,0.001048942880448592,-0.0006632251157578452,9.814554775575179,0.015974409133513903,0.014317709000000067,0.0023535960000000133,0.06344902550000064
263612.0,0.630371462,-0.1791674955,9.8551929175,0.013261011656652916,-0.003214896482173555,-0.00466002910282486,9.876957862251409,0.01441894104253676,-0.0011767979999999234,0.04079566399999998,0.06344902550000064
263622.0,0.6291946639999999,-0.13376270599999998,9.861174973999999,0.015393804002589986,-0.006412339671827167,0.0009354964790689607,9.88213287982743,0.016702169182456345,-0.0011767980000001454,0.045404789500000015,0.0059820564999988335
263632.0,0.6147788885,-0.113364874,9.8659802325,0.017791886394830196,-0.009609782861480778,0.012393583018411734,9.88576606158992,0.023717083466683192,-0.01441577549999995,0.020397831999999977,0.0048052585000011305
263642.0,0.6147788885,-0.15886772999999998,9.850387658999999,0.018057176441133332,-0.012007865253720986,0.023052308760341103,9.870832237960492,0.03164900295680481,0.0,-0.04550285599999998,-0.015592573500001095
263652.0,0.608796832,-0.206724182,9.8528393215,0.013528047032208048,-0.012540190675579259,0.026515041996297856,9.873794162598964,0.03230033886433634,-0.005982056499999944,-0.04785645200000002,0.0024516625000003955
263662.0,0.6136020904999999,-0.23310407049999998,9.803708004999999,0.007665486074759095,-0.01280722605113439,0.021186551789959165,9.825657010116458,0.025916301677434667,0.004805258499999909,-0.026379888499999976,-0.049131316500000466
263672.0,0.6207609449999999,-0.24389138549999997,9.8096900615,0.003403392041388943,-0.01067443370519732,0.012393583018411734,9.832336765054901,0.016707109634772434,0.007158854499999978,-0.010787314999999992,0.00598205650000061
263682.0,0.6411587769999999,-0.22829881199999996,9.822830972499998,-0.00032812189937493397,-0.0077440258910988395,0.008929104453202991,9.846380717765793,0.011823980180931802,0.020397832000000005,0.015592573500000012,0.013140910999998923
263692.0,0.656653284,-0.216334699,9.802531207,0.0010035643198967395,-0.004546582701445229,0.012126547642856601,9.826882125149782,0.012989677183814914,0.015494507000000102,0.01196411299999997,-0.020299765499999012
263702.0,0.655476486,-0.2354576665,9.826459432999998,0.006600835231042554,-0.0010821041362364843,0.01639038700547875,9.85111134465585,0.017702733158989868,-0.0011767980000000344,-0.019122967500000004,0.023928225999998887
263712.0,0.6327250579999999,-0.2593858925,9.851564457,0.011929325437381242,0.0023806290997202655,0.01718974780289215,9.875269327500634,0.021058576158620543,-0.022751428000000073,-0.023928225999999997,0.02510502400000192
263722.0,0.621937743,-0.25467870049999997,9.849210861,0.012461650859239512,0.005312782243070739,0.010794861423584929,9.872113369542342,0.017321877220852093,-0.010787314999999853,0.004707192000000027,-0.002353596000000735
263732.0,0.5669224365,-0.23310407049999998,9.886279998,0.00606676447993229,0.006379178416039274,-0.0017296212887263805,9.9052647998701,0.008971685366810684,-0.05501530650000008,0.021574629999999984,0.037069136999999586
263742.0,0.5848686059999999,-0.18995481049999996,9.930606055999998,-0.0075223690760955605,0.0037140606482439333,-0.009456193887305276,9.949627669203522,0.012641197959455529,0.017946169499999942,0.04314926000000002,0.044326057999999335
263752.0,0.5812401455,-0.136116302,9.916288346999998,-0.021645573383233675,0.0007819075048934596,-0.007857472292478471,9.93424090382647,0.023040878830075683,-0.003628460499999875,0.053838508499999965,-0.014317709000000178
263762.0,0.5908506625,-0.1205237285,9.9246239995,-0.030703832201084247,-0.006944665093685437,0.0004031710572106901,9.942926732404278,0.03148199853880251,0.00961051699999993,0.015592573499999998,0.008335652500001345
263772.0,0.6039915735,-0.1432751565,9.8875548625,-0.030970867576639378,-0.011473794502610723,0.010260790672474663,9.907021487322842,0.03458506070490864,0.013140911000000033,-0.022751428000000004,-0.037069136999999586
263782.0,0.608796832,-0.1624961905,9.859998175999998,-0.026974063589572366,-0.013873622224102926,0.012925908440270006,9.880111468263074,0.032972058006100556,0.00480525850000002,-0.019221033999999998,-0.027556686500002314
263792.0,0.6327250579999999,-0.1876012145,9.807336465499999,-0.024043655775473884,-0.01547234381892973,0.00839677903134472,9.82951594750367,0.02979927355493556,0.023928225999999886,-0.025105024000000004,-0.052661710499998904
263802.0,0.607620034,-0.18279595599999998,9.780956577,-0.025375341994745556,-0.020001473227855015,-0.0006632251157578452,9.801516618789545,0.0323172829951571,-0.02510502399999992,0.00480525850000002,-0.026379888499999282
263812.0,0.6028147755,-0.19240647299999997,9.745064238,-0.030703832201084247,-0.0245306026367803,-0.00972322926286041,9.765586664771345,0.04048477448194686,-0.00480525850000002,-0.009610516999999985,-0.035892339000000106
263822.0,0.6327250579999999,-0.195936867,9.717507551499999,-0.03336894996887958,-0.028262116577544176,-0.015585790220309363,9.74005571176728,0.04642360296508423,0.02991028249999994,-0.00353039400000002,-0.027556686500000538
263832.0,0.651946092,-0.21868829499999998,9.687597269,-0.0280404597625409,-0.027195720404575643,-0.017716837236994437,9.71197194824925,0.04289243422447227,0.01922103400000008,-0.02275142799999999,-0.029910282499999497
263842.0,0.6746975199999999,-0.19240647299999997,9.6672975035,-0.01684940859875326,-0.02133315944712669,-0.014519394047340827,9.692722941233995,0.030819134731952278,0.022751427999999962,0.02628182200000001,-0.020299765499999012
263852.0,0.6806795765,-0.18642441649999997,9.682792010499998,-0.0075223690760955605,-0.013873622224102926,-0.013452997874372293,9.7084777317319,0.020737564513268834,0.005982056500000055,0.005982056499999999,0.015494506999997881
263862.0,0.6961740835,-0.193583271,9.6612173805,-0.0019268434942017398,-0.009609782861480778,-0.013452997874372293,9.688201799643906,0.016644632897838952,0.01549450699999999,-0.007158854500000034,-0.02157462999999815
263872.0,0.6698922614999999,-0.16484978649999998,9.677986751999999,0.0007382742735936014,-0.005878268920716902,-0.017716837236994437,9.702543927548804,0.018681151358775214,-0.026281822000000066,0.028733484500000017,0.016769371499998798
263882.0,0.667440599,-0.15406247149999996,9.707995101,-0.0016598081186466075,-0.004546582701445229,-0.023047072772585123,9.732131373926174,0.02354981827183897,-0.0024516624999999515,0.01078731500000002,0.030008349000000933
263892.0,0.6878384309999999,-0.1372931,9.74388744,-0.0045919612619970815,-0.00721170046924057,-0.022780037397029988,9.769099935298948,0.02433156048632745,0.020397831999999894,0.016769371499999963,0.035892339000000106
263902.0,0.6818563744999999,-0.0846313895,9.7510462945,-0.004057890510886816,-0.004014257279586958,-0.01292067245251402,9.775223497445834,0.014125314634733514,-0.005982056499999944,0.0526617105,0.007158854500000089
263912.0,0.6866616329999999,-0.08227779349999999,9.728294866499999,-0.0005951572749300664,0.0029146998508305304,-0.0017296212887263805,9.75284547417356,0.0034411156918576864,0.00480525850000002,0.0023535960000000133,-0.022751428000001184
263922.0,0.6961740835,-0.121798593,9.7486926985,0.002336995868420407,0.01037598240310629,0.011060151469888067,9.774277598962547,0.015344364146338961,0.009512450500000047,-0.03952079950000001,0.02039783200000045
263932.0,0.665087003,-0.18161915799999998,9.767815666,0.0018029251173101424,0.015437437233889843,0.013192943815825137,9.792116682570075,0.020386730337561124,-0.031087080499999975,-0.05982056499999998,0.01912296750000131
263942.0,0.6602817445,-0.206724182,9.800079544499999,-0.001127482696788337,0.012507029419791366,0.009196139828758124,9.824472807640664,0.015564896077043217,-0.00480525850000002,-0.02510502400000003,0.032263878499998455
263952.0,0.6339999224999999,-0.24389138549999997,9.801354409,-0.0016598081186466075,0.0037140606482439333,0.002267182698340634,9.824865757885696,0.004657180142233544,-0.026281822000000066,-0.03716720349999997,0.0012748645000009162
263962.0,0.6494944294999999,-0.241439723,9.7498694965,0.004202752838802345,-0.005878268920716902,-0.0011955505376161158,9.774461179654612,0.0073243783365089495,0.01549450699999999,0.002451662499999979,-0.051484912499999425
263972.0,0.6459640354999999,-0.22467035149999998,9.7163307535,0.013795082407763181,-0.010941469080752452,0.0004031710572106901,9.740371122981529,0.017612001339524463,-0.0035303939999999923,0.01676937150000002,-0.03353874300000115
263982.0,0.6687154635,-0.241439723,9.682792010499998,0.020989329584483806,-0.01067443370519732,0.007330382858376184,9.70885856471135,0.0246623195215518,0.022751428000000073,-0.01676937150000002,-0.03353874300000115
263992.0,0.6794047119999999,-0.261837555,9.681615212499999,0.024186772774137416,-0.00214850030920502,0.009461429875061262,9.708955803319304,0.026060212702261484,0.01068924849999986,-0.020397832000000005,-0.0011767979999994793
264002.0,0.6626353405000001,-0.2893942415,9.7522230925,0.023387411976724018,0.01090830782496456,0.0041329396687225725,9.77899227259042,0.0261350991748357,-0.016769371499999797,-0.027556686499999983,0.07060788000000073
264012.0,0.6794047119999999,-0.3037119505,9.7641872055,0.013528047032208048,0.018102555001685183,-0.008391543043588736,9.792506497093287,0.024106607989243793,0.016769371499999797,-0.014317709000000012,0.01196411300000122
264022.0,0.6662638009999999,-0.29655309599999996,9.7726209245,0.002336995868420407,0.020500637393925398,-0.019582594207376378,9.799794432805484,0.02844671649131051,-0.013140910999999922,0.007158854500000034,0.008433718999999229
264032.0,0.6722458575,-0.24987344199999997,9.777426183,0.0010035643198967395,0.015704472609444978,-0.023312362818888262,9.80369389536193,0.028126568604870044,0.005982056500000055,0.04667965399999999,0.004805258499999354
264042.0,0.6938204874999999,-0.2462449815,9.789390295999999,0.007133160652900825,0.009309586230137754,-0.02011491962923465,9.81703549077865,0.02328433740450933,0.021574629999999928,0.003628460499999986,0.011964112999999443
264052.0,0.6901920269999999,-0.22113995749999998,9.801354409,0.016992525597416794,0.0029146998508305304,-0.012388347030655751,9.828113560890575,0.021229991605067902,-0.003628460499999986,0.025105024000000004,0.01196411300000122
264062.0,0.7141202529999999,-0.2462449815,9.826459432999998,0.022588051179310613,-0.003480186528476693,-0.00972322926286041,9.855450741343764,0.024836926976787833,0.023928225999999997,-0.025105024000000004,0.025105023999998366
264072.0,0.7428537374999999,-0.25105024,9.846857264999999,0.023120376601168884,-0.004279547325890096,-0.011321950857687217,9.878028947902767,0.026096990453274398,0.028733484500000017,-0.0048052584999999925,0.02039783200000045
264082.0,0.7488357939999999,-0.22113995749999998,9.8767675475,0.017791886394830196,-0.00268082573106329,-0.017449801861439306,9.907582707932741,0.02506458922644386,0.005982056499999944,0.029910282499999996,0.029910282500001273
264092.0,0.7536410525,-0.195936867,9.882749603999999,0.009798278420696166,0.0005166174585903216,-0.02064724505109292,9.91338014136577,0.02286004990825439,0.004805258500000131,0.025203090499999997,0.0059820564999988335
264102.0,0.768056828,-0.16367298849999998,9.9450218315,0.0026022859147235454,0.0037140606482439333,-0.021713641224061452,9.975979118222611,0.022182162962345753,0.01441577549999995,0.03226387850000001,0.062272227500001165
264112.0,0.7501106585,-0.11571846999999999,9.961693136500001,-0.001127482696788337,0.008243190057169218,-0.015585790220309363,9.990564894443441,0.017667434911204895,-0.017946169499999942,0.04795451849999999,0.016671305000000913
264122.0,0.724907568,-0.09659550249999999,9.979737372499999,-0.0075223690760955605,0.007710864635310948,-0.005726425275793395,10.006496874397158,0.012199812145288685,-0.025203090500000025,0.019122967500000004,0.018044235999997937
264132.0,0.7381465455,-0.10738281749999999,9.994055081499999,-0.014716616252816186,0.0005166174585903216,0.004932300466135976,10.021852541530622,0.015529754518968387,0.013238977500000026,-0.010787315000000006,0.014317709000000178
264142.0,0.712943455,-0.12650578499999998,9.978462508,-0.02111150263212341,-0.010941469080752452,0.015058700786207076,10.00469920123676,0.028145617037111288,-0.025203090500000025,-0.01912296749999999,-0.015592573499999318
264152.0,0.711766657,-0.161221326,9.934234516499998,-0.024308945821777023,-0.024265312590477164,0.023584634182199374,9.96100494522486,0.04166491583560235,-0.0011767980000000344,-0.034715541000000016,-0.04422799150000145
264162.0,0.7177487135,-0.18642441649999997,9.856369715499998,-0.024843016572887285,-0.03145955976719779,0.02491632040147105,9.884226891741397,0.04719854230307759,0.005982056500000055,-0.02520309049999997,-0.07786480100000048
264172.0,0.6961740835,-0.23908612699999998,9.7989027465,-0.028305749808844035,-0.03438996758129627,0.019854865570687493,9.8265108541143,0.048765777234794014,-0.02157463000000004,-0.052661710500000014,-0.05746696899999826
264182.0,0.6842099705,-0.25585549849999994,9.7726209245,-0.03283662454702132,-0.033857642159438,0.013992304613238539,9.79988393062997,0.04919724009157681,-0.011964112999999998,-0.016769371499999963,-0.02628182199999962
264192.0,0.6662638009999999,-0.276155264,9.721136012,-0.033103659922576446,-0.029593802796815852,0.009995500626171525,9.747853843085727,0.04551434386008674,-0.017946169500000053,-0.020299765500000067,-0.051484912499999425
264202.0,0.6722458575,-0.25105024,9.722312809999998,-0.028839820559954304,-0.023731241839366896,0.007862708280234455,9.748759259076,0.038167122902688755,0.005982056500000055,0.02510502400000003,0.001176797999997703
264212.0,0.6459640354999999,-0.23908612699999998,9.723489608,-0.021645573383233675,-0.019734437852299884,0.007063347482821052,9.747855244522627,0.030130877220856268,-0.026281822000000066,0.011964112999999998,0.0011767980000012557
264222.0,0.65312289,-0.242616521,9.7522230925,-0.019512781037296607,-0.015205308443374598,0.0036006142468643022,9.777079703653557,0.024998288973895055,0.007158854500000089,-0.00353039400000002,0.028733484500000017
264232.0,0.6279197995,-0.206724182,9.766638868,-0.023776620399918753,-0.010142108283339049,0.002267182698340634,9.788986308089106,0.025948606040796532,-0.025203090500000025,0.035892338999999995,0.014415775499999839
264242.0,0.6112484945,-0.18161915799999998,9.792920689999999,-0.03230429912516305,-0.012540190675579259,0.002534218073895766,9.813659148412034,0.03474545129069351,-0.016671305000000025,0.02510502400000003,0.02628182199999962
264252.0,0.6291946639999999,-0.1852476185,9.800079544499999,-0.03443534614184812,-0.016271704616343134,0.00386590429316744,9.822003954585504,0.038281936354295706,0.017946169499999942,-0.0036284605000000136,0.007158854500000089
264262.0,0.630371462,-0.195936867,9.8061596675,-0.03283662454702132,-0.021867230198236953,0.004399975044277704,9.828353212031887,0.039696088580299646,0.0011767980000001454,-0.010689248499999998,0.00608012300000027
264272.0,0.6291946639999999,-0.195936867,9.7641872055,-0.030438542154781107,-0.028794441999402447,0.005464625887994246,9.7864002046261,0.04225502188688435,-0.0011767980000001454,0.0,-0.0419724619999986
264282.0,0.6411587769999999,-0.2103526425,9.7379053835,-0.025375341994745556,-0.03359060678388287,0.007063347482821052,9.761256787398288,0.042686388030879464,0.011964112999999998,-0.014415775500000005,-0.026281822000001398
264292.0,0.677051116,-0.2234935535,9.67327956,-0.021645573383233675,-0.03305828136202459,0.006263986685407649,9.699519834922071,0.04000772853955472,0.035892339000000106,-0.013140911000000005,-0.06462582350000012
264302.0,0.7105898589999999,-0.2342808685,9.6121841305,-0.019779816412851738,-0.030660198969784384,0.0033335788713091696,9.641260769821278,0.03663880028445426,0.033538742999999926,-0.010787314999999992,-0.06109542949999991
264312.0,0.7308896245,-0.240262925,9.6301303,-0.01551597705022959,-0.02053379864971329,0.003066543495754037,9.660814433126712,0.025918837161832128,0.02029976550000001,-0.005982056499999999,0.017946169500000053
264322.0,0.7381465455,-0.21996315949999998,9.631307097999999,-0.012051498485020845,-0.009342747485925645,0.002001892652037496,9.662055709327905,0.015379633302212098,0.007256921000000083,0.02029976550000001,0.0011767979999994793
264332.0,0.7453053999999999,-0.2234935535,9.675633155999998,-0.0101874868438909,0.0013159782560037245,0.001467821900927231,9.706869035750493,0.01037647281582554,0.007158854499999867,-0.00353039400000002,0.044326057999999335
264342.0,0.7393233435,-0.17563710149999998,9.7498694965,-0.0101874868438909,0.009042550854582622,0.0006684611035138282,9.779437744392492,0.01363816169427075,-0.005982056499999944,0.04785645200000002,0.07423634050000238
264352.0,0.6986257459999999,-0.134939504,9.828813028999999,-0.013117894657989381,0.011974703997933095,0.0006684611035138282,9.854534598942456,0.017774125473370896,-0.040697597500000016,0.04069759749999999,0.07894353249999853
264362.0,0.6794047119999999,-0.1372931,9.881572806,-0.024575981197332154,0.009841911651996023,0.0004031710572106901,9.905852879902573,0.026476491906570455,-0.01922103400000008,-0.0023535960000000133,0.05275977700000034
264372.0,0.655476486,-0.16367298849999998,9.905501032,-0.038432150128915134,0.0002495820830351891,-0.0038606683054114572,9.928513935419364,0.03862637977486438,-0.023928225999999886,-0.026379888499999976,0.023928226000000663
264382.0,0.6626353405000001,-0.2103526425,9.895890515,-0.04855680511973424,-0.013074261426689522,-0.009190903841002138,9.920281392861456,0.05111919745754836,0.007158854500000089,-0.046679654000000015,-0.009610517000000485
264392.0,0.6591049465000001,-0.241439723,9.858821378,-0.050956632841226444,-0.022931881041953497,-0.013452997874372293,9.883778196299879,0.05747549695692703,-0.0035303939999999923,-0.031087080500000003,-0.037069136999999586
264402.0,0.6339999224999999,-0.2689964095,9.826459432999998,-0.04829151507343111,-0.02692868502902051,-0.017716837236994437,9.850564448723157,0.05806126787421861,-0.025105024000000142,-0.027556686499999983,-0.03236194500000167
264412.0,0.6494944294999999,-0.307340411,9.7761513185,-0.04429471108636409,-0.02852740662384732,-0.024645794367411926,9.80252190736621,0.05816570758537669,0.01549450699999999,-0.0383440015,-0.05030811449999817
264422.0,0.644689171,-0.32646337849999996,9.7522230925,-0.041629593318568754,-0.022399555620095227,-0.03184004154413256,9.778959950352418,0.056996064577997406,-0.004805258499999909,-0.019122967499999977,-0.023928226000000663
