timestamp,ax,ay,az,gx,gy,gz,acc_mag,gyro_mag,dax,day,daz
373362.0,0.154356671,0.8175804105,9.6757312225,-0.09241169323459576,0.10631847671448658,0.04035724829386488,9.711438533995716,0.14653411557458731,0.0,0.0,0.0
373372.0,0.36980877149999997,-0.323227184,9.929527324499999,-0.11319681929659622,0.0567563619456036,0.033962361914557655,9.941667225769882,0.13110395320882592,0.21545210049999997,-1.1408075945,0.253796101999999
373382.0,0.372260434,-0.7386368779999999,9.888829727,-0.09480977562683597,0.04982915014443811,0.021704914577801483,9.923362113611612,0.10928376400617612,0.002451662500000007,-0.4154096939999999,-0.04069759749999946
373392.0,0.31479346499999994,-0.62370294,9.8349912185,-0.06043726133805965,0.03970274982436701,0.006250024051391694,9.859774467549624,0.07258122141645296,-0.057466969000000034,0.11493393799999985,-0.05383850849999838
373402.0,0.2764494635,-0.5806517465,9.7212340785,-0.03698876283751582,0.028511698660579367,0.0022532200643246795,9.742482885054132,0.046756417072097704,-0.03834400149999995,0.043051193500000084,-0.11375714000000059
373412.0,0.34107528699999995,-0.6153672874999999,9.741533844,-0.016203636775515357,0.02238210232757528,0.001186823891356144,9.766907948973648,0.02765727572093785,0.06462582349999996,-0.03471554099999996,0.020299765499999012
373422.0,0.33754489299999996,-0.6285081985,9.759578079999999,0.011773991133953747,0.014123204307138116,0.004384267081009755,9.78561819253074,0.018902739615230695,-0.0035303939999999923,-0.013140911000000033,0.018044235999999714
373432.0,0.31479346499999994,-0.5997747139999999,9.7870367,0.040020399748229976,-0.0002670353755551324,0.006782349473249964,9.810449123271951,0.040591919987569176,-0.022751428000000018,0.028733484500000017,0.027458620000000877
373442.0,0.30518294799999995,-0.541130947,9.806257733999999,0.059737384308009914,-0.025314255470925754,0.004384267081009755,9.825917264010819,0.06502759730950998,-0.009610516999999985,0.05864376699999996,0.019221033999999193
373452.0,0.34352694949999996,-0.5482898015,9.832539555999999,0.06107081585653358,-0.039969785199922135,-0.002542944720155738,9.853804675949608,0.07303214940120765,0.0383440015,-0.007158854499999978,0.02628182199999962
373462.0,0.37461402999999993,-0.5351488904999999,9.83018596,0.05014505473904908,-0.039969785199922135,-0.010536552694289767,9.851866625906855,0.06498560753266594,0.031087080499999975,0.013140911000000033,-0.0023535959999989586
373472.0,0.40217071649999997,-0.5399541489999999,9.8349912185,0.034957199588194425,-0.03144210647467785,-0.017997835246565525,9.858009131472976,0.05034415493556681,0.02755668650000004,-0.00480525850000002,0.0048052585000011305
373482.0,0.46924820249999993,-0.529166834,9.824203903499999,0.018702948264371237,-0.011458086539342773,-0.026790804018112957,9.849629117449027,0.03462419964215422,0.06707748599999996,0.010787314999999964,-0.01078731500000174
373492.0,0.42855060500000003,-0.49445129299999996,9.818221846999998,0.004314453910929983,0.010925761117484502,-0.030789353334431967,9.84000091153976,0.03295407482085291,-0.040697597499999905,0.034715541000000016,-0.00598205650000061
373502.0,0.44885037049999993,-0.4908228324999999,9.8612730405,-0.003146828641345776,0.017585937543094867,-0.027590164815526362,9.883677437436607,0.03286920936553747,0.0202997654999999,0.0036284605000000414,0.04305119350000197
373512.0,0.4608144834999999,-0.48003551749999995,9.8589194445,-0.00048345620280242926,0.021050416108303608,-0.02199463923363254,9.881349943170976,0.030448610859124658,0.011964112999999998,0.010787314999999964,-0.002353596000000735
373522.0,0.47640705699999997,-0.45973575199999994,9.8600962425,0.0008499753457212385,0.017053612121236593,-0.010536552694289767,9.882298242665469,0.020064074540069535,0.01559257350000004,0.02029976550000001,0.0011767979999994793
373532.0,0.47640705699999997,-0.45247883099999997,9.827734297500001,-0.0034138640169009086,0.01332384350972471,0.004117231705454623,9.84967320263573,0.014357258453964144,0.0,0.007256920999999972,-0.032361944999998116
373542.0,0.453655629,-0.4668946065,9.807434532,-0.008210028801381325,0.0101264003200711,0.020106192982974676,9.829016537923223,0.023962628249640457,-0.022751427999999962,-0.014415775500000005,-0.020299765500000788
373552.0,0.418940088,-0.517202721,9.789488362499998,-0.011140436615479804,0.009060004147102564,0.027832765581553575,9.812089066629294,0.031318618153532124,-0.034715541000000016,-0.0503081145,-0.01794616950000183
373562.0,0.39618865999999997,-0.5386792844999999,9.783506306,-0.010875146569176666,0.010658725741929371,0.030497883349348914,9.806331447865903,0.03408809375915932,-0.022751428000000018,-0.021476563499999934,-0.0059820564999988335
373572.0,0.32793437599999997,-0.5363256885,9.797824015,-0.00607898178469625,0.009592329568960835,0.023303636172628286,9.81797034157357,0.025923469385181815,-0.068254284,0.002353595999999958,0.014317709000000178
373582.0,0.33509323049999995,-0.6069335685,9.785859901999999,0.002181661564992912,0.0010663961729685354,0.011845549633285515,9.810387854273168,0.012091893734916787,0.007158854499999978,-0.07060788000000007,-0.01196411300000122
373592.0,0.38657814299999993,-0.5830053425,9.763108474,0.008576547944300135,-0.005328490206338688,-0.004408701690537677,9.788136950672454,0.011017560216131154,0.05148491249999998,0.023928225999999997,-0.022751427999999407
373602.0,0.40334751449999995,-0.5386792844999999,9.755949619499999,0.013906783479890817,-0.005328490206338688,-0.014535102010608775,9.779131738923702,0.020810108723752854,0.01676937150000002,0.04432605800000011,-0.007158854500000089
373612.0,0.43806305549999996,-0.5099457999999999,9.7798778455,0.011773991133953747,-0.002398082392240209,-0.013735741213195374,9.802956423061023,0.01824960966865505,0.034715541000000016,0.028733484500000017,0.023928226000000663
373622.0,0.4512039665,-0.49199963049999995,9.741533844,0.006445500927615059,0.002930407814098479,-0.006806784082777886,9.764380691554118,0.009821612989441928,0.013140911000000033,0.017946169499999942,-0.0383440015000005
373632.0,0.4716017985,-0.48601757399999995,9.783506306,0.0016493361431346415,0.009327039522657697,-0.00014486232791552936,9.806916792658487,0.009472853902827705,0.020397832000000005,0.005982056499999999,0.04197246200000038
373642.0,0.4249221445,-0.4968048889999999,9.783506306,0.001117010721276371,0.009859364944515966,0.005982988675836562,9.805323531947456,0.01158667094362247,-0.046679654000000015,-0.010787314999999964,0.0
373652.0,0.410506369,-0.5016101475,9.795470418999999,0.0037803831598197174,0.005862560957448953,0.00731642022436023,9.816892020826579,0.01010895260223732,-0.014415775500000005,-0.004805258500000076,0.011964112999999443
373662.0,0.40334751449999995,-0.5064154059999999,9.797824015,0.005646140130201656,0.002398082392240209,0.00731642022436023,9.819190455928544,0.009547759026560814,-0.007158854500000034,-0.004805258499999909,0.002353596000000735
373672.0,0.4045243125,-0.5016101475,9.8122397905,0.0035150931135165798,0.0015987215948268059,0.0027855454861829498,9.833376956353806,0.0047614130245181895,0.0011767980000000344,0.004805258499999909,0.014415775499999839
373682.0,0.420116886,-0.5039637435,9.8014524755,0.0037803831598197174,0.006127851003752092,-0.0009442231253289323,9.823387821019281,0.007261777473156277,0.01559257350000004,-0.002353595999999958,-0.010787314999999964
373692.0,0.45483242699999993,-0.49798168699999995,9.829009162,0.004314453910929983,0.01305680813416958,-0.0014782938764391971,9.852120553663461,0.013830405055065218,0.034715540999999905,0.005982056499999999,0.027556686500000538
373702.0,0.4716017985,-0.487194372,9.821752241,-0.00021642082724729686,0.023181463124988685,0.0014538592669112766,9.845129948154337,0.023228017077608246,0.016769371500000074,0.010787314999999964,-0.00725692099999975
373712.0,0.44169151599999995,-0.495628091,9.8481321295,-0.0034138640169009086,0.026380651643894294,0.007581710270663368,9.87048352614931,0.027659999626006432,-0.02991028250000005,-0.008433719000000006,0.026379888499999282
373722.0,0.420116886,-0.5195563169999999,9.842150072999999,-0.0023474678439323734,0.021317451483858742,0.01584235362035253,9.864803851262874,0.02666316769022887,-0.021574629999999928,-0.02392822599999994,-0.00598205650000061
373732.0,0.397365458,-0.5386792844999999,9.80861133,-0.00048345620280242926,0.0085259333959923,0.017174039839624202,9.831425680020438,0.019180013414644013,-0.022751428000000018,-0.019122967499999977,-0.03353874299999937
373742.0,0.40579917699999996,-0.5614307125,9.820575443,0.0027157323161031764,-0.007461282552275759,0.013711306603667452,9.844977371667584,0.015844427036576503,0.00843371899999995,-0.022751428000000073,0.011964112999999443
373752.0,0.40217071649999997,-0.57466969,9.820575443,0.005646140130201656,-0.017053612121236593,0.008115781021773632,9.845592342234644,0.019712191312607593,-0.003628460499999986,-0.013238977500000026,0.0
373762.0,0.39618865999999997,-0.5351488904999999,9.8253807015,0.005113814708343385,-0.016786576745681462,0.0014538592669112766,9.847916313552052,0.017608349339955365,-0.005982056499999999,0.03952079950000009,0.0048052585000011305
373772.0,0.4164884255,-0.5278919695,9.827734297500001,0.003248057737961447,-0.010391690366374239,-0.0006789330790257941,9.850710327803569,0.01090862309668465,0.02029976550000001,0.007256920999999972,0.002353596000000735
373782.0,0.4249221445,-0.49445129299999996,9.819398645,-0.00021642082724729686,0.0013316862192716736,0.001986184688769547,9.841017765427704,0.0024010738803641736,0.008433719000000006,0.03344067649999999,-0.008335652500001345
373792.0,0.4009939185,-0.46924820249999993,9.818221846999998,-0.006344271830999388,0.011725121914897906,0.006782349473249964,9.837604903386369,0.014957557733872383,-0.023928225999999997,0.025203090500000025,-0.0011767980000012557
373802.0,0.418940088,-0.5099457999999999,9.775072586999999,-0.011407471991034937,0.013856168931582983,0.008648106443631903,9.797326145300561,0.019922690073059905,0.017946169499999998,-0.04069759749999996,-0.043149259999999856
373812.0,0.4368862575,-0.5399541489999999,9.712898425999999,-0.01407258975883028,0.014388494353441254,0.008115781021773632,9.737700751142844,0.021700978177785598,0.017946169499999998,-0.030008349000000045,-0.06217416099999973
373822.0,0.40579917699999996,-0.5195563169999999,9.7116235615,-0.011407471991034937,0.01812000829420513,0.0078487456462185,9.733973697255937,0.022804997830022766,-0.03108708050000003,0.020397832000000005,-0.0012748644999991399
373832.0,0.3913834015,-0.532697228,9.740357046,-0.0023474678439323734,0.01572192590196492,0.009714502616600437,9.762761017624596,0.018629576496343354,-0.01441577549999995,-0.013140911000000033,0.028733484500000017
373842.0,0.373437232,-0.5351488904999999,9.773895789,0.009375908741713538,0.011458086539342773,0.011046188835872111,9.795656108473752,0.018471970649439493,-0.017946169499999998,-0.0024516624999999515,0.03353874299999937
373852.0,0.372260434,-0.5386792844999999,9.778701047499998,0.01577079512102076,0.005328490206338688,0.0078487456462185,9.800599337726691,0.018404173299751702,-0.0011767980000000344,-0.0035303939999999923,0.004805258499999354
373862.0,0.36147311899999995,-0.5351488904999999,9.7918419585,0.015505505074717624,0.0013316862192716736,0.0027855454861829498,9.81311449495032,0.015809912696289195,-0.01078731500000002,0.0035303939999999923,0.013140911000000699
373872.0,0.360296321,-0.5112206645,9.803806071499999,0.012308061885064012,0.0013316862192716736,-0.003342305517569141,9.823735210922482,0.01282313462948653,-0.001176797999999979,0.023928225999999886,0.011964112999999443
373882.0,0.359119523,-0.5004333495,9.8134165885,0.006712536303170191,0.003996803987067015,-0.008138470302049559,9.832728284079579,0.01128128027263551,-0.001176797999999979,0.010787315000000075,0.009610517000002261
373892.0,0.37108363599999994,-0.47650512349999996,9.819398645,0.005646140130201656,0.007461282552275759,-0.012669345040226838,9.837954561140062,0.015749982204532442,0.011964112999999943,0.023928225999999997,0.0059820564999988335
373902.0,0.395011862,-0.4908228324999999,9.8589194445,0.008311257897996997,0.0101264003200711,-0.013735741213195374,9.879030014994601,0.018981348159844376,0.023928226000000052,-0.014317708999999956,0.03952079949999998
373912.0,0.393835064,-0.49445129299999996,9.8828476705,0.006445500927615059,0.011725121914897906,-0.009204866475018093,9.903043280582619,0.016240459751805603,-0.001176797999999979,-0.0036284605000000414,0.023928226000000663
373922.0,0.3674551755,-0.5004333495,9.87921921,0.004314453910929983,0.010925761117484502,-0.003342305517569141,9.89870845325422,0.01221301661010286,-0.026379888500000004,-0.005982056499999999,-0.003628460499999875
373932.0,0.38177288449999996,-0.5375024865,9.9044223005,-0.0023474678439323734,0.005328490206338688,0.0027855454861829498,9.92634074394864,0.006454663183539326,0.014317708999999956,-0.03706913700000003,0.025203090499999803
373942.0,0.385401345,-0.57466969,9.898440244,-0.013538519007720013,-0.0,0.005450663253978291,9.92259536176757,0.01459456154979194,0.0036284605000000414,-0.03716720350000002,-0.00598205650000061
373952.0,0.37108363599999994,-0.566235971,9.8253807015,-0.023132593905932843,-0.004796164784480418,0.004384267081009755,9.848676670962954,0.024027939888686196,-0.014317709000000067,0.008433719000000006,-0.07305954249999935
373962.0,0.34833220800000003,-0.565059173,9.8253807015,-0.021266836935550905,-0.00799360797413403,0.00012042771838760874,9.847778080639827,0.022719828884100502,-0.022751427999999907,0.0011767980000000344,0.0
373972.0,0.373437232,-0.563882375,9.794293621,-0.01407258975883028,-0.009859364944515966,-0.0028099800957108708,9.817617136222045,0.01741094046189856,0.025105023999999976,0.0011767979999999234,-0.031087080500000752
373982.0,0.38902980549999994,-0.5579003185,9.782329507999998,-0.008742354223239598,-0.00506320016003555,-0.009204866475018093,9.805945520858112,0.013667271858278493,0.015592573499999929,0.005982056500000055,-0.01196411300000122
373992.0,0.393835064,-0.5386792844999999,9.775072586999999,-0.005811946409141118,0.0015987215948268059,-0.014268066635053644,9.797822488201353,0.015489104470653716,0.004805258500000076,0.01922103400000008,-0.00725692099999975
374002.0,0.3686319735,-0.474053461,9.8014524755,-0.003946189438759179,0.012789772758614447,-0.018531905997675794,9.81983130431769,0.022860057703563714,-0.025203090500000025,0.0646258234999999,0.02637988850000106
374012.0,0.3794192885,-0.448948437,9.818221846999998,-0.0015481070465189703,0.016521286699378322,-0.020130627592502597,9.835801641578517,0.0260881528073293,0.01078731500000002,0.02510502400000003,0.016769371499998798
374022.0,0.44522191,-0.45130203299999994,9.831362758000001,-0.003946189438759179,0.017852972918649995,-0.019596556841392332,9.85178104474127,0.026801606167514386,0.06580262149999999,-0.002353595999999958,0.013140911000002475
374032.0,0.45002716849999996,-0.435807526,9.827734297500001,-0.011140436615479804,0.01812000829420513,-0.014268066635053644,9.847680644413902,0.025612921623038572,0.004805258499999965,0.015494506999999935,-0.003628460499999875
374042.0,0.43570945949999995,-0.435807526,9.8385216125,-0.013805554383275147,0.009859364944515966,-0.007606144880191288,9.857802922175186,0.018591768309582014,-0.014317709000000012,0.0,0.010787314999998188
374052.0,0.432080999,-0.44777163899999994,9.83018596,-0.009276424974349861,-0.0026651177677953415,0.00012042771838760874,9.849860376602843,0.009652430567288029,-0.0036284604999999304,-0.011964112999999943,-0.008335652499999568
374062.0,0.4345326615,-0.4931764285,9.799000813,-0.0018151424220741027,-0.01598721594826806,0.0033178709080412204,9.821021258337288,0.016428453461948142,0.0024516624999999515,-0.04540478950000004,-0.031185147000000413
374072.0,0.45600922499999996,-0.5147510585,9.8049828695,0.004314453910929983,-0.023181463124988685,0.004117231705454623,9.829069240609735,0.02393629758507255,0.02147656349999999,-0.02157463000000004,0.00598205650000061
374082.0,0.4608144834999999,-0.556625454,9.794293621,0.005379104754646523,-0.022916173078685546,0.0035849062835963527,9.820914897228535,0.023810445388440377,0.004805258499999965,-0.04187439549999994,-0.010689248500000303
374092.0,0.47395539449999996,-0.5674127689999999,9.777524249499999,0.002181661564992912,-0.015187855150854655,0.0027855454861829498,9.805435809588497,0.015594545678637254,0.013140911000000033,-0.010787314999999964,-0.016769371500000574
374102.0,0.45846088749999997,-0.57466969,9.755949619499999,-0.0018151424220741027,-0.008792968771547434,0.001986184688769547,9.783607954951698,0.009195432096846999,-0.01549450699999999,-0.007256921000000083,-0.021574629999999928
374112.0,0.43325779699999994,-0.5602539145,9.755949619499999,-0.0034138640169009086,-0.0013316862192716736,0.0003874630939427412,9.781623062947991,0.003684831524188938,-0.025203090500000025,0.014415775500000061,0.0
374122.0,0.4164884255,-0.5386792844999999,9.773895789,-0.00607898178469625,0.00559552558189382,-0.0012112585008840647,9.79758525731503,0.00835051335142103,-0.016769371499999963,0.02157463000000004,0.017946169500000053
374132.0,0.41413482949999997,-0.529166834,9.763108474,-0.005279620987282847,0.009327039522657697,-0.0020106192982974674,9.786205202748468,0.010904616177989136,-0.0023535960000000133,0.009512450499999936,-0.010787314999999964
374142.0,0.4260989425,-0.520733115,9.7439855065,-0.0034138640169009086,0.009327039522657697,-0.004408701690537677,9.767188788834753,0.010866682307827873,0.011964113000000054,0.008433719000000006,-0.019122967499999532
374152.0,0.42972740299999995,-0.5363256885,9.767913732499999,-0.0026145032194875057,0.008260643349689161,-0.008937831099462962,9.792060537527133,0.012448240052232348,0.0036284604999999304,-0.015592573499999984,0.023928225999998887
374162.0,0.453655629,-0.5351488904999999,9.761931676,-0.004480260189869444,0.01119105116378764,-0.011869984242813436,9.787108756503063,0.01691770916655328,0.023928226000000052,0.0011767980000000344,-0.0059820564999988335
374172.0,0.47640705699999997,-0.474053461,9.7906651605,-0.010341075818066403,0.018385298340508265,-0.007606144880191288,9.813705449669557,0.02242343604541806,0.022751427999999962,0.06109542949999991,0.028733484500000017
374182.0,0.48954796799999994,-0.4333558635,9.814593386499999,-0.013538519007720013,0.021050416108303608,0.0038519416591514853,9.836345757431072,0.02532289418294502,0.013140910999999977,0.040697597500000016,0.023928225999998887
374192.0,0.487194372,-0.46444294399999997,9.814593386499999,-0.015936601399960223,0.017585937543094867,0.017174039839624202,9.837647531125993,0.02929484780407379,-0.002353595999999958,-0.031087080499999975,0.0
374202.0,0.42855060500000003,-0.474053461,9.820575443,-0.01513724060254682,0.015454890526409788,0.028899161754522108,9.841345656798493,0.03609918620075439,-0.05864376699999996,-0.00961051700000004,0.00598205650000061
374212.0,0.39020660349999997,-0.5099457999999999,9.833716354,-0.01913578991886583,0.00799360797413403,0.03262893036603399,9.854657946538769,0.03866165181539197,-0.03834400150000006,-0.035892338999999884,0.013140911000000699
374222.0,0.3543142645,-0.556625454,9.8134165885,-0.021266836935550905,0.0026651177677953415,0.030764918724904045,9.835573985971326,0.037494818710182905,-0.035892338999999995,-0.04667965400000007,-0.020299765499999012
374232.0,0.34833220800000003,-0.6045799725,9.778701047499998,-0.02153387231110604,-0.0015987215948268059,0.020371483029277816,9.803562946534074,0.029686038608425662,-0.005982056499999944,-0.04795451849999999,-0.0347155410000024
374242.0,0.34833220800000003,-0.612915625,9.736826652,-0.0196681153407241,-0.0010663961729685354,0.0078487456462185,9.76231499909713,0.02120317830120717,0.0,-0.008335652500000013,-0.04187439549999894
374252.0,0.36147311899999995,-0.6081103664999999,9.7008362465,-0.018868754543310697,0.0034644785652087444,-0.00041189770347066176,9.726596779707307,0.019188594775611457,0.013140910999999922,0.00480525850000002,-0.03599040549999977
374262.0,0.35784465849999997,-0.5722180275,9.690146998,-0.014604915180688549,0.009859364944515966,-0.005208062487951079,9.713621112307262,0.018374834405312616,-0.003628460499999986,0.035892338999999995,-0.010689248500000303
374272.0,0.40815277299999997,-0.5614307125,9.6973058525,-0.005544911033585984,0.016521286699378322,-0.002542944720155738,9.722115712537914,0.017611516698547193,0.0503081145,0.010787314999999964,0.007158854500000089
374282.0,0.39618865999999997,-0.5434845429999999,9.729569731,0.0013823007675795092,0.02371553387609895,0.004384267081009755,9.752787706762817,0.02415696794463398,-0.011964112999999998,0.017946169500000053,0.03226387850000023
374292.0,0.3674551755,-0.5243615755,9.712898425999999,0.005379104754646523,0.02611361626833916,0.011313224211427244,9.733980388394864,0.02896281693187926,-0.02873348449999996,0.019122967499999977,-0.016671305000000913
374302.0,0.3674551755,-0.5614307125,9.772718991,0.006712536303170191,0.021317451483858742,0.011578514257730382,9.795726835104787,0.02517049609770365,0.0,-0.03706913700000003,0.05982056500000077
374312.0,0.3458805455,-0.5793768819999999,9.789488362499998,0.007244861725028463,0.016786576745681462,0.0051836278784231585,9.81271589941716,0.019003872716775436,-0.021574629999999984,-0.017946169499999942,0.016769371499998798
374322.0,0.33391643249999997,-0.5733948255,9.8049828695,0.0077771871468867325,0.012257447336756176,-0.0006789330790257941,9.827409164219842,0.014532398468829802,-0.011964113000000054,0.005982056499999944,0.015494507000001434
374332.0,0.362649917,-0.5351488904999999,9.788311564499999,0.006178465552059927,0.009859364944515966,-0.002542944720155738,9.809635191026622,0.011909957243286367,0.028733484500000017,0.038245935000000064,-0.016671305000000913
374342.0,0.37108363599999994,-0.5112206645,9.8134165885,0.0027157323161031764,0.012789772758614447,0.001186823891356144,9.833727409897318,0.013128672445408069,0.00843371899999995,0.023928225999999886,0.02510502400000192
374352.0,0.37461402999999993,-0.48846923649999996,9.773895789,0.001117010721276371,0.013856168931582983,0.00731642022436023,9.793261803950289,0.015708950802375034,0.0035303939999999923,0.022751428000000073,-0.03952079950000176
374362.0,0.385401345,-0.487194372,9.783506306,0.0003159045946109737,0.018385298340508265,0.012644910430698918,9.803208056160903,0.022316199286231304,0.010787315000000075,0.0012748644999999725,0.009610517000000485
374372.0,0.362649917,-0.48846923649999996,9.840973275,0.005113814708343385,0.01918465913792167,0.019839157607419545,9.859760248432575,0.028067675744199827,-0.022751428000000018,-0.0012748644999999725,0.057466969000000034
374382.0,0.351862602,-0.5315204299999999,9.8134165885,0.008044222522441864,0.014655529728996385,0.020905553780388077,9.83409713179815,0.026768194681239824,-0.010787314999999964,-0.04305119349999997,-0.02755668649999876
374392.0,0.339898489,-0.5722180275,9.840973275,0.010709340290237207,0.011990411961201045,0.015575318244797397,9.863453728440394,0.022384157050872603,-0.011964112999999998,-0.040697597500000016,0.02755668649999876
374402.0,0.32793437599999997,-0.5830053425,9.842150072999999,0.012308061885064012,0.008792968771547434,0.008915141819187036,9.864854496838761,0.0175580306652025,-0.011964113000000054,-0.010787315000000075,0.0011767979999994793
374412.0,0.3003776895,-0.5710412294999999,9.849308927500001,0.013107422682477415,0.00506320016003555,-0.0012112585008840647,9.870420517458689,0.014103463134764857,-0.027556686499999983,0.01196411300000011,0.0071588545000018655
374422.0,0.336368095,-0.565059173,9.840973275,0.013107422682477415,0.0015987215948268059,-0.007073819458333018,9.862919971468369,0.01497996534855738,0.03599040549999999,0.005982056499999944,-0.008335652500001345
374432.0,0.34352694949999996,-0.5602539145,9.840973275,0.00884358331985527,0.003996803987067015,-0.010536552694289767,9.86289258853657,0.014324885714231793,0.007158854499999978,0.00480525850000002,0.0
374442.0,0.38657814299999993,-0.521909913,9.8373448145,0.003248057737961447,0.010391690366374239,-0.010536552694289767,9.858761870402542,0.015151107234102443,0.04305119349999997,0.03834400149999995,-0.003628460499999875
374452.0,0.350685804,-0.484840776,9.8157701845,-0.0012828170002158322,0.01332384350972471,-0.004408701690537677,9.833991835776486,0.014092802273636915,-0.03589233899999994,0.03706913700000003,-0.021574629999999928
374462.0,0.3423501514999999,-0.5099457999999999,9.8708835575,-0.0020821777976292354,0.011725121914897906,0.0003874630939427412,9.889974244197685,0.011914867852784897,-0.008335652500000068,-0.02510502399999992,0.0551133729999993
374472.0,0.3447037475,-0.5351488904999999,9.8732371535,-0.003146828641345776,0.005862560957448953,0.0006544984694978735,9.893736245615036,0.00668584472780919,0.002353596000000069,-0.025203090500000025,0.002353596000000735
374482.0,0.35303939999999995,-0.5399541489999999,9.868431894999999,-0.0034138640169009086,-0.0,0.00012042771838760874,9.889496214025664,0.0034159874650306976,0.008335652499999957,-0.00480525850000002,-0.0048052585000011305
374492.0,0.338721691,-0.5075922039999999,9.8385216125,-0.004745550236172582,-0.001865756970381938,0.001186823891356144,9.857428150848733,0.005235441439426114,-0.014317708999999956,0.032361945,-0.029910282499999497
374502.0,0.3303860385,-0.5255383735,9.8157701845,-0.009808750396208134,-0.0013316862192716736,0.0033178709080412204,9.835379496052804,0.010439982753057478,-0.008335652500000013,-0.017946169500000053,-0.022751427999999407
374512.0,0.30165255399999996,-0.5278919695,9.8265574995,-0.01407258975883028,0.00506320016003555,0.005982988675836562,9.845348977348491,0.016108070395801834,-0.028733484500000017,-0.002353595999999958,0.010787314999999964
374522.0,0.29684729549999994,-0.5243615755,9.783506306,-0.01513724060254682,0.0085259333959923,0.005982988675836562,9.802044124479764,0.018374540724259675,-0.00480525850000002,0.0035303939999999923,-0.043051193500000196
374532.0,0.324403982,-0.5494665995,9.7690905305,-0.014871950556243681,0.008792968771547434,0.004651302456564889,9.789907112971415,0.01789206046567057,0.02755668650000004,-0.02510502400000003,-0.014415775499999839
374542.0,0.315970263,-0.5614307125,9.755949619499999,-0.014337879805133418,0.011725121914897906,0.0022532200643246795,9.777197688001442,0.018658249700439406,-0.008433719000000006,-0.011964112999999998,-0.013140911000000699
374552.0,0.292042037,-0.5758464879999999,9.751144361,-0.012739158210306611,0.009060004147102564,-0.0028099800957108708,9.772497330681608,0.01588287805125473,-0.023928225999999997,-0.01441577549999995,-0.004805258499999354
374562.0,0.324403982,-0.588987399,9.7188804825,-0.008742354223239598,0.006661921754862355,-0.01027126264798663,9.742113832882351,0.015043563248659835,0.032361945,-0.013140911000000033,-0.03226387850000023
374572.0,0.35549106249999995,-0.578200084,9.7439855065,-0.006344271830999388,0.011458086539342773,-0.014001031259498512,9.767596571497876,0.019172021503694774,0.031087080499999975,0.010787314999999964,0.025105024000000142
374582.0,0.38657814299999993,-0.55309506,9.7320213935,-0.0050125856117277144,0.014655529728996385,-0.013735741213195374,9.755388111683892,0.020702201642054174,0.031087080499999975,0.02510502400000003,-0.011964112999999443
374592.0,0.393835064,-0.529166834,9.7116235615,-0.003146828641345776,0.019984019935335072,-0.010004227272431498,9.733999989527604,0.02256874268966541,0.007256921000000083,0.023928225999999997,-0.02039783200000045
374602.0,0.351862602,-0.5004333495,9.747613967,0.0019163715186897737,0.022649137703130415,-0.004675737066092809,9.766791636849405,0.023205999991472964,-0.04197246199999999,0.028733484500000017,0.03599040549999977
374612.0,0.326757578,-0.5027869455,9.7702673285,0.009909979492823802,0.017852972918649995,-0.0020106192982974674,9.78865102543247,0.020517770969209218,-0.02510502400000003,-0.002353596000000069,0.022653361499999747
374622.0,0.30400615,-0.532697228,9.8014524755,0.01630486587213103,0.009327039522657697,-0.0036093408931242737,9.820624048676427,0.019127719651024295,-0.022751428000000018,-0.02991028249999994,0.031185147000000413
374632.0,0.3111650045,-0.5375024865,9.850485725499999,0.020568705234753175,0.0034644785652087444,-0.00840550567760469,9.870045674225546,0.022488369715459547,0.007158854500000034,-0.00480525850000002,0.04903324999999903
374642.0,0.33754489299999996,-0.530343632,9.8840244685,0.023499113048851654,0.0007993607974134029,-0.013201670462085108,9.903996194299554,0.026965373996231574,0.02637988849999995,0.007158854499999978,0.03353874300000115
374652.0,0.37108363599999994,-0.5195563169999999,9.855290984,0.020568705234753175,0.004529129408925285,-0.013735741213195374,9.875950699084786,0.025144686017384038,0.03353874299999998,0.010787315000000075,-0.028733484500000017
374662.0,0.397365458,-0.5135742605,9.8852012665,0.010709340290237207,0.017585937543094867,-0.010004227272431498,9.906506039339645,0.02289191411918614,0.026281822000000066,0.005982056499999944,0.029910282499999497
374672.0,0.40815277299999997,-0.4931764285,9.90079384,-0.0010157816246606998,0.028511698660579367,-0.0020106192982974674,9.921468154356873,0.028600548295152805,0.010787314999999964,0.020397832000000005,0.015592573500001095
374682.0,0.40815277299999997,-0.542307745,9.8385216125,-0.011140436615479804,0.03170914185023298,0.006250024051391694,9.861906199920185,0.034185403398302824,0.0,-0.04913131650000002,-0.062272227500001165
374692.0,0.38059608649999993,-0.566235971,9.840973275,-0.013273228961416875,0.03543891046174486,0.0078487456462185,9.86459485002692,0.03864838664157663,-0.02755668650000004,-0.023928225999999997,0.0024516625000003955
374702.0,0.36382671499999997,-0.5614307125,9.844503669,-0.009009389598794729,0.028511698660579367,0.005717698629533424,9.867209677129619,0.030443031042797337,-0.016769371499999963,0.00480525850000002,0.0035303940000002143
374712.0,0.324403982,-0.5626075104999999,9.842150072999999,0.0005829399701661061,0.017852972918649995,0.0014538592669112766,9.863553275258482,0.017921555953958106,-0.03942273299999999,-0.0011767979999999234,-0.002353596000000735
374722.0,0.3231291175,-0.5519182619999999,9.857742646499998,0.006712536303170191,0.0101264003200711,-0.007339109504636156,9.878467304148465,0.01419382455100649,-0.0012748644999999725,0.01068924849999997,0.015592573499999318
374732.0,0.34833220800000003,-0.48248717999999996,9.8708835575,0.01017526953912694,0.004529129408925285,-0.016399113651738722,9.888805358167302,0.019823724472442603,0.025203090500000025,0.06943108199999998,0.013140911000000699
374742.0,0.373437232,-0.45728408949999994,9.887652928999998,0.009375908741713538,0.004263839362622147,-0.016933184402848984,9.905263477016444,0.019819705468651003,0.025105023999999976,0.025203090500000025,0.016769371499998798
374752.0,0.38304774899999994,-0.4130560979999999,9.898440244,0.0019163715186897737,0.007726572598578897,-0.008138470302049559,9.914457129976796,0.011384511529973442,0.00961051699999993,0.04422799150000001,0.01078731500000174
374762.0,0.37461402999999993,-0.42855060500000003,9.886476131,-0.00847706417693646,0.007194247176720627,0.002518510110627818,9.902848155018406,0.011400030819124423,-0.008433719000000006,-0.015494507000000102,-0.011964112999999443
374772.0,0.36382671499999997,-0.4549304935,9.87921921,-0.017270032948483893,0.0002670353755551324,0.015575318244797397,9.896378318945617,0.023257598422026203,-0.010787314999999964,-0.02637988849999995,-0.00725692099999975
374782.0,0.3458805455,-0.5135742605,9.8373448145,-0.02233323310851944,-0.009060004147102564,0.02063851840483295,9.85681210494415,0.031730197260206455,-0.017946169499999942,-0.05864376700000001,-0.041874395500000716
374792.0,0.32558077999999996,-0.565059173,9.788311564499999,-0.022066197732964307,-0.017053612121236593,0.018240436012592738,9.810012130319782,0.0333235093395242,-0.020299765500000067,-0.05148491249999998,-0.049033250000000805
374802.0,0.313616667,-0.5710412294999999,9.738003449999999,-0.0196681153407241,-0.017320647496791724,0.013177235852557189,9.759772266391309,0.029333924651809937,-0.011964112999999943,-0.005982056499999944,-0.050308114499999945
374812.0,0.317147061,-0.566235971,9.728392933,-0.016470672151070488,-0.006927211801165493,0.008915141819187036,9.750017153420787,0.019968701963384423,0.0035303939999999923,0.004805258499999909,-0.009610516999998708
374822.0,0.32558077999999996,-0.5793768819999999,9.752321159,-0.012739158210306611,0.008792968771547434,0.006782349473249964,9.774939815875111,0.016899784498682957,0.00843371899999995,-0.013140910999999922,0.023928225999998887
374832.0,0.29567049749999996,-0.5674127689999999,9.8049828695,-0.01220683278844834,0.018385298340508265,0.004117231705454623,9.825836725933552,0.022449444507849952,-0.029910282499999996,0.011964112999999998,0.05266171050000068
374842.0,0.27164420499999997,-0.5973230515,9.844503669,-0.01193979741289321,0.01572192590196492,0.0017191493132144146,9.86634876187325,0.019816487849488678,-0.02402629249999999,-0.02991028250000005,0.03952079949999998
374852.0,0.28360831799999997,-0.6273314004999999,9.8134165885,-0.010075785771763265,0.0010663961729685354,-0.003876376268679406,9.837536455004326,0.010848269571345001,0.011964112999999998,-0.030008348999999934,-0.031087080499998976
374862.0,0.28968844099999996,-0.5926158595,9.807434532,-0.009808750396208134,-0.01332384350972471,-0.007873180255746421,9.829592313481063,0.01832275518436629,0.006080122999999993,0.03471554099999996,-0.00598205650000061
374872.0,0.29920089149999995,-0.554271858,9.753596023499998,-0.008742354223239598,-0.023448498500543816,-0.004141666314982544,9.773912924498568,0.025365611350000258,0.009512450499999991,0.03834400149999995,-0.053838508500001936
374882.0,0.3231291175,-0.5590771164999999,9.7320213935,-0.009541715020653,-0.022916173078685546,0.00012042771838760874,9.7534209409987,0.024823573814883773,0.023928226000000052,-0.004805258499999909,-0.02157462999999815
374892.0,0.3327396345,-0.5997747139999999,9.7224108765,-0.009276424974349861,-0.011990411961201045,0.00012042771838760874,9.74657471234928,0.015160360884207571,0.009610516999999985,-0.040697597500000016,-0.009610517000000485
374902.0,0.32911117399999995,-0.5985979159999999,9.748790764999999,-0.008210028801381325,-0.0007993607974134029,-0.003876376268679406,9.772694357731673,0.009114265937547201,-0.0036284605000000414,0.0011767980000000344,0.026379888499999282
374912.0,0.31479346499999994,-0.556625454,9.783506306,-0.007942993425826194,0.0010663961729685354,-0.008937831099462962,9.804382818984028,0.012004714495687407,-0.014317709000000012,0.04197246199999993,0.03471554100000063
374922.0,0.31479346499999994,-0.530343632,9.782329507999998,-0.005544911033585984,0.0010663961729685354,-0.01293638041578197,9.801751368847158,0.014114998314910733,0.0,0.026281821999999955,-0.0011767980000012557
374932.0,0.3423501514999999,-0.5267151715,9.7547728215,-0.0034138640169009086,0.002930407814098479,-0.011070623445400031,9.774979554822373,0.011949914683907208,0.027556686499999983,0.003628460499999986,-0.02755668649999876
374942.0,0.34950900599999996,-0.5434845429999999,9.7547728215,-0.002881538595042638,0.006661921754862355,-0.0060074232853644825,9.776150816800552,0.00942197435106719,0.007158854500000034,-0.016769371499999908,0.0
374952.0,0.3458805455,-0.529166834,9.7655601365,-0.00021642082724729686,0.0101264003200711,0.0003874630939427412,9.786001004984563,0.010136121006872903,-0.0036284604999999304,0.014317708999999956,0.010787314999999964
374962.0,0.3447037475,-0.5590771164999999,9.7655601365,0.00404741853537485,0.009592329568960835,0.0038519416591514853,9.787622421984432,0.011100983645856027,-0.0011767980000000344,-0.02991028249999994,0.0
374972.0,0.3447037475,-0.5399541489999999,9.778701047499998,0.004314453910929983,0.011990411961201045,0.008915141819187036,9.799661490732241,0.015551985249641591,0.0,0.019122967499999977,0.013140910999998923
374982.0,0.3566678605,-0.5255383735,9.776249385,0.0016493361431346415,0.010391690366374239,0.013711306603667452,9.796859424450652,0.01728315559044181,0.011964112999999998,0.01441577549999995,-0.002451662499998619
374992.0,0.4045243125,-0.554271858,9.810964925999999,0.0003159045946109737,0.0085259333959923,0.01957212223186441,9.834932129464674,0.02135086191807802,0.047856451999999994,-0.028733484500000017,0.03471554099999885
375002.0,0.40217071649999997,-0.5399541489999999,9.789488362499998,-0.00048345620280242926,0.011725121914897906,0.025434683189313367,9.812613014266654,0.028011342751820864,-0.0023535960000000133,0.014317709000000067,-0.021476563500000267
375012.0,0.393835064,-0.521909913,9.782329507999998,-0.0023474678439323734,0.014655529728996385,0.029965557927490647,9.804155579039485,0.0334399434631937,-0.008335652499999957,0.018044235999999936,-0.007158854500000089
375022.0,0.34107528699999995,-0.5386792844999999,9.7690905305,0.0005829399701661061,0.015187855150854655,0.03182956956862059,9.789874233924373,0.03527225909997569,-0.05275977700000006,-0.016769371499999908,-0.013238977499998583
375032.0,0.31479346499999994,-0.563882375,9.788311564499999,0.010442304914682074,0.013856168931582983,0.03209660494417572,9.809592322934057,0.03648598632809923,-0.02628182200000001,-0.025203090500000136,0.019221033999999193
375042.0,0.29321883499999996,-0.57466969,9.773895789,0.024830799268123326,0.008792968771547434,0.0265010793622819,9.795165206980196,0.03736565400842338,-0.021574629999999984,-0.010787314999999964,-0.014415775499999839
375052.0,0.2393803265,-0.57466969,9.821752241,0.037887607402292904,-0.001865756970381938,0.017973400637037607,9.841461541707536,0.041976123858716075,-0.053838508499999965,0.0,0.047856452000001326
375062.0,0.2501676415,-0.57466969,9.840973275,0.04907865856608054,-0.020251055310890206,0.011845549633285515,9.860911930482018,0.054397950457395684,0.010787314999999992,0.0,0.019221033999999193
375072.0,0.280077924,-0.55309506,9.8852012665,0.053342497928702694,-0.03970274982436701,0.0078487456462185,9.904623257253238,0.06695769737012287,0.029910282499999996,0.02157463000000004,0.044227991499999675
375082.0,0.281254722,-0.5231847775,9.8744139515,0.05360953330425783,-0.05648932657004847,0.011046188835872111,9.89226351325281,0.07865776735476071,0.0011767980000000344,0.02991028249999994,-0.010787314999999964
375092.0,0.281254722,-0.5075922039999999,9.8840244685,0.05813866271318312,-0.0746093348642536,0.01903979681000614,9.901045084137108,0.09648404434687591,0.0,0.015592573500000095,0.009610517000000485
375102.0,0.2644853505,-0.5147510585,9.92236847,0.06826506303325422,-0.0908635861880768,0.02463532239189996,9.939231218122764,0.116289334142238,-0.01676937150000002,-0.007158854500000089,0.0383440015000005
375112.0,0.21898249449999999,-0.5482898015,9.9893478895,0.08638332599820735,-0.11857592405124275,0.027832765581553575,10.006780016408097,0.14932177207305158,-0.04550285600000001,-0.033538742999999926,0.06697941949999908
375122.0,0.1962310665,-0.5267151715,10.0420096,0.09544333014530991,-0.16414123483305873,0.022237239999659753,10.05772798945369,0.19117078512301616,-0.02275142799999999,0.021574629999999928,0.05266171050000068
375132.0,0.19985952699999998,-0.5315204299999999,10.051620116999999,0.10370397349499907,-0.21210462800711488,0.009714502616600437,10.067647429986765,0.23629908781410053,0.003628460499999986,-0.004805258499999909,0.009610516999998708
375142.0,0.22623941549999999,-0.5278919695,9.979835439,0.11489502465878672,-0.24034929129213914,-0.00840550567760469,9.996347812781861,0.26653198877746925,0.026379888500000004,0.003628460499999986,-0.07178467799999844
375152.0,0.32911117399999995,-0.5590771164999999,9.8852012665,0.11676078162916864,-0.23741888347804063,-0.025192082423286154,9.9064668508131,0.2657733007196838,0.10287175849999997,-0.03118514699999997,-0.09463417250000106
375162.0,0.420116886,-0.566235971,9.819398645,0.10770077748206608,-0.21157055725600463,-0.0395823221059794,9.844679330591957,0.24068302472579853,0.09100571200000007,-0.007158854500000089,-0.0658026214999996
