timestamp,ax,ay,az,gx,gy,gz,acc_mag,gyro_mag,dax,day,daz
132662.0,0.0044129925,-0.100223963,10.712980593,0.5742290318694023,0.21093874806678267,0.059695496405962056,10.713450308059343,0.6146524943159403,0.0,0.0,0.0
132672.0,0.8950529455,0.26487761649999997,10.540579686,0.5950124126021509,0.09129817317182337,0.08367632032836414,10.581828766517004,0.6077638144533117,0.890639953,0.3651015795,-0.1724009070000001
132682.0,1.053038077,0.331857036,10.617169622499999,0.6075368953144622,0.06918136089055124,0.1105892973941167,10.674423126187726,0.6213832412940736,0.15798513150000004,0.06697941950000003,0.07658993649999957
132692.0,1.167972015,0.31636252899999995,10.595594992499999,0.6373802801943131,0.0689143255149961,0.13110738808056205,10.66446797185258,0.6543637773066867,0.11493393799999985,-0.015494507000000046,-0.021574629999999928
132702.0,1.2110232085,0.26840801049999996,10.668654535,0.6533674961425813,0.0851685768388193,0.14229843924434968,10.740521852256633,0.6740857640595547,0.04305119349999997,-0.04795451849999999,0.07305954250000113
132712.0,1.273295436,0.20741064749999996,10.770447562,0.6656249434793374,0.1286028406039502,0.1321720389242786,10.847434771863186,0.6906987070110072,0.062272227500000055,-0.060997363,0.10179302699999937
132722.0,1.329585607,0.1020872265,11.0074742925,0.6778823908160936,0.18509216717399865,0.09353568527288011,11.087953372385925,0.708895317058293,0.05629017100000011,-0.10532342099999996,0.23702673050000023
132732.0,1.2877112115,0.1020872265,11.2265548535,0.6933372813425034,0.22026578758944038,0.04583932747437907,11.300626347450024,0.7289271889737091,-0.04187439550000005,0.0,0.21908056100000017
132742.0,1.2625081209999998,0.1522972745,11.544976778999999,0.7189168268597322,0.22559427779577904,-0.011184069846779665,11.614801334635917,0.7535643738491111,-0.025203090500000247,0.05021004799999999,0.31842192549999915
132752.0,1.317621494,0.2205515585,11.884875268,0.7594206828107647,0.2042785716411723,-0.06873979258979666,11.959725311533106,0.7894141292109066,0.05511337300000019,0.068254284,0.3398984890000012
132762.0,1.409804004,0.4037397805,12.182997428,0.8092480876259508,0.1667068688334904,-0.11697022113940797,12.270940447688076,0.8344792867866326,0.09218251,0.18318822199999998,0.29812216000000014
132772.0,1.5079685704999999,0.7029406719999999,12.461898553999998,0.8428229864465657,0.14059325256515123,-0.15054337463077092,12.572470336737918,0.8676291585664794,0.09816456649999994,0.2992008914999999,0.2789011259999974
132782.0,1.5378788529999998,0.9927271795,12.686961171499998,0.8369604254891169,0.12540539741429657,-0.14921168841149923,12.818329157365685,0.8593563844495319,0.02991028249999994,0.2897865075000001,0.22506261750000078
132792.0,1.608486733,1.232107506,12.902413271999999,0.8057836090607421,0.11368027549939866,-0.11537149954458116,13.060535468274656,0.821900853251619,0.07060788000000007,0.23938032649999996,0.2154521005000003
132802.0,1.6946871864999997,1.428436639,13.017347209999999,0.751959400258489,0.12460603661688317,-0.059946823818249236,13.20468569400346,0.7645673454211673,0.08620045349999983,0.1963291330000001,0.11493393800000007
132812.0,1.6779178149999998,1.5026729795,13.107176123999999,0.6682900612471327,0.156048143091561,0.011997393278209022,13.299304501468091,0.6863720320420208,-0.016769371499999908,0.07423634049999994,0.08982891399999993
132822.0,1.6252561044999998,1.4942392604999999,13.190924914999998,0.5742290318694023,0.18162943393804187,0.08074591251426566,13.3744049768953,0.6076579092730432,-0.052661710500000014,-0.008433719000000117,0.08374879099999966
132832.0,1.594169024,1.427259841,13.299876796499998,0.4948235322206683,0.20347921084375892,0.1244454663256997,13.470900798866106,0.5493093767395187,-0.031087080499999864,-0.06697941949999997,0.10895188149999946
132842.0,1.5594534829999998,1.4056852109999998,13.316646168,0.43193757394206067,0.2144032266319914,0.1518907688133105,13.481131675114446,0.5055784973907224,-0.03471554100000018,-0.02157463000000015,0.01676937150000235
132852.0,1.4792350859999999,1.5038497774999997,13.237604569,0.3751812119964571,0.21067345802047954,0.18466630683651203,13.404621416442536,0.46823700476369234,-0.08021839699999989,0.09816456649999994,-0.07904159899999996
132862.0,1.4432446804999999,1.6151552550000001,13.122768697499998,0.3304152620120545,0.20561025786044398,0.23103097841574138,13.300328567130643,0.4525761112737477,-0.03599040549999999,0.11130547750000042,-0.11483587150000218
132872.0,1.3463549785,1.567298803,12.9072185305,0.2899131513902741,0.20028176765410532,0.28698797956393163,13.071548778170838,0.4544496916248053,-0.09688970199999991,-0.047856452000000216,-0.21555016699999818
132882.0,1.191900241,1.4834519454999997,12.692943227999999,0.25021040156590707,0.19361984589924294,0.3440113768850903,12.834798932914167,0.46737320976302726,-0.15445473750000005,-0.0838468575000002,-0.21427530250000082
132892.0,1.075789505,1.3434129835,12.497790893,0.20890893014671327,0.20294514009264866,0.3658611537908073,12.615738532026503,0.46763666968642426,-0.11611073599999999,-0.14003896199999977,-0.1951523349999995
132902.0,0.869849855,1.0261678559999998,12.307541882999999,0.16813978414937772,0.18802432031734911,0.3626637106011537,12.380841911628236,0.44175683246736297,-0.20593964999999992,-0.3172451275000001,-0.1902490100000005
132912.0,0.5849666725,0.759230843,12.01903024,0.154815940639653,0.1371287739999425,0.3346843373624326,12.057184803714863,0.39342836935152303,-0.2848831825,-0.26693701299999983,-0.28851164299999965
132922.0,0.426981541,0.607227768,11.638336086999999,0.20277933381370916,0.06838200009313783,0.2731318106323486,11.661985494440962,0.34698204872583066,-0.1579851315,-0.152003075,-0.3806941530000003
132932.0,0.5633920425,0.537796686,11.5162432945,0.33494439142097976,0.01961924612166826,0.1835999106635435,11.542551515464037,0.3824677598941043,0.13641050149999995,-0.06943108200000003,-0.12209279249999838
132942.0,0.7956135144999998,0.7113743909999999,11.352178039999998,0.4873622496683926,-0.0024975661596038858,0.0927363244754667,11.402236650784085,0.49611311826616444,0.23222147199999987,0.17357770499999992,-0.1640652545000023
132952.0,1.1512026434999998,1.138748198,11.317462499,0.5750283926668158,0.004164355595258471,0.03784571950024505,11.432715005680889,0.5762875087271949,0.35558912899999995,0.42737380700000016,-0.03471554099999885
132962.0,1.365477946,1.6103499964999999,11.228908449499999,0.5350586074668936,0.03560646206993631,0.0445058959258554,11.425679065136233,0.5380857815792127,0.21427530250000015,0.47160179849999984,-0.08855404950000079
132972.0,1.4169628585,2.0365470054999997,11.178600334999999,0.3613250430648741,0.05186071339375951,0.11192098361338838,11.450607533997557,0.38180050669496385,0.05148491250000009,0.4261970089999998,-0.050308114499999945
132982.0,1.296046864,2.388507674,11.038561373,0.11990935559976643,0.02761285409580229,0.20278456980146517,11.368137207472857,0.23719676435658352,-0.12091599450000001,0.3519606685000003,-0.14003896199999843
132992.0,1.2470136139999999,2.240034993,10.954812582,-0.1095141745748882,-0.04220031598397089,0.31016944268892027,11.250809678868066,0.3316312775959491,-0.04903325000000014,-0.14847268099999988,-0.08374879099999966
133002.0,1.351160237,1.8486515915,10.763190641,-0.27285604861053353,-0.11467685850228743,0.40343111126923725,11.004063770594724,0.5003577387022601,0.1041466230000001,-0.39138340150000017,-0.19162194100000107
133012.0,1.4265733754999999,1.519442351,10.599223452999999,-0.3567906776681928,-0.16237496163004045,0.45299322603812026,10.802192113655593,0.5990559895967228,0.07541313849999987,-0.3292092405,-0.16396718800000087
133022.0,1.3032057185,1.3805801869999998,10.345427351,-0.3746436505868428,-0.1999449191084704,0.46365195178004964,10.518184913391043,0.6287360081876802,-0.12336765699999974,-0.13886216400000007,-0.253796101999999
133032.0,1.238579895,1.3171311615,10.123993193999999,-0.33360921454320414,-0.24630959068769978,0.4479300258780847,10.284170012453647,0.610413655299435,-0.06462582350000012,-0.06344902549999976,-0.2214341570000009
133042.0,1.4360858259999998,1.175817335,9.9791489735,-0.2685922092479114,-0.2577676772270425,0.4143568723867218,10.150285864951327,0.5570256439211795,0.1975059309999998,-0.14131382650000002,-0.14484422049999957
133052.0,1.6707589605,1.1315893435,9.961202804,-0.24780882851516287,-0.21993068437305746,0.39144069930803627,10.1635373393731,0.5128396849831566,0.23467313450000016,-0.04422799150000012,-0.017946169500000053
133062.0,1.655166387,1.2369127644999998,9.8881432615,-0.2872445429639747,-0.17356601279382808,0.3882432561183827,10.101727877723965,0.5131933497047034,-0.015592573499999984,0.1053234209999998,-0.07305954249999935
133072.0,1.6204508459999998,1.335077331,9.7959607515,-0.3583893992630196,-0.1407904747706266,0.3975702956410403,10.018439971820992,0.5534682098064447,-0.03471554100000018,0.09816456650000016,-0.09218251000000066
133082.0,1.6156455875,1.3638108155,9.688283734499999,-0.4436574598692026,-0.10988069371780701,0.42634728434792285,9.916306385195055,0.6250421709135698,-0.004805258499999798,0.028733484500000017,-0.10767701700000032
133092.0,1.6946871864999997,1.439223954,9.4715567695,-0.5385195953735984,-0.06138497512189257,0.49136428964321555,9.729014230008914,0.7315807097707274,0.07904159899999974,0.07541313850000009,-0.21672696499999944
133102.0,1.7222438729999998,1.2943797334999998,9.501467051999999,-0.5862159531720994,-0.0038292523788755594,0.5451902437747207,9.742659749412535,0.8005599345672962,0.027556686500000094,-0.14484422050000023,0.029910282499999497
133112.0,1.5187558855,0.9746829435,9.452433802,-0.577422984400552,0.015622442134601244,0.5729025816378867,9.623155982383476,0.813559298182772,-0.20348798749999975,-0.31969678999999984,-0.04903324999999903
133122.0,1.512773829,0.6371380504999999,9.483520882499999,-0.5486442503644174,-0.020083503702698752,0.5531838517488548,9.624531047376585,0.7793755413243405,-0.005982056500000166,-0.337544893,0.031087080499998976
133132.0,1.5833817089999997,0.2672312125,9.4823440845,-0.5190679008601216,-0.07470881863161728,0.5009566192121764,9.617346801180776,0.7252381868166888,0.07060787999999985,-0.36990683799999996,-0.0011767979999994793
133142.0,1.5354271904999999,0.10444082249999999,9.3554460335,-0.5052117319285386,-0.13519494918873276,0.4516615398188486,9.481182153532442,0.6910243953117075,-0.047954518499999876,-0.16279039,-0.1268980509999995
133152.0,1.4732530295,0.07335374199999999,9.086057358,-0.502014288738885,-0.1876892171009662,0.40076773883069394,9.205014588432887,0.6692237060964364,-0.06217416099999995,-0.031087080500000003,-0.2693886755000001
133162.0,1.540232449,0.008629852,8.7174253845,-0.4966840532032943,-0.22685789617422294,0.3410792237417399,8.85245140091845,0.643812543083245,0.06697941949999997,-0.06472388999999998,-0.36863197349999943
133172.0,1.7245974689999999,-0.0344213415,8.3606594575,-0.49908213559553455,-0.207140911614443,0.2843228617961363,8.536746911037955,0.6105979242308369,0.18436502,-0.0430511935,-0.35676592699999965
133182.0,1.942501232,-0.048837117,8.0841119275,-0.523864065644602,-0.12080645483529151,0.2294322568209146,8.314358770023468,0.5845228133045803,0.21790376300000003,-0.014415775499999998,-0.2765475300000002
133192.0,2.0287016854999997,-0.0224572285,7.8769954795,-0.5686282702997525,0.008161159582325486,0.19052886779396097,8.134076016360178,0.5997549197569498,0.08620045349999983,0.0263798885,-0.20711644800000073
133202.0,2.9528803814999995,0.030204481999999998,8.559342186499999,-0.6144606164571237,0.1312679583717455,0.15135844339145224,9.054432810716476,0.6462990828229901,0.9241786959999998,0.0526617105,0.6823467069999989
133212.0,1.713810154,0.006276256,7.9871241589999995,-0.6773465747357313,0.1653751826142187,0.20678311911778416,8.168925080243074,0.7272596453007644,-1.2390702274999996,-0.023928225999999997,-0.5722180274999991
133222.0,0.9644840275000001,0.44924263649999996,7.350280307999999,-0.6698852921834556,0.03667285824290485,0.32882177640498367,7.426888244205958,0.747137847959496,-0.7493261264999999,0.4429663805,-0.6368438510000001
133232.0,1.7270491314999998,-0.431884866,7.300070259999999,-0.5385195953735984,0.042802454575908935,0.32642369401274346,7.514003529479554,0.6311797150827901,0.7625651039999998,-0.8811275024999999,-0.050210048000000285
133242.0,2.1388303649999996,-1.0089081519999998,7.414906131499999,-0.45431618561113196,0.17763088462172288,0.2715330890375218,7.782886606418878,0.5582885867739041,0.41178123349999973,-0.5770232859999999,0.11483587149999952
133252.0,1.839531407,-0.9142739794999999,7.344298251499999,-0.47136979773236853,0.32578490350651357,0.1665462985423069,7.626171353563733,0.5967101131413356,-0.2992989579999996,0.09463417249999995,-0.07060787999999985
133262.0,1.7282259295,-0.8999562705,7.335962598999999,-0.563299780093414,0.41611616427273207,0.05436526087037137,7.590324986858944,0.7024349692404581,-0.11130547749999997,0.014317708999999845,-0.008335652499999568
133272.0,1.767746729,-0.873576382,7.3335109365,-0.6552297624544592,0.4904584637614305,-0.03410024292546521,7.593974377678892,0.8191693187912529,0.03952079949999998,0.02637988850000006,-0.0024516624999995074
133282.0,1.792851753,-0.6700883945,7.291636540999999,-0.7061235634426138,0.5781246067598537,-0.09192125571478536,7.538653680248562,0.9172175669067365,0.025105024000000142,0.20348798749999997,-0.041874395500000716
133292.0,1.6707589605,-0.558782917,7.4496216725,-0.7111867636026493,0.6431416120551464,-0.10737614624119514,7.655098752844654,0.9648561460974966,-0.12209279250000016,0.11130547749999997,0.15798513150000115
133302.0,1.5199326834999998,-0.504846342,7.671153896,-0.6632233704285931,0.6364796903002841,-0.0807302045509977,7.836559658901237,0.9227616166563574,-0.15082627700000018,0.05393657500000004,0.22153222349999968
133312.0,1.4349090279999999,-0.5443671415,7.921321537499999,-0.5944765965217886,0.5536097120863414,-0.02850471734357139,8.068620353185675,0.81283371979716,-0.0850236554999999,-0.03952079949999998,0.25016764149999915
133322.0,1.3571422935000002,-0.6222319425,7.975160045999999,-0.4727032292808922,0.43530082341065374,0.01706059343824457,8.113703565843927,0.6428267369074204,-0.07776673449999971,-0.07786480100000004,0.05383850850000016
133332.0,1.2744722339999999,-0.676070451,7.984770563,-0.355191956073366,0.2967408794240759,0.054099970824068234,8.114056425346304,0.46598635390294746,-0.08267005950000028,-0.05383850849999994,0.009610517000000485
133342.0,1.2888880095,-0.7299089594999999,7.879447141999999,-0.27285604861053353,0.1853592025495538,0.09007120670767137,8.01746135966761,0.34193753744059224,0.014415775500000061,-0.05383850849999994,-0.10532342100000047
133352.0,1.297223662,-0.812579019,7.7249924045,-0.23208690261319795,0.13926156634587955,0.10845825037743162,7.875187714648736,0.2915841324568768,0.008335652500000013,-0.08267005950000006,-0.15445473749999916
133362.0,1.2649597835,-0.897504608,7.596917555499999,-0.21609968666492993,0.14912093129039553,0.10765888958001822,7.753631028125963,0.2837720268652256,-0.03226387850000001,-0.08492558900000002,-0.12807484900000077
133372.0,1.238579895,-1.020872265,7.528663271499999,-0.23155457719133968,0.19015536733403418,0.0810112025605688,7.697858857719951,0.31038589027936025,-0.02637988849999995,-0.12336765699999996,-0.068254284
133382.0,1.213474871,-1.1177619669999999,7.489142472,-0.2611309266956356,0.24504597230925587,0.02985211152611101,7.668713584646023,0.3593438993283139,-0.02510502399999992,-0.09688970199999991,-0.03952079949999909
133392.0,1.191900241,-1.1117799105,7.5873070385,-0.2869775075884196,0.29700616947037906,-0.030368728984701335,7.760406487443739,0.41411473562923984,-0.02157463000000015,0.005982056499999944,0.0981645664999995
133402.0,1.0734359089999999,-1.0651002564999998,7.7967770825,-0.2821813428039392,0.32391914653613163,-0.08099723992655283,7.9420674941304945,0.4371618425652561,-0.11846433200000006,0.04667965400000007,0.20947004400000058
133412.0,0.9644840275000001,-1.101090662,7.932108852499999,-0.2582005188815371,0.3180565855786826,-0.1241644683161286,8.066038738634663,0.4280704553842647,-0.10895188149999979,-0.03599040550000021,0.13533176999999874
133422.0,0.9417325995,-1.195626768,7.9583906744999995,-0.23768242819509178,0.30553384819562335,-0.1699950691442477,8.102614749899425,0.42277912980573995,-0.022751428000000073,-0.09453610599999984,0.02628182200000051
133432.0,0.9872354554999999,-1.239952826,7.9536834825,-0.23501731042729646,0.30819896596341867,-0.2211559055079575,8.110067681289411,0.4462394798339176,0.045502855999999925,-0.044326058,-0.004707191999999694
133442.0,1.0146940755,-1.159734429,7.975160045999999,-0.22062881607385518,0.30206936963041464,-0.26538953007050176,8.122669867228229,0.45864428615443237,0.0274586200000001,0.08021839699999989,0.02147656349999938
133452.0,1.017145738,-1.0496057495,7.960842336999999,-0.1873209526287954,0.2775544749569022,-0.2915031463388409,8.093903162027985,0.4439591312134539,0.0024516624999999515,0.11012867950000005,-0.014317709000000178
133462.0,1.0566665375,-0.932220149,8.057830105499999,-0.13163098685616034,0.24344725071442905,-0.29629931112332136,8.180110304071453,0.4054461275598714,0.03952079949999998,0.11738560049999991,0.09698776850000002
133472.0,1.0601969315,-0.8424893014999999,8.1655071225,-0.0628824676201037,0.19042240270958932,-0.2845741892084234,8.277035237589736,0.3481341197747184,0.0035303939999999923,0.08973084750000015,0.10767701700000032
133482.0,1.1141335065,-0.7730582195,8.1404020985,-0.016519541370126328,0.1312679583717455,-0.261925051505293,8.252578918514242,0.29344318828048477,0.05393657500000004,0.06943108199999992,-0.025105024000000142
133492.0,1.1716004755,-0.7670761629999999,8.017132508,-0.014653784399744392,0.10275625971116616,-0.23741015683178068,8.138517504119838,0.25910840371156146,0.057466969000000034,0.005982056500000055,-0.12326959049999964
133502.0,1.2194569275,-0.840037639,7.957213876499999,-0.03144036114542585,0.12300731502205635,-0.23048294503061517,8.093824257378497,0.2631381458623508,0.047856451999999994,-0.07296147600000003,-0.05991863150000043
133512.0,1.1978822974999999,-0.8747531799999999,8.0038935305,-0.04449716927959543,0.15231837448004912,-0.2384765530047492,8.140173632801927,0.28644711835026093,-0.02157463000000015,-0.03471554099999996,0.04667965400000007
133522.0,1.1488490475,-0.8376840429999999,8.1272611875,-0.051426126410012915,0.16857262580387233,-0.2502016749196471,8.250693492045526,0.3060428969614354,-0.04903324999999992,0.03706913700000003,0.12336765700000107
133532.0,1.177582532,-0.7825706699999999,8.284069521,-0.0620831068226903,0.16617454341163213,-0.2640560985219781,8.403863712720295,0.3181099089897556,0.028733484500000017,0.055113372999999966,0.156808333499999
133542.0,1.2757470985000001,-0.7371658805,8.413321168,-0.07753799734910008,0.15071965288522232,-0.271784416449809,8.541365070679356,0.32030504807716376,0.09816456650000016,0.04540478949999993,0.12925164700000025
133552.0,1.3451781804999998,-0.6390013139999999,8.480398654,-0.07567398570797014,0.11501370704792234,-0.2576612121426709,8.610167730500494,0.2921369630236233,0.0694310819999997,0.09816456650000005,0.06707748600000052
