timestamp,ax,ay,az,gx,gy,gz,acc_mag,gyro_mag,dax,day,daz
112182.0,0.9465378579999999,0.25291350349999997,11.1834055935,0.2648659312949035,0.22932579173654294,-0.085261079289175,11.22623979013485,0.3605741698428546,0.0,0.0,0.0
112192.0,0.22947561,0.31038047249999995,11.1139745115,0.2510097623633205,0.15658046851341928,-0.09885021284520285,11.120675543129826,0.3119209972110156,-0.717062248,0.05746696899999998,-0.06943108199999948
112202.0,0.6843080369999999,0.31636252899999995,11.2732345075,0.2595356957593128,0.0494626310015193,-0.09751852662593116,11.298414888839355,0.28162953018842946,0.4548324269999999,0.005982056499999999,0.1592599959999994
112212.0,0.892601283,0.26242595399999996,11.267252451,0.2971073985669947,-0.028344147052387914,-0.07806683211245437,11.305599596054671,0.3084973698938916,0.2082932460000001,-0.05393657499999999,-0.00598205650000061
112222.0,1.112858642,0.285177382,11.3210909595,0.3546631213100117,-0.04912752778513639,-0.054084262860800286,11.379230246793986,0.3621112413234855,0.22025735899999999,0.022751428000000018,0.05383850850000016
112232.0,1.263684919,0.3809883525,11.4503426065,0.4042252360788947,-0.007826056365942574,-0.03330088212805181,11.526161438461545,0.40567010906867107,0.15082627699999995,0.09581097050000004,0.12925164700000025
112242.0,1.285259549,0.4934706279999999,11.7125724275,0.41941309122974935,0.050261991798932704,-0.01091703447122453,11.793208140214759,0.4225550739917058,0.02157463000000015,0.1124822754999999,0.26222982100000003
112252.0,1.224262186,0.651553826,11.9328297865,0.40982076166078857,0.08303752982213422,0.02825164460203221,12.013149753575302,0.4191019487784688,-0.06099736300000003,0.1580831980000001,0.22025735899999965
112262.0,1.1978822974999999,0.7089227284999999,12.121901998499998,0.3996961066699694,0.10115753811633935,0.07141887299160796,12.201557338917276,0.41843814432276805,-0.02637988850000017,0.05736890249999993,0.18907221199999924
112272.0,1.2422083555,0.6635179389999999,12.283515590499999,0.4082220400659617,0.1171447540646074,0.10712481882890797,12.363983699273684,0.43799983357257033,0.044326058000000224,-0.04540478950000004,0.16161359200000014
112282.0,1.3307624049999998,0.6239971395,12.3853086175,0.4274084445331354,0.1581791901082461,0.12524482712311308,12.472215944225201,0.47263611940120853,0.08855404949999968,-0.03952079949999987,0.10179302700000115
112292.0,1.3606726875000001,0.529362967,12.572027233499998,0.4463260682955019,0.22346323077909397,0.12178034855790434,12.656521009867014,0.5137832500629388,0.029910282500000385,-0.09463417250000006,0.1867186159999985
112302.0,1.297223662,0.5162220559999999,12.941934071499999,0.45378735084777766,0.27968726730283927,0.10499377181222289,13.017024696581245,0.5432969900525227,-0.0634490255000002,-0.013140911000000033,0.36990683800000035
112312.0,1.1655203525,0.5928119924999999,13.327433482999998,0.4274084445331354,0.283150000538796,0.08047887713871053,13.391428116311307,0.518968930600727,-0.13170330949999998,0.07658993650000001,0.38549941149999967
112322.0,1.0027299625,0.6467485674999999,13.522585817999998,0.3933012202906622,0.22559427779577904,0.08021184176315539,13.575127192495591,0.4604482246847746,-0.16279039000000006,0.05393657499999993,0.1951523349999995
112332.0,0.9572271065,0.643120107,13.536903526999998,0.39756331432403236,0.1528506999019074,0.09353568527288011,13.585935532923415,0.4360835353189565,-0.045502855999999925,-0.003628460499999875,0.014317709000000178
112342.0,0.9118223169999998,0.598794049,13.4722777035,0.41701500883750914,0.10355562050857955,0.11112162281597497,13.516369363520674,0.44381674054943054,-0.04540478950000015,-0.044326058,-0.06462582349999835
112352.0,0.772960153,0.631155994,13.323805022499998,0.42580972293830854,0.07477688647244506,0.14416419621473162,13.361122915551825,0.4557288869158413,-0.13886216399999984,0.032361945,-0.14847268100000122
112362.0,0.6663618674999999,0.791592788,13.212499544999998,0.4159503579937926,0.06491752152792908,0.18386694603909864,13.252954444466218,0.45938658966303986,-0.10659828550000006,0.160436794,-0.1113054775000002
112372.0,0.48915570199999997,0.7987516424999999,13.026957726999997,0.3837071453924494,0.058257345102318725,0.2233026604879105,13.060585940463792,0.44776017002919316,-0.17720616549999996,0.007158854499999867,-0.1855418180000008
112382.0,0.38147868499999993,0.6874461649999999,12.852203223999998,0.3618573684867324,0.03907094063514506,0.2672692496748997,12.876227550330047,0.4515530371418641,-0.10767701700000004,-0.11130547749999997,-0.17475450299999906
112392.0,0.35872725699999997,0.537796686,12.732464027499999,0.35173271349591323,0.03107733266101103,0.29205117972396716,12.748864684040255,0.45823093951268973,-0.022751427999999962,-0.14964947899999992,-0.11973919649999942
112402.0,0.3048887485,0.40491657849999996,12.5480990075,0.3559965528585354,0.013756685164219306,0.28379053637427804,12.558332026448756,0.4554776180774066,-0.05383850849999999,-0.1328801075,-0.18436501999999955
112412.0,0.29047297299999997,0.364218981,12.277533533999998,0.3682522548660396,-0.009157742585214249,0.2544794769162852,12.286368857097633,0.4477202157986232,-0.014415775500000005,-0.04069759749999996,-0.2705654735000014
112422.0,0.3407810875,0.44796777199999993,12.0154017795,0.3791780159835241,-0.002230530784048753,0.23369435085428472,12.028577920816744,0.44541440557528644,0.050308114500000056,0.08374879099999993,-0.2621317544999986
112432.0,0.298906692,0.5557428554999999,11.8753628175,0.4074226792685483,0.023616050108735274,0.22996458224277286,11.892116606358314,0.4684385407833067,-0.04187439550000005,0.10777508349999998,-0.1400389620000002
112442.0,0.1779906975,0.597617251,11.685015740999999,0.44792478989032875,0.024682446281703806,0.23316202543242645,11.701641762355703,0.5055792427073088,-0.12091599449999998,0.04187439550000005,-0.19034707650000016
112452.0,0.22947561,0.5557428554999999,11.428866042999998,0.4767035239264632,0.016154767556459514,0.21450969171636308,11.444670733833394,0.522992957963069,0.05148491250000001,-0.04187439550000005,-0.25614969800000154
112462.0,0.3192064575,0.5580964515,11.232536909999999,0.474305441534223,0.02281668931132187,0.1921275893887878,11.250922177590551,0.512249220384424,0.08973084749999999,0.002353596000000069,-0.196329132999999
112472.0,0.254580634,0.6323327919999999,10.9858996625,0.4391318211187813,0.0036320301734002,0.1875967146506105,11.007027185101524,0.47753793075522327,-0.06462582350000001,0.07423634049999994,-0.24663724749999894
112482.0,0.313224401,0.7736466184999999,10.826639666499998,0.39996139671627257,-0.039002872794317286,0.18733142460430738,10.858764436340328,0.4433772723017279,0.05864376700000001,0.14131382650000002,-0.15925999600000118
112492.0,0.4580686215,0.8789700395,10.807516698999999,0.37651289821572875,-0.08589986979540493,0.17933607130092136,10.852872080306916,0.42579593307513447,0.1448442205,0.10532342100000003,-0.019122967499999532
112502.0,0.5957539875,1.0118501469999999,10.784765271,0.34000759158101534,-0.1471853611499338,0.19718904421957134,10.84849876638117,0.4197049106572224,0.13768536599999998,0.1328801074999999,-0.022751427999999407
112512.0,0.6053645045,1.187781448,10.67944185,0.27099378229865556,-0.2311217355368451,0.24621883356659605,10.762331029059315,0.4329879913865852,0.00961051700000004,0.1759313010000001,-0.10532342099999958
112522.0,0.636451585,1.3326256685,10.422017287500001,0.16787274877382258,-0.3163897961430281,0.301643509292928,10.526129684425467,0.4682654904889518,0.031087080499999975,0.1448442205,-0.2574245624999989
112532.0,0.720200376,1.333900533,10.1790085005,0.04796513850330817,-0.38060744064090746,0.35386899650035436,10.291267816298411,0.5219060691992682,0.08374879099999999,0.001274864500000028,-0.24300878700000084
112542.0,0.8711247195,1.2859460145,9.989936288500001,-0.043430773106626894,-0.4221759474356564,0.38238069516093365,10.109962535905934,0.5712562985889891,0.15092434350000006,-0.0479545185000001,-0.18907221199999924
112552.0,1.027933053,1.2284790454999999,9.740945445,-0.11137993154527014,-0.43869548880578274,0.38557813835058724,9.871769106353163,0.5945836541845717,0.1568083334999999,-0.057466969000000034,-0.24899084350000145
112562.0,1.1284512155,1.2369127644999998,9.420071857,-0.1809260662494882,-0.4307018808316487,0.3831800559583471,9.567711801877703,0.6042063446246455,0.10051816250000001,0.008433718999999895,-0.32087358799999954
112572.0,1.1643435545,1.2165149324999998,9.1004731335,-0.25606772653560006,-0.39632762121362036,0.37651813420348473,9.254956280148301,0.6036656104947764,0.035892339000000106,-0.020397832000000005,-0.3195987235000004
112582.0,1.2757470985000001,1.1459070525,8.767635432499999,-0.3322775283239325,-0.31479107454820127,0.3509385886862558,8.933759830526554,0.5767665641083696,0.11140354400000008,-0.07060787999999985,-0.33283770100000076
112592.0,1.456483658,1.0500960819999998,8.631224931,-0.40528814159335924,-0.17782985215645025,0.31150287423744394,8.816013284754554,0.5412171234286408,0.1807365594999999,-0.09581097050000009,-0.13641050149999856
112602.0,1.4827654799999999,0.9746829435,8.669470866,-0.4468549030588562,-0.04912752778513639,0.2712660536619667,8.849199139213233,0.5250505597019739,0.026281821999999844,-0.07541313849999987,0.038245934999999065
112612.0,1.4767834235,0.9759578079999999,8.623968009999999,-0.4655072367749196,0.01988628149722339,0.2411556334065605,8.803760966792765,0.5246412976551954,-0.005982056499999944,0.001274864499999917,-0.04550285600000059
112622.0,1.5581786185,0.9507547174999998,8.643189044,-0.47110450768606543,0.04866327020410589,0.21610841331118988,8.833831104923883,0.5205866088682728,0.08139519500000003,-0.025203090500000025,0.01922103400000097
112632.0,1.5928941595,0.955559976,8.738901948,-0.46390851518009274,0.042802454575908935,0.2022522443796069,8.934137559264494,0.5078869273085391,0.03471554099999996,0.004805258500000131,0.09571290400000088
112642.0,1.516304223,0.9663472909999999,8.7880332645,-0.4463225776369979,-0.022214550719383826,0.20518439752295736,8.970091094379654,0.49172956648859045,-0.07658993650000001,0.010787314999999964,0.04913131649999869
112652.0,1.4840403444999999,0.9412422669999999,8.714973722,-0.4284696047183479,-0.1407904747706266,0.21530905251377647,8.890392551762915,0.4997660933356883,-0.03226387850000001,-0.02510502400000003,-0.07305954249999935
112662.0,1.584558507,0.8598470719999999,8.489911104499999,-0.42020896136865876,-0.25243918702070384,0.22916522144535947,8.679213859079947,0.5411264298463914,0.10051816250000001,-0.08139519500000003,-0.22506261750000078
112672.0,1.735384784,0.8047336989999999,8.2696537455,-0.4199436713223556,-0.3081291527933389,0.24515243739362752,8.488010941634508,0.575670026529848,0.15082627700000018,-0.055113372999999966,-0.22025735899999965
112682.0,1.8431598675,0.7987516424999999,8.0003631365,-0.42900193014020616,-0.30706275662037036,0.24994860217810794,8.248700067248608,0.5837846317762341,0.10777508349999998,-0.005982056500000055,-0.2692906089999987
112692.0,1.8682648915,0.712551189,7.7932466885,-0.45271746401630514,-0.2700251245637987,0.2488839513343914,8.045671932758198,0.582932149870694,0.02510502399999992,-0.08620045349999983,-0.20711644800000073
112702.0,1.9113160849999997,0.5784942835,7.691453661499999,-0.47136979773236853,-0.20660684086333275,0.24168970415767077,7.946461114220823,0.5685857771713982,0.04305119349999975,-0.13405690550000005,-0.10179302700000115
112712.0,1.967606256,0.40491657849999996,7.672330694,-0.4740349155001639,-0.1402581493487683,0.226234813631261,7.930957703347623,0.5436576500618384,0.05629017100000033,-0.17357770500000003,-0.019122967499998644
112722.0,1.9616241995,0.35460846399999996,7.673507491999999,-0.46817235454271494,-0.08296946198130643,0.2185064957034301,7.928204960303724,0.5232727528202956,-0.005982056499999944,-0.0503081145,0.0011767979999985911
112732.0,1.8659112955,0.30076995549999996,7.649579265999999,-0.4601787465685809,-0.044863688422514245,0.21744009953046153,7.879603446596983,0.5109377909453553,-0.09571290400000021,-0.05383850849999999,-0.023928225999999775
112742.0,1.8431598675,0.1834824215,7.6017228139999995,-0.4687064252938252,-0.029143507849801315,0.21957289187639864,7.824135341176698,0.5184084412974699,-0.02275142799999985,-0.11728753399999997,-0.04785645199999955
112752.0,1.8275672939999998,0.06374322499999999,7.564555610499999,-0.47909811566019944,-0.027810076301277645,0.22729946447497754,7.782452505295416,0.531011724280781,-0.015592573500000206,-0.1197391965,-0.037167203500000134
112762.0,1.7330311879999998,-0.0248108245,7.46286065,-0.472169158529782,-0.04912752778513639,0.23209562925945793,7.6614816946143955,0.5284180252171055,-0.09453610600000006,-0.08855404949999998,-0.10169496049999971
112772.0,1.782064438,-0.12062179499999999,7.381465455,-0.43566385189506857,-0.07524114405347554,0.2171748094841584,7.594493764693709,0.49257397361310573,0.04903325000000014,-0.0958109705,-0.08139519499999981
112782.0,1.874246948,-0.21643276549999999,7.344298251499999,-0.38929918031583916,-0.07630754022644408,0.18439927146095692,7.582767408476619,0.4374697518747169,0.09218251,-0.0958109705,-0.03716720350000102
112792.0,1.9928093464999999,-0.2319272725,7.3527319705,-0.35732474841930306,-0.042732641405829164,0.14442948626103475,7.621531787064845,0.38777175113211104,0.11856239849999994,-0.015494507000000018,0.008433719000001005
112802.0,2.081363396,-0.21996315949999998,7.4137293335,-0.3381383439521294,0.004698426346368735,0.10685952878260482,7.703495311100295,0.35465275094444304,0.08855404950000012,0.011964113000000026,0.06099736300000025
112812.0,2.0526299115,-0.16014259449999999,7.37067814,-0.33840537932768455,0.03374245042880637,0.08767312431543116,7.65283159671187,0.3512026913992596,-0.028733484500000017,0.05982056499999999,-0.043051193500000196
112822.0,2.0561603054999997,-0.08708305200000001,7.258097798,-0.3599881208578464,0.07024775706351977,0.07594974772978524,7.5442270846781865,0.3745591524865422,0.00353039399999977,0.07305954249999998,-0.11258034200000022
112832.0,2.070576081,-0.0691368825,7.225833919499999,-0.38663580787729585,0.13526476235881252,0.07088654756974969,7.516963552387883,0.41570266597085187,0.014415775500000283,0.01794616950000001,-0.03226387850000023
112842.0,2.0406657985,-0.08708305200000001,7.321546823499999,-0.40848558478301283,0.20214577929523525,0.0748833515568167,7.601114934522186,0.46187758703229986,-0.02991028249999994,-0.01794616950000001,0.09571290399999999
112852.0,2.6296531974999997,-0.072765343,7.9691779894999994,-0.3935630196784613,0.25490533725377185,0.06715677895823781,8.392149221897519,0.4736861982145286,0.5889873989999996,0.014317709000000012,0.647631166
112862.0,1.8227620355,-0.08355265799999999,7.941621303,-0.4132817495674933,0.24584533310666928,0.1028627247955378,8.148545355152807,0.491754483953385,-0.8068911619999997,-0.010787314999999992,-0.02755668649999965
112872.0,1.0960892704999998,0.3833419485,7.259274596,-0.43086768711058815,0.07957305125692547,0.22676713905311927,7.35155972556273,0.49335805419259315,-0.7266727650000002,0.4668946065,-0.6823467069999998
112882.0,1.8898395215,-0.283412185,7.306052316499999,-0.31735496321938095,0.06438519610607082,0.2233026604879105,7.5518352958115305,0.3933493413475747,0.7937502510000001,-0.6667541335,0.04677772049999884
112892.0,2.0956811049999997,-0.7586424439999999,7.4484448745,-0.21450096507010308,0.14992029208780894,0.18893014619913417,7.774750716271078,0.3227713713118401,0.20584158349999981,-0.47523025899999993,0.14239255800000095
112902.0,1.8347261485,-0.5468188039999999,7.5418041825,-0.17319949365090928,0.22799236018801927,0.14123204307138115,7.781005151750777,0.31925706083836475,-0.2609549564999998,0.21182363999999998,0.09335930800000014
112912.0,1.7317563235,-0.5875164015,7.811192857999999,-0.17186606210238564,0.25570469805118523,0.08394335570391927,8.022399226595741,0.31932635793943415,-0.10296982499999996,-0.040697597500000016,0.26938867549999923
112922.0,1.734207986,-0.6652831359999999,8.029096620999999,-0.1795943800302165,0.25810278044342544,0.04184252348731206,8.241145038106403,0.317209683620868,0.0024516624999999515,-0.07776673449999993,0.2179037629999998
112932.0,1.6779178149999998,-0.6270372009999999,8.11402221,-0.1894537449747325,0.2639653414008744,0.013063789451177558,8.309388682069551,0.3251785440964023,-0.05629017100000011,0.03824593499999995,0.08492558900000091
112942.0,1.6048582724999998,-0.5994805145,8.160701864,-0.20250880777965005,0.27062726315573676,0.003738495257771854,8.338585124298362,0.33802797094070786,-0.07305954250000002,0.027556686499999983,0.04667965400000007
112952.0,1.5714175959999999,-0.6581242815,8.2361150025,-0.20757200793968564,0.27036022778018165,0.007735299244838868,8.41047389659607,0.34094079559341656,-0.03344067649999993,-0.05864376700000007,0.07541313850000009
112962.0,1.5066937059999999,-0.720396509,8.228956148,-0.2121028826778629,0.27275831017242186,0.007735299244838868,8.396714615823644,0.34560752807596884,-0.06472389,-0.062272227499999944,-0.007158854500000089
112972.0,1.5079685704999999,-0.780217074,8.1966922695,-0.22356096921720567,0.27942023192728416,-0.010651744424921393,8.370691253000436,0.3580064700908735,0.001274864500000028,-0.05982056499999999,-0.03226387850000023
112982.0,1.5773996524999998,-0.8209146715,8.2194436975,-0.21956241990088665,0.2959415186266625,-0.04529129408925286,8.409598400516135,0.37126855509195456,0.06943108199999992,-0.040697597500000016,0.022751427999999407
112992.0,1.5988762159999999,-0.8209146715,8.231407810499999,-0.2011771215603784,0.2991389618163161,-0.0706055495601786,8.425341571398445,0.3673438393992167,0.021476563500000045,0.0,0.011964112999999443
113002.0,1.6073099349999997,-0.8197378734999999,8.190710213,-0.18012670545207476,0.28341703591435125,-0.07753276136134411,8.387082281803519,0.34464790054171274,0.008433718999999895,0.0011767980000000344,-0.04069759749999946
113012.0,1.6192740479999999,-0.8340555825,8.1511894135,-0.14548715578774332,0.2650317375738429,-0.0698061887627652,8.352220424053725,0.31029218232208206,0.01196411300000011,-0.014317709000000067,-0.03952079949999998
113022.0,1.59652262,-0.8293483905,8.125986323,-0.09858841345740368,0.24984388242298827,-0.05834810222342243,8.322761377726724,0.27485658421313997,-0.02275142799999985,0.004707192000000027,-0.025203090499999803
113032.0,1.5354271904999999,-0.7958096474999999,8.1272611875,-0.04929333406407585,0.21680130902423161,-0.04156152547774097,8.309225238385629,0.22618576608135593,-0.06109542950000013,0.03353874300000004,0.0012748645000009162
113042.0,1.597699418,-0.824543132,8.194240607,0.0045308747381772796,0.1669739042090455,-0.011716395268637934,8.389165270288435,0.1674457745982129,0.062272227500000055,-0.028733484500000017,0.06697941949999908
113052.0,1.6013278784999998,-0.8568070105,8.242097058999999,0.07034724083088344,0.10968347151233164,0.027186993758315674,8.439818313072841,0.13311022066366457,0.003628460499999875,-0.03226387850000001,0.04785645199999955
113062.0,1.5558250225,-0.9154507774999999,8.230132946,0.14202616788103856,0.0603883921190038,0.05836206485743839,8.425777705084387,0.16499794204812177,-0.0455028559999997,-0.05864376699999996,-0.011964112999999443
113072.0,1.576124788,-0.9669356899999999,8.256512834499999,0.1921206080717798,0.03667285824290485,0.07008718677233629,8.461036470918147,0.20776775574480985,0.0202997654999999,-0.05148491249999998,0.026379888499999282
