timestamp,ax,ay,az,gx,gy,gz,acc_mag,gyro_mag,dax,day,daz
39162.0,-0.048346784500000003,1.207787014,10.6938576255,-0.17387493607143112,-0.17419782198305006,0.1916650771370093,10.761955110351604,0.31195011840263565,0.0,0.0,0.0
39172.0,0.15641606749999998,0.6224280754999999,10.940494873,-0.23569449817707025,-0.21390057180741703,0.17834123362728457,10.959302476046643,0.36484372915288354,0.204762852,-0.5853589385000001,0.2466372475000007
39182.0,0.5992843815,0.4368862575,10.905779332,-0.28658829916522494,-0.19897800670286556,0.1498295349667052,10.930966755515295,0.3797025018592862,0.442868314,-0.18554181799999991,-0.03471554100000063
39192.0,0.393442798,0.5529969935,10.95010539,-0.2639391614620945,-0.18032567298680213,0.11225957748827528,10.971117124624326,0.3387970513881471,-0.20584158349999998,0.11611073599999999,0.044326057999999335
39202.0,0.26173948849999995,0.8031646349999999,10.909407792499998,-0.18613238340818727,-0.21789737579448407,0.0890763690340346,10.942063762097833,0.30009853390448704,-0.13170330950000003,0.2501676414999999,-0.04069759750000124
39212.0,0.304790682,0.8594548059999999,10.8793994435,-0.09793391498790582,-0.27305501614526084,0.08454723962510931,10.917549733095731,0.3021561339360376,0.04305119350000003,0.056290171,-0.03000834899999738
39222.0,0.405406911,0.9373196069999999,10.801632709,-0.03211754889519965,-0.31249073059407273,0.09467189461592841,10.849801472344637,0.32809261083484087,0.100616229,0.07786480100000004,-0.07776673450000082
39232.0,0.5190659845,1.102463593,10.713078659499999,-0.00014137166941154068,-0.3148905583155649,0.11891975391388564,10.782157012156228,0.3365976701838208,0.11365907349999999,0.16514398600000002,-0.08855404950000079
39242.0,0.547799469,1.273687702,10.734555223,0.0027890361446869386,-0.28557949885757217,0.15622442134601244,10.823725812126769,0.3255295665761481,0.028733484500000017,0.17122410899999996,0.021476563500000267
39252.0,0.5514279295,1.3227209519999998,10.8076147655,-0.02598795256219557,-0.23974715270020108,0.1956618811240763,10.902210803215377,0.31054410738450766,0.003628460499999986,0.04903324999999992,0.07305954250000113
39262.0,0.51190713,1.2521130719999998,10.850665958999999,-0.08754047929227958,-0.19524823809135364,0.21671229723237992,10.93465993109157,0.304547910457838,-0.03952079949999998,-0.07060788000000007,0.04305119349999842
39272.0,0.48915570199999997,1.1168793685,10.892638421,-0.15202515916571407,-0.1699339826204279,0.21404717946458457,10.96066898483963,0.3127385529565306,-0.022751428000000018,-0.13523370349999975,0.04197246200000038
39282.0,0.440122452,1.000670566,10.905779332,-0.19146087361452596,-0.1670035748063294,0.19459548495110776,10.960432117060513,0.3200232224178232,-0.04903324999999997,-0.1162088025000001,0.013140911000000699
39292.0,0.328718908,0.950460518,10.8986204775,-0.19945622691791198,-0.17686293975084538,0.17114698645056395,10.944923920673723,0.31678790520591266,-0.11140354400000002,-0.05021004799999995,-0.007158854500000089
39302.0,0.304790682,0.9875296549999999,10.861453274,-0.19545942293084495,-0.19977736750027894,0.14476808013592168,10.910512334561735,0.31475892299352065,-0.023928225999999997,0.03706913699999992,-0.037167203499999246
39312.0,0.29763182749999995,1.0845174235,10.7717224265,-0.19305959520935279,-0.22082778360858255,0.1287791188584016,10.830270854423684,0.3203450932507386,-0.007158854500000034,0.09698776850000002,-0.08973084750000027
39322.0,0.301260288,1.192292507,10.656788488499998,-0.19545942293084495,-0.2290884269582717,0.1317112720017521,10.727509499972502,0.3286848833624598,0.0036284605000000414,0.10777508349999998,-0.11493393800000185
39332.0,0.3347009645,1.2688824435,10.535872494,-0.19679110915011663,-0.22349290137637787,0.14956424492040207,10.617282919885177,0.3332345734835665,0.03344067649999999,0.07658993650000001,-0.1209159944999989
39342.0,0.34195788549999995,1.277218096,10.449672040499998,-0.1965240737745615,-0.20803801084996812,0.17194634724797736,10.532989462361238,0.33386684750553286,0.007256920999999972,0.008335652500000013,-0.08620045350000183
39352.0,0.3347009645,1.2580951284999997,10.373082104,-0.1933266305849079,-0.18938567713390472,0.18953228479107223,10.454456486318058,0.33040067762476694,-0.007256920999999972,-0.0191229675000002,-0.07658993649999779
39362.0,0.29763182749999995,1.185035586,10.344348619499998,-0.1840013363915022,-0.16433845703853409,0.1956618811240763,10.416258560854702,0.3148764709861266,-0.03706913700000003,-0.0730595424999998,-0.028733484500001794
39372.0,0.25212897149999997,1.1168793685,10.3455254175,-0.17280853989846254,-0.1464854841198841,0.1916650771370093,10.408692747227633,0.29674280162054656,-0.04550285599999998,-0.0681562174999999,0.0011767980000012557
39382.0,0.21859022849999998,1.0833406255,10.407797644999999,-0.16108516331281664,-0.14248868013281707,0.17834123362728457,10.466310735790426,0.2793869170473284,-0.03353874299999998,-0.03353874300000004,0.06227222749999939
39392.0,0.210254576,1.0845174235,10.5167495265,-0.15602196315278108,-0.15314740587474643,0.16874890405832374,10.574611370246284,0.2761759829041936,-0.008335652499999985,0.0011767979999999234,0.10895188150000124
39402.0,0.1946620025,1.1275686169999999,10.5742164955,-0.16108516331281664,-0.17366375123193978,0.16208698230346139,10.635946538741388,0.28701867215167115,-0.015592573500000012,0.04305119349999997,0.057466969000000034
39412.0,0.18985674399999997,1.126391819,10.5897110025,-0.16295092028319857,-0.1995120774539758,0.1604882607086346,10.651139996714997,0.30350379453381676,-0.00480525850000002,-0.0011767979999999234,0.015494506999999658
39422.0,0.165928518,1.1539485054999998,10.557447124,-0.15255748458757235,-0.21869673659189748,0.1623540176790165,10.621620366144105,0.31218724470444265,-0.02392822599999997,0.027556686499999872,-0.03226387850000023
39432.0,0.140823494,1.1635590225,10.5275368415,-0.1341721862470641,-0.22802377611455515,0.1628863431008748,10.59257913845553,0.31069113087539774,-0.025105024000000004,0.009610517000000263,-0.029910282499999497
39442.0,0.185149552,1.1036403909999999,10.523908381,-0.10832560535428006,-0.23468395254016552,0.15782488827009122,10.583239111015798,0.30285258742945004,0.044326058,-0.05991863150000021,-0.003628460499999875
39452.0,0.24977537549999998,1.0773585689999998,10.6675758035,-0.07421838111180687,-0.24134587429502788,0.14609976635519334,10.724750008639948,0.2917213411170511,0.06462582349999998,-0.026281822000000066,0.14366742250000009
39462.0,0.23781126249999998,1.102463593,10.8878331625,-0.04037819224488881,-0.2605305334329496,0.129578479655815,10.94609022185077,0.29376374801825855,-0.011964112999999998,0.025105024000000142,0.22025735899999965
39472.0,0.28449091649999997,1.1647358205,11.103285263,-0.01319817980358112,-0.29010862826649747,0.10826277350120826,11.167832746091777,0.30993230917568176,0.04667965399999999,0.062272227500000055,0.2154521005000003
39482.0,0.29645502949999997,1.273687702,11.272057709499999,0.009450957899549294,-0.3100926482018325,0.09307317302110162,11.347662796939298,0.3238971852459673,0.011964112999999998,0.1089518814999999,0.16877244649999845
39492.0,0.33352416649999994,1.3466491779999998,11.426512447,0.03476521337047505,-0.3231494563360021,0.09200852217738507,11.510425234529501,0.33778655885664655,0.037069136999999974,0.07296147599999991,0.15445473750000183
39502.0,0.3670629095,1.3742058645,11.5833207805,0.0779324417600508,-0.3215507347411753,0.10293253796561758,11.670325498524877,0.34650172851418315,0.03353874300000004,0.027556686500000094,0.156808333499999
39512.0,0.36470931349999997,1.3694006059999997,11.795242487,0.14108369008496163,-0.30156671480584024,0.1279797580609882,11.880068022961684,0.35668741155264444,-0.0023535960000000133,-0.004805258500000242,0.21192170650000008
39522.0,0.410114103,1.335861863,12.0430565325,0.21276261713511677,-0.27012460833116236,0.14583273097963823,12.12385793134711,0.3735002285156298,0.04540478950000004,-0.03353874299999959,0.2478140455000002
39532.0,0.4113889675,1.276041298,12.354319603499999,0.27511450466261417,-0.20537289308217274,0.15302697815635882,12.426855400390181,0.3758766711733569,0.0012748644999999725,-0.0598205650000001,0.31126307099999906
39542.0,0.303613884,1.2820233545000002,12.847496031999999,0.3278740626211507,-0.12783315040382068,0.13251063279916547,12.914872030504085,0.3760342844564833,-0.10777508349999998,0.005982056500000166,0.4931764285
39552.0,0.1575928655,1.3418439195,13.502286052499999,0.37610274584151004,-0.07667231404011089,0.09813637318113716,13.569712939450548,0.39618514221375883,-0.1460210185,0.05982056499999988,0.6547900205000001
39562.0,0.070215614,1.4592295199999998,14.061363168999998,0.4190046841847827,-0.08546528281165833,0.07548723547800675,14.137051149196514,0.4342436673746415,-0.08737725150000002,0.1173856004999998,0.5590771164999992
39572.0,0.0761976705,1.6256483705,14.4288183445,0.459239759431008,-0.14382036635208872,0.06802595292573099,14.520307762856772,0.4860174736481733,0.005982056499999999,0.16641885050000016,0.36745517550000173
39582.0,0.1264077185,1.7213612744999998,14.638386455,0.5159961213766115,-0.22615801914417324,0.07548723547800675,14.739790417593191,0.5684168977247555,0.05021004799999999,0.09571290399999977,0.20956811049999935
39592.0,0.26056269049999997,1.7884387604999998,14.638386455,0.5826118482667312,-0.3044971226199387,0.10426422418488926,14.749534369656109,0.66560205218244,0.13415497199999998,0.06707748600000007,0.0
39602.0,0.33950622299999994,1.887780125,14.622793881499998,0.6359037316471261,-0.358590112126999,0.14077127614885465,14.748053402962526,0.743489728662455,0.07894353249999997,0.09934136450000008,-0.015592573500001095
39612.0,0.4029552485,1.9882982875,14.6023960495,0.6718767128599811,-0.39642710498098405,0.16821657863646547,14.742648113511436,0.7980410917836849,0.06344902550000003,0.10051816250000001,-0.020397831999998672
39622.0,0.47836838699999995,2.098426967,14.682614446499999,0.6923948035464265,-0.4190762426841144,0.18953228479107223,14.83952152308437,0.831238803316143,0.07541313849999998,0.11012867950000005,0.08021839699999944
39632.0,0.48317364549999997,2.2732795364999996,14.7616560455,0.6894626504030761,-0.4180098465111459,0.2164452618568248,14.943485063010641,0.8348290420567408,0.00480525850000002,0.1748525694999996,0.07904159900000174
39642.0,0.42815833899999994,2.5055010085,14.83942278,0.6468294927646105,-0.40495478370622834,0.25908016482454227,15.05554128254553,0.8059151948947193,-0.05501530650000003,0.23222147200000043,0.07776673449999905
39652.0,0.254580634,2.6491684309999997,15.017805743499999,0.5607620713610141,-0.36338627691147934,0.302247393214118,15.251799697888652,0.7333874648706583,-0.17357770499999997,0.14366742249999964,0.17838296349999894
39662.0,0.03667687099999999,2.7018301414999994,15.193835110999999,0.41713892721440077,-0.3354069036727583,0.3387526998488314,15.432234338767689,0.6334477620797161,-0.21790376299999997,0.05266171049999979,0.17602936749999998
39672.0,-0.0375594695,2.754491852,15.2141348765,0.23088088010006988,-0.32741329569862426,0.3624664883956784,15.461517911150159,0.5402660476153504,-0.0742363405,0.05266171050000068,0.020299765500000788
39682.0,-0.044718324,2.700555277,15.151862649,0.042491785969053945,-0.30316543640066707,0.3824522536602655,15.390709543968244,0.48988218995250565,-0.007158854499999999,-0.053936575000000264,-0.06227222749999939
39692.0,0.07256921,2.549729,15.084883229499999,-0.12484689205365838,-0.26985757295560725,0.39177754785367114,15.29902239724262,0.4918327999830677,0.117287534,-0.15082627699999973,-0.06697941950000086
39702.0,0.12523092049999998,2.4144952965,15.022611001999998,-0.2756642833769924,-0.22615801914417324,0.37765608887578506,15.215922963714073,0.51938653064738,0.052661710499999986,-0.13523370349999997,-0.062272227500001165
39712.0,0.1383718315,2.419300555,14.901695007499999,-0.4414042398048779,-0.18352311617645575,0.34195014303848503,15.097439386721392,0.5877485324633992,0.013140911000000005,0.004805258499999798,-0.1209159944999989
39722.0,0.1826978895,2.431264668,14.744886674,-0.638052231956331,-0.13449507215868303,0.28785715353142477,14.945103192477317,0.7127842001466077,0.044326058,0.011964112999999887,-0.156808333499999
39732.0,0.26056269049999997,2.4827495804999997,14.580919485999999,-0.8714743114473047,-0.06521422750076812,0.22523823062837223,14.793077822156144,0.9024702939807356,0.07786480099999998,0.05148491249999987,-0.16396718800000087
39742.0,0.328718908,2.640734712,14.211012647999999,-1.1429986738385665,0.020320868480969978,0.17567786118874124,14.458022562620878,1.1565991600396366,0.0681562175,0.15798513150000026,-0.36990683800000035
39752.0,0.35872725699999997,2.802348304,13.7931512915,-1.3969388440159856,0.1191780626431808,0.15329401353191394,14.079519303302032,1.4103689585072492,0.03000834899999999,0.16161359200000014,-0.41786135649999956
39762.0,0.26654474699999997,2.893354016,13.332336807999999,-1.5794653771895526,0.22229909616801377,0.16102233145974484,13.645283006446155,1.6031394066413511,-0.09218251,0.09100571199999985,-0.4608144835000001
39772.0,0.0761976705,2.8442226995,13.0258789955,-1.6705942534239324,0.3017045958167478,0.1993916497355882,13.333001629593719,1.7092886978782411,-0.1903470765,-0.04913131650000002,-0.3064578124999997
39782.0,-0.18720894849999997,2.6754502529999997,12.858283346999999,-1.6727270457698693,0.31182925080756685,0.23909439955995518,13.135011681700695,1.718260569066909,-0.26340661899999995,-0.16877244650000023,-0.16759564850000075
39792.0,-0.3643170475,2.330648439,12.733738892,-1.6007810833441591,0.21377141744276948,0.25135184689671136,12.950395948655224,1.6344344730353613,-0.17710809900000002,-0.34480181399999976,-0.12454445499999878
39802.0,-0.3966789925,1.9200440034999997,12.651166899,-1.4702147473317153,0.028047441079548877,0.22843741914727783,12.802185247246674,1.4881201956459833,-0.032361945,-0.41060443550000025,-0.08257199300000018
39812.0,-0.322442652,1.6723280244999998,12.456014563999998,-1.3156675873968695,-0.20750568542810985,0.19059868096404076,12.571911115814371,1.3454990402066147,0.0742363405,-0.24771597899999986,-0.1951523350000013
39822.0,-0.11532620399999999,1.55141203,12.071790017,-1.1696446155287639,-0.44332410198207167,0.14769848795002014,12.171618365472138,1.2595315118631858,0.207116448,-0.12091599449999979,-0.38422454699999875
39832.0,0.05226944449999999,1.519050085,11.693449459999998,-1.0281542637280876,-0.632512556910501,0.11279190291013355,11.791819432519356,1.2123924026625186,0.16759564849999997,-0.032361945000000114,-0.37834055700000135
39842.0,0.21741343049999998,1.4567778574999999,11.1428060625,-0.8837317587840607,-0.7668104068637087,0.07681892169727841,11.239732971576808,1.1725532688491336,0.165143986,-0.062272227500000055,-0.5506433974999982
39852.0,0.2833141185,1.5992684819999998,10.585003810499998,-0.7481022226115815,-0.8555412007058485,0.023527038316883565,10.708885667311959,1.136732687624297,0.06590068800000001,0.14249062449999994,-0.5578022520000019
39862.0,0.6411587769999999,1.6962562505,10.217450568499999,-0.647911596900847,-0.8499456751239547,-0.0065833819385226105,10.37712223906153,1.068756487221607,0.3578446584999999,0.09698776850000024,-0.3675532419999996
39872.0,0.9919426474999999,1.7632356699999998,10.025926693999999,-0.6287269377629253,-0.7401644651735112,-0.012178907520416431,10.228008423801352,0.9712308291867212,0.35078387050000004,0.06697941949999975,-0.19152387449999964
39882.0,1.296046864,1.7537232194999999,10.027103492,-0.7209222101702737,-0.5784213127326928,0.003543018381548489,10.261485615814909,0.9242903229610574,0.3041042165000001,-0.009512450499999936,0.0011767980000012557
39892.0,1.5629838769999997,1.5956400215,10.107321888999998,-0.9039828140949511,-0.4078851915203268,0.037650242624021675,10.351180678832389,0.9924579580064076,0.2669370129999997,-0.15808319799999992,0.08021839699999767
39902.0,1.7221458064999997,1.4340264294999998,10.401815588499998,-1.1059610417819947,-0.27811821630529643,0.07601956089986502,10.640488029997103,1.142925431434511,0.15916192949999997,-0.16161359200000014,0.29449369950000026
39912.0,1.6946871864999997,1.4100982035,10.822030540999998,-1.2493171505530531,-0.26132989423036296,0.12984551503137015,11.044305620270471,1.2829444703720478,-0.02745861999999999,-0.023928225999999775,0.4202149525000003
39922.0,1.5306219319999999,1.4652115764999998,11.0614108675,-1.3055411870767986,-0.4190762426841144,0.22577230137948248,11.262524532371778,1.3896171488601883,-0.16406525449999987,0.055113372999999743,0.23938032650000096
39932.0,1.34154972,1.3670470099999998,11.0829854975,-1.259443550873124,-0.7007270053954473,0.3422154330847882,11.247272590125009,1.48132636396163,-0.1890722119999999,-0.09816456649999994,0.021574629999999928
39942.0,1.1404153285,1.1838587879999998,10.6112856325,-1.1507269917663974,-1.0079590589532612,0.44986734134779843,10.737851345865405,1.5945327525381918,-0.2011343914999999,-0.18318822200000007,-0.4716998649999997
39952.0,1.0470560205,0.9672298894999999,9.9050106995,-1.033217463888123,-1.237914914549774,0.5274070840261504,10.007052359532098,1.6965052005900678,-0.09335930800000014,-0.2166288984999999,-0.7062749329999995
39962.0,1.0769663029999998,0.584084074,9.208248217,-0.9538102189101371,-1.299202151233555,0.5615143082686237,9.289394267075847,1.7067449961425671,0.02991028249999994,-0.38314581549999993,-0.6967624825000005
39972.0,1.1392385305,0.4009939185,8.727035901499999,-0.9444849247167315,-1.1894191959538598,0.5551194218893165,8.810210904292795,1.6170737055803688,0.062272227500000055,-0.18309015549999996,-0.48121231550000054
39982.0,1.029109851,0.43806305549999996,8.461275686499999,-0.9839206391655433,-0.9799796857145401,0.5287405155746742,8.534878591343597,1.485942980534338,-0.11012867949999983,0.037069136999999974,-0.26576021500000024
39992.0,0.916529509,0.42374534649999995,8.461275686499999,-1.0398776403137335,-0.7055231701799277,0.4821088086198897,8.521312850875985,1.3459336364895869,-0.11258034200000011,-0.014317709000000012,0.0
40002.0,0.721377174,0.4129580315,8.744982070999999,-1.0798474255136556,-0.49182156590723813,0.4032356343930139,8.784397007482074,1.2532190119545163,-0.19515233499999995,-0.010787314999999964,0.2837063845000003
40012.0,0.5825150099999999,0.44404511199999996,9.1065532565,-1.0835771941251675,-0.3945613480106021,0.29718419305408245,9.135962566245395,1.1908554226157433,-0.13886216400000007,0.031087080499999975,0.3615711855000008
40022.0,0.6567513505,0.501512081,9.226292453,-1.0841112648762778,-0.41214903088294896,0.18766827314994228,9.263223474150738,1.1748972036039913,0.07423634050000005,0.057466969000000034,0.11973919649999942
40032.0,0.8937780809999999,0.5793768819999999,9.0586968045,-1.0899738258337266,-0.4990158130839587,0.08721235739290466,9.12110216066735,1.2019424769898446,0.2370267304999999,0.07786480099999993,-0.16759564849999897
40042.0,1.2457387495,0.569766365,8.7809724765,-1.1099578457690618,-0.5597689790166294,0.005407030022678433,8.88718045139974,1.2431319178700555,0.3519606685000002,-0.00961051699999993,-0.2777243279999997
40052.0,1.6179991834999998,0.6308617944999999,8.5499278025,-1.1339386696914637,-0.5405825745494557,-0.048951249530684963,8.724515653578075,1.2571565739233836,0.37226043399999975,0.06109542949999991,-0.2310446740000014
40062.0,1.8490438574999999,0.8774009754999998,8.291326441999999,-1.154189725002354,-0.4824945263845804,-0.05854357909964579,8.540192610625079,1.2523506856890712,0.23104467400000006,0.24653918099999994,-0.25860136050000015
40072.0,1.9400495695,1.0498018825,8.0207609685,-1.1587205997405312,-0.40815222689588193,-0.018308503853420515,8.318562546403719,1.2286402524321245,0.09100571200000007,0.1724009070000001,-0.2705654734999996
40082.0,1.901705568,1.110897312,7.800503609499999,-1.1382025090540862,-0.3271462603230691,0.049106583834112455,8.105457017774725,1.185302106568719,-0.03834400150000006,0.06109542950000013,-0.22025735900000054
40092.0,1.782064438,0.919275371,7.5563180245,-1.1134223243342707,-0.2671924551878119,0.1418359269925712,7.817848998048953,1.153784429874603,-0.11964112999999998,-0.19162194100000007,-0.24418558499999854
40102.0,1.7126333559999998,0.48954796799999994,7.3468479805,-1.0678570135524545,-0.24347692131171297,0.20978508543121444,7.559692154686834,1.1151723609711546,-0.06943108200000014,-0.42972740300000006,-0.20947004400000058
40112.0,1.4970831889999998,0.175931301,7.183959524,-0.9847199999629567,-0.2658607689685402,0.226838697552451,7.340400829650126,1.0448977086350995,-0.21555016699999996,-0.3136166669999999,-0.16288845650000017
40122.0,1.3175234274999998,0.2285930115,7.0391153035,-0.8935911237285767,-0.3026331109788088,0.20045804590855673,7.1650029311149535,0.9645078146063357,-0.17955976149999997,0.052661710499999986,-0.14484422049999957
40132.0,1.275649032,0.3913834015,6.9781179405,-0.8211128358810083,-0.30662991496587577,0.16635082166608353,7.104547234788449,0.8921439288979738,-0.04187439549999983,0.16279039,-0.06099736300000025
40142.0,1.2505440079999999,0.592517793,7.010381819,-0.7774132820695742,-0.2610646041840598,0.15888953911380777,7.145655386256186,0.8353274952590543,-0.025105024000000142,0.20113439149999995,0.03226387850000023
40152.0,1.251720806,0.6081103664999999,6.982923199,-0.784607529246295,-0.1539467666721598,0.1839367592091784,7.120240136199794,0.8204518957910716,0.0011767980000001454,0.015592573499999984,-0.02745861999999999
40162.0,1.191900241,0.38304774899999994,6.883483768,-0.8586845386886902,-0.0215146736893341,0.23376590935361652,6.996406259418424,0.8901957754016194,-0.0598205650000001,-0.2250626175,-0.09943943100000041
40172.0,1.2206337255,-0.1664188505,6.844061034999999,-0.9602051052894444,0.09466316796966845,0.2817293025276727,6.954050141927007,1.0051499189159274,0.028733484500000017,-0.5494665994999999,-0.03942273300000032
40182.0,1.172679207,-0.713531854,6.864360800499999,-1.0252221105847372,0.12743870599286997,0.3163688521920041,7.000268096911991,1.0804676073137254,-0.047954518499999876,-0.5471130035,0.0202997654999999
40192.0,0.884167564,-1.139728863,6.7733550885,-1.012964663247981,0.03950552761889165,0.34328182925775674,6.92524897150231,1.0702805753633455,-0.2885116430000001,-0.426197009,-0.0910057119999994
40202.0,0.48915570199999997,-1.3898965044999998,6.535151559999999,-0.8946557745722933,-0.12596739343343874,0.33342246431324074,6.699200811006553,0.9630406423888241,-0.395011862,-0.2501676414999998,-0.2382035285000006
40212.0,0.17308737249999998,-1.3659682784999998,6.282532256,-0.7097311590064861,-0.2789175771027098,0.2801305809328459,6.431643656489968,0.8123955165160069,-0.31606832949999997,0.023928225999999997,-0.25261930399999954
40222.0,0.1587696635,-1.3156601639999999,6.265860950999999,-0.5453246341271243,-0.37510965349712533,0.20738525770972224,6.404465858325034,0.6936100156773569,-0.014317708999999984,0.050308114499999945,-0.016671305000000913
40232.0,0.43286553099999997,-1.3922501005,6.225163353499999,-0.47657611489106766,-0.39349669716688557,0.14716616252816186,6.393621171764052,0.6353127760081464,0.2740958675,-0.07658993650000023,-0.04069759749999946
40242.0,0.813559684,-1.601818211,6.1700499805,-0.5112174098846511,-0.3100926482018325,0.11119318131530674,6.426291131157184,0.6081649564131557,0.38069415300000004,-0.20956811050000002,-0.0551133729999993
40252.0,1.2696669754999999,-1.8627731674999999,6.185642553999999,-0.6052784392623816,-0.15261333512363617,0.08854404361217633,6.583627564503397,0.6304703535874298,0.45610729149999985,-0.2609549564999998,0.015592573499999318
40262.0,1.3618494854999998,-1.7849083664999998,6.2945944355000005,-0.6862826605059423,0.0072640603468004,0.08188212185731396,6.682997157367784,0.6911883524508298,0.09218251,0.07786480100000004,0.10895188150000124
40272.0,1.39058297,-1.5970129524999999,6.386678878999999,-0.6985401078426985,0.10745294072828289,0.12211894243279124,6.728583689779853,0.71722901003581,0.02873348450000024,0.18789541399999998,0.09208444349999834
40282.0,1.2480923455,-1.4018606175,6.610564698499999,-0.6175358865991376,0.14609103970893336,0.20392252447376547,6.8718638903028015,0.6665414909131866,-0.14249062450000016,0.19515233499999995,0.22388581950000042
40292.0,0.8662213945,-1.2426006214999998,6.9422256015,-0.44779912618418516,0.11118445466904676,0.30650948724748817,7.105553610448925,0.5539260836466281,-0.3818709509999999,0.15925999600000007,0.3316609030000004
40302.0,0.41374256349999994,-1.2426006214999998,7.355183632999999,-0.22929961179776304,0.005398303376418462,0.39550906179443507,7.470874479507389,0.45720331539859044,-0.4524788310000001,0.0,0.41295803149999966
40312.0,0.30724234449999993,-1.5885792335,7.7669648664999995,-0.029185395751849176,-0.11051250290702895,0.4437377450147943,7.933708154249604,0.4582226390901946,-0.10650021900000001,-0.34597861200000013,0.4117812335000002
40322.0,0.363434449,-2.0674379529999998,8.065087026499999,0.08086284957414928,-0.16940165719856962,0.4496003059722433,8.333787436288699,0.4872126404694443,0.05619210450000006,-0.4788587194999998,0.29812215999999925
40332.0,0.4233530805,-2.311623538,8.220718562,0.0592801080439874,-0.13396100140757278,0.4056337167852541,8.550031864725174,0.43127531033070543,0.059918631499999986,-0.24418558500000032,0.1556315355000013
40342.0,0.47238633049999995,-2.437344791,8.305644151,-0.060095176804668755,-0.0308399678827398,0.3177022837405278,8.668767111792691,0.3248034405423373,0.04903324999999997,-0.12572125300000003,0.08492558899999914
40352.0,0.4113889675,-2.3021110874999997,8.4493115735,-0.18773110500301407,0.07521147345619165,0.2164452618568248,8.76697338925197,0.2962233699514162,-0.06099736299999997,0.1352337035000004,0.14366742250000009
40362.0,0.277332062,-1.926222193,8.694772022999999,-0.26340683604023624,0.14449231811410657,0.14263528778998458,8.90989930029304,0.3325748285568945,-0.1340569055,0.3758888944999996,0.24546044949999946
40372.0,0.18152109149999998,-1.5515100964999997,9.0024066335,-0.2703340478414017,0.16847314203650862,0.1202531854624093,9.136928295717636,0.3404769090905101,-0.09581097050000001,0.37471209650000037,0.30763461050000096
40382.0,0.10610795299999999,-1.3216422205,9.338774728499999,-0.23329641578483,0.13809568640554734,0.15329401353191394,9.4324286632006,0.3114429174127904,-0.07541313849999999,0.2298678759999997,0.3363680949999992
40392.0,0.140823494,-1.52395341,9.745750703499999,-0.17520662229070277,0.04989721798526589,0.23190015238323455,9.865187379218082,0.2948979035743617,0.034715541,-0.20231118950000004,0.40697597499999993
40402.0,0.242616521,-1.996830073,9.922956869,-0.11978369189362284,-0.0782710356349377,0.3134384443779057,10.124784745402422,0.3445549974635015,0.10179302700000001,-0.47287666299999986,0.17720616550000123
40412.0,0.21986509299999998,-2.318880459,9.7757590525,-0.09953263658273262,-0.18645526931980622,0.34994375101261904,10.049428456125634,0.40881896002388846,-0.022751428000000018,-0.3220503859999999,-0.1471978165000003
40422.0,0.1934852045,-2.4552909604999997,9.495583062,-0.09739984423679554,-0.2330852309453387,0.3262282171365201,9.809790411237882,0.41260187129758197,-0.026379888499999976,-0.1364105014999999,-0.2801759905000001
40432.0,0.16955697849999998,-2.3703653715,9.281307759499999,-0.08221198908594089,-0.20191015984621602,0.26201057263864075,9.58071267129535,0.3408461001288115,-0.023928226000000025,0.08492558899999958,-0.21427530250000082
40442.0,0.107284751,-1.9980068709999999,9.274148904999999,-0.05689773361501514,-0.10864849126589901,0.18820059857180055,9.487538109882511,0.22463595448561965,-0.062272227499999985,0.3723585005000003,-0.007158854500000089
40452.0,0.0642335575,-1.624569639,9.457337126999999,-0.03344923511447133,0.0059306287982767315,0.14476808013592168,9.596070966578056,0.14870043952163278,-0.0430511935,0.3734372319999999,0.18318822200000007
40462.0,0.07374600799999999,-1.4437350129999997,9.873923619000001,-0.020392426980301748,0.09226508557742824,0.14103656619515778,9.979187186104093,0.16976457256706481,0.009512450499999991,0.18083462600000022,0.4165864920000022
40472.0,0.128859381,-1.4736452954999997,10.3551359345,-0.011866493584309445,0.11731230567279886,0.17860826900283971,10.46026172803502,0.2140184676340932,0.05511337300000001,-0.02991028249999994,0.48121231549999877
40482.0,0.16239812399999998,-1.7035131715,10.660416948999998,-0.010267771989482642,0.08640252461997928,0.23030143078840776,10.796889357712208,0.2461901143943881,0.03353874299999998,-0.22986787600000036,0.30528101449999845
40492.0,0.1383718315,-2.019581501,10.813596822000001,-0.009468411192069237,0.017121679962064373,0.2564150470567469,11.001442288704814,0.25716041509598475,-0.02402629249999999,-0.31606832949999975,0.1531798730000027
40502.0,0.049817782,-2.133338641,10.872240588999999,-0.0030735248127620146,-0.072942545428599,0.2452239958929593,11.079676484161718,0.2558610358184458,-0.08855404949999998,-0.11375714000000015,0.05864376699999774
40512.0,-0.010002783,-2.0387044684999998,10.8076147655,-0.0025394540616517493,-0.15714420986181346,0.20392252447376547,10.998224987924335,0.25745902102621765,-0.059820565,0.09463417250000017,-0.06462582349999835
40522.0,-0.0279489525,-1.763431803,10.7154322555,-0.014529866022852793,-0.20377417148734595,0.16208698230346139,10.85960226205304,0.26078193918337006,-0.017946169499999998,0.27527266549999974,-0.09218251000000066
40532.0,-0.011179581,-1.522776612,10.638842318999998,-0.03424859591188473,-0.18965271250945984,0.1437016839629531,10.747275909812252,0.2403981939572755,0.016769371499999998,0.2406551910000001,-0.07658993650000134
40542.0,-0.055505638999999996,-1.351552503,10.665124141,-0.05689773361501514,-0.11983954242968664,0.15116296651522887,10.750565007815513,0.2011196421684518,-0.044326057999999995,0.17122410899999996,0.026281822000001398
40552.0,-0.080610663,-1.3659682784999998,10.8627281385,-0.08754047929227958,-0.0417657290002243,0.1746114650157727,10.948572054282568,0.19974202198985727,-0.025105024000000004,-0.014415775499999839,0.1976039974999999
40562.0,-0.1979962635,-1.5754383224999997,11.2014498295,-0.10406176599165791,-0.021781709064889233,0.19992572048669846,11.313429484960215,0.2264367189817401,-0.11738560049999999,-0.2094700439999999,0.33872169099999994
40572.0,-0.29616083,-1.8460037959999998,11.382186389,-0.0984662404097641,-0.09719040472655624,0.2079193284608325,11.534713184384323,0.2497439136774885,-0.0981645665,-0.27056547350000004,0.18073655949999967
40582.0,-0.263798885,-2.0518453795,11.3726739385,-0.08860687546524813,-0.219763132764866,0.17967466517580827,11.559298067985782,0.2973718181139244,0.032361945,-0.20584158350000026,-0.009512450499999048
40592.0,-0.1883857465,-2.018404703,11.1331955455,-0.07714878892590535,-0.3311430643101361,0.12291830323020464,11.316248927489971,0.36154747121565295,0.07541313849999998,0.033440676500000155,-0.23947839300000062
40602.0,-0.004020726499999999,-1.8016777379999998,10.7585815155,-0.08407774605632284,-0.3759090142945387,0.06269746271939229,10.908397456249228,0.39026609670999196,0.18436502000000002,0.2167269650000001,-0.37461403000000004
40612.0,0.1264077185,-1.5538636925,10.5406777525,-0.10459409141351618,-0.3346075428753449,0.018730873532403144,10.65534414123798,0.351074033974291,0.13042844499999998,0.24781404549999975,-0.21790376299999892
40622.0,0.1838746875,-1.371950335,10.5167495265,-0.13550387246633575,-0.24427628210912636,0.009403834009745447,10.607453899289302,0.2795006861324553,0.05746696900000001,0.18191335750000004,-0.023928226000000663
40632.0,0.22221868899999997,-1.4114711345,10.6316834645,-0.15842004554502132,-0.15767653528367173,0.019530234329816546,10.727270165265267,0.2243662868225241,0.038344001499999975,-0.03952079949999998,0.11493393800000007
40642.0,0.187503148,-1.442558215,10.809968361499998,-0.1661483634728522,-0.09878912632138304,0.031787681666572726,10.907407923553828,0.19589544882356136,-0.03471554099999996,-0.031087080500000086,0.1782848969999975
40652.0,0.2162366325,-1.4724684975,10.909407792499998,-0.18133621862370683,-0.08786336520389854,0.03525216023178147,11.010454129618111,0.20456175089861167,0.02873348449999999,-0.02991028249999994,0.09943943100000041
40662.0,0.29645502949999997,-1.4126479325,10.964423099,-0.19785750532308516,-0.12996419742050574,0.03578448565363974,11.059024986842065,0.23941348006602806,0.08021839699999997,0.05982056499999988,0.055015306500001415
40672.0,0.42217628249999994,-1.279767825,10.962069503,-0.19759046994753005,-0.18272375537904234,0.04884129378780932,11.044591721200627,0.2735241060176835,0.12572125299999998,0.13288010750000012,-0.0023535959999989586
40682.0,0.42688347449999997,-1.221124058,10.930884356,-0.18133621862370683,-0.23788139572981915,0.08241444727917224,11.007161590077304,0.3102620243269277,0.004707192000000027,0.05864376699999996,-0.031185147000000413
40692.0,0.4245298785,-1.1792496625,10.860276476,-0.1461625982082651,-0.2789175771027098,0.1202531854624093,10.932358415246206,0.3370746928288943,-0.002353595999999958,0.04187439550000005,-0.07060788000000073
40702.0,0.34548827949999994,-1.1361004024999999,10.735830087499998,-0.1227140997077213,-0.29064095368835574,0.1548927351267408,10.801302418852217,0.3514579258218488,-0.07904159900000007,0.04314926000000008,-0.12444638850000089
40712.0,0.27850886,-1.1612054265,10.635213858499998,-0.12431282130254812,-0.26905821215819387,0.17860826900283971,10.702043685374395,0.346044668830707,-0.06697941949999991,-0.025105024000000142,-0.10061622899999989
40722.0,0.259287826,-1.259369993,10.577746889499998,-0.15042643757088728,-0.2384154664809294,0.17727658278356803,10.655607547873913,0.3330120637169267,-0.019221034000000026,-0.09816456649999994,-0.057466969000000034
40732.0,0.2856677145,-1.3922501005,10.529890437499999,-0.18932982659784087,-0.21603161882410216,0.15302697815635882,10.625373358673277,0.32547303976673303,0.026379888500000004,-0.13288010750000012,-0.04785645199999955
40742.0,0.292826569,-1.3588094239999997,10.4053459825,-0.22503577243514086,-0.2043082422384562,0.11119318131530674,10.497777644139374,0.3236462270644706,0.007158854499999978,0.03344067650000038,-0.12454445499999878
40752.0,0.34911674,-1.3779323915,10.252166109500001,-0.2538145064712754,-0.18432247697386916,0.06775891755017585,10.350241065331451,0.3209172013473431,0.056290171,-0.0191229675000002,-0.15317987299999913
40762.0,0.464050678,-1.4449118109999999,10.2043096575,-0.26633724385433466,-0.14382036635208872,0.024593434489852097,10.316542480863795,0.30368513671495184,0.11493393800000001,-0.06697941949999997,-0.047856452000001326
40772.0,0.476014791,-1.4736452954999997,10.3312077085,-0.27166747938992536,-0.0953246477561743,-0.010580185925589625,10.446629755781041,0.288100586882662,0.011964112999999998,-0.028733484499999795,0.1268980509999995
40782.0,0.43414039549999994,-1.4581507884999998,10.556270326,-0.2945819071393589,-0.07374190622601243,-0.03083124123647983,10.66534222613584,0.3052325903043282,-0.04187439550000005,0.01549450699999988,0.22506261750000078
40792.0,0.39216793349999995,-1.3779323915,10.653160027999999,-0.3377491355289347,-0.08226783962200471,-0.03589444139651538,10.749060979722252,0.34947229777162947,-0.04197246199999999,0.08021839699999989,0.09688970199999858
40802.0,0.29645502949999997,-1.231911373,10.525085179,-0.39264148583340835,-0.10092017333806812,-0.023904029435314337,10.601080569481963,0.40610789256956914,-0.09571290399999999,0.14602101849999993,-0.128074848999999
