timestamp,ax,ay,az,gx,gy,gz,acc_mag,gyro_mag,dax,day,daz
46242.0,0.04265892749999999,0.812775152,10.729848030999998,-0.24501979237047597,-0.26426204737371345,0.1708799510750088,10.760672005044972,0.3988346599968655,0.0,0.0,0.0
46252.0,0.6208590115,0.5398560825,10.623249745499999,-0.2751302126258821,-0.2794499025245681,0.16581849624422526,10.655061973411454,0.4257753581611433,0.578200084,-0.2729190695,-0.10659828549999872
46262.0,0.697448948,0.7456976659999999,10.605303575999999,-0.2674036400273032,-0.21390057180741703,0.15036360571781549,10.654340147717386,0.3739884693995982,0.07658993650000001,0.20584158349999992,-0.017946169500000053
46272.0,0.5298532994999999,0.9935117115,10.571764833,-0.24795194551382643,-0.21390057180741703,0.13917080922477584,10.631557822075473,0.35581193915312975,-0.16759564850000008,0.24781404550000008,-0.03353874299999937
46282.0,0.648415698,1.0378377694999998,10.583728945999999,-0.23169769419000322,-0.2408135488731696,0.14476808013592168,10.654241810453328,0.36418784142265836,0.11856239850000005,0.04432605799999989,0.011964112999999443
46292.0,0.6902900934999999,1.0031222285,10.592162665,-0.2066504740946326,-0.2578671609944062,0.1551597705022959,10.66192593016454,0.36506772733997805,0.04187439549999994,-0.03471554099999974,0.008433719000001005
46302.0,0.7261824325,1.0282272525,10.5897110025,-0.17840581080960838,-0.28611182427943044,0.16608378629052842,10.66426609404158,0.3758622532148385,0.035892339000000106,0.02510502399999992,-0.0024516625000003955
46312.0,0.7824726034999999,1.0964815365,10.581375349999998,-0.1632162103295017,-0.30316543640066707,0.18340443378732013,10.666772681214363,0.39011024015677737,0.05629017099999989,0.068254284,-0.008335652500001345
46322.0,0.8087544255,1.102463593,10.5191031225,-0.17387493607143112,-0.30423183257363556,0.19965868511114332,10.607593515800158,0.4033027298262033,0.026281822000000066,0.005982056499999944,-0.06227222749999761
46332.0,0.8291522575,1.0270504544999999,10.418584959999999,-0.1973234345719749,-0.2847801380601588,0.21511357563755312,10.501868341916317,0.4078113721911355,0.020397832000000005,-0.07541313850000009,-0.100518162500002
46342.0,0.8363111119999999,0.9300626859999999,10.352684272,-0.2415570591345192,-0.24880715684730365,0.22390654440910057,10.427967419955834,0.41278196998582783,0.007158854499999867,-0.09698776850000002,-0.06590068799999926
46352.0,0.7716852885,0.9348679444999999,10.4137797015,-0.278861726566646,-0.20830504622552323,0.22390654440910057,10.484096715001938,0.41387074728225565,-0.0646258234999999,0.00480525850000002,0.06109542949999991
46362.0,0.7238288365,0.8929935489999999,10.471246670500001,-0.28792173071374855,-0.18618823394425107,0.21831101882720672,10.534152671077154,0.40647839108352674,-0.047856451999999994,-0.04187439549999994,0.05746696900000181
46372.0,0.685484835,0.8666136605,10.535872494,-0.27406556178216557,-0.18618823394425107,0.20711996766341909,10.593654605725352,0.3907386231474295,-0.03834400149999995,-0.02637988849999995,0.06462582349999835
46382.0,0.6902900934999999,0.8785777735,10.53822609,-0.25194874950089347,-0.20750568542810985,0.19592891649963143,10.597292505221754,0.380690060522695,0.004805258499999909,0.011964112999999998,0.002353596000000735
46392.0,0.7070594649999999,0.8511191535,10.53822609,-0.22343705084031407,-0.2330852309453387,0.19353083410739122,10.596157134756796,0.376439934549141,0.01676937150000002,-0.02745861999999999,0.0
46402.0,0.708236263,0.8738705814999999,10.509492605499998,-0.1903962227708094,-0.23948011732464594,0.1977929281407614,10.56951669767821,0.3643123531555227,0.0011767980000000344,0.02275142799999985,-0.028733484500001794
46412.0,0.6758743179999999,0.9085861224999999,10.471246670500001,-0.16588132809729708,-0.23175354472606705,0.2057865361148954,10.53229992310269,0.3515315333659093,-0.032361945000000114,0.03471554100000007,-0.03824593499999729
46422.0,0.6555745525000001,0.8785777735,10.471246670500001,-0.16641365351915535,-0.20617225387958615,0.2172446226542382,10.52847015156671,0.34263060053002325,-0.02029976549999979,-0.030008348999999934,0.0
46432.0,0.6077181005,0.8558263454999999,10.535872494,-0.18506598723521875,-0.18325782613015262,0.21911037962462013,10.588029525513848,0.3403560032209518,-0.047856452000000105,-0.022751428000000073,0.06462582349999835
46442.0,0.5957539875,0.822385669,10.6101088345,-0.1997215169642151,-0.17499718278046344,0.20711996766341909,10.658595145802925,0.3367660602324438,-0.011964112999999998,-0.03344067649999993,0.07423634050000061
46452.0,0.5418174124999999,0.7840416674999999,10.695132489999999,-0.20478471712425067,-0.17979334756494386,0.1884676339473557,10.73751118385997,0.3313343888611361,-0.05393657500000004,-0.03834400150000006,0.0850236554999988
46462.0,0.5298532994999999,0.7313799569999999,10.729848030999998,-0.20451768174869553,-0.20563992845772788,0.1623540176790165,10.767789927782157,0.33237642723345856,-0.011964112999999998,-0.052661710500000014,0.03471554099999885
46472.0,0.6017360439999999,0.7277514964999999,10.7034681425,-0.2026536701075656,-0.24747547062803196,0.1381061583810593,10.745042521312755,0.3484048357204678,0.07188274449999998,-0.003628460499999986,-0.026379888499997506
46482.0,0.6424336414999999,0.788846926,10.673557859999999,-0.19252726978749451,-0.28024926332198147,0.12691510721727167,10.721932561211078,0.36292401910635724,0.040697597500000016,0.06109542950000002,-0.029910282500001273
46492.0,0.6843080369999999,0.849844289,10.5885342045,-0.18053685782629345,-0.30316543640066707,0.13037784045322842,10.644602829834243,0.37616647929214225,0.04187439549999994,0.06099736300000003,-0.0850236554999988
46502.0,0.7393233435,0.9408500009999999,10.497528492499999,-0.17520662229070277,-0.3058305541684624,0.1498295349667052,10.565505297025553,0.3829863938912777,0.05501530650000008,0.09100571199999996,-0.09100571200000118
46512.0,0.728634095,1.0162631395,10.399363926,-0.17920517160702176,-0.28264734571422173,0.1794076298002531,10.474276513368023,0.3797250494773048,-0.01068924849999997,0.07541313849999998,-0.0981645664999995
46522.0,0.6891132955,1.0282272525,10.332384506499999,-0.1863994187837424,-0.24667610983061855,0.21218316782345462,10.40626244176937,0.37498739071024867,-0.03952079949999998,0.01196411300000011,-0.06697941950000086
46532.0,0.6196822135,0.9780172045,10.259324964,-0.1840013363915022,-0.20936969706923977,0.23962847031106546,10.324450223376537,0.3675785162769244,-0.06943108200000003,-0.05021004800000006,-0.07305954249999935
46542.0,0.534658558,0.9085861224999999,10.209114915999999,-0.17414197144698623,-0.17606357895343197,0.2556156862593335,10.263401769576006,0.3558977228294168,-0.08502365550000002,-0.06943108200000003,-0.050210048000000285
46552.0,0.4903325,0.7229462379999999,10.200681197,-0.15682132395019452,-0.1512816489043645,0.2556156862593335,10.238016121613795,0.3358845694618097,-0.044326057999999946,-0.18563988450000002,-0.008433718999999229
46562.0,0.4712095325,0.5626075104999999,10.1719477125,-0.13310579007409556,-0.12996419742050574,0.2382950387625418,10.19838643610958,0.30231170910377697,-0.019122967500000032,-0.1603387275,-0.028733484500000017
46572.0,0.417371024,0.4727785965,10.203034792999999,-0.10512816216462643,-0.11797378545930472,0.20552124606859226,10.222506403037949,0.25924646019048536,-0.05383850849999999,-0.08982891399999993,0.031087080499998976
46582.0,0.36470931349999997,0.4164884255,10.2641302225,-0.07821518509887389,-0.1062504088736588,0.1708799510750088,10.279048823522876,0.21588590098769345,-0.052661710500000014,-0.056290171,0.061095429500001686
46592.0,0.36225765099999996,0.42972740299999995,10.341896957,-0.05769709441242855,-0.10678273429551707,0.143434648587398,10.35715834173655,0.1878962625031537,-0.002451662500000007,0.013238977499999971,0.07776673449999905
46602.0,0.371868168,0.46326614599999993,10.455654096999998,-0.024656266342923894,-0.10918081668775728,0.1250493502468897,10.472516605501957,0.16782646453926198,0.00961051700000004,0.03353874299999998,0.11375713999999881
46612.0,0.346763144,0.43806305549999996,10.711803795,0.04355818214202248,-0.12623442880899388,0.10986149509603507,10.726363990710327,0.17292193138230527,-0.025105023999999976,-0.02520309049999997,0.25614969800000154
46622.0,0.3670629095,0.4392398535,11.0757285765,0.1432147371016467,-0.16646950405521915,0.11279190291013355,11.090510823615476,0.2468695405787709,0.020299765499999955,0.0011767980000000344,0.36392478149999974
46632.0,0.39461959599999996,0.5159278565,11.5450748455,0.2580608925413776,-0.2189637719674526,0.12185190705723611,11.563332537242745,0.35970605353114693,0.027556686499999983,0.07668800299999995,0.46934626900000076
46642.0,0.43884758749999997,0.5518201954999999,12.107682356,0.3814329813771008,-0.29863630699174176,0.13437464444029543,12.128192972038741,0.5027238886350492,0.04422799150000001,0.035892338999999995,0.5626075104999995
46652.0,0.5382870184999999,0.6990180119999999,12.7014750135,0.5127986781869579,-0.38550308919275156,0.16421977464939846,12.732079430083322,0.6622259814544768,0.09943943099999997,0.14719781649999997,0.5937926574999999
46662.0,0.628017866,0.931239484,13.169546417999998,0.6396352455878899,-0.4342640978349691,0.222840148236132,13.217358520991716,0.8045969709939264,0.08973084750000004,0.2322214720000001,0.46807140449999807
46672.0,0.6328231245,1.0988351324999999,13.8853338015,0.7590105304365461,-0.4246717682660083,0.28625843193659795,13.943112942754093,0.9156347448248919,0.00480525850000002,0.16759564849999986,0.7157873835000022
46682.0,0.48797890399999994,1.29643913,14.850210095,0.8655942971973358,-0.358590112126999,0.3472786332448237,14.914677927940117,0.9992210991388224,-0.14484422050000006,0.19760399750000013,0.9648762934999997
46692.0,0.21986509299999998,1.4245139789999999,15.912074156999997,0.9071628039920846,-0.28824287129611553,0.38964650083698604,15.977223936383739,1.028519665059603,-0.268113811,0.12807484899999988,1.061864061999998
46702.0,-0.032754211,1.2951642654999997,16.911665991499998,0.8557366775820717,-0.24560971365765003,0.3931109794021948,16.961219588255556,0.9732140745636328,-0.252619304,-0.12934971350000013,0.9995918345000003
46712.0,-0.10934414749999999,1.1335506734999998,17.7436621775,0.715576266671415,-0.24747547062803196,0.35767032361119794,17.780169873801228,0.8373897314740043,-0.07658993649999998,-0.16161359199999992,0.8319961860000014
46722.0,-0.015984839499999997,1.055783939,18.317057003,0.5013405916476151,-0.2823820556679186,0.30277971863597625,18.347466105489758,0.6501981022842971,0.09335930799999999,-0.07776673449999993,0.5733948254999994
46732.0,0.177892631,1.1874872484999999,18.434344536999998,0.2636564181232714,-0.3481966764313727,0.25268527844523503,18.473408734241115,0.5045844649197925,0.19387747049999998,0.13170330949999998,0.11728753399999903
46742.0,0.393442798,1.3801879209999999,18.342162026999997,0.08485965356121629,-0.4350634586323825,0.2265716621768959,18.398223385894983,0.49781130154035463,0.215550167,0.1927006725,-0.09218251000000066
46752.0,0.547799469,1.7357770499999998,18.004617134,0.007052875507309086,-0.5405825745494557,0.23456527015102993,18.0963876054717,0.5893217533066848,0.154356671,0.35558912899999995,-0.3375448929999969
46762.0,0.6459640354999999,2.128435316,17.428770645999997,0.02410648762854568,-0.6538300083943598,0.2740009845998418,17.570132403042003,0.7093316165126411,0.09816456649999994,0.3926582660000002,-0.5758464880000034
46772.0,0.7022542064999999,2.4264594095,16.875675586,0.10031454408762609,-0.7534865633539839,0.337953339051418,17.063683445270968,0.8318758731244152,0.056290171,0.29802409350000003,-0.5530950599999969
46782.0,0.732164489,2.5653215735,16.2005858,0.2069000561776678,-0.8182365332737217,0.41815819949756544,16.418767306883264,0.9418996429753894,0.02991028250000005,0.13886216399999984,-0.6750897860000009
46792.0,0.8160113465000001,2.4432287809999997,15.667888571999999,0.3278740626211507,-0.8219680472144855,0.4802430516495077,15.878223253832012,1.0068596030425119,0.0838468575000001,-0.12209279250000016,-0.532697228
46802.0,0.8949548789999999,2.3940974645,15.256009271999998,0.4563093516169095,-0.7505561555398855,0.5138179504701226,15.468628439920625,1.0176254975270493,0.07894353249999986,-0.04913131649999958,-0.4118793000000007
46812.0,1.029109851,2.615629688,15.1913834485,0.5341161296708167,-0.5792206735301062,0.522343883866115,15.449230298935024,0.9453146363150947,0.13415497200000015,0.22153222349999968,-0.06462582349999835
46822.0,0.9141759129999999,2.837063845,15.269248249499999,0.4888178542645559,-0.3937619872131887,0.5084894602637839,15.55746094211309,0.8078074822760918,-0.11493393800000018,0.22143415700000002,0.0778648009999987
46832.0,0.81002929,2.7927377869999996,15.3745716705,0.3185470230984931,-0.28877694204722576,0.45572990230524735,15.64713986161486,0.6265413570054326,-0.10414662299999988,-0.044326058000000224,0.10532342100000136
46842.0,0.7369697474999999,2.6958480849999997,15.320733161999998,0.07286924160001525,-0.25093820386398874,0.35900375515972166,15.573554055748959,0.44403108534046076,-0.07305954250000013,-0.09688970199999991,-0.053838508500001936
46852.0,0.7261824325,2.765279167,14.9148359185,-0.1848006971889156,-0.2408135488731696,0.25401696466450674,15.18638996840571,0.3958119267275419,-0.010787314999999853,0.06943108200000037,-0.40589724349999834
46862.0,0.78845466,2.966315492,14.201402130999998,-0.40836166640612126,-0.25093820386398874,0.1604882607086346,14.529298360049125,0.5054559472137524,0.062272227499999944,0.20103632500000002,-0.7134337875000014
46872.0,1.1188406985,3.1650962874999995,13.533373133,-0.5871584309681763,-0.23788139572981915,0.09627061621075522,13.943522774922142,0.6407890550227712,0.3303860384999999,0.19878079549999939,-0.6680289979999987
46882.0,1.4588372539999999,3.3949641634999996,13.1192383035,-0.7078654020361042,-0.16407142166297894,0.07362147850762482,13.629688238148702,0.7303512722682798,0.33999655549999996,0.22986787600000014,-0.4141348295
46892.0,1.8227620355,3.6451318049999997,13.0150916805,-0.8277747576358706,-0.06761230989300833,0.09813637318113716,13.63825717478971,0.836309285832305,0.3639247815000002,0.25016764150000004,-0.1041466230000001
46902.0,2.1591301305,3.9348202459999997,13.320372695,-0.9618038268842712,0.006197664173831865,0.17647722198615462,14.056207953159557,0.9778799631500746,0.33636809499999987,0.289688441,0.3052810145000002
46912.0,2.246507382,4.0353384085,13.667528104999999,-1.1413999522437397,0.0016685347649065792,0.3166358875675593,14.426783286285985,1.1845061925908067,0.08737725149999997,0.10051816250000067,0.34715540999999916
46922.0,2.1387322985,3.9467843589999996,13.733330726499998,-1.3830826750844025,-0.08146847882459131,0.474914561443169,14.448378990894552,1.4646155262837335,-0.10777508349999998,-0.08855404950000079,0.0658026214999996
46932.0,1.852672318,3.6247339729999997,13.343124122999999,-1.6410179039196364,-0.23042185850679536,0.6030828150633726,13.950270694674291,1.7634463064372798,-0.2860599804999999,-0.3220503859999999,-0.39020660349999936
46942.0,1.679094613,3.1471501179999994,12.519463589499999,-1.8480593317667158,-0.39882518737322425,0.6707649381264608,13.017714129348871,2.006068400138221,-0.17357770500000003,-0.4775838550000002,-0.8236605335
46952.0,1.64555587,2.6850607699999998,11.458874391999998,-1.9684992674590884,-0.4984817423328485,0.6539766160515273,11.883737113867749,2.133344516895564,-0.03353874300000004,-0.4620893479999997,-1.0605891975000006
46962.0,1.6982175804999997,2.4156720944999996,10.442513186,-2.0239239431854203,-0.499548138505817,0.566045183006801,10.851981213522677,2.160144351586035,0.05266171049999979,-0.2693886755000001,-1.0163612059999991
46972.0,1.852672318,2.3223127865,9.6716124295,-2.0521686064704445,-0.3980258265758108,0.44986734134779843,10.117589553973998,2.1382706032716112,0.15445473750000027,-0.0933593079999997,-0.7709007564999997
46982.0,1.9436780299999998,2.315153932,9.1651970235,-2.100666070395611,-0.21097016399331858,0.34914439021520566,9.65083719128724,2.1399084453839268,0.09100571199999985,-0.007158854500000089,-0.5064154060000003
46992.0,1.959172537,2.118824799,9.037122174499999,-2.1470289966455884,-0.005527457741066041,0.2811969771058144,9.486693457439847,2.1653719784737886,0.015494507000000102,-0.19632913299999988,-0.12807484900000077
47002.0,1.876600544,1.8219775035,9.026334859499999,-2.1523592321811793,0.1604795340623746,0.2414924819521954,9.397656762237384,2.1718016861693115,-0.08257199299999995,-0.2968472954999999,-0.010787314999999964
47012.0,1.7317563235,1.4412833504999998,8.9700446885,-2.1451649850044587,0.28518330911736944,0.21511357563755312,9.248674465786857,2.1747037000731586,-0.1448442205,-0.3806941530000003,-0.05629017099999878
47022.0,1.4935527949999998,1.1659126185,8.856385614999999,-2.1313088160728753,0.3310156552747406,0.19805996351631652,9.056799564250538,2.16593545209801,-0.23820352850000015,-0.27537073199999984,-0.11365907350000093
47032.0,1.345080114,0.8893650885000001,8.680356247499999,-2.1089249684160483,0.30596843517936995,0.20072508128411187,8.82886149836054,2.1404372833585326,-0.14847268099999988,-0.2765475299999999,-0.17602936749999998
47042.0,1.214651669,0.6679309315,8.4852039125,-2.082279026725851,0.22256438621431693,0.23376590935361652,8.597685493373449,2.1071467323205653,-0.13042844499999995,-0.22143415700000002,-0.1951523349999995
47052.0,1.020676132,0.5422096784999999,8.126084389499999,-2.048705873234488,0.07361275186136483,0.28226162794953097,8.207863218107933,2.069368555592456,-0.19397553700000003,-0.12572125300000014,-0.3591195230000004
47062.0,0.8674962589999999,0.350685804,7.662818243499999,-1.9847535187829117,-0.10278593030845005,0.3243624601661381,7.7197353403742115,2.013708639142106,-0.15317987300000002,-0.1915238744999999,-0.4632661459999996
47072.0,0.7812958055,0.140038962,7.118156902499999,-1.8829659168066022,-0.26213100035702835,0.33688694287844945,7.162275597544283,1.930742374706033,-0.08620045349999994,-0.210646842,-0.5446613410000003
47082.0,0.7298108929999999,0.1340569055,6.660872813,-1.7675874359450132,-0.34953010797989637,0.31237204820493714,6.702075933948841,1.8286915914376738,-0.05148491250000009,-0.005982056499999999,-0.457284089499999
47092.0,0.697448948,0.259680092,6.545938874999999,-1.663934076998322,-0.3791064574841923,0.27666610236763717,6.588109329730624,1.7288558213170269,-0.03236194499999989,0.12562318649999998,-0.11493393800000096
47102.0,0.7153951175,0.339898489,6.527992705499999,-1.5818634595817926,-0.39882518737322425,0.25987952562195565,6.575865716392673,1.6519355019736266,0.017946169499999942,0.08021839700000005,-0.017946169500000053
47112.0,0.7501106585,0.24889277699999998,6.4693489385,-1.5141813365187047,-0.41934327805966953,0.24975312530188457,6.517444998042496,1.5909024257676707,0.03471554100000007,-0.09100571200000004,-0.058643766999999514
47122.0,0.720200376,0.152003075,6.287337514499999,-1.4600900923408962,-0.4419924157628,0.2305684661639629,6.330276971637104,1.5428487258746675,-0.02991028250000005,-0.096889702,-0.1820114240000006
47132.0,0.775313749,-0.06227222749999999,5.8886971919999995,-1.4201203071409743,-0.4582466670866232,0.19965868511114332,5.93984375710127,1.505521599044824,0.05511337300000008,-0.2142753025,-0.3986403224999995
47142.0,0.8387627744999999,-0.2586013605,5.539188186,-1.3809498827384654,-0.44625625512542216,0.15036360571781549,5.608297728853324,1.4590327062127189,0.06344902549999987,-0.196329133,-0.3495090059999999
47152.0,0.8064008294999999,-0.36755324199999995,5.4529877325000005,-1.374287960983603,-0.4393272979950047,0.07895171404321549,5.524531916309154,1.4449599467177014,-0.032361945,-0.10895188149999996,-0.08620045349999916
47162.0,0.9201579695,-0.5088670685,5.2518533409999995,-1.3508394624830593,-0.4481202667665521,0.01579872038905267,5.35608064704136,1.4233160669557474,0.11375714000000003,-0.14131382650000002,-0.201134391500001
47172.0,1.068532584,-0.538777351,4.881946503,-1.274631406023979,-0.43160072539642574,-0.03216292745575151,5.026474368299735,1.3461050706716435,0.1483746145,-0.02991028250000005,-0.36990683799999946
47182.0,1.1583614979999999,-0.5064154059999999,4.750243193499999,-1.1792386904269767,-0.3889658224287083,-0.0694675948878783,4.915594401583192,1.2436736094157015,0.08982891399999993,0.032361945000000114,-0.13170330950000064
47192.0,1.3068341789999998,-0.4992565514999999,4.916662044,-1.0835771941251675,-0.36311924153592423,-0.08705527776022516,5.1118136048303375,1.1461124467466994,0.14847268099999988,0.007158854499999978,0.16641885050000038
47202.0,1.5713195295,-0.48248717999999996,4.850859422499999,-1.0044387298519886,-0.3364732998457268,-0.07000166563898856,5.121784462422202,1.0616080617289891,0.2644853505000002,0.016769371499999963,-0.06580262150000049
47212.0,1.7832412359999998,-0.48248717999999996,4.6915994265,-0.9466159717334165,-0.2605305334329496,-0.013777629115243238,5.042206695819826,0.9819102707761513,0.21192170649999986,0.0,-0.1592599959999994
47222.0,1.8957235115,-0.5723160939999999,4.686794168,-0.8949228099478485,-0.14915060188767942,0.0704240353179712,5.087961567927191,0.9099957596378551,0.11248227550000012,-0.08982891399999998,-0.004805258500000242
47232.0,1.8694416895,-0.6608701435000001,4.7945692515,-0.8229785928513902,-0.023645720706019176,0.18953228479107223,5.188396272880435,0.8448522778435799,-0.026281822000000066,-0.08855404950000012,0.10777508349999998
47242.0,1.608486733,-0.806891162,5.053170612,-0.7145273237909665,0.08560316382256589,0.3331571742669376,5.364031706797712,0.7930138087485264,-0.2609549565,-0.14602101849999993,0.25860136050000015
47252.0,1.0829483595,-0.9278071564999999,5.5594879514999995,-0.5677067364546996,0.14689040050634677,0.4717171182535154,5.7394694486398325,0.7525853891953801,-0.5255383734999999,-0.1209159944999999,0.5063173394999998
47262.0,0.6663618674999999,-1.186408517,6.301753289999999,-0.40223381540236913,0.11198381546646018,0.5822994343306241,6.446991378596223,0.7165228875628037,-0.4165864920000001,-0.25860136050000015,0.7422653384999993
47272.0,0.3527452005,-1.5383691855,6.9266330279999995,-0.25061706328162175,-0.004461061568097506,0.6497145220181572,7.104171593644973,0.6963890964105492,-0.3136166669999999,-0.35196066849999985,0.6248797380000006
47282.0,0.16955697849999998,-1.972901847,7.3515551725,-0.1466966689593754,-0.14088995853799025,0.6662340633882835,7.61357043187791,0.6965900661935085,-0.18318822200000004,-0.43453266150000003,0.4249221445000009
47292.0,0.10493115499999998,-2.2733776029999997,7.415004198,-0.13523858242003262,-0.23654970951054746,0.6233338703742628,7.756387273045956,0.6802869638617681,-0.0646258235,-0.30047575599999976,0.06344902549999976
47302.0,0.10247949249999999,-2.5439430764999997,7.394704432499999,-0.19519238755528984,-0.25093820386398874,0.5292728409965324,7.82072899843042,0.6174137919860229,-0.002451662499999993,-0.27056547350000004,-0.020299765500000788
47312.0,0.0569766365,-2.5522787289999997,7.240249694999999,-0.29351725629564235,-0.1941818419183851,0.40136987742263197,7.677147171544928,0.5338133999595711,-0.045502855999999994,-0.008335652500000013,-0.15445473750000005
47322.0,-0.0818855275,-2.4182218234999997,7.1671901525,-0.36759426573803766,-0.0713438238337722,0.2686724943935031,7.56459626876138,0.460869173026726,-0.138862164,0.13405690550000005,-0.07305954249999935
47332.0,-0.102185293,-2.2529797709999997,7.2427013575,-0.401966780026814,0.0826727560084674,0.1684818686827686,7.585715697056741,0.44361945054967816,-0.020299765499999997,0.16524205250000001,0.07551120499999975
47342.0,-0.0710982125,-2.0961714375,7.610156533,-0.3891770072681996,0.20764356643901738,0.10959445972047993,7.893888275620202,0.4545168195690571,0.031087080500000003,0.1568083334999999,0.36745517549999995
47352.0,0.08698498549999999,-2.0674379529999998,8.093820510999999,-0.3326876806981511,0.24175079068149058,0.11066085589344847,8.35414846297883,0.42587599452248,0.15808319799999998,0.028733484500000017,0.48366397799999916
47362.0,0.1348414375,-2.0614558965,8.4948144295,-0.2532804357201651,0.17486802841581586,0.16102233145974484,8.742405550998141,0.34735860102977617,0.04785645200000001,0.005982056499999722,0.4009939185000011
47372.0,0.17308737249999998,-2.230228343,8.748610531499999,-0.1701451674599192,0.03870616682147824,0.22550526600392737,9.030064447849316,0.28513184731888175,0.03824593499999998,-0.16877244649999978,0.253796101999999
47382.0,0.19829046299999997,-2.365560113,8.7821492745,-0.09899856583162236,-0.11104657365813922,0.26973889056647166,9.09732596071693,0.3080440336087709,0.025203090499999997,-0.13533177000000007,0.03353874300000115
47392.0,0.246146915,-2.393018733,8.6360301895,-0.055566047395743466,-0.20191015984621602,0.27826482396246394,8.964828185425995,0.34826227261529713,0.04785645200000002,-0.02745861999999999,-0.14611908500000048
47402.0,0.21388303649999998,-2.2805364575,8.4457811795,-0.04384092548084556,-0.21176952479073197,0.27853185933801905,8.750874940215152,0.35263062125034395,-0.03226387850000001,0.11248227550000012,-0.19024900999999872
47412.0,0.12405412249999999,-2.1416742935,8.3428113545,-0.059030525960952214,-0.13076355821791916,0.28066290635470414,8.614212645478522,0.31520688151832477,-0.089828914,0.13886216399999984,-0.10296982500000063
47422.0,-0.0196133,-2.1105872129999996,8.5187426555,-0.0768834988796022,-0.0012636183784438947,0.29958227544632265,8.776328360758342,0.3092930792839899,-0.14366742249999997,0.031087080500000308,0.17593130100000032
47432.0,-0.23869386099999998,-2.23983886,8.8778621785,-0.08274431450779916,0.12184143508172414,0.3331571742669376,9.159164248908628,0.36426042833619765,-0.21908056099999998,-0.12925164700000025,0.3591195229999986
47442.0,-0.3476457425,-2.393018733,9.281307759499999,-0.0798139066937007,0.2031126917008401,0.3507431118100325,9.591145392773596,0.41309291414142685,-0.10895188150000004,-0.15317987300000002,0.4034455809999997
47452.0,-0.412271566,-2.644461239,9.7337865905,-0.07395134573625174,0.21190740580163955,0.3611348021764067,10.095035635306251,0.4251963023272613,-0.06462582349999996,-0.25144250600000007,0.4524788310000005
47462.0,-0.45532275949999995,-2.8610901374999997,10.073783145999998,-0.06489134158914917,0.14582400433337822,0.3560716020163711,10.482092465860626,0.3902082933710735,-0.04305119349999997,-0.21662889849999978,0.3399965554999991
47472.0,-0.5606461804999999,-3.014368077,10.221079028999998,-0.04677307862419604,0.0267157548602772,0.320100366132768,10.671044726755177,0.3246008269245039,-0.10532342099999997,-0.15327793950000013,0.14729588299999996
47482.0,-0.6169363514999999,-2.9736704795,10.222255827,-0.02065946235585688,-0.09319360073948922,0.2492207998800263,10.6638567495577,0.2668761280003599,-0.056290171,0.040697597499999905,0.0011767980000012557
47492.0,-0.6995083445,-2.7007514099999996,10.1935223425,-0.001207767842380076,-0.17686293975084538,0.1807393160195248,10.568408955452508,0.252880719936649,-0.08257199300000007,0.27291906950000033,-0.028733484500000017
47502.0,-0.736675548,-2.40262925,10.151647946999999,-0.0017400932642383465,-0.21416760718297218,0.13943784460033098,10.45807220360454,0.2555654601033445,-0.03716720350000002,0.2981221599999997,-0.041874395500000716
47512.0,-0.6373341835,-2.3044646835,10.195875938499999,-0.01266585438172285,-0.19604759888876705,0.12744743263912994,10.472470505675325,0.23417500503592492,0.09934136449999997,0.09816456649999994,0.044227991499999675
47522.0,-0.6647928035,-2.2111053755,10.3239507875,-0.0339815605363296,-0.13236227981274595,0.14290232316553972,10.578983709027641,0.19772605680542016,-0.02745861999999999,0.09335930800000014,0.12807484900000077
47532.0,-0.6229184079999999,-2.346339079,10.5167495265,-0.06409198079173577,-0.0851982474361032,0.17247867266983563,10.793301395764217,0.2027693662611293,0.04187439550000016,-0.13523370349999997,0.19279873900000055
47542.0,-0.5367179544999999,-2.5606143814999998,10.695132489999999,-0.09127199323304346,-0.0899961575498356,0.1778089082054263,11.010480060019221,0.21919373385129712,0.08620045349999994,-0.21427530249999993,0.17838296349999894
47552.0,-0.5212234475,-2.542668212,10.782509741499998,-0.10059728742644916,-0.1630067708192624,0.1668831470879418,11.090507285245407,0.25404922033428634,0.01549450699999988,0.01794616949999961,0.08737725149999953
47562.0,-0.46973853499999996,-2.427734274,10.729848030999998,-0.08833984008969298,-0.28850990667167065,0.15116296651522887,11.011093804194603,0.3374790897825417,0.05148491250000009,0.11493393800000007,-0.05266171050000068
47572.0,-0.355981395,-2.2733776029999997,10.585003810499998,-0.06142860835319242,-0.38337029684681445,0.13384231901843716,10.832233109922795,0.4106823891876272,0.11375713999999998,0.1543566710000004,-0.14484422049999957
47582.0,-0.215942433,-2.0578274359999997,10.3922050715,-0.03584731750671154,-0.4214743250763547,0.129578479655815,10.596188519408033,0.442398258654923,0.140038962,0.21555016699999996,-0.19279873899999878
47592.0,-0.10934414749999999,-1.976432241,10.2772711335,-0.026787313359608968,-0.398292861951366,0.13890551917847271,10.466161784404498,0.42266950126153746,0.1065982855,0.08139519499999981,-0.11493393800000007
47602.0,0.0342252085,-2.0865609204999997,10.2988457635,-0.036646678304124936,-0.3399377784109356,0.14903017416929182,10.508145978250234,0.3729754214886255,0.14356935599999998,-0.11012867949999983,0.021574629999999928
47612.0,0.070215614,-2.1860003514999997,10.363471587,-0.061693898399495566,-0.2834467065116351,0.1591565744893629,10.591745422911362,0.3308760912112092,0.035990405499999996,-0.09943943099999997,0.06462582350000012
47622.0,0.165928518,-2.226697949,10.3000225615,-0.09420240104714195,-0.24747547062803196,0.1583572136919495,10.539268513354022,0.3085372069198304,0.095712904,-0.04069759750000035,-0.06344902549999887
47632.0,0.176715833,-2.1955128019999997,10.271289076999999,-0.11578688790655582,-0.2088373716473815,0.1535610489074691,10.504802913557125,0.28390253072002364,0.010787314999999992,0.031185147000000413,-0.028733484500001794
47642.0,0.18985674399999997,-2.111764011,10.289235246499999,-0.1227140997077213,-0.16753590022818768,0.15569209592415417,10.505425016590952,0.25955164585415724,0.013140910999999977,0.08374879099999966,0.017946169500000053
47652.0,0.18632634999999997,-2.1787434305,10.4137797015,-0.10273007977238624,-0.1539467666721598,0.15809017831639438,10.640885682875494,0.2434041510306729,-0.0035303939999999923,-0.06697941949999997,0.12454445500000055
47662.0,0.14317708999999998,-2.159620463,10.628055004,-0.059562851382810485,-0.1872546301172196,0.1591565744893629,10.846198107694633,0.2528692250321806,-0.043149259999999995,0.019122967499999977,0.21427530250000082
47672.0,0.140823494,-2.075871672,10.742988942,-0.02892010570554604,-0.2517375646614021,0.17008059027759542,10.942617870647258,0.305181226756904,-0.0023535959999999856,0.0837487910000001,0.11493393800000007
47682.0,0.20907777799999996,-2.1105872129999996,10.6328602625,-0.025188591764782164,-0.3028984010251119,0.18500315538214693,10.84232490118167,0.35582028328920934,0.06825428399999997,-0.03471554099999974,-0.11012867950000071
47692.0,0.246146915,-2.0494917835,10.452123703,-0.048104764843467714,-0.31169136979665935,0.19512955570221802,10.654008390141827,0.3708653689884082,0.03706913700000003,0.061095429499999465,-0.18073655949999967
47702.0,0.16710531599999998,-1.925045395,10.3347381025,-0.07768285967701562,-0.2714562945504341,0.2079193284608325,10.513825926213133,0.3506473922421989,-0.07904159900000002,0.12444638850000023,-0.11738560050000046
47712.0,0.060605097,-1.8292344244999998,10.327579248,-0.10059728742644916,-0.21469993260483045,0.22017677579758865,10.48850154603976,0.32356403987263477,-0.10650021899999998,0.09581097050000009,-0.007158854500000089
47722.0,0.003138128,-1.8160935134999998,10.431725870999998,-0.11525281715544555,-0.17766230054825877,0.22710398759875416,10.58863117429797,0.3105210557782217,-0.057466969,0.013140911000000033,0.10414662299999833
47732.0,-0.0016671305000000001,-1.835216481,10.5885342045,-0.12351346050513472,-0.13822484077019492,0.23403294472917166,10.746398415810042,0.29855167182668185,-0.0048052585,-0.0191229675000002,0.15680833350000256
47742.0,-0.0352058735,-1.9573092734999997,10.746519335999999,-0.13683730401485944,-0.12410338179230879,0.2436252742981325,10.923368385469743,0.30574396383114893,-0.033538742999999996,-0.12209279249999971,0.1579851314999985
47752.0,-0.030400614999999995,-2.1165692695,10.873417387,-0.15495556697981255,-0.1496829273095377,0.23616399174585673,11.077544644094107,0.31967113955333004,0.004805258500000003,-0.15925999600000007,0.1268980510000013
47762.0,-0.059134099499999995,-2.1883539474999996,10.849489161000001,-0.17494133224439964,-0.20617225387958615,0.20685293228786397,11.068143696931253,0.3404403084144437,-0.0287334845,-0.07178467799999977,-0.023928225999998887
47772.0,-0.049523582499999996,-2.1512848105,10.720237513999999,-0.18853046580042748,-0.2794499025245681,0.17407739426466246,10.934073864652852,0.3793928356596781,0.009610516999999999,0.037069136999999586,-0.12925164700000202
47782.0,-0.038736267500000005,-2.0949946395,10.570588035,-0.18746406962745893,-0.358590112126999,0.1405042407732995,10.776262545225906,0.42833525139990963,0.010787314999999992,0.05629017100000011,-0.14964947899999892
47792.0,0.061781894999999996,-2.0147762425,10.2760943355,-0.1871987795811558,-0.41294839168036235,0.11625638147534229,10.47192700041341,0.46806549061195746,0.10051816250000001,0.08021839699999989,-0.29449369950000026
