timestamp,ax,ay,az,gx,gy,gz,acc_mag,gyro_mag,dax,day,daz
84942.0,0.9836069949999999,1.3897984380000001,10.497528492499999,-0.24075769833710578,-0.20990376782035003,0.14876488412298866,10.634713295135391,0.3523561434144245,0.0,0.0,0.0
84952.0,0.6783259804999999,0.9468320574999999,10.401815588499998,-0.21837385068027854,-0.22322586600082275,0.143434648587398,10.466823043220543,0.34364287323926884,-0.3052810145,-0.44296638050000026,-0.09571290400000088
84962.0,1.1990590955,1.007927487,10.4604593555,-0.21251303505208155,-0.18512183777128255,0.12558167566874798,10.57709177711997,0.3085492540108222,0.5207331150000001,0.06109542950000002,0.05864376700000129
84972.0,0.9763500739999998,1.368223808,10.456830895,-0.19226023441193937,-0.12037186785154491,0.107728702750098,10.59106265784526,0.25111522793813723,-0.22270902150000016,0.3602963210000001,-0.003628460499999875
84982.0,0.8530804834999999,1.575340256,10.473600266499998,-0.19226023441193937,-0.12250466019748199,0.09413956919407014,10.625711542100678,0.2466447809994761,-0.12326959049999997,0.20711644800000006,0.016769371499998798
84992.0,0.9213347675,1.542978311,10.5646059785,-0.2026536701075656,-0.12250466019748199,0.09547125541334182,10.716367822307081,0.25532462158665015,0.06825428400000011,-0.032361945000000114,0.09100571200000118
85002.0,0.927316824,1.5215017475000001,10.685521973,-0.2119789643009713,-0.11211122450185576,0.10426422418488926,10.833063458467546,0.2614862069216937,0.005982056500000055,-0.021476563499999823,0.12091599450000068
85012.0,0.9476165894999998,1.5298374,10.802809507,-0.22103896844807386,-0.11504337764520622,0.11332422833199182,10.95166986882201,0.2737436484005566,0.02029976549999979,0.00833565249999979,0.11728753399999903
85022.0,0.915352711,1.55141203,10.8662585325,-0.22929961179776304,-0.12303698561934026,0.12691510721727167,11.014550574921014,0.2895234985987668,-0.03226387849999979,0.02157463000000015,0.06344902550000064
85032.0,0.868673057,1.5861275709999998,10.867435330500001,-0.23382874120668828,-0.15687717448625832,0.14583273097963823,11.016875428815728,0.31710174000480645,-0.04667965400000007,0.03471554099999974,0.0011767980000012557
85042.0,0.8112060879999999,1.527483804,10.871063791000001,-0.22103896844807386,-0.20750568542810985,0.16315337847642994,11.00778315723388,0.3442903715845848,-0.057466969000000034,-0.058643766999999736,0.003628460499999875
85052.0,0.7369697474999999,1.4412833504999998,10.8172252825,-0.18906279122228575,-0.2738543769426743,0.17567786118874124,10.937677309077825,0.37630263048146845,-0.07423634050000005,-0.08620045350000027,-0.05383850850000016
85062.0,0.7190235779999999,1.308403243,10.832719789499999,-0.14642963358382025,-0.34926307260434125,0.1754108258131861,10.935114630850366,0.4173670917657274,-0.017946169499999942,-0.13288010749999968,0.015494506999997881
85072.0,0.6879364975,1.3394903234999997,10.757306651,-0.1117900839194888,-0.42200839582746497,0.16715018246349694,10.862188422918816,0.4674690283956543,-0.031087080499999975,0.031087080499999642,-0.07541313849999831
85082.0,0.7226520385,1.3418439195,10.640019117,-0.09713455419049243,-0.4742338830348913,0.16182169225715823,10.748617487061896,0.5104107733199869,0.03471554100000007,0.002353596000000291,-0.1172875340000008
85092.0,0.8351343139999999,1.3227209519999998,10.479582322999999,-0.10139664822386256,-0.48995580893685614,0.15569209592415417,10.595691846397482,0.5240019119385528,0.1124822754999999,-0.0191229675000002,-0.16043679400000066
85102.0,0.869849855,1.3742058645,10.337189765,-0.11125601316837855,-0.46837132207744225,0.15249465273450055,10.464347699015475,0.5049794202968171,0.03471554100000007,0.05148491250000009,-0.14239255799999917
85112.0,0.8962297435,1.458052722,10.235396737999999,-0.12031601731548111,-0.42920264300418554,0.15302697815635882,10.377499307517525,0.47128346971658597,0.02637988849999995,0.08384685749999998,-0.10179302700000115
85122.0,0.9716428819999999,1.5011039155,10.231768277499999,-0.1312417784329656,-0.3737779672778536,0.1551597705022959,10.386841913677419,0.42545143978007294,0.07541313849999998,0.043051193500000196,-0.003628460499999875
85132.0,0.9560503084999998,1.550235232,10.3119866745,-0.14323219039416665,-0.3111590443748011,0.15569209592415417,10.471596375051064,0.37626511929038314,-0.015592573500000095,0.0491313164999998,0.08021839700000122
85142.0,0.927316824,1.5321909959999997,10.380240958499998,-0.15655428857463938,-0.26186396498147324,0.15329401353191394,10.533609452453508,0.3414396520787419,-0.028733484499999795,-0.018044236000000158,0.06825428399999822
85152.0,0.9022117999999999,1.4711936329999997,10.489192840000001,-0.17547365766625792,-0.22509162297120472,0.14530040555777995,10.630219342635705,0.3202646579344049,-0.025105024000000142,-0.06099736300000003,0.10895188150000301
85162.0,0.9105474525,1.4328496314999999,10.557447124,-0.19092854819266766,-0.21203481483703512,0.12851382881209847,10.693074604892635,0.3129349411840757,0.008335652500000124,-0.038344001499999836,0.06825428399999822
85172.0,0.8889728224999999,1.412549866,10.602949979999998,-0.2010549485127388,-0.21842970121634234,0.10453125956044439,10.733504464128302,0.3147402276802469,-0.02157463000000015,-0.0202997654999999,0.045502855999998815
85182.0,0.9201579695,1.4556010595,10.557447124,-0.20718279951649088,-0.233619301696449,0.08561189046882585,10.696969426398663,0.3237778348347415,0.03118514700000008,0.04305119349999997,-0.045502855999998815
85192.0,0.9751732759999999,1.4999271175,10.4963516945,-0.20291896015386873,-0.2530709962099258,0.07388851388317995,10.647729484292388,0.3326868587673347,0.05501530649999997,0.044326058,-0.06109542949999991
85202.0,0.9883141869999998,1.57887065,10.4843875815,-0.18586534803263213,-0.2623962904033315,0.07015874527166806,10.648567059504687,0.32912002423859865,0.013140910999999922,0.07894353250000008,-0.011964112999999443
85212.0,1.0087120189999998,1.6471249339999998,10.456830895,-0.1709445282573326,-0.2709239691285758,0.07495491005614847,10.633712091838206,0.32899858256689923,0.020397832000000005,0.06825428399999978,-0.027556686500000538
85222.0,1.0638253919999998,1.69262779,10.468795007999999,-0.16375028108061196,-0.26452908274926856,0.0882770082366212,10.657972706836414,0.32339236286182965,0.055113372999999966,0.04550285600000015,0.011964112999999443
85232.0,1.06500219,1.7692177264999998,10.477228727,-0.1698781320843641,-0.24960651764471703,0.10959445972047993,10.678795944596969,0.3212054467356041,0.0011767980000001454,0.07658993649999979,0.008433719000001005
85242.0,1.056568471,1.7967744129999998,10.466441412,-0.18373430101594707,-0.23335226632089387,0.13437464444029543,10.671978778837191,0.32598791179332376,-0.008433718999999895,0.027556686500000094,-0.010787314999999964
85252.0,1.057745269,1.7429359045,10.468795007999999,-0.19759046994753005,-0.21336824638555876,0.15729081751898097,10.665473245046973,0.3306182143432567,0.0011767979999999234,-0.05383850849999994,0.0023535959999989586
85262.0,1.0015531645,1.6914509919999998,10.5395009545,-0.20771512493834915,-0.2011107990488026,0.17034762565315054,10.721249720511324,0.3355733007673104,-0.056192104500000006,-0.05148491250000009,0.0707059465000004
85272.0,0.9535986459999999,1.5609244805,10.590985866999999,-0.21464408206876662,-0.20777097547441298,0.1714140218261191,10.747781968688747,0.3444178089114118,-0.0479545185000001,-0.13052651149999983,0.051484912499999425
85282.0,0.9548735104999999,1.493945061,10.5969679235,-0.2197072822288022,-0.233619301696449,0.16022297066233143,10.744272168836229,0.3584977940202217,0.001274864500000028,-0.06697941949999997,0.00598205650000061
85292.0,0.9596787689999999,1.4843345439999998,10.577746889499998,-0.21650983903914855,-0.26426204737371345,0.1466320917770516,10.724409617154128,0.3717686248485992,0.00480525850000002,-0.009610517000000263,-0.01922103400000097
85302.0,0.9440861954999998,1.5489603674999999,10.5167495265,-0.20931384653317597,-0.2903756636420526,0.13304295822102374,10.672047487139354,0.3818779138917011,-0.015592573500000095,0.06462582350000012,-0.06099736299999847
85312.0,1.0015531645,1.612409393,10.4592825575,-0.1965240737745615,-0.3023660756032536,0.1250493502468897,10.630125324264919,0.3816861213691573,0.057466969000000145,0.0634490255000002,-0.057466969000000034
85322.0,1.018322536,1.6723280244999998,10.3922050715,-0.1848006971889156,-0.2959711892239464,0.1287791188584016,10.575045534510187,0.37193319828444016,0.016769371499999908,0.059918631499999764,-0.06707748600000052
85332.0,1.087753618,1.6914509919999998,10.406620847,-0.17840581080960838,-0.2767847847567727,0.13837144842736243,10.599149581217583,0.35719057678412097,0.06943108200000014,0.019122967499999977,0.014415775499999839
85342.0,1.0601969315,1.7321485895,10.453300501000001,-0.18453366181336048,-0.24321163126540984,0.15436040970488252,10.648748641689112,0.3420989710731217,-0.027556686500000094,0.04069759750000013,0.04667965400000185
85352.0,1.053038077,1.6974330484999998,10.4832107835,-0.20078791313718367,-0.22349290137637787,0.16901593943387888,10.671826295299347,0.34471908970977105,-0.007158854499999867,-0.03471554100000018,0.029910282499999497
85362.0,1.0698074485,1.598091684,10.5047854135,-0.21251303505208155,-0.21336824638555876,0.1770095474080129,10.679368033316317,0.34931386818488225,0.016769371499999908,-0.09934136449999986,0.021574629999999928
85372.0,1.0278349865,1.5585708844999997,10.523908381,-0.21837385068027854,-0.21097016399331858,0.1778089082054263,10.688228832372864,0.3518686638413629,-0.04197246199999993,-0.0395207995000002,0.019122967499999532
85382.0,1.0087120189999998,1.519050085,10.5538186635,-0.21650983903914855,-0.22269354057896448,0.17114698645056395,10.710186808830855,0.35462686642083735,-0.0191229675000002,-0.03952079949999976,0.029910282499999497
85392.0,1.0050835585,1.4783524874999998,10.523908381,-0.20851448573576253,-0.23654970951054746,0.15622442134601244,10.67466002496316,0.35190925770157044,-0.003628460499999875,-0.04069759750000013,-0.029910282499999497
85402.0,1.0135172774999999,1.4783524874999998,10.509492605499998,-0.20078791313718367,-0.2549350078510557,0.14130360157071292,10.661246558172623,0.353941170403865,0.008433718999999895,0.0,-0.014415775500001615
85412.0,1.055391673,1.474724027,10.477228727,-0.19466006213343157,-0.2637297219518552,0.13144423662619695,10.63301388775181,0.3531621346815623,0.04187439550000005,-0.003628460499999875,-0.032263878499998455
85422.0,1.0733378425,1.5034575115,10.4006387905,-0.18932982659784087,-0.2655937335929851,0.12744743263912994,10.563414498327784,0.35018375554804876,0.017946169500000053,0.028733484500000017,-0.07658993649999957
85432.0,1.099717731,1.5525888279999998,10.401815588499998,-0.18426662643780534,-0.255469078602166,0.1317112720017521,10.57438786378993,0.34141836346765075,0.02637988849999995,0.0491313164999998,0.001176797999997703
85442.0,1.112858642,1.577693852,10.389851475499999,-0.1725432498521594,-0.23335226632089387,0.14476808013592168,10.56771431912607,0.3243181313045614,0.013140911000000033,0.025105024000000142,-0.011964112999999443
85452.0,1.136786868,1.5728885934999999,10.368276845499999,-0.15175812379015896,-0.20377417148734595,0.15862424906750464,10.548337672626483,0.29952644873849327,0.023928225999999997,-0.00480525850000002,-0.021574629999999928
85462.0,1.1822897239999999,1.4771756894999997,10.461636153499999,-0.12004898193992597,-0.16593717863336088,0.17061466102870568,10.631354006773739,0.2665638157656675,0.045502855999999925,-0.09571290400000021,0.09335930800000014
85472.0,1.1439457225,1.4459905425,10.6544348925,-0.07901454589628729,-0.12810018577937582,0.1738121042183593,10.812792578402075,0.22992086384823993,-0.038344001499999836,-0.031185146999999747,0.19279873900000055
85482.0,1.0397990995,1.4627599139999998,10.909407792499998,-0.027054348735164102,-0.09905441636768618,0.16448506469570162,11.056040300052546,0.19390474902739221,-0.1041466230000001,0.016769371499999908,0.2549728999999985
85492.0,1.041073964,1.4867862065,11.329524678499999,0.038494981981986934,-0.09798976552396964,0.14316935854109483,11.473992228649008,0.1777113474438383,0.001274864500000028,0.0240262925000001,0.42011688600000063
85502.0,1.0613737295,1.5466067714999998,11.784455172,0.10164623030689776,-0.0969233693510011,0.11971911471129904,11.932807314299511,0.18455016144455322,0.020299765500000122,0.05982056499999988,0.4549304935000009
85512.0,1.099717731,1.7117507575,12.368637312499999,0.14188305088237504,-0.12436867183861193,0.09866869860299543,12.534857745975613,0.21291753978148378,0.038344001499999836,0.16514398600000013,0.5841821404999994
85522.0,1.275649032,1.7632356699999998,12.950465857,0.18025411448747036,-0.18458951234942428,0.09280788297479847,13.132054157447174,0.2741863180418093,0.1759313010000001,0.05148491249999987,0.5818285445000004
85532.0,1.4779602215,1.900921036,13.514250165499998,0.23061559005376675,-0.28211502029236346,0.10080149094893251,13.727083620972095,0.37806530603578975,0.20231118950000004,0.13768536600000014,0.5637843084999989
85542.0,1.6563431849999999,2.1140195405,13.937995512,0.2820417164637797,-0.39722646577839743,0.1311772012506418,14.194374598996742,0.5045233919934563,0.17838296349999982,0.21309850450000023,0.4237453465000023
85552.0,1.7078280975,2.3893902725,14.1846327595,0.3212121408662884,-0.48436028335496234,0.19193211251256442,14.485498583300771,0.6120621368334587,0.05148491250000009,0.27537073199999984,0.24663724749999894
85562.0,1.6060350705,2.7867557304999995,14.445587715999999,0.35718512207914355,-0.5328560019508768,0.2974512284296376,14.799336492214797,0.707102512754739,-0.10179302700000004,0.39736545799999945,0.2609549564999991
85572.0,1.3487085745,3.174608738,14.698207019999998,0.39209170711903013,-0.525394719398601,0.43707756858918395,15.09749797354161,0.7879164415896415,-0.2573264959999999,0.3878530075000004,0.25261930399999954
85582.0,1.1092301814999999,3.3039584515,14.9938775175,0.42326677821815284,-0.4963506953161634,0.5785679203898604,15.393599191046283,0.8719286764341804,-0.23947839300000018,0.1293497134999999,0.2956704975000015
85592.0,1.0829483595,3.139893197,15.314751105499997,0.4214027665770229,-0.4427917765602134,0.6934140758295911,15.670778789240948,0.9243743449635136,-0.026281821999999844,-0.16406525449999965,0.32087358799999777
85602.0,1.020676132,2.8861951615,15.648667538,0.37583745579520694,-0.36551732392816444,0.7661576537234628,15.945303320776167,0.9283610599488016,-0.062272227500000055,-0.25369803550000025,0.33391643250000236
85612.0,1.0027299625,2.549729,15.83185576,0.30762300731026054,-0.32528224868193917,0.7999978425903809,16.067179035430627,0.9167535132648531,-0.017946169500000053,-0.33646616149999975,0.18318822200000007
85622.0,1.0494096165,2.2648458175,15.8354842205,0.20343557761245906,-0.33087777426383297,0.7983991209955541,16.031012058443295,0.8878667085473901,0.04667965400000007,-0.2848831825000002,0.003628460499999875
85632.0,1.1547330374999998,2.0241906265,15.649844335999997,0.0398284135305106,-0.32608160947935255,0.7690898068668134,15.822401329170475,0.8363101395962115,0.1053234209999998,-0.2406551910000001,-0.18563988450000224
85642.0,1.1990590955,1.7680409285,15.247673619499999,-0.12511218209996153,-0.30742927576328916,0.7259225784772375,15.396599048041377,0.7982038634642127,0.044326058000000224,-0.25614969799999976,-0.4021707164999988
85652.0,1.389406172,1.631630427,14.728117302499998,-0.23009897259517642,-0.26186396498147324,0.6646353417934567,14.883215601384794,0.750505436959706,0.19034707649999993,-0.13641050150000011,-0.519556317000001
85662.0,1.4121575999999998,1.62201991,14.329476979999999,-0.2807257382077759,-0.19045207330687325,0.6089453760208215,14.48996370582149,0.6970605449287222,0.02275142799999985,-0.00961051700000004,-0.3986403224999986
85672.0,1.2469155475,1.6638943054999997,13.991932086999999,-0.30097853884791814,-0.13369571136126962,0.5612490182223207,14.145582567349168,0.650740412560141,-0.1652420524999998,0.04187439549999983,-0.33754489300000046
85682.0,1.0721610444999998,1.5166964889999999,13.705774039999998,-0.26287276528912595,-0.12943187199864747,0.5034262601037485,13.831057066639053,0.5824883686236775,-0.17475450300000017,-0.14719781649999986,-0.2861580470000007
85692.0,0.9225115654999999,1.3394903234999997,13.565735078,-0.1296430568381388,-0.19311719107466857,0.42402076045501436,13.662885131688368,0.48362710529059016,-0.14964947899999992,-0.17720616550000012,-0.14003896199999843
85702.0,0.8279754595,1.205433418,13.753728558499999,0.05235115091356991,-0.31302480134518296,0.31477013059717734,13.83125671613624,0.4469959780303741,-0.09453610599999995,-0.13405690549999982,0.18799348049999942
85712.0,0.9141759129999999,1.355082897,14.031452886499999,0.1618670708177101,-0.48116284016530875,0.21244845786975777,14.12634550631268,0.5503207924677117,0.08620045349999994,0.14964947900000003,0.2777243279999997
85722.0,1.3487085745,1.6183914495,14.1618813315,0.12189903094703997,-0.6397068040872217,0.15329401353191394,14.317719390679255,0.6690166093050584,0.43453266150000014,0.26330855250000007,0.1304284450000015
85732.0,1.7628434039999998,1.8530645839999997,13.930836657499999,-0.056632443568712006,-0.7169812567192706,0.14769848795002014,14.163674494898812,0.734223535099516,0.4141348294999998,0.2346731344999997,-0.2310446740000014
85742.0,2.002321797,2.201396792,13.6303609015,-0.36626083418951405,-0.6852721148690376,0.17434442964021757,13.951422103846944,0.7963296115459069,0.23947839300000018,0.3483322080000004,-0.3004757559999991
85752.0,2.1052916219999998,2.327118045,13.173076812,-0.7819424114784995,-0.5104738996233015,0.19139804176145417,13.541701662046764,0.9532317385901242,0.10296982499999974,0.12572125300000003,-0.4572840894999999
85762.0,2.107645218,2.604842373,12.7516850615,-1.1661818822928072,-0.20350888144104282,0.19752763809445825,13.18456840631565,1.2001721606605256,0.002353596000000291,0.2777243279999997,-0.4213917504999998
85772.0,1.9687830539999998,2.7508633915,12.423750685499998,-1.5381639057703587,0.10452253291418441,0.19193211251256442,12.876060624580568,1.553612273611102,-0.1388621640000003,0.14602101849999993,-0.32793437600000175
85782.0,1.713810154,2.615629688,12.262137093499998,-1.8014276248119314,0.3227550119250514,0.1794076298002531,12.654590866894475,1.8388853642325944,-0.25497289999999984,-0.13523370349999997,-0.16161359200000014
85792.0,1.4995348514999998,2.3199591905,12.038251273999999,-1.9016182505226658,0.3960326605700333,0.17967466517580827,12.35112582530075,1.9507118762813493,-0.21427530250000015,-0.29567049749999974,-0.22388581949999953
85802.0,1.481588682,1.921318868,11.7066884375,-1.8592503829305034,0.37205009131837924,0.19113100638589903,11.955464248110966,1.9057188456011356,-0.01794616949999983,-0.39864032250000014,-0.33156283649999807
85812.0,1.5126757624999998,1.6172146514999999,11.242147426999999,-1.7739823223243205,0.3267518159121184,0.22523823062837223,11.45816084552333,1.8178317550471101,0.031087080499999864,-0.3041042165000001,-0.4645410105000014
85822.0,1.4731549629999998,1.3946036965,10.854294419499999,-1.7070995600586458,0.3107645999638503,0.26467569040643607,11.04222859573609,1.7552255597601232,-0.03952079949999998,-0.22261095499999994,-0.3878530075000004
85832.0,1.3774420589999998,1.092853076,10.544208146499999,-1.6687302417828023,0.3075671567741967,0.2891905850799485,10.689808225985242,1.7213045547681374,-0.09571290399999999,-0.3017506205,-0.3100862729999996
85842.0,1.2588796605,0.788846926,10.224609423,-1.646346394125975,0.3096982037908818,0.28332802412249947,10.331974415627473,1.699012712176121,-0.11856239849999972,-0.30400615,-0.3195987234999986
85852.0,1.0817715615,0.6247816715,9.9038339015,-1.630092142802152,0.335811820059221,0.2502871960529948,9.98230974258028,1.6830370325767845,-0.17710809900000002,-0.16406525449999998,-0.3207755214999999
85862.0,0.884167564,0.5290687675,9.7229992755,-1.6197004524357779,0.3840422486088323,0.20898397930454904,9.777442454617013,1.6776746728561993,-0.19760399750000013,-0.09571290399999999,-0.1808346260000011
85872.0,0.6651850695,0.5099457999999999,9.616499056499999,-1.6061113188797498,0.3912364957855529,0.18127338677063506,9.652956541873,1.662985148766971,-0.21898249449999996,-0.019122967500000088,-0.10650021900000084
85882.0,0.636451585,0.3925601995,9.481265353,-1.5970513147326473,0.32248797654949624,0.17674251203245778,9.510708008570061,1.6388438950881836,-0.028733484500000017,-0.11738560049999991,-0.13523370349999908
85892.0,0.6675386655,0.13160524299999998,9.2693436465,-1.5522853647482449,0.1857937895333004,0.1559591312997093,9.294281007524601,1.571124577007341,0.031087080499999975,-0.2609549565,-0.21192170650000008
85902.0,0.6926436895,0.040599530999999994,8.913852583999999,-1.459556021589786,-0.009524261728133056,0.11598934609978716,8.940814923249729,1.4641885193270456,0.02510502400000003,-0.09100571199999999,-0.3554910625000005
85912.0,0.7453053999999999,0.178284897,8.2722034745,-1.3468426584959923,-0.16780293560374282,0.07921700408951864,8.307623966411656,1.3595654841451017,0.0526617104999999,0.137685366,-0.6416491094999994
85922.0,0.9452629935,0.1962310665,7.746665101,-1.2264027228036196,-0.22242650520340934,0.054169783994148006,7.806590097180179,1.2475862912901483,0.19995759350000009,0.017946169499999998,-0.5255383734999999
85932.0,0.7142183195,0.4716017985,7.441384086499999,-1.0857099864711046,-0.17473014740490833,0.05496914479156141,7.490441454752401,1.1010533166083933,-0.23104467399999995,0.275370732,-0.3052810145000002
85942.0,0.5849666725,0.5829072759999999,7.582599846499999,-0.9482146933282433,-0.10518401270069026,0.08801171819031806,7.627436484985718,0.9580818564768907,-0.12925164700000003,0.11130547749999992,0.1412157599999997
85952.0,0.5730025595,0.3674551755,8.007620057499999,-0.8405645303944851,-0.06468190207890985,0.10133381637079078,8.036500122843997,0.8491177895640369,-0.011964112999999998,-0.2154521004999999,0.42502021099999965
85962.0,0.36470931349999997,0.21182364,8.388314210499999,-0.7574275168049871,-0.08786336520389854,0.06536083515793564,8.398910490765616,0.7653028504656607,-0.20829324600000004,-0.1556315355,0.3806941530000003
85972.0,0.11571846999999999,0.39981712049999996,8.555909859,-0.7006711548593836,-0.180060382940499,-0.0001884955592153876,8.566028134992171,0.7234375192697966,-0.24899084349999998,0.18799348049999995,0.16759564850000075
85982.0,0.108461549,0.767272296,8.719877046999999,-0.7110628452257579,-0.32474817793082894,-0.07586422659643753,8.754240480967953,0.7853834285283967,-0.007256920999999986,0.36745517550000006,0.1639671879999991
85992.0,0.4376707895,0.9325143484999999,8.752238992,-0.7915347410474604,-0.44092601958983146,-0.1432793142839705,8.812651479732143,0.9173178091251076,0.3292092405,0.1652420524999999,0.03236194500000167
86002.0,0.5310300975,1.2401489589999999,8.603766311,-0.8850634450033324,-0.517401111424467,-0.18697886809540454,8.708889546851434,1.042114345404898,0.09335930799999997,0.30763461049999996,-0.14847268100000122
86012.0,0.624487472,1.436478092,8.266221417999999,-0.947682367906385,-0.5435147276928062,-0.20243375862181429,8.41331506856143,1.111075855326446,0.09345737450000002,0.1963291330000001,-0.33754489300000046
86022.0,0.6316463265,1.5645529409999999,7.873563152,-0.9769934273643779,-0.5008798247250886,-0.18271502873278236,8.052316417994568,1.1130056323553132,0.007158854499999978,0.12807484899999988,-0.39265826599999887
86032.0,0.705882667,1.4077446075,7.538371855,-0.9865857569333386,-0.36924883786892837,-0.13528396098058448,7.701108065971579,1.0620724599338216,0.07423634050000005,-0.1568083334999999,-0.3351912969999997
86042.0,0.7453053999999999,0.974388744,7.418632658499999,-0.9895161647474371,-0.18139206915977069,-0.08758760318208343,7.5193765755856266,1.0098103343112121,0.03942273299999988,-0.4333558635,-0.1197391965000012
86052.0,0.800418773,0.4129580315,7.595838823999999,-0.9727295880017557,-0.012187634166676405,-0.06440614005709475,7.649050397803434,0.9749356597630944,0.05511337300000008,-0.5614307125,0.17720616550000035
86062.0,0.6879364975,0.1460210185,8.036353541999999,-0.927963638017353,0.047766170968580816,-0.07826230898867773,8.067066196235919,0.9324822301682966,-0.1124822755,-0.266937013,0.4405147179999993
86072.0,0.522694445,0.221434157,8.581014883,-0.8613479111272335,-0.027377234646783054,-0.09931272509698134,8.599770868516652,0.8674864577308063,-0.16524205250000001,0.0754131385,0.5446613410000012
86082.0,0.5884970665,0.25134443949999996,8.8072542985,-0.792868172595984,-0.18911864175834955,-0.08972039552802051,8.83047173728524,0.8200338707333511,0.06580262150000005,0.02991028249999997,0.22623941550000026
86092.0,0.728634095,0.324403982,8.742628474999998,-0.7411732654811639,-0.3418017900520655,-0.0670695124956381,8.778934914886586,0.8189411411409313,0.14013702849999998,0.07305954250000002,-0.0646258235000019
86102.0,0.8530804834999999,0.2764494635,8.461275686499999,-0.7286505280981047,-0.4238724074685949,-0.031897637409448364,8.508663635386819,0.8435738670579916,0.1244463884999999,-0.04795451849999999,-0.28135278849999956
86112.0,0.9309452844999999,0.1160126695,8.190710213,-0.7259854103303093,-0.41454711327518917,0.02299471289502529,8.244261753217192,0.8363210400069968,0.07786480100000004,-0.160436794,-0.2705654734999996
86122.0,0.8818139679999999,-0.1628884565,8.061458565999999,-0.7587609483535108,-0.3476643510095144,0.06562787053349078,8.11118010740457,0.83719513561651,-0.04913131650000002,-0.278901126,-0.12925164700000025
86132.0,0.8854424284999999,-0.450125235,7.9274016605,-0.8133845179531773,-0.2501388430665753,0.08934340440958972,7.989387843149808,0.8556553387714606,0.003628460499999986,-0.2872367785,-0.1340569054999987
86142.0,0.8327807179999999,-0.7434421365,7.8687578935,-0.85628645629645,-0.15741124523736857,0.089875729831448,7.947551869671241,0.875261356496816,-0.052661710500000014,-0.2933169015,-0.0586437670000004
86152.0,0.60408964,-0.8213069375000001,7.850811724,-0.8357683656100047,-0.14435443710319898,0.08934340440958972,7.916736329096531,0.8528359797624016,-0.22869107799999988,-0.07786480100000004,-0.017946169500000053
86162.0,0.4461045085,-0.862004535,7.877093545999999,-0.7505003050038217,-0.1901850379313181,0.1024002125437593,7.936665785032115,0.7809653385347991,-0.1579851315,-0.040697597499999905,0.02628182199999962
86172.0,0.21986509299999998,-0.9038789305,8.005168395,-0.6135390826120706,-0.2528039608343707,0.11758806769461397,8.059035848811481,0.6739191362249334,-0.2262394155,-0.04187439550000005,0.12807484900000077
86182.0,0.016279039,-0.9062325265,8.189533415,-0.4661844245246934,-0.33141009968569124,0.13037784045322842,8.239537605630481,0.5866506227085648,-0.203586054,-0.002353595999999958,0.18436501999999955
86192.0,0.116895268,-1.085792288,8.324865185,-0.36812659115989593,-0.3873671008338815,0.12371766402761805,8.396189001254447,0.5485221219968273,0.100616229,-0.17955976149999997,0.13533177000000052
86202.0,0.282039254,-1.231911373,8.3343776355,-0.36173170478058875,-0.400423908968051,0.0914744514262748,8.429650191013039,0.5473177398737071,0.16514398600000002,-0.14611908500000004,0.009512450499999048
86212.0,0.4819968475,-1.2965371964999999,8.2278774165,-0.43074551406294853,-0.38337029684681445,0.03578448565363974,8.34333844716003,0.5777499561257136,0.19995759349999997,-0.0646258234999999,-0.10650021899999906
86222.0,0.780020941,-1.3647914804999999,8.084209994,-0.5058871743490604,-0.3580560413758887,-0.0313635666583381,8.235626247027811,0.6205720226131538,0.2980240935,-0.068254284,-0.14366742250000009
86232.0,0.9261400259999999,-1.2653520495,7.9393657735,-0.5346659083851949,-0.3399377784109356,-0.07319910882864218,8.092736251871575,0.6377957637940498,0.14611908499999993,0.09943943099999997,-0.14484422050000045
86242.0,0.9033885979999999,-1.0870671525,7.819626576999999,-0.5093516529142692,-0.32235009553858873,-0.06653718707377983,7.946344175579459,0.6064452882857007,-0.022751427999999962,0.17828489699999994,-0.11973919650000031
86252.0,0.81002929,-0.9924329799999999,7.848360061499999,-0.4248829531054996,-0.2623962904033315,-0.017509143056007117,7.952221471098366,0.4996838071697295,-0.09335930799999992,0.09463417250000006,0.028733484500000017
86262.0,0.628017866,-1.0367590379999998,8.165605188999999,-0.31030383304132386,-0.20217544989251915,0.05097234080449439,8.255082303981807,0.373846975200375,-0.18201142400000003,-0.04432605799999989,0.31724512749999967
86272.0,0.4245298785,-1.0882439505,8.5522813985,-0.1965240737745615,-0.189918002555763,0.1194538246649959,8.63168683587792,0.2982612537605508,-0.20348798749999997,-0.05148491250000009,0.3866762095000009
86282.0,0.45689182349999996,-1.259369993,8.756946183999998,-0.12777729986775688,-0.2221612151571062,0.17567786118874124,8.858830023604817,0.3107174838875781,0.03236194499999995,-0.17112604250000008,0.20466478549999856
86292.0,0.5047482755,-1.4593275865,8.868349728,-0.11818497029879602,-0.26452908274926856,0.2001910105330016,9.00177953098485,0.352164398431927,0.04785645200000005,-0.19995759349999997,0.11140354400000163
86302.0,0.616053753,-1.5766151204999999,8.730664361999999,-0.15175812379015896,-0.295171828426533,0.1892669947447691,8.89324112271063,0.3820718934084112,0.11130547749999997,-0.11728753399999992,-0.13768536600000125
86312.0,0.6879364975,-1.6329052914999997,8.4493115735,-0.19146087361452596,-0.28930926746908403,0.1559591312997093,8.633105025521369,0.3803687276899817,0.07188274449999998,-0.05629017099999989,-0.28135278849999956
86322.0,0.7573675794999999,-1.6795849455,8.247000384,-0.20531704254610894,-0.2344186624938624,0.10053445557337737,8.45030334208921,0.32743606099928496,0.06943108199999992,-0.04667965400000029,-0.2023111894999996
86332.0,0.6723439239999999,-1.5335639269999999,8.3356525,-0.17200917910104915,-0.14168931933540366,0.034718089480671205,8.502174267273732,0.2255401663693957,-0.08502365550000002,0.14602101850000015,0.08865211600000045
86342.0,0.6137001569999999,-1.1756212019999999,8.6073947715,-0.12244706433216618,-0.04283212517319284,-0.009248499706317952,8.708958482260625,0.13005156384002256,-0.05864376699999996,0.357942725,0.2717422714999991
86352.0,0.5730025595,-1.0331305775,9.034670512,-0.08008094206925583,0.052562335753061226,-0.015643386085625176,9.111583944834257,0.09705911575293161,-0.040697597499999905,0.14249062449999994,0.4272757405000007
86362.0,0.5130839279999999,-0.9876277214999999,9.4633191835,-0.048637090265325984,0.09706125036190866,0.006740461571202101,9.528539951233153,0.10877447629608443,-0.0599186315000001,0.045502856000000036,0.4286486714999995
86372.0,0.6052664379999999,-1.004397093,9.851172191,-0.056632443568712006,0.08720188541739268,0.04431041904963204,9.920723487635758,0.11302573035050659,0.09218251,-0.01676937150000002,0.3878530075000004
86382.0,0.7932599185,-1.1995494279999999,10.0570137745,-0.0955358325956656,0.04510105320078547,0.07522020010245162,10.159316226449322,0.12968916228050817,0.1879934805000001,-0.19515233499999995,0.20584158349999981
86392.0,0.9225115654999999,-1.2629984534999998,10.161160397499998,-0.13177410385482385,-0.04256508979763771,0.08401316887399905,10.280825516744606,0.16197041044732197,0.12925164699999991,-0.06344902549999998,0.10414662299999833
86402.0,0.9081938565,-1.0762798375,10.0307319525,-0.13204113923037902,-0.16487078246039236,0.09413956919407014,10.129105482346297,0.2312563422836301,-0.014317708999999956,0.18671861599999984,-0.13042844499999795
86412.0,0.904565396,-0.8380763089999999,9.715840421,-0.09793391498790582,-0.23948011732464594,0.11918678928944076,9.793781983569225,0.2848635972528082,-0.003628460499999986,0.23820352850000015,-0.3148915315000007
86422.0,0.8015955709999999,-0.6596933454999999,9.541085918,-0.05370029042536153,-0.23095418392865363,0.15809017831639438,9.597399192708497,0.28498431666677365,-0.10296982500000007,0.17838296349999994,-0.17475450299999906
86432.0,0.763349636,-0.6489060305000001,9.573447862999998,-0.023057544748097087,-0.15341269592104956,0.19885932431372993,9.625730397677874,0.25221446529905484,-0.03824593499999984,0.010787314999999853,0.032361944999998116
86442.0,0.728634095,-0.830819388,9.7781126485,-0.023589870169955358,-0.0486929408013898,0.24602335669037267,9.840358502952464,0.2519027123627718,-0.03471554100000007,-0.18191335749999993,0.2046647855000021
86452.0,0.7070594649999999,-1.1025616594999998,10.040244402999999,-0.0534332550498064,0.035241688256269506,0.276399066992082,10.125318907176124,0.28371382336865997,-0.02157463000000004,-0.27174227149999985,0.2621317544999986
86462.0,0.7142183195,-1.3599862219999999,10.280899594,-0.10193071897497284,0.081873395211054,0.2769331377431923,10.39502606027751,0.3062435094731482,0.007158854500000089,-0.2574245625,0.2406551910000001
86472.0,0.6698922614999999,-1.4234352474999998,10.4473184445,-0.14243282959675324,0.08666955999553441,0.26227760801419586,10.56510228188222,0.31078653002085765,-0.04432605800000011,-0.06344902549999998,0.16641885050000127
86482.0,0.567020503,-1.3540041655,10.628055004,-0.14696195900567852,0.0522953003775061,0.2468227174877861,10.72895114627069,0.2919829955740844,-0.10287175849999997,0.06943108199999992,0.18073655949999967
86492.0,0.5011198149999999,-1.2067082825,10.757306651,-0.11445345635803214,-0.012454669542231536,0.2492207998800263,10.836369887175714,0.2745281762561837,-0.06590068800000004,0.14729588299999996,0.12925164700000025
86502.0,0.48317364549999997,-1.0151844079999999,10.849489161000001,-0.07634942812849195,-0.07747167483752429,0.2748003453972552,10.907587781384507,0.2955441175326107,-0.017946169499999942,0.19152387450000008,0.09218251000000066
86512.0,0.48680210599999996,-0.9409480674999999,10.881851106,-0.05476668659833007,-0.12543506801158047,0.32489653091724846,10.933299732893607,0.3525494320660468,0.003628460499999986,0.07423634049999994,0.032361944999998116
86522.0,0.5035714775,-0.9924329799999999,10.90695613,-0.06542541234025943,-0.14728484491729749,0.38858010466401754,10.963585156074075,0.4206754186577868,0.01676937150000002,-0.05148491249999998,0.025105024000000142
86532.0,0.44845810449999995,-1.1133489745,10.891461623,-0.10006496200459089,-0.1435550763057856,0.44587053736073146,10.957399184833676,0.4789797413675108,-0.05511337300000002,-0.12091599450000012,-0.015494506999999658
86542.0,0.39814998999999995,-1.279767825,10.8782226455,-0.13790195485857598,-0.14408740172764387,0.4754468868650273,10.960477043701667,0.515584979145132,-0.0503081145,-0.16641885049999994,-0.01323897750000036
86552.0,0.3527452005,-1.442558215,10.824384137,-0.15655428857463938,-0.1528803704991913,0.4754468868650273,10.925781222662158,0.5233845576483199,-0.04540478949999993,-0.16279039000000006,-0.05383850850000016
86562.0,0.30243708599999997,-1.4940431275000001,10.7632887075,-0.15362388076054087,-0.15634484906440005,0.4503996667696567,10.870695325452514,0.5009030528905934,-0.050308114500000056,-0.05148491250000009,-0.06109542949999991
86572.0,0.2737036015,-1.429417304,10.687875569,-0.13523858242003262,-0.1310305935934743,0.41576011710532523,10.786511561616006,0.4564153433089996,-0.02873348449999996,0.06462582350000012,-0.07541313850000009
