timestamp,ax,ay,az,gx,gy,gz,acc_mag,gyro_mag,dax,day,daz
123892.0,0.1779906975,-0.4965106895,10.14792142,0.30536804191668393,0.11767707948646568,-0.1537408178204245,10.161619590384158,0.36157125870924334,0.0,0.0,0.0
123902.0,0.8626910005,-0.2283968785,10.040146336500001,0.3133616498908179,0.12753644443098164,-0.17505826930428323,10.079729131022651,0.38092842625905904,0.6847003030000001,0.268113811,-0.1077750834999982
123912.0,0.9081938565,-0.2511483065,10.127621654499999,0.3538637605125983,0.14405773113035997,-0.17212786149018477,10.17136234383278,0.4190467654137529,0.045502855999999925,-0.022751427999999962,0.08747531799999742
123922.0,0.997924704,-0.281058589,10.103595362,0.42554268756275343,0.12620475821170996,-0.1683963475494209,10.156647423452883,0.4747331353522658,0.08973084750000004,-0.02991028250000005,-0.024026292499998547
123932.0,1.06500219,-0.26311241949999997,10.2341218735,0.4905596928580462,0.1288698759795053,-0.16866338292497604,10.29275028025314,0.5345124824844139,0.06707748599999996,0.017946169500000053,0.1305265114999994
123942.0,1.006358423,-0.1038524235,10.376612497999998,0.5028171401948024,0.13792813479735588,-0.17345954770945643,10.425815533331656,0.5494883634199421,-0.05864376699999996,0.15925999599999996,0.14249062449999883
123952.0,0.9141759129999999,0.0577611685,10.49507683,0.46444607658970705,0.1365964485780842,-0.15960337877787348,10.534974685308871,0.509746982669864,-0.0921825100000001,0.161613592,0.11846433200000206
123962.0,0.9297684865,0.146315218,10.620798083,0.41381756564785555,0.12673708363356823,-0.12602847995725855,10.66242137140356,0.4507665069268084,0.015592573500000095,0.0885540495,0.12572125300000003
123972.0,1.0266581885,0.11875853149999999,10.699741615499999,0.3903690671473117,0.14459005655221824,-0.09565276965554924,10.749539583781281,0.4271343411410672,0.09688970199999991,-0.02755668650000001,0.07894353249999853
123982.0,1.112858642,0.050602313999999995,10.751226527999998,0.4090214008633751,0.18908897116106566,-0.0815295653484111,10.808787480916957,0.4579303608682099,0.08620045350000005,-0.06815621749999999,0.051484912499999425
123992.0,1.1847413864999998,-0.0548191735,10.8925403545,0.45591839786446275,0.25757045502156717,-0.08179660072396626,10.956918027852547,0.5299951025257796,0.07188274449999987,-0.1054214875,0.14131382650000113
124002.0,1.1548311039999999,-0.24036099149999998,11.076905374499999,0.5148075521560035,0.32898234669616716,-0.10737614624119514,11.139535042389682,0.620311080810414,-0.02991028249999994,-0.18554181799999997,0.18436501999999955
124012.0,1.1164871025,-0.3325435015,11.329426612,0.5726303102745756,0.3774780652920816,-0.16200146117011366,11.389163094237107,0.7047266388061839,-0.038344001499999836,-0.09218251000000002,0.25252123750000166
124022.0,1.027933053,-0.30498681499999997,11.6586358525,0.6245905074356988,0.3908019088018063,-0.23288102742285538,11.7078372580068,0.7727049934065676,-0.08855404950000012,0.02755668650000004,0.3292092404999991
124032.0,0.9548735104999999,-0.1493552795,12.093168514,0.6818791948031607,0.36468829253346713,-0.29709867192073475,12.131727623408386,0.8283866294632277,-0.07305954250000002,0.15563153549999997,0.43453266150000047
124042.0,0.9632091629999999,0.17504870250000001,12.628317404499999,0.7242470623953229,0.3145938523427259,-0.3450620650947909,12.666207577990015,0.8617255526486222,0.008335652500000013,0.324403982,0.5351488904999986
124052.0,0.970466084,0.5760426209999999,13.025780929,0.7181174660623189,0.21093874806678267,-0.3621156772160275,13.074578323284578,0.8314539158518465,0.007256921000000083,0.4009939184999999,0.3974635245000009
124062.0,1.0111636814999998,0.919667637,13.308310515499999,0.6744179122508849,0.07690967881838212,-0.3221458920161054,13.378317133716694,0.7513538412782895,0.040697597499999794,0.34362501600000006,0.28252958649999904
124072.0,1.06500219,1.0980506005,13.444721017,0.6104673031285607,-0.06964561847158172,-0.24274039236737135,13.531462153474942,0.6606388865696694,0.05383850850000016,0.17838296349999994,0.1364105015000021
124082.0,1.10815145,1.0621582615,13.4722777035,0.5475830901792049,-0.20767323703630128,-0.15640593558821983,13.559441224801006,0.6061668340635022,0.04314926000000008,-0.035892338999999884,0.02755668649999876
124092.0,1.170325611,0.9268264915,13.314292572,0.4964222538154952,-0.31052723518557906,-0.089257883276242,13.39772577991963,0.5923083551683288,0.06217416099999995,-0.13533177000000007,-0.15798513150000026
124102.0,1.225438984,0.814344216,13.117963439,0.44472734670067515,-0.35662487138925336,-0.05754874142600903,13.200220528179836,0.5729533745747045,0.055113372999999966,-0.1124822755,-0.196329132999999
124112.0,1.321151888,0.7389310775,13.0305861875,0.3893026709743432,-0.3433027732087806,-0.04582361951111113,13.118217784376316,0.5210692543469594,0.09571290399999999,-0.07541313849999998,-0.08737725149999953
124122.0,1.3475317765,0.7089227284999999,12.9191826435,0.3146933361100896,-0.3001355448192049,-0.031702160533225,13.008600751032862,0.43602553599358507,0.02637988849999995,-0.030008349000000045,-0.11140354400000163
124132.0,1.3032057185,0.689799761,12.817487683,0.244080805232903,-0.2553695948348023,-0.008253662032681184,12.902021522182617,0.353351372413046,-0.04432605799999978,-0.019122967499999977,-0.10169496049999971
124142.0,1.272118638,0.6251739374999999,12.617530089499999,0.19478572583957515,-0.2116700410233683,0.019992746581595045,12.696897016228574,0.2883494324141465,-0.031087080500000086,-0.06462582350000001,-0.19995759350000064
124152.0,1.329585607,0.5150452579999999,12.5037729495,0.17107019196347623,-0.14185687094359511,0.0343812409350363,12.584808599131645,0.22487874986436895,0.057466969000000034,-0.11012867950000005,-0.11375713999999881
124162.0,1.4301037694999998,0.38216515049999994,12.4547396995,0.15401657984223963,-0.03633775502652194,0.028518679977587343,12.542399609966832,0.1607944477099024,0.10051816249999979,-0.13288010749999996,-0.049033250000000805
124172.0,1.3606726875000001,0.41325223099999997,12.414042101999998,0.11937703017790816,0.06465223148162595,0.032250193918351225,12.495225043158026,0.13953802842745844,-0.0694310819999997,0.03108708050000003,-0.04069759750000124
124182.0,1.1176639005,0.5210273145,12.3649107855,0.07967428035354115,0.12753644443098164,0.04850444524217441,12.426248862400518,0.15800701508541523,-0.24300878700000017,0.10777508349999998,-0.04913131649999869
124192.0,0.9991995684999999,0.6228203415,12.392467471999998,0.053560664085201985,0.1589785509056595,0.059695496405962056,12.448275181729185,0.1780631255382917,-0.11846433200000006,0.10179302700000004,0.02755668649999876
124202.0,0.9022117999999999,0.5677069684999999,12.472685869,0.023184953783492675,0.1786972807946914,0.05836206485743839,12.51815362267515,0.1894106408304014,-0.09698776850000002,-0.05511337300000008,0.08021839700000122
124212.0,0.8746551135,0.47915291899999995,12.554081063999998,-0.02691123173650057,0.16164366867345484,0.036246997905418236,12.59363174183052,0.16782948153690005,-0.027556686499999872,-0.08855404949999995,0.08139519499999892
124222.0,0.8243469989999999,0.5353450235,12.515835129,-0.07593927575427328,0.10568666752526462,0.0026720990848033187,12.554372594648326,0.1301675282403349,-0.05030811450000017,0.05619210450000006,-0.038245934999999065
124232.0,0.936927341,0.6874461649999999,12.43679353,-0.09912248420851395,0.022017328513908467,-0.01091703447122453,12.490966671156256,0.10212350988975247,0.11258034200000011,0.15210114149999987,-0.07904159899999996
124242.0,0.99439431,0.9914523149999999,12.1889794845,-0.10525033521226605,-0.051792645552931726,0.011997393278209022,12.26959732877331,0.11791543003838813,0.057466969000000034,0.30400615,-0.24781404549999841
124252.0,1.074612707,1.221320191,11.807108533499997,-0.12550139052315626,-0.10348580733849977,0.06688974358268268,11.91865040182145,0.1758810653262707,0.080218397,0.22986787600000014,-0.38187095100000334
124262.0,1.1535562394999999,1.323113218,11.419255525999999,-0.17053437588311393,-0.1479847219473472,0.1492256510455152,11.55338553643118,0.27064690321087126,0.07894353249999986,0.10179302700000004,-0.3878530074999986
124272.0,1.317621494,1.256035732,11.079258970499998,-0.20490863550114224,-0.12906709818498066,0.2209045780956703,11.227810627941507,0.3277875796311652,0.1640652545000001,-0.06707748600000007,-0.33999655550000085
124282.0,1.3678315419999998,1.1650300199999999,10.7752528205,-0.23235393798875312,-0.06191730054375084,0.2771286146194156,10.924025421999188,0.36690921717283564,0.05021004799999984,-0.09100571200000007,-0.30400614999999753
124292.0,1.2864363469999998,1.1243324225,10.530969169,-0.2587328443033954,0.015889477510156375,0.3168313644437826,10.668662217428949,0.4093620325728557,-0.08139519500000003,-0.040697597499999905,-0.24428365149999998
124302.0,1.1571847,0.9472243234999999,10.3155170685,-0.29017495077807326,0.08730136918475637,0.35733347506556307,10.423348921505935,0.4685192029394545,-0.1292516469999998,-0.17710809900000013,-0.2154521005000003
124312.0,1.0865768199999999,0.7209849079999999,10.1670443875,-0.3261479319909284,0.12780347980653678,0.37598580878162646,10.250329750828524,0.513878907329142,-0.07060788000000007,-0.22623941549999993,-0.14847268099999944
124322.0,1.0159689399999998,0.5114167975,10.023376964999999,-0.3509298620399959,0.1357970877806708,0.3560017888462914,10.087706667538587,0.5180056860526545,-0.07060788000000007,-0.2095681104999999,-0.14366742250000186
124332.0,0.9309452844999999,0.30430034949999996,9.951592287,-0.3482647442722005,0.10195689891375276,0.3040415916851682,9.999672338237714,0.4734182408965047,-0.0850236554999999,-0.20711644800000006,-0.07178467799999844
124342.0,0.8723015175,0.182207557,9.8198889775,-0.3082949590722784,0.014823081337187842,0.22809882527239092,9.860239807514152,0.3837897596606134,-0.05864376699999996,-0.12209279249999996,-0.13170330950000064
124352.0,0.8950529455,0.2336924695,9.720547612999999,-0.2472747577640526,-0.11254581148560236,0.14602820785586157,9.764465056630046,0.30844059881899194,0.022751428000000073,0.05148491250000001,-0.09934136450000075
124362.0,0.9452629935,0.2803721235,9.509900771,-0.19025310577214588,-0.25936639882186935,0.10232865404442755,9.56087565700877,0.3375475174435689,0.05021004799999995,0.046679654000000015,-0.21064684199999917
124372.0,1.088930416,0.390500803,9.246494152,-0.1321633122780186,-0.3971287273402857,0.1028627247955378,9.318578992046147,0.4309978043373012,0.14366742249999997,0.11012867949999999,-0.2634066189999995
124382.0,1.2649597835,0.45159623249999997,8.855012684,-0.08340055830654904,-0.490922721342461,0.12311378010642801,8.956300131465081,0.5129500699953414,0.17602936749999998,0.061095429499999965,-0.3914814680000003
124392.0,1.4995348514999998,0.47915291899999995,8.503150082,-0.07247654251831652,-0.5213001769734223,0.15322420036183418,8.647644396462308,0.5481645549508417,0.23457506799999983,0.027556686499999983,-0.35186260200000063
124402.0,1.5833817089999997,0.44443737799999994,8.2576896325,-0.10285225282002583,-0.4911897567180162,0.18439927146095692,8.419861060971094,0.5346485334593093,0.08384685749999998,-0.034715541000000016,-0.24546044949999946
124412.0,1.621627644,0.331857036,8.0697942185,-0.15028332057222374,-0.4378961280083693,0.19718904421957134,8.237802136314256,0.5032113020662036,0.038245935000000175,-0.11258034199999994,-0.18789541399999976
124422.0,1.679094613,0.17504870250000001,7.916516279,-0.19451519980551604,-0.3904668055854234,0.18093479289574815,8.094518562788311,0.47226887310058024,0.057466969000000034,-0.15680833349999998,-0.15327793950000057
124432.0,1.8167799789999999,0.12356378999999999,7.8734650854999995,-0.2184977690571701,-0.36408615394152916,0.13510419206762905,8.081300016388571,0.4455930265266077,0.13768536599999992,-0.05148491250000002,-0.043051193500000196
124442.0,1.9328907149999999,0.134351105,7.872190220999999,-0.21956241990088665,-0.3611557461274306,0.09380272064843524,8.107126223956055,0.4329435062391429,0.11611073599999999,0.010787315000000006,-0.001274864500000028
124452.0,1.9113160849999997,0.2217283565,7.7489206305,-0.20011072538740987,-0.4003261705299394,0.09673312846253372,7.984238447005727,0.4578893352857113,-0.02157463000000015,0.0873772515,-0.12326959049999964
124462.0,1.9029804325,0.285177382,7.510717101999999,-0.16813629349087372,-0.4581471833192595,0.13750227445986926,7.753291691401628,0.507026163283373,-0.00833565249999979,0.06344902549999998,-0.2382035285000006
124472.0,1.9388727714999998,0.251638639,7.163561692,-0.12337034350647118,-0.4914550467643193,0.19718904421957134,7.4255751119890885,0.5437203544169117,0.035892338999999884,-0.03353874299999998,-0.34715540999999916
124482.0,2.0275248875,0.1522972745,6.8486701605,-0.0839346290576593,-0.4648091050741218,0.26407180648524603,7.144111882982735,0.5411344057581574,0.088652116,-0.0993413645,-0.3148915314999998
124492.0,2.0634172265,-0.0212804305,6.6044845755,-0.07327590331572993,-0.37767528749755697,0.3218945646038182,6.919346791089216,0.5016214623743488,0.035892339000000106,-0.173577705,-0.24418558500000032
124502.0,2.0167375725,-0.2068222485,6.507496806999999,-0.07940375431948203,-0.24710895148511317,0.3472088200747439,6.815975394022705,0.4334994288828955,-0.04667965400000007,-0.185541818,-0.0969877685000009
124512.0,2.0478246529999997,-0.34686121049999996,6.599679317,-0.0839346290576593,-0.11521092925339768,0.32535729783977496,6.918790761110042,0.3552125440241072,0.031087080499999864,-0.14003896199999996,0.09218251000000066
124522.0,2.090973913,-0.45698989,6.867891194499999,-0.08526631527693097,-0.0035622170033204267,0.26966733206713983,7.193673687616041,0.28284890647674915,0.0431492600000003,-0.11012867950000005,0.26821187749999975
124532.0,2.0382141359999997,-0.4881750369999999,7.1718973445,-0.11297865314009695,0.08703433380920123,0.20092055816033524,7.471863438994741,0.24639038540174912,-0.05275977700000034,-0.031185146999999913,0.3040061500000002
124542.0,1.8670880934999998,-0.5910467954999999,7.406570479,-0.16360541875269646,0.11634539326719401,0.1215150585116012,7.661112224981081,0.23466762244677272,-0.17112604249999985,-0.10287175850000002,0.23467313450000038
124552.0,1.7749055835,-0.6796989115,7.547786239,-0.2137016042726897,0.08250520440027595,0.03944444109507184,7.783402697424277,0.23244644190685124,-0.09218250999999977,-0.088652116,0.1412157599999997
124562.0,1.8059926639999997,-0.5946752559999999,7.606528072499999,-0.23235393798875312,0.03320837967769611,-0.0503544942492884,7.840568696226763,0.24005566869124537,0.031087080499999642,0.08502365550000002,0.058741833499999174
124572.0,1.9149445454999998,-0.37441789699999994,7.642420411499999,-0.21956241990088665,0.001499237827463129,-0.13002702927357757,7.88757194072079,0.2551801957215888,0.10895188150000013,0.22025735899999999,0.035892339000000106
124582.0,1.9928093464999999,-0.050013915,7.703417774499999,-0.19904607454369333,0.0017662732030182616,-0.17026210451980284,7.957162552799453,0.2619382441488709,0.07786480100000004,0.3244039819999999,0.06099736300000025
124592.0,2.1555997365,0.22653361499999997,7.7740256545,-0.18439054481469694,0.030277971863597628,-0.17372658308501157,8.070526784513387,0.255142223607985,0.16279039000000028,0.27654753,0.07060788000000073
124602.0,2.2872049795,0.4145270955,7.938090908999999,-0.19078543119400415,0.09422858098592186,-0.14894465303594406,8.271422284631688,0.2597356654341107,0.13160524299999965,0.18799348050000003,0.16406525449999876
124612.0,2.3446719485,0.4839581775,8.088917186,-0.21476625511640624,0.14325837033294656,-0.12842830767875074,8.4357740193546,0.2883423923400873,0.057466969000000034,0.06943108199999998,0.15082627700000106
124622.0,2.4225367495,0.49229383,8.256512834499999,-0.2547360403163284,0.1723023944153842,-0.11697022113940797,8.618645003943328,0.3290297828323733,0.07786480100000004,0.008335652500000013,0.16759564849999897
124632.0,2.3961568609999997,0.42884480449999995,8.445683113,-0.29950199030073094,0.18029600238951823,-0.1140380679960575,8.78948455906701,0.3677128929260079,-0.02637988850000017,-0.06344902550000003,0.18917027850000068
124642.0,2.3494772069999996,0.34862640749999996,8.4636292825,-0.3376060185302711,0.15071965288522232,-0.11110766018195901,8.790597485370965,0.3860558893020716,-0.04667965400000007,-0.080218397,0.017946169500000053
124652.0,2.3471236109999998,0.2876290445,8.294856836,-0.36398667017416547,0.1171447540646074,-0.0977838166722343,8.625333016312448,0.3946781781050521,-0.002353595999999847,-0.06099736299999997,-0.16877244650000023
124662.0,2.3974317254999997,0.1978001305,8.1966922695,-0.37597708213536646,0.11208155390457186,-0.07833212215875751,8.542398254058446,0.40007119663702617,0.050308114499999945,-0.08982891399999998,-0.0981645664999995
124672.0,2.405767378,0.17504870250000001,8.194240607,-0.36744940341012217,0.12833580522839505,-0.055950019831182224,8.541893106958412,0.3932169219262886,0.008335652500000457,-0.02275142799999999,-0.0024516625000003955
124682.0,2.314761666,0.020593965,8.137950436,-0.34773241885034223,0.15711453926452956,-0.017046630804228618,8.460779100092976,0.3819599471012516,-0.0910057120000003,-0.15445473750000002,-0.05629017099999878
124692.0,2.254941101,-0.1146397385,8.2013994615,-0.30936135524524694,0.18322815553286873,0.02825164460203221,8.506518369210458,0.36065934137614203,-0.05982056499999988,-0.1352337035,0.06344902549999887
124702.0,2.12804305,-0.24634304799999998,8.307997747,-0.2696586054208799,0.17549983760503782,0.08207759873353734,8.579748171368918,0.3320432030486274,-0.12689805099999996,-0.13170330949999998,0.1065982855000005
124712.0,2.0107555159999997,-0.4055049775,8.3367312315,-0.23235393798875312,0.13553005240511568,0.13057331732945177,8.585374753507805,0.2990085931912868,-0.11728753400000036,-0.1591619295,0.028733484500000017
124722.0,1.978393571,-0.5742774239999999,8.311528140999998,-0.20170944698223667,0.08303752982213422,0.1620171691333816,8.563021413036703,0.2717195161464048,-0.03236194499999967,-0.16877244649999995,-0.02520309050000158
124732.0,1.930537119,-0.7514835894999999,8.179922898,-0.1809260662494882,0.03667285824290485,0.16388118077451155,8.438177514745073,0.2468525499002725,-0.047856451999999994,-0.1772061655,-0.1316052429999992
124742.0,1.9317139169999997,-0.8831868989999999,8.0590069035,-0.17213309747794076,0.00016755160819145564,0.13750227445986926,8.33421442166911,0.22031047819504382,0.0011767979999997014,-0.13170330949999998,-0.1209159944999989
124752.0,1.9867292234999998,-0.962228498,7.9763368439999995,-0.16067501093859796,-0.015554374293773465,0.09246928909991158,8.276166149783613,0.18603485460104618,0.05501530650000008,-0.07904159900000007,-0.08267005950000073
124762.0,2.0406657985,-0.9729177465,7.917693076999999,-0.14042395562770776,-0.0038292523788755594,0.037046358702831635,8.23412105231615,0.1452789839620736,0.053936575000000264,-0.01068924849999997,-0.0586437670000004
124772.0,2.1124504765,-0.9382022055,7.991929417499999,-0.1390922694084361,0.03720518366476312,-0.02290919176167757,8.319471510160486,0.1457934023469205,0.07178467799999977,0.03471554099999996,0.07423634049999972
124782.0,2.1639353889999997,-0.8652407295,8.0613604995,-0.15428012455929077,0.08090648280544914,-0.07513467896910389,8.391471324544412,0.18971936057706135,0.05148491249999987,0.07296147600000003,0.06943108200000037
124792.0,2.219048762,-0.7287321615,8.195417404999999,-0.1724001328534959,0.1224732442709461,-0.1124393464012307,8.521742451724007,0.23950805412196438,0.05511337300000019,0.136508568,0.1340569054999996
124802.0,2.207084649,-0.6593010794999999,8.3128030055,-0.17426414449462582,0.1459234881007419,-0.12363039756501833,8.626041639682198,0.25873950536788093,-0.011964112999999887,0.06943108200000003,0.11738560050000046
124812.0,2.174722704,-0.6473369664999999,8.317510197499999,-0.1609420463141531,0.1389945309703244,-0.11030829938454562,8.621452306485663,0.23956156374626963,-0.03236194499999989,0.011964112999999998,0.004707191999999694
124822.0,2.2393485275,-0.7024503394999999,8.267300149499999,-0.14335436344180624,0.12407196586577289,-0.0884585224788286,8.593972892033275,0.20921098544469507,0.06462582349999968,-0.055113372999999966,-0.050210048000000285
124832.0,2.3016207549999996,-0.7910043889999999,8.256512834499999,-0.10844777840191966,0.11581306784533574,-0.0735359573742771,8.60773781138385,0.1748745960710466,0.06227222749999983,-0.08855404950000001,-0.010787314999999964
124842.0,2.2717104724999997,-0.871222786,8.216992034999999,-0.06901206395310779,0.10701835374453632,-0.06341130238345798,8.569635681694129,0.14225535588941773,-0.02991028249999994,-0.08021839700000011,-0.03952079949999998
124852.0,2.2513126404999997,-0.8257199299999999,8.225425754,-0.027176521782803702,0.09156346321812651,-0.05914746302083584,8.567838166226108,0.11234257213767876,-0.020397832000000005,0.04550285600000015,0.008433719000001005
124862.0,2.2321896729999997,-0.7706065569999999,8.2780874645,0.018387043669760263,0.08463625141696103,-0.06021385919380437,8.608323720205421,0.1054850096830825,-0.019122967499999977,0.055113372999999966,0.05266171050000068
124872.0,2.209438245,-0.745501533,8.311528140999998,0.04769810312775303,0.08010712200803574,-0.05754874142600903,8.632432445887366,0.10956330443224928,-0.02275142799999985,0.02510502399999992,0.033440676499997934
124882.0,2.219048762,-0.735891016,8.3618362555,0.0482321738788633,0.07051304710982291,-0.05515065903376882,8.682512226271697,0.1016859262712989,0.00961051700000004,0.00961051700000004,0.05030811450000172
124892.0,2.4333240645,-0.7048039355,8.565324243,0.03570769116655199,0.05345943498858632,-0.06314426700790285,8.93211027574641,0.09011186855076343,0.21427530249999993,0.031087080499999975,0.20348798749999908
124902.0,2.14961768,-0.6473369664999999,8.340261625499998,-0.0066601764256103615,0.007895869536022348,-0.03836233695883536,8.63712135495119,0.03972872515816946,-0.28370638449999985,0.057466969000000034,-0.22506261750000078
