timestamp,ax,ay,az,gx,gy,gz,acc_mag,gyro_mag,dax,day,daz
68142.0,0.568197301,0.2756649315,10.266483818500001,0.293642920001786,-0.15970984386224513,-0.04502425871369772,10.285889816775454,0.33728412735614466,0.0,0.0,0.0
68152.0,0.5706489634999999,0.214569502,10.1095774185,0.27952146102389985,-0.16956920880676107,-0.046357690262221384,10.127943319913342,0.3302044808822778,0.0024516624999999515,-0.06109542949999999,-0.15690640000000045
68162.0,0.939280937,-0.0595263655,10.3178706645,0.2755246570368328,-0.14825175732290233,-0.0588804276452807,10.360706883034135,0.3183697927635161,0.3686319735000001,-0.2740958675,0.20829324599999843
68172.0,0.916529509,-0.0907115125,10.3621967225,0.3066997281359556,-0.1479847219473472,-0.089257883276242,10.403046468951178,0.3520385929063147,-0.022751428000000073,-0.031185146999999996,0.04432605800000111
68182.0,0.88063717,-0.040403398,10.4771306605,0.3458701525384643,-0.1605092046596585,-0.13055935469543584,10.514153372333158,0.4030323960873931,-0.035892338999999995,0.050308114499999994,0.11493393800000007
68192.0,0.9033885979999999,0.0373633365,10.5118462015,0.3775792943886973,-0.1828913069872338,-0.17266018691204305,10.550659578524026,0.4536814894472407,0.022751427999999962,0.07776673449999999,0.03471554099999885
68202.0,0.9895890515,0.178677163,10.523810314499999,0.39756331432403236,-0.20047898985958065,-0.1982414777585239,10.571745151818735,0.48738906201853827,0.08620045350000005,0.14131382650000002,0.011964112999999443
68212.0,1.087753618,0.35107806999999996,10.5489153385,0.4050245968763081,-0.1876892171009662,-0.20143892094817756,10.610658724299242,0.48974463260311046,0.09816456650000005,0.17240090699999996,0.02510502400000192
68222.0,1.1260976194999999,0.49709908849999995,10.592064598499999,0.4074226792685483,-0.15704472609444975,-0.18598403042176775,10.663350121384369,0.4746012485743881,0.038344001499999836,0.1460210185,0.04314925999999808
68232.0,1.146397385,0.6694999955,10.6866007045,0.412752914804139,-0.12187285100826005,-0.15613890021266472,10.768746065616426,0.4578179951157609,0.020299765500000122,0.172400907,0.0945361060000014
68242.0,1.213474871,0.7329490209999999,10.809968361499998,0.4135522756015524,-0.0904289992043302,-0.12522911915984514,10.902529592097618,0.44145806237724305,0.06707748600000007,0.06344902549999998,0.12336765699999752
68252.0,1.2948700659999999,0.722161706,10.9511841215,0.4018271536866545,-0.05259200635034513,-0.10018189906447451,11.051092239250806,0.41745346264228966,0.08139519499999981,-0.010787314999999964,0.14121576000000324
68262.0,1.36312435,0.7209849079999999,11.0923998815,0.3807767375783509,-0.015554374293773465,-0.09138893029292709,11.199074174333694,0.391898965322146,0.06825428400000022,-0.0011767980000000344,0.1412157599999997
68272.0,1.3965650265,0.7197100434999999,11.197821369,0.3466695133358777,0.02015157154352653,-0.08552636933547812,11.307501042758773,0.35763192973211544,0.03344067649999993,-0.001274864500000028,0.10542148749999924
68282.0,1.378618857,0.701763874,11.317462499,0.30163652797592,0.04893030557966103,-0.07326892199872197,11.422697575616663,0.3142405205321901,-0.017946169500000053,-0.017946169499999942,0.11964112999999976
68292.0,1.3475317765,0.700587076,11.3928756375,0.2478123191736669,0.05905670589973213,-0.048488737278906464,11.493662576884555,0.25932565952651426,-0.031087080500000086,-0.0011767979999999234,0.07541313850000009
68302.0,1.2529956704999998,0.779628675,11.449165808499998,0.19638444743440198,0.05186071339375951,-0.01331511686346474,11.543882220973126,0.20355263969035817,-0.09453610600000006,0.07904159899999996,0.05629017099999878
68312.0,1.1500258454999999,0.7927695859999999,11.580869117999999,0.168672109571236,0.02015157154352653,0.026652923007205405,11.664800580809372,0.17194983189207522,-0.10296982499999996,0.013140910999999922,0.13170330950000064
68322.0,1.0841251575,0.7173564475,11.661087515,0.16520937633527924,-0.03953519821617556,0.0623588688445054,11.73332389659397,0.18095800189726466,-0.06590068799999993,-0.07541313849999987,0.08021839700000122
68332.0,1.0698074485,0.6120330265,11.6347076265,0.17266891355830302,-0.11201348606374409,0.08554207729874608,11.699807432455035,0.22288791299247693,-0.014317708999999956,-0.10532342100000003,-0.02637988850000106
68342.0,1.0949124725,0.527009371,11.6011688835,0.1673404233519643,-0.16797048721193428,0.09993057165218733,11.664634227572096,0.25729947728777486,0.02510502399999992,-0.08502365550000002,-0.03353874299999937
68352.0,1.074612707,0.5426019445,11.559294487999999,0.1430925640540071,-0.20527515464406107,0.12257970935531774,11.621811321843433,0.27863803786871505,-0.0202997654999999,0.015592573499999984,-0.041874395500000716
68362.0,1.0434275599999998,0.5485840009999999,11.477899293,0.10871830443597878,-0.2257932453305064,0.14123204307138115,11.538277933009354,0.2876608234473942,-0.03118514700000019,0.005982056499999944,-0.08139519499999892
68372.0,1.0374455034999999,0.5042579429999999,11.386893581,0.06501875062454475,-0.22525917457939615,0.15215780418886565,11.44516992756464,0.27950157609670967,-0.005982056499999944,-0.044326058,-0.0910057119999994
68382.0,1.0027299625,0.432473265,11.280393362,0.014124949636390109,-0.20580748006591934,0.15748629439520434,11.333127322327613,0.2595345178885601,-0.03471554099999996,-0.07178467799999994,-0.10650021900000084
68392.0,0.9596787689999999,0.340290755,11.074453712,-0.02584483556353203,-0.17809514220275338,0.15055908259403886,11.12116478417789,0.23463561654847623,-0.04305119349999997,-0.09218251,-0.20593964999999947
68402.0,0.997924704,0.19897692849999998,10.845860700499998,-0.04236612226291035,-0.14345559253842194,0.12977395653203838,10.893490710859355,0.19802948048238928,0.038245935000000064,-0.14131382650000002,-0.22859301150000277
68412.0,1.0661789879999999,0.030204481999999998,10.6985648175,-0.020516345357193343,-0.08243539123019618,0.0850097518768878,10.751601699255529,0.12017974899400133,0.06825428399999989,-0.16877244649999998,-0.14729588299999818
68422.0,1.1751308695,-0.1373911665,10.648354769500001,0.04157025212400094,-0.013688617323391527,0.01945867583048478,10.713882031748225,0.047896807523624706,0.10895188150000013,-0.1675956485,-0.05021004799999851
68432.0,1.2074928145,-0.2068222485,10.6518851635,0.12017639097532155,0.03720518366476312,-0.050087458873733275,10.722102026931806,0.1354080654016223,0.03236194499999989,-0.069431082,0.003530393999998438
68442.0,1.2410315575,-0.18887607899999997,10.758483448999998,0.2022470083918509,0.06625095307645276,-0.11883423278053791,10.831472643289839,0.2437511355204952,0.03353874300000004,0.017946169500000025,0.10659828549999872
68452.0,1.3043825164999998,-0.09787036699999999,10.952360919499998,0.2542072055529741,0.07877369045951206,-0.1833189126539724,11.03019501500669,0.3231600553909747,0.06335095899999987,0.09100571199999999,0.19387747050000037
68462.0,1.3498853725,0.0338329425,11.0325793165,0.2307587070524303,0.06784967467127956,-0.22009125466424095,11.114906277686343,0.3260265627417306,0.04550285600000015,0.13170330949999998,0.08021839700000122
68472.0,1.413334398,0.214569502,10.995510179499998,0.14522361107069218,0.054792866537109984,-0.2198242192886858,11.088047542252271,0.26910006098409833,0.06344902549999998,0.1807365595,-0.03706913700000136
68482.0,1.4325554319999998,0.377359892,10.967953493,0.057557468072269004,0.053194144942283174,-0.192378916801075,11.067548029191192,0.20773090000427435,0.01922103399999986,0.16279038999999998,-0.02755668649999876
68492.0,1.4312805675,0.44796777199999993,11.076905374499999,0.019186404467173665,0.045732862390007414,-0.1521420962255977,11.177972618649624,0.1600213431473451,-0.001274864499999806,0.07060787999999996,0.10895188149999946
68502.0,1.387052576,0.5186737185,11.0684716555,0.01518960048010665,0.016154767556459514,-0.10657678544378174,11.167094611556658,0.10885913683783452,-0.0442279914999999,0.07070594650000006,-0.008433718999999229
68512.0,1.366654744,0.643120107,11.046995091999998,0.019985765264587067,-0.013955652698946658,-0.06074618461566264,11.149773505502138,0.06545448801132708,-0.020397832000000005,0.1244463885,-0.021476563500002044
68522.0,1.2924184035,0.631155994,11.0182616075,0.0311785617576267,-0.039268162840620416,-0.019710003242771963,11.111741180831027,0.05387555618257417,-0.07423634050000016,-0.011964112999999998,-0.02873348449999824
68532.0,1.308010977,0.5868299359999999,10.9643250325,0.04876449930072157,-0.07790626182127089,0.009066985464110541,11.057652802834985,0.09235568335744626,0.015592573499999984,-0.04432605800000011,-0.05393657499999982
68542.0,1.4061755434999998,0.5904583965,11.0565075425,0.07594451174202926,-0.1354619845642879,0.026652923007205405,11.161197508085513,0.1575687038426686,0.09816456649999994,0.003628460500000097,0.09218251000000066
68552.0,1.491199199,0.6969586154999999,11.001492235999999,0.08100596657281282,-0.20074427990588378,0.050103166837001216,11.123949738361198,0.22219486911813213,0.08502365550000013,0.10650021899999995,-0.055015306500001415
68562.0,1.5654355395,0.8394492399999999,10.797906182,0.03464129499358345,-0.25803471260259764,0.09140463825619503,10.943036204369427,0.2759288678654038,0.07423634049999994,0.14249062449999994,-0.20358605399999874
68572.0,1.6923335904999999,0.874164781,10.4771306605,-0.05009269486148925,-0.27855280328904297,0.14283076466620795,10.648869607759528,0.3170198253008859,0.12689805099999996,0.03471554100000007,-0.3207755214999999
68582.0,1.8204084394999998,0.7497183924999999,10.132328846499998,-0.13775883785991241,-0.24870767307993996,0.18786375002616565,10.321824083381367,0.3407723472220796,0.12807484899999988,-0.1244463885,-0.344801814000002
68592.0,1.8239388334999997,0.668225131,9.7624220085,-0.2027758431552052,-0.16956920880676107,0.21770713490601667,9.953801342507017,0.3424443834137769,0.0035303939999999923,-0.08149326149999991,-0.3699068379999986
68602.0,1.8659112955,0.573689025,9.629541901,-0.2339526595835799,-0.05099328475551833,0.22516841745829244,9.82541710479482,0.3286867478878022,0.041972462000000155,-0.09453610600000006,-0.13288010750000012
68612.0,1.886211061,0.36902423949999996,9.652293328999999,-0.25420371489447013,0.06385287068421255,0.2249013820827373,9.84178528342471,0.3453655301611457,0.020299765500000122,-0.2046647855,0.022751427999999407
68622.0,1.7772591795,0.3258749795,9.645134474499999,-0.2789838996142856,0.13686348395363934,0.22676713905311927,9.81292330167568,0.384690739215618,-0.10895188150000013,-0.04314925999999997,-0.007158854500000089
68632.0,1.7856928985,0.25046184099999996,9.6582753855,-0.30110071189555776,0.16404175106569502,0.2366265039976352,9.825157183664066,0.4166094540344158,0.008433719000000117,-0.07541313850000003,0.013140911000000699
68642.0,1.7533309535,0.12601545249999999,9.797137549499999,-0.2920407077484552,0.1248713266631863,0.26034203787373417,9.953589980031971,0.41068065438865226,-0.032361945000000114,-0.12444638849999998,0.13886216399999896
68652.0,1.6815462755,0.13072264449999998,9.8785327445,-0.24274562835512734,0.008161159582325486,0.30457391710702647,10.021481700357073,0.38956041327780166,-0.07178467799999999,0.004707191999999999,0.0813951950000007
68662.0,1.4852171425,0.1630845895,9.733688524,-0.16653757189604693,-0.16743641646082402,0.3663934792126656,9.847698148600896,0.43590583618464607,-0.19632913299999988,0.032361945,-0.14484422049999957
68672.0,1.4397142864999999,0.17985396099999998,9.398497227,-0.07647334650538354,-0.3483659733688162,0.41808664099823367,9.509830429611576,0.5495484178014901,-0.04550285600000015,0.01676937149999999,-0.3351912969999997
68682.0,1.630061363,0.155925735,8.896985146,-0.014920819775299523,-0.44775549295288525,0.4332762414783403,9.046422363018728,0.6232462705559058,0.19034707650000016,-0.02392822599999997,-0.5015120809999996
68692.0,1.9245550624999999,0.044620257499999996,8.3845876835,-0.026377160985390304,-0.4099185000989002,0.3999683780332805,8.602744549169971,0.5733268132326923,0.2944936994999998,-0.11130547750000001,-0.512397462500001
68702.0,2.187863615,-0.0775706015,8.057830105499999,-0.11537673553233714,-0.2503063946747668,0.32535729783977496,8.34993355693086,0.426406441760416,0.26330855250000007,-0.122190859,-0.3267575780000005
68712.0,2.2584714949999998,-0.1254270535,7.867483028999999,-0.24461138532550927,-0.033939672634281735,0.2249013820827373,8.186190484656475,0.3340168601614481,0.07060787999999985,-0.047856451999999994,-0.19034707650000016
68722.0,2.3076028115,-0.0907115125,7.854244051499999,-0.37730876835463817,0.18296112015731358,0.11511842680304198,8.18672150098352,0.434843569983644,0.04913131650000002,0.034715541,-0.013238977499999471
68732.0,2.300443957,-0.0775706015,8.044591128,-0.4817614880987428,0.36655404950384907,0.011198032480795617,8.367407365140723,0.6054596588991097,-0.007158854499999645,0.013140910999999991,0.19034707650000104
68742.0,2.245330584,0.007453054,8.2780874645,-0.5459791325966221,0.4800667733950563,-0.06794043179238327,8.577196339677188,0.7301871146637934,-0.05511337300000019,0.0850236555,0.2334963365
68752.0,2.1699174455,0.10081236199999999,8.503150082,-0.5630327447178587,0.5115088798697341,-0.12363039756501833,8.7762330284487,0.7706696315621889,-0.07541313850000009,0.09335930799999999,0.225062617499999
68762.0,2.093327509,0.201428591,8.606021840499999,-0.5473125641451458,0.49152485993439904,-0.14867936298964096,8.859244067998768,0.7505020211722753,-0.07658993650000001,0.100616229,0.10287175849999919
68772.0,2.0490014509999996,0.29478789899999996,8.6287732685,-0.5203995870793933,0.45608420414340217,-0.14228273128108174,8.873614538099856,0.7064509233643397,-0.044326058000000224,0.09335930799999997,0.022751428000001184
68782.0,2.0190911684999997,0.3917756675,8.562970646999998,-0.5030789395826015,0.4182472112894171,-0.11297341715234097,8.806513704170529,0.6639142581583906,-0.02991028249999994,0.09698776850000002,-0.06580262150000138
68792.0,2.050178249,0.38814720699999994,8.5018752175,-0.5028136495362984,0.3969297598055584,-0.07033851418462347,8.754185931365365,0.6444550464982102,0.031087080500000308,-0.0036284605000000414,-0.06109542949999813
68802.0,2.0538067095,0.273213269,8.534237162499998,-0.5004138218148062,0.37961085763801866,-0.022642156386122436,8.782139342787776,0.6285149668431025,0.003628460499999875,-0.11493393799999996,0.032361944999998116
68812.0,1.942501232,0.157102533,8.6838866415,-0.4687064252938252,0.33884171164068316,0.029051005399445617,8.899880866877863,0.5790884039367588,-0.11130547749999997,-0.11611073599999999,0.1496494790000007
68822.0,1.8790522065,0.099635564,8.7317430935,-0.4194096005712454,0.28021959272469754,0.08634143809615949,8.932194685028483,0.5117443474339897,-0.06344902549999998,-0.05746696899999999,0.047856452000001326
68832.0,1.8371778109999999,-0.0548191735,8.6982043505,-0.37331196436757114,0.22799236018801927,0.13563651748948732,8.890274819940668,0.45797336595129,-0.04187439550000005,-0.1544547375,-0.03353874300000115
68842.0,1.8204084394999998,-0.19240647299999997,8.6275964705,-0.3458666618799603,0.19361984589924294,0.16921141631010225,8.819655775325883,0.43098131738592116,-0.01676937150000013,-0.13758729949999998,-0.07060787999999896
68852.0,1.7305795254999998,-0.29900475849999997,8.5354139605,-0.3357402615598892,0.17017134739869913,0.19265991481064607,8.714218313582908,0.42284471556664505,-0.08982891399999993,-0.1065982855,-0.09218251000000066
68862.0,1.6983156469999998,-0.44747743949999996,8.4551955635,-0.3261479319909284,0.16191070404900995,0.2022522443796069,8.63567276549642,0.4165255334120509,-0.03226387850000001,-0.148472681,-0.08021839699999944
68872.0,1.7078280975,-0.6150730879999999,8.432444135499999,-0.3122917630593454,0.16643983345793525,0.1851986322583703,8.625607561935603,0.39940818322436844,0.009512450500000158,-0.16759564849999997,-0.022751428000001184
68882.0,1.691058726,-0.7192197109999999,8.421656820499999,-0.2957722216892191,0.1770985591998646,0.15029204721848372,8.619817875671494,0.3760755326404091,-0.016769371499999908,-0.104146623,-0.010787314999999964
68892.0,1.6779178149999998,-0.6951934184999999,8.4300905395,-0.2893755899806598,0.19868304605927847,0.11671889372712078,8.623521820415803,0.3699141589895299,-0.013140911000000255,0.02402629249999999,0.008433719000001005
68902.0,1.6850766695,-0.7096091939999999,8.437249394,-0.2893755899806598,0.2213321837624089,0.09673312846253372,8.633087855851805,0.3769396049605835,0.007158854500000089,-0.01441577549999995,0.007158854500000089
68912.0,1.6779178149999998,-0.6832293054999999,8.489911104499999,-0.2781845388168722,0.2330555603480548,0.09007120670767137,8.681059903036079,0.3739175766444763,-0.007158854500000089,0.02637988849999995,0.052661710499998904
68922.0,1.6408486779999998,-0.6832293054999999,8.4444082485,-0.26432836988528924,0.2197334621675821,0.0988641754792188,8.62943899308195,0.3576680118707183,-0.03706913700000003,0.0,-0.045502855999998815
68932.0,1.6383970154999998,-0.73353742,8.4193032245,-0.24008051058733199,0.21360386583457802,0.11218801898894351,8.608547421778871,0.34036952664422526,-0.0024516624999999515,-0.050308114500000056,-0.025105024000000142
68942.0,1.6599716455,-0.8340555825,8.4049855155,-0.22356096921720567,0.22612834854688935,0.11485313675673885,8.607841546771652,0.33808989928233885,0.02157463000000015,-0.10051816250000001,-0.014317709000000178
68952.0,1.608486733,-0.9227076984999999,8.3845876835,-0.21716433750864647,0.24637940385777954,0.11005697197225843,8.58719568249193,0.34637508168254055,-0.05148491250000009,-0.08865211599999989,-0.02039783200000045
68962.0,1.50434011,-1.047154087,8.4791237895,-0.19984543534110671,0.2639653414008744,0.09620080304067545,8.674970379554068,0.34477600553580795,-0.10414662299999988,-0.12444638850000012,0.09453610599999962
68972.0,1.437262624,-1.092656943,8.589252469,-0.16813629349087372,0.2562387688022955,0.07035422214789142,8.776951693022815,0.3144484638222937,-0.06707748600000007,-0.045502855999999925,0.11012867950000071
68982.0,1.3691064065,-1.08069283,8.643189044,-0.1390922694084361,0.21999875221388523,0.04583932747437907,8.817429681911525,0.2642865004652315,-0.0681562174999999,0.011964112999999887,0.05393657499999982
68992.0,1.3774420589999998,-1.0303847154999999,8.597686188,-0.12177162191164438,0.18056303776507335,0.02638763296090227,8.768081151264749,0.2193801396736338,0.00833565249999979,0.05030811450000017,-0.045502855999998815
69002.0,1.4038219475,-1.0699055149999999,8.562970646999998,-0.10551737058782118,0.15418238612117907,0.0165282680163863,8.742990344996024,0.18756147613358518,0.02637988850000017,-0.03952079949999998,-0.0347155410000024
69012.0,1.446873141,-1.047154087,8.4049855155,-0.08979544468585626,0.1504526175096672,0.00853466004225227,8.59265704446726,0.1754196466302384,0.04305119349999997,0.02275142799999985,-0.1579851314999985
69022.0,1.4624657145,-1.0292079175,8.357030997,-0.08606567607434437,0.17496751218317955,0.004537856055185257,8.546229694336064,0.1950423622069899,0.015592573499999984,0.017946169500000053,-0.04795451849999921
69032.0,1.39058297,-1.0148902085,8.36899511,-0.08366759368210418,0.2042785716411723,0.009066985464110541,8.544226254200382,0.22093485757054643,-0.07188274449999987,0.014317708999999956,0.011964112999999443
69042.0,1.2829059529999998,-1.0723571775,8.481575452,-0.07274183256461966,0.20587729323599913,0.01706059343824457,8.644820400005289,0.21901574811758584,-0.10767701700000032,-0.057466969000000034,0.11258034199999933
69052.0,1.2433851535,-1.147770316,8.643189044,-0.04956036943963098,0.17576687298059296,0.017594664189354837,8.807275412325685,0.1834660624320061,-0.03952079949999976,-0.07541313849999987,0.16161359200000014
69062.0,1.2792774925000001,-1.205237285,8.6144555595,-0.03623652592990627,0.13819517017291102,0.003471459882216721,8.791927684107263,0.14290920860568238,0.035892339000000106,-0.057466969000000034,-0.028733484500000017
69072.0,1.3390980575,-1.232695905,8.497168025499999,-0.039168679073256746,0.1312679583717455,-0.021308724837598773,8.689912960173054,0.1386344981223454,0.05982056499999988,-0.02745861999999999,-0.1172875340000008
69082.0,1.3498853725,-1.2255370504999998,8.4096927075,-0.04956036943963098,0.15418238612117907,-0.05195321584411521,8.605060314467085,0.1700810837381932,0.010787314999999964,0.007158854500000089,-0.08747531799999919
69092.0,1.3116394375,-1.2423064219999997,8.4767701935,-0.04982740481518612,0.17390111601021102,-0.07406828279613537,8.667142330293059,0.19547500847060115,-0.03824593499999995,-0.016769371499999908,0.06707748600000052
69102.0,1.3187982919999999,-1.2351475675,8.632401729,-0.02531251014167376,0.156048143091561,-0.08312828694323793,8.819477198753079,0.17861147281771667,0.007158854499999867,0.007158854499999645,0.15563153549999953
69112.0,1.2769238964999998,-1.1812109924999998,8.705461271499999,0.017587682872346858,0.09849242034854401,-0.07406828279613537,8.877547521463457,0.12448370966235225,-0.04187439550000005,0.053936575000000264,0.07305954249999935
69122.0,1.2996753245000001,-1.128549282,8.6611352135,0.06688450759492669,0.045732862390007414,-0.05754874142600903,8.830517686837311,0.09938254222104004,0.022751428000000296,0.05266171049999979,-0.044326057999999335
69132.0,1.3702832044999997,-1.136983001,8.5569885905,0.09539620625550606,0.02787988947135742,-0.04209385089959924,8.740278035797541,0.10793339005347627,0.07060787999999962,-0.008433718999999895,-0.1041466230000001
69142.0,1.4252985109999998,-1.125018888,8.558165388499999,0.10552086124632516,0.043334779997767206,-0.029836403562843065,8.748676366213058,0.11790999233816414,0.05501530650000008,0.011964112999999887,0.0011767979999994793
69152.0,1.4252985109999998,-1.0639234585,8.6013146485,0.11165045757932926,0.06065542749455893,-0.019177677820913692,8.783280859309128,0.12850170772726743,0.0,0.06109542950000013,0.04314926000000163
69162.0,1.4289269715,-0.9813514655,8.700656013,0.12204214794570349,0.07051304710982291,-0.0029234264970905022,8.871657006741875,0.1409784455524921,0.003628460500000097,0.08257199299999995,0.09934136449999897
