timestamp,ax,ay,az,gx,gy,gz,acc_mag,gyro_mag,dax,day,daz
167622.0,-1.3591036234999998,-0.1050292215,10.794375787999998,0.28591634740320704,0.024415410906148675,-0.08419468311620645,10.880107648793752,0.29905353144068686,0.0,0.0,0.0
167632.0,0.1587696635,0.054132707999999995,11.2038034255,0.3066997281359556,-0.05685584571296728,-0.1047127738026518,11.20505909638003,0.32903202796665726,1.5178732869999998,0.1591619295,0.4094276375000021
167642.0,0.9991995684999999,0.097281968,11.4168038635,0.357061203702252,-0.07390945783420387,-0.10231469141041158,11.46085834554363,0.37871309354847343,0.8404299049999999,0.04314926,0.2130004379999999
167652.0,1.0901072139999999,0.2768417295,11.4599531235,0.4332692601613323,-0.05605648491555388,-0.10444573842709666,11.51501197020762,0.44919204531850015,0.09090764549999997,0.17955976150000003,0.043149259999999856
167662.0,1.1296280134999999,0.365395779,11.583222714,0.4998849870514519,-0.035805429604663666,-0.09671916582851776,11.643909221834413,0.5104131915489343,0.03952079949999998,0.08855404949999995,0.12326959049999964
167672.0,1.1535562394999999,0.328326642,11.7280669345,0.5385230860321024,-0.011555824977454457,-0.08739212630586007,11.789234258494002,0.5456904204956398,0.023928225999999997,-0.037069136999999974,0.14484422049999957
167682.0,1.1344332719999999,0.3115572705,11.827408298999998,0.5553096627777838,0.008428194957880617,-0.08872381252513174,11.885772749496605,0.5624160123552838,-0.019122967499999977,-0.01676937150000002,0.09934136449999897
167692.0,1.0422507619999999,0.31038047249999995,11.9124319545,0.543851576238441,0.02734756404949915,-0.09432108343627757,11.961967135851511,0.55264716865019,-0.09218251,-0.0011767980000000344,0.08502365550000235
167702.0,0.9440861954999998,0.24212618849999998,11.999809206,0.5294630818849998,0.019352210746113128,-0.1156367895908843,12.039324931909329,0.5422891574121784,-0.09816456650000005,-0.06825428399999997,0.08737725149999953
167712.0,0.9728196799999999,0.1522972745,12.1746617755,0.5363902936861653,0.00922755575529402,-0.16280082196752707,12.214416152130902,0.5606280429832691,0.028733484500000017,-0.08982891399999998,0.1748525695000005
167722.0,0.9932175119999999,0.12356378999999999,12.336177301,0.5723632748990204,0.01162563814753423,-0.2251527094950245,12.376712788056862,0.6151655196029926,0.020397832000000005,-0.028733484500000003,0.1615155254999987
167732.0,0.928493622,0.2409493905,12.4643502165,0.6304513230638957,-0.003029891581462156,-0.28883802857104557,12.501207275077098,0.6934734729928898,-0.0647238899999999,0.1173856005,0.12817291550000043
167742.0,0.9058402604999999,0.49464742599999995,12.5588863225,0.6896075127309915,-0.03340734721242346,-0.3405311903566136,12.601224080027649,0.7698285939535426,-0.02265336150000008,0.2536980354999999,0.09453610599999962
167752.0,0.8914244849999999,0.7293205605,12.6618561475,0.7215819446275277,-0.061117939746337425,-0.36717713204681107,12.714131790744073,0.8119328492365626,-0.01441577549999995,0.2346731345000001,0.10296982500000063
167762.0,0.8818139679999999,0.9962575735,12.607919572499998,0.7058617640548147,-0.08323475202760958,-0.36104928104305894,12.677924158691933,0.7971984929999444,-0.00961051700000004,0.26693701299999995,-0.053936575000001596
167772.0,0.857885742,1.269176643,12.576832492,0.6435081311980653,-0.08589986979540493,-0.33733374716696,12.66978661340792,0.7316252862815749,-0.023928225999999886,0.2729190695,-0.031087080499998976
167782.0,0.8052240315,1.4787447535,12.5684968395,0.5505134979933034,-0.08136899505722764,-0.29896268356186473,12.680780125506095,0.6317156884168366,-0.052661710500000014,0.20956811050000002,-0.008335652499999568
167792.0,0.7309876909999999,1.522972745,12.5037729495,0.4362014133046828,-0.09069603457988534,-0.23954294917771773,12.617374012014318,0.505844114484173,-0.07423634050000005,0.0442279914999999,-0.06472388999999978
167802.0,0.659203013,1.4259849765000001,12.343434221999999,0.3248197364301607,-0.11441156845598428,-0.1675969867520075,12.443004064870859,0.38299689050887875,-0.07178467799999999,-0.0969877684999998,-0.160338727500001
167812.0,0.624487472,1.1937635045,12.242817993000001,0.25927040571300963,-0.13759303158097297,-0.1148374287934709,12.316722304131309,0.31518347144183617,-0.03471554099999996,-0.2322214720000002,-0.10061622899999811
167822.0,0.6137001569999999,0.9364370085,12.070515152499999,0.23688655805618236,-0.17996089917313532,-0.09938253826706112,12.122329734845621,0.3136527626712577,-0.010787315000000075,-0.2573264959999999,-0.17230284050000222
167832.0,0.5778078179999999,0.838272442,11.882521672,0.2464788876251432,-0.2396476689328374,-0.1132387071986441,11.926059024133169,0.36194730566463823,-0.035892338999999995,-0.09816456650000005,-0.18799348049999942
167842.0,0.5981075835,0.759230843,11.725713338499999,0.2696620960793839,-0.29347362306434255,-0.13802063724771158,11.765479907384972,0.42177495160654466,0.020299765500000122,-0.07904159899999996,-0.15680833350000078
167852.0,0.6460621019999999,0.668225131,11.534189464,0.2931105945799277,-0.3467672517739894,-0.16093506499714513,11.57157930693945,0.48172756066424044,0.047954518499999876,-0.09100571199999996,-0.19152387449999786
167862.0,0.6663618674999999,0.6610662764999999,11.250483079499999,0.3090978105281958,-0.38833401323948635,-0.16972977909794457,11.28957112925462,0.5245502456625553,0.02029976550000001,-0.007158854500000089,-0.2837063845000021
167872.0,0.715493184,0.65508422,10.955989379999998,0.315492696907503,-0.40219018217106933,-0.18624932046807088,10.998853082313456,0.5440417206534676,0.04913131650000002,-0.005982056499999944,-0.29449369950000026
167882.0,0.808852492,0.641943309,10.6877775025,0.3059003673385422,-0.38300552303314767,-0.204369328762276,10.737547276204635,0.5310697580831479,0.09335930800000003,-0.013140911000000033,-0.26821187749999886
167892.0,0.8603374045,0.7185332455,10.5249871125,0.2856493120276519,-0.33584149065650487,-0.21236293673641005,10.584508689247775,0.48937005753066526,0.05148491249999998,0.07658993650000001,-0.16279038999999962
167902.0,0.924963228,0.7987516424999999,10.435256265,0.2701944215012422,-0.28681170130948014,-0.2230216624783394,10.506575773094218,0.45277438018623767,0.06462582350000001,0.08021839699999989,-0.08973084750000027
167912.0,0.9692892859999999,0.81787461,10.311888608,0.24274911901363133,-0.2529715124425621,-0.218225497693859,10.389585519232094,0.41296983997999653,0.04432605799999989,0.019122967500000088,-0.1233676569999993
167922.0,1.0003763665,0.8705363205,10.206565186999999,0.17613339212351176,-0.23698429649429406,-0.1886474028603111,10.29235440880471,0.3503888856852779,0.031087080500000197,0.052661710500000014,-0.10532342100000136
167932.0,1.0734359089999999,0.9484011215,10.205388389,0.09885893949146282,-0.23778365729170747,-0.15027808458446776,10.305420006400958,0.2981571067386678,0.0730595424999998,0.07786480100000004,-0.0011767979999994793
167942.0,1.1415921265,0.933985346,10.168319252,0.026914722395004555,-0.25163982622329045,-0.10577742464636834,10.274739783586899,0.2742915747669004,0.06815621750000012,-0.01441577549999995,-0.037069136999999586
167952.0,1.1967054995,0.9160391765,10.080843933999999,-0.051426126410012915,-0.2772193717405193,-0.06634171019755646,10.19287232565389,0.2896488374871949,0.055113372999999966,-0.017946169500000053,-0.08747531800000097
167962.0,1.189546645,0.8226798685,10.018669773,-0.1204399356923727,-0.314258749126343,-0.03543192914473688,10.1225277182673,0.3384076847752638,-0.007158854499999867,-0.09335930800000003,-0.06217416099999973
167972.0,1.2410315575,0.689799761,10.004253997499998,-0.15827692854635778,-0.3726138326667734,-0.020509364040185368,10.104507958504522,0.4053557553779444,0.05148491249999987,-0.1328801075,-0.014415775500001615
167982.0,1.3199750899999998,0.5725122269999999,9.829499494499998,-0.1638724541282516,-0.46400974427670844,-0.01811128164794516,9.934242034531911,0.4924299366698612,0.07894353249999986,-0.11728753400000003,-0.17475450299999906
167992.0,1.5378788529999998,0.47915291899999995,9.4739103655,-0.15987565014118457,-0.544481640098411,-0.027705356546157987,9.609871825358502,0.5681444065496657,0.21790376300000003,-0.09335930799999997,-0.3555891289999984
168002.0,1.7880464944999999,0.49464742599999995,9.065757592499999,-0.1638724541282516,-0.5732603741345454,-0.04662298030852453,9.253634262737723,0.598042924937453,0.25016764150000004,0.01549450699999999,-0.4081527730000012
168012.0,1.9735883125,0.598794049,8.676727786999999,-0.17186606210238564,-0.5412841969087574,-0.06341130238345798,8.918475779529388,0.5714433641190576,0.18554181800000014,0.10414662300000005,-0.3890298054999999
168022.0,2.1555997365,0.664694737,8.366641514,-0.18998607039659077,-0.4642767796522636,-0.07193723577945027,8.665397829366091,0.5067766776012913,0.18201142400000014,0.06590068800000004,-0.3100862729999996
168032.0,2.2968154965,0.641943309,8.213363574499999,-0.20890543948820928,-0.34703254182029253,-0.06767339641682814,8.552589891012886,0.41067353982525356,0.1412157599999997,-0.022751428000000073,-0.15327793950000057
168042.0,2.4560754925,0.6047761054999999,8.209833180499999,-0.21290224347527628,-0.22472684915753788,-0.071404910357592,8.590658986031373,0.3176919628071449,0.1592599960000003,-0.03716720350000002,-0.0035303940000002143
168052.0,2.4368544584999996,0.5318146295,8.334279569,-0.19451519980551604,-0.13439558839131938,-0.07779979673689924,8.699500122783627,0.2488998704433805,-0.019221034000000525,-0.07296147599999991,0.12444638850000089
168062.0,2.3758570955,0.5485840009999999,8.401357055,-0.16040797556304284,-0.11974005866232297,-0.09218829109034049,8.748053595514213,0.22037940304585554,-0.060997362999999805,0.016769371499999908,0.06707748600000052
168072.0,2.3878212085,0.5329914275,8.3726235705,-0.1342961046239557,-0.13865942775394152,-0.1140380679960575,8.722763062174913,0.22420205524145495,0.011964113000000332,-0.015592573499999984,-0.028733484500000017
168082.0,2.3889980064999996,0.5653533725,8.309174545,-0.12310330813091605,-0.16477304402228066,-0.12949295852246728,8.664255163032426,0.2430493917211996,0.0011767979999994793,0.032361945,-0.06344902550000064
168092.0,2.2728872705,0.6502789614999999,8.166683920499999,-0.11910650414384903,-0.19648218587251365,-0.12203167597019153,8.501976566041787,0.2601602172406526,-0.11611073599999955,0.08492558899999991,-0.1424906245000006
168102.0,2.1436356235,0.7449131339999999,7.935639246499999,-0.11964057489495929,-0.2436462182491564,-0.09831788742334457,8.253753056285062,0.2886931828355172,-0.12925164700000025,0.09463417250000006,-0.23104467399999962
168112.0,2.185510019,0.7065691325,7.626827838,-0.12470202972574285,-0.2764200109431059,-0.07593403976651729,7.965186554792231,0.3126093361733937,0.04187439550000027,-0.03834400149999995,-0.30881140849999955
168122.0,2.4237135475,0.6849945024999999,7.3969599619999995,-0.13935755945473924,-0.22312812756271108,-0.05861513759897757,7.814001632212607,0.2695225872586001,0.2382035284999997,-0.02157463000000004,-0.22986787600000014
168132.0,2.54580634,0.6922514234999999,7.296441799499999,-0.15907628934377116,-0.09096306995544047,-0.054084262860800286,7.758763102944487,0.19106190990434932,0.12209279250000016,0.007256920999999972,-0.10051816250000023
168142.0,2.5673809699999994,0.6994102779999999,7.395783164,-0.18865438417731908,0.0595890313215904,-0.0580810668478673,7.859912747034539,0.2061910270825465,0.021574629999999484,0.007158854499999978,0.09934136450000075
168152.0,2.5266833725,0.7723717539999999,7.583776644499999,-0.2246256200609222,0.17097070819611251,-0.07646811051762757,8.030837763577887,0.2924637142877217,-0.04069759749999946,0.07296147600000003,0.18799348049999942
168162.0,2.5218781139999997,0.8226798685,7.7381333155,-0.2707232562645964,0.2245296269520625,-0.11723551118571111,8.180182063765965,0.37074087978629183,-0.004805258500000242,0.050308114500000056,0.1543566710000004
168172.0,2.568557768,0.8921109504999999,7.8495368595,-0.319486010236066,0.2562387688022955,-0.16040273957528686,8.307140294000353,0.4398393527609066,0.04667965400000007,0.06943108199999992,0.11140354399999985
168182.0,2.5805218809999997,1.0645118574999999,7.890234456999999,-0.3629202740011969,0.28155127894396925,-0.18731571664103944,8.369473009664823,0.4960538535853086,0.011964112999999887,0.172400907,0.04069759749999946
168192.0,2.576991487,1.1889582459999999,7.847085196999999,-0.418610239773832,0.31086233840196204,-0.1902461244551379,8.344534314374792,0.5550346963482922,-0.00353039399999977,0.1244463885,-0.043149259999999856
168202.0,2.600919713,1.2620177885,7.854244051499999,-0.4804298018794711,0.3468353196148172,-0.16893041830053115,8.369385991366723,0.6161534059740745,0.02392822600000022,0.07305954250000002,0.007158854500000089
168212.0,2.5721862285,1.2488768774999999,7.8877827945,-0.5251957518638737,0.3889361518314244,-0.13402383326064457,8.390050825975337,0.6671313932496157,-0.028733484500000017,-0.013140911000000033,0.03353874300000026
168222.0,2.4715699995,1.211709674,8.008698789,-0.541717038563252,0.4254414584661378,-0.09192125571478536,8.468539123687373,0.694915319807901,-0.10061622900000033,-0.03716720349999991,0.12091599450000068
168232.0,2.417731491,1.1015809945,8.171489179,-0.5326570344161494,0.43530082341065374,-0.04316024707256778,8.592563159647462,0.6892554897150731,-0.053838508499999715,-0.11012867950000005,0.16279038999999962
168242.0,2.3291774414999997,0.9532063799999999,8.2361150025,-0.5153363869193577,0.41904657208683055,0.0005410520681182421,8.612041586712802,0.6642077340698177,-0.08855404950000034,-0.1483746145,0.06462582350000012
168252.0,2.2812229229999996,0.795123182,8.194240607,-0.5017472533633299,0.3846723124688022,0.028518679977587343,8.542937318298794,0.6328794587797943,-0.0479545185000001,-0.15808319799999992,-0.041874395500000716
168262.0,2.2692588099999997,0.6874461649999999,8.195417404999999,-0.4926872492162273,0.34763468041223056,0.030916762369827554,8.531528832437521,0.6037768153556403,-0.011964112999999887,-0.1076770170000001,0.0011767979999994793
168272.0,2.2405253254999997,0.6359612525,8.103234895,-0.4873587590098886,0.3220551348950017,0.015196581797114628,8.431299793770467,0.5843534940378237,-0.028733484500000017,-0.05148491249999987,-0.09218250999999889
168282.0,2.2441537859999996,0.6024225095,8.057830105499999,-0.48629236283692007,0.3089983267608321,-0.0037227872945039047,8.386165101181382,0.5761719250707629,0.003628460499999875,-0.03353874300000004,-0.04540478950000093
168292.0,2.185510019,0.5653533725,7.9236751335,-0.4937536453891958,0.29567448325110735,-0.011716395268637934,8.238974820946641,0.5756329875007339,-0.058643766999999514,-0.03706913700000003,-0.13415497199999926
168302.0,2.1710942435,0.5952636549999999,7.8279622295,-0.4932195746380856,0.293009365483312,-0.003989822670059037,8.145242887698402,0.573703717742918,-0.014415775500000283,0.02991028249999994,-0.09571290399999999
168312.0,2.4428365149999998,0.5677069684999999,8.0386090715,-0.4830949196472665,0.3084642560097218,0.018659315033071375,8.42074683418893,0.5734797892359709,0.27174227149999997,-0.027556686499999983,0.21064684200000006
168322.0,2.172369108,0.550937597,8.152366211499999,-0.4727032292808922,0.31379449154531247,0.08021184176315539,8.454808964346132,0.573017683370943,-0.27046740699999994,-0.016769371499999908,0.11375713999999881
168332.0,1.4385374884999997,0.7723717539999999,7.7549026869999995,-0.4529844993918603,0.21706834439978676,0.20758247991519757,7.924926745215803,0.5435109095478232,-0.7338316195000001,0.2214341569999999,-0.3974635244999991
168342.0,1.665953702,0.3594137225,7.742938574,-0.34320154411216497,0.1552487822941476,0.25634523388666713,7.9282834032258185,0.45563402333583475,0.22741621350000019,-0.41295803149999993,-0.011964112999999443
168352.0,1.9473064905,-0.26664281349999996,7.847085196999999,-0.21396689431899282,0.17363408063465585,0.24462011197176925,8.089489912652784,0.368469299947008,0.2813527885,-0.6260565359999999,0.10414662299999922
168362.0,1.8407082049999999,-0.29057103949999996,7.882977535999999,-0.13322970845098714,0.2082753756282393,0.20331864055257542,8.100245246783029,0.32010507166111346,-0.10659828550000006,-0.023928225999999997,0.035892339000000106
168372.0,1.675564219,-0.168478247,7.85904931,-0.12789947291539647,0.22586131317133418,0.14496355701214503,8.037447133805406,0.29729789911993854,-0.1651439859999999,0.12209279249999996,-0.023928225999999775
168382.0,1.6923335904999999,-0.191229675,7.861500972499999,-0.17906030927910624,0.24104916832218884,0.09513440686770691,8.043864699928367,0.3149886526178658,0.016769371499999908,-0.02275142799999999,0.0024516624999995074
168392.0,1.7197922104999999,-0.24389138549999997,7.8638545685,-0.23368562420802477,0.2700949377338785,0.0623588688445054,8.05340778364885,0.36255878816342063,0.02745861999999999,-0.052661710499999986,0.002353596000000735
168402.0,1.5953458219999999,-0.24751984599999996,7.857872511999999,-0.24993987553184796,0.28021959272469754,0.04903677066403268,8.022004411665572,0.3786787113171639,-0.1244463885,-0.003628460499999986,-0.00598205650000061
168412.0,1.4971812555,-0.2511483065,7.9009237054999994,-0.21796369830605986,0.26209958443049247,0.051167817680717764,8.045447320305454,0.3447064134942939,-0.09816456649999994,-0.0036284605000000136,0.043051193500000196
168422.0,1.478058288,-0.2415377895,8.051848049,-0.1398916302058495,0.21840003061905844,0.0607601472496786,8.18994833992664,0.26638325223230236,-0.019122967499999977,0.009610516999999985,0.15092434350000072
