timestamp,ax,ay,az,gx,gy,gz,acc_mag,gyro_mag,dax,day,daz
97492.0,0.7669780964999999,-0.8424893014999999,10.0246518295,1.0706477950263935,0.699630938625195,-0.47616072652909297,10.089186683095441,1.3647341091821379,0.0,0.0,0.0
97502.0,0.1826978895,-0.44747743949999996,9.719370815,1.0924975719321106,0.654067373172631,-0.47642776190464814,9.731381382782352,1.3595361288468855,-0.5842802069999999,0.39501186199999994,-0.3052810145000002
97512.0,0.8148345484999999,-0.1134629405,10.168319252,1.061587790879291,0.6132982271752955,-0.448448388665927,10.201546235296389,1.3054536799509204,0.6321366589999999,0.33401449899999996,0.4489484370000003
97522.0,1.0003763665,0.1164049355,10.520181853999999,0.9968378209595534,0.6021071760115078,-0.39089266592291,10.56827938809773,1.2284200295388639,0.18554181800000014,0.229867876,0.35186260199999886
97532.0,1.0794179655,0.2193747605,10.890088691999999,0.9035761523792363,0.5807897245276491,-0.33013949999023945,10.945652111656702,1.1237253475467983,0.07904159899999996,0.10296982499999999,0.36990683800000035
97542.0,1.0937356745,0.25409030149999995,11.263623990500001,0.8119132053937461,0.5317599351806244,-0.2709850556523956,11.319454271578534,1.0076728547217004,0.014317708999999956,0.03471554099999996,0.373535298500002
97552.0,1.1344332719999999,0.297141495,11.625195176,0.7471632354740085,0.4659435690879182,-0.21742613689644558,11.684194229674766,0.906989765666674,0.040697597499999905,0.04305119350000003,0.361571185499999
97562.0,1.1535562394999999,0.3258749795,11.9340065845,0.7071934502740863,0.40066127374632227,-0.16972977909794457,11.994056847407506,0.830337419548962,0.019122967499999977,0.028733484500000017,0.30881140850000044
97572.0,1.1452205869999998,0.29596469699999994,12.228500284,0.6909391989502631,0.33537723307547435,-0.13482319405805798,12.285574650399836,0.7797769929713296,-0.008335652500000013,-0.02991028250000005,0.29449369950000026
97582.0,1.1835645885,0.25046184099999996,12.5349580965,0.6994651323462555,0.27595575336207545,-0.11537149954458116,12.593201767221837,0.76073229988542,0.03834400150000006,-0.04550285599999998,0.3064578124999997
97592.0,1.2744722339999999,0.189464478,12.844946302999999,0.7173181052649055,0.2221315445598223,-0.1039134130052384,12.909408266478138,0.7580802626580933,0.09090764549999997,-0.06099736299999997,0.30998820649999814
97602.0,1.375088463,0.25409030149999995,13.119140236999998,0.7138553720289488,0.1792313515458017,-0.09485340885813583,13.193455601943883,0.7420987392008777,0.10061622900000011,0.06462582349999996,0.2741939339999995
97612.0,1.467270973,0.432473265,13.3944129025,0.6717545398123416,0.15631517846711615,-0.07620107514207242,13.481476708276677,0.6938985521173142,0.09218251,0.17838296350000005,0.27527266550000107
97622.0,1.4863939405,0.6251739374999999,13.645855408499997,0.5939460164291823,0.16484111186310843,-0.04422489791628432,13.740799803074529,0.6179808283337487,0.019122967499999977,0.19270067249999995,0.2514425059999983
97632.0,1.478058288,0.7748234165,13.824238372,0.48070032791353023,0.18642559872252232,0.0010733774899765126,13.924603197052312,0.5155855518286586,-0.008335652500000013,0.14964947900000003,0.1783829635000025
97642.0,1.4013702849999998,0.899269805,13.936720647499998,0.35413079588815344,0.21360386583457802,0.06129421800078885,14.035836535964592,0.4180815868418288,-0.07668800300000012,0.1244463885,0.1124822754999979
97652.0,1.205041152,0.9376138064999999,14.043318933,0.2347555110394973,0.227460034766161,0.12391314090384142,14.126076967159324,0.3495750046383379,-0.19632913299999988,0.03834400149999995,0.10659828550000228
97662.0,1.0613737295,0.9232960975,14.107944756499998,0.12150807719459322,0.22612834854688935,0.17960310667647647,14.177908700855259,0.3132978116232421,-0.14366742249999986,-0.014317708999999956,0.06462582349999835
97672.0,0.9309452844999999,0.81787461,14.084016530499998,-0.0023963370629882146,0.20640961865785737,0.23369435085428472,14.138426349202115,0.3118071883825116,-0.13042844500000017,-0.10542148750000002,-0.023928226000000663
97682.0,0.8112060879999999,0.686269367,13.966630929999999,-0.12496906510129797,0.16191070404900995,0.2845898971716914,14.006991129294097,0.3504621989460952,-0.11973919649999998,-0.13160524299999998,-0.11738560049999869
97692.0,0.6520441584999999,0.5222041125,13.830220428499999,-0.2251596908120325,0.09103113779626824,0.32402561162050325,13.855426944726192,0.404939688597073,-0.15916192950000008,-0.16406525449999998,-0.13641050150000034
97702.0,0.4819968475,0.201428591,13.7152864905,-0.2789838996142856,-0.018484782107871942,0.34267794533656665,13.725231435380753,0.44226901048305456,-0.17004731099999987,-0.3207755215,-0.11493393799999829
97712.0,0.4461045085,-0.142196425,13.550044438,-0.2771198879731557,-0.16770345183637916,0.3330856157676058,13.558131631148944,0.46461371858714656,-0.035892338999999995,-0.34362501599999995,-0.16524205250000001
97722.0,0.4329635975,-0.37196623449999994,13.384900452,-0.2246256200609222,-0.3531621381532966,0.3032422308877548,13.397065964841632,0.5168520248645103,-0.013140910999999977,-0.22976980949999995,-0.16514398600000035
97732.0,0.4209994845,-0.3947176625,13.023329266499998,-0.1484175636018418,-0.564200369987443,0.2683356458478682,13.036109380590288,0.6421478408529199,-0.011964112999999998,-0.022751428000000073,-0.36157118550000256
97742.0,0.4712095325,-0.3445076145,12.646263573999999,-0.05995205980600522,-0.7789683704331012,0.23236266463501307,12.659727734159475,0.8150940924374729,0.05021004799999995,0.05021004800000001,-0.37706569249999866
97752.0,0.6328231245,-0.2535019025,12.162599596,0.007995353303386023,-0.9505708878184357,0.20278456980146517,12.181689425284674,0.9719930659176228,0.16161359200000003,0.09100571200000002,-0.48366397799999916
97762.0,0.8435680329999999,-0.084729456,11.577240657499999,0.011726867244149902,-1.0334408660323784,0.18546566763392544,11.608242216144724,1.050016693615874,0.21074490849999994,0.1687724465,-0.5853589385000006
97772.0,1.0243045925,0.06727361899999999,11.012279551,-0.04902804401777271,-1.0299763874671697,0.18306758524168523,11.06001928331966,1.047267324328584,0.18073655950000012,0.152003075,-0.5649611064999984
97782.0,1.0805947635,0.22418001899999998,10.481935918999998,-0.14255500264439283,-0.9527019348351207,0.1969237541732682,10.53987297522341,0.9832303241739542,0.05629017099999989,0.1569064,-0.5303436320000028
97792.0,1.1176639005,0.2672312125,10.0389695385,-0.2416792321821588,-0.8189381556330233,0.21797417028157184,10.104528416029419,0.8812384994595478,0.03706913700000003,0.0430511935,-0.4429663804999979
97802.0,1.067355786,0.1522972745,9.6535681935,-0.3317434575728222,-0.6603924463818583,0.2294322568209146,9.71358953735861,0.773828834659529,-0.050308114499999945,-0.11493393799999999,-0.385401345
97812.0,1.0829483595,-0.032067745499999994,9.411736204499999,-0.3823719685146737,-0.5181009884545167,0.20758247991519757,9.47388958520951,0.6765555723745665,0.015592573499999984,-0.18436502,-0.24183198900000136
97822.0,1.212298073,-0.1744603035,9.3554460335,-0.4060875023907726,-0.40965146472334507,0.16121780833596822,9.435278135859468,0.5989261756448876,0.1293497134999999,-0.142392558,-0.05629017099999878
97832.0,1.34154972,-0.2187863615,9.3087663795,-0.4194096005712454,-0.3531621381532966,0.119116976119361,9.40748396923003,0.5610853436654357,0.12925164700000003,-0.044326058,-0.04667965400000007
97842.0,1.4049987455,-0.1936813375,9.211778611,-0.41514750653787524,-0.3568919067648085,0.09246928909991158,9.320321835292463,0.5552205460224603,0.06344902549999998,0.025105024000000004,-0.09698776850000002
97852.0,1.5103221665,-0.16612465099999998,9.070562851,-0.38983325106694944,-0.38966744478801,0.0748833515568167,9.196944105529422,0.5562537168463918,0.10532342100000003,0.02755668650000001,-0.1412157599999997
97862.0,1.6383970154999998,-0.1242502555,8.8347129185,-0.3698474858023624,-0.4131159432885538,0.06715677895823781,8.986208057835178,0.5585355658447955,0.12807484899999988,0.04187439549999998,-0.23584993250000075
97872.0,1.7317563235,-0.052367511,8.59650939,-0.3719802781482994,-0.39392953882138015,0.07594974772978524,8.76936120892216,0.5470997834650727,0.09335930800000014,0.07188274450000001,-0.2382035284999997
97882.0,1.8359029464999999,-0.0201036325,8.4551955635,-0.390897901910666,-0.3528951027777415,0.10845825037743162,8.652241085524441,0.5376795656872289,0.10414662299999988,0.032263878499999996,-0.14131382649999935
97892.0,1.8478670594999997,-0.052367511,8.330749175,-0.41701151817900517,-0.3227846825223353,0.1620171691333816,8.53338952835019,0.551668488006156,0.011964112999999887,-0.032263878499999996,-0.12444638850000089
97902.0,1.7737287855,-0.13376270599999998,8.170312380999999,-0.4348644910976552,-0.32011956475453995,0.22383673123902076,8.361699030050628,0.5845395996919528,-0.07413827399999984,-0.08139519499999998,-0.16043679400000066
97912.0,1.7401900424999999,-0.25585549849999994,7.939267706999999,-0.4377966442410056,-0.32624916108754404,0.27979373238721095,8.131770726203602,0.6135054600426781,-0.03353874300000004,-0.12209279249999996,-0.23104467399999962
97922.0,1.7749055835,-0.4881750369999999,7.6399687489999994,-0.4399276912576907,-0.29826978784882296,0.319496482211578,7.858608476237128,0.6201445331729347,0.03471554100000018,-0.23231953849999998,-0.2992989579999996
97932.0,1.839531407,-0.7754118154999999,7.4353039635,-0.4415264128525175,-0.2172655666052621,0.32082816843084966,7.698628729234526,0.5874356248453194,0.0646258234999999,-0.2872367785,-0.20466478549999945
97942.0,1.7976570115,-0.978899803,7.2413284265,-0.4383289696628639,-0.11654261547266935,0.2701996574889981,7.52506830106847,0.5279415893582264,-0.04187439550000005,-0.20348798750000008,-0.19397553700000003
97952.0,1.8611060369999999,-1.1142315729999999,7.2617262584999995,-0.44872066002923816,-0.007559020990387441,0.17853671050350794,7.578779316790818,0.48299350568389804,0.06344902549999998,-0.13533176999999985,0.02039783199999956
97962.0,1.9077856909999997,-1.207590881,7.3394929929999995,-0.46124514274154943,0.09262985939109504,0.06795613975565122,7.678937385664425,0.4753371534857926,0.04667965399999985,-0.09335930800000014,0.07776673449999993
97972.0,1.8886627235,-1.1776805985,7.359890824999999,-0.47536660171943557,0.17310175521279758,-0.03996105855366217,7.689081312558797,0.5074785807191916,-0.019122967499999755,0.02991028249999994,0.02039783199999956
97982.0,1.8706184874999998,-1.08069283,7.288008080499999,-0.4886904452291603,0.23172387412878315,-0.13295743708767602,7.6014585639878005,0.5569488173759329,-0.018044236000000158,0.09698776850000002,-0.07188274449999987
97992.0,1.9747651105,-0.9825282635,7.307229114499999,-0.49775044937626284,0.2884802360743868,-0.20303764254300435,7.632866850798647,0.6100824868402849,0.1041466230000001,0.09816456650000005,0.01922103400000008
98002.0,2.0418425965,-0.850824954,7.274867169499999,-0.5086744651644953,0.35429660216709297,-0.2414069608188477,7.603730441375464,0.6652466569245766,0.06707748600000007,0.13170330949999998,-0.03236194499999989
98012.0,2.071752879,-0.6808757095,7.3394929929999995,-0.5262621480368422,0.42437680762242125,-0.2584605729400843,7.656625178087798,0.7237744061989657,0.02991028249999994,0.16994924450000004,0.06462582350000012
98022.0,2.03586054,-0.5970288519999999,7.3754833985,-0.5374531992006298,0.48592933435250524,-0.2611256907078796,7.674563632546064,0.7701752304916901,-0.035892339000000106,0.0838468575000001,0.035990405500000655
98032.0,1.9006268365,-0.5886931995,7.381465455,-0.5124059791052592,0.5224346409872186,-0.2563295259233992,7.644931282759832,0.7753725990685884,-0.13523370349999975,0.008335652499999902,0.005982056499999722
98042.0,1.8503187219999997,-0.5647649735,7.371854938,-0.4460555422614428,0.515240393810498,-0.23447974901768218,7.621475190223422,0.7207072657435487,-0.05030811450000039,0.023928225999999997,-0.009610516999999597
98052.0,1.8179567769999998,-0.6114446275,7.49031927,-0.36212091320378353,0.5272308057716991,-0.2080990973737879,7.7319928958886255,0.6726136429347851,-0.03236194499999989,-0.04667965399999996,0.1184643319999994
98062.0,1.886211061,-0.7071575314999999,7.626827838,-0.3189536848142077,0.5781246067598537,-0.20463636413783115,7.88836908438542,0.6912565048701874,0.06825428400000022,-0.09571290399999999,0.136508568
98072.0,1.9149445454999998,-0.816109413,7.7369565175,-0.3296124105561371,0.6372790510976974,-0.2296835842332018,8.012087327283268,0.7533415420822215,0.028733484499999795,-0.10895188150000001,0.11012867950000071
98082.0,1.874246948,-0.9190792379999999,7.916516279,-0.34906410506961394,0.6575301064085877,-0.25233272193633216,8.187108052510482,0.7860428695952514,-0.040697597499999905,-0.10296982499999996,0.1795597614999993
98092.0,1.7413668405,-0.9825282635,7.921321537499999,-0.35332794443223603,0.6487371376370402,-0.2603263299104662,8.169764694422394,0.7832434539214881,-0.1328801074999999,-0.06344902550000009,0.004805258499999354
98102.0,1.6779178149999998,-0.9933155785,7.932108852499999,-0.3325428183702356,0.6276867215287367,-0.24433911396219815,8.168257762846004,0.7511836986017105,-0.0634490255000002,-0.010787314999999964,0.010787314999999964
98112.0,1.703022839,-0.9597768354999999,8.0135040475,-0.2971039079084907,0.6156963095675356,-0.2198242192886858,8.248497165145714,0.7181053997119503,0.025105024000000142,0.03353874300000004,0.0813951950000007
98122.0,1.6360434195,-0.932220149,8.088917186,-0.25979924047636394,0.5927801364888501,-0.1854499596706575,8.305194381750315,0.6732574716330179,-0.06697941949999997,0.027556686499999872,0.07541313850000009
98132.0,1.5187558855,-0.9777230049999999,8.148737750999999,-0.21903009447902838,0.5482812218800027,-0.138819998045125,8.34652554353125,0.6065125492609114,-0.11728753399999992,-0.045502855999999814,0.05982056499999899
98142.0,1.457660456,-1.048330885,8.173940841499999,-0.17746158768427944,0.501384224878915,-0.09138893029292709,8.368815957456151,0.5396579404038646,-0.06109542950000013,-0.07060788000000007,0.025203090499999803
98152.0,1.460014052,-1.1668932834999999,8.209833180499999,-0.1337620338728454,0.46487891824420163,-0.06021385919380437,8.41989559429056,0.4874734856099464,0.002353596000000069,-0.11856239849999994,0.035892339000000106
98162.0,1.3714600024999999,-1.2686863105000001,8.3031924885,-0.09325992325106501,0.42384273687131097,-0.045558329464807985,8.510785686056854,0.4363664059789455,-0.08855404950000012,-0.10179302700000026,0.09335930800000192
98172.0,1.3451781804999998,-1.2818272215,8.346243681999999,-0.06474822459048564,0.38413998704694396,-0.0394287331318039,8.550577112826748,0.39154883122341877,-0.026281822000000066,-0.01314091099999981,0.04305119349999842
98182.0,1.3846009135,-1.2961449305000001,8.378605627,-0.05862037358673354,0.364421257157912,-0.0402280939292173,8.590584591476993,0.3712916648797535,0.0394227330000001,-0.014317709000000178,0.03236194500000167
98192.0,1.4038219475,-1.356063562,8.432444135499999,-0.06847973853124951,0.35536299834006146,-0.044491933291839446,8.655387833182008,0.36462565365946525,0.01922103400000008,-0.059918631499999764,0.05383850849999838
98202.0,1.409804004,-1.4050968119999998,8.449213507,-0.07567398570797014,0.34550363339554546,-0.047956411857048194,8.680498445807029,0.3569301475648371,0.005982056499999944,-0.04903324999999992,0.016769371500000574
98212.0,1.385875778,-1.5068898389999998,8.539042421,-0.07007846012607633,0.3316474644639625,-0.0511538550467018,8.781037189681301,0.34280861737295387,-0.023928225999999997,-0.10179302700000004,0.08982891399999993
98222.0,1.3678315419999998,-1.5643568079999999,8.6599584155,-0.055155895021524806,0.30473448739820996,-0.05195321584411521,8.905787730920567,0.3140134029018833,-0.018044236000000158,-0.057466969000000034,0.12091599450000068
98232.0,1.3390980575,-1.5798513149999998,8.701832811,-0.04636292624997737,0.26263365518160275,-0.05248554126597348,8.94488725785315,0.27181002521336856,-0.028733484499999795,-0.01549450699999988,0.04187439549999894
98242.0,1.3164446959999998,-1.5763209209999998,8.7448840045,-0.04076740066808355,0.21333683045902288,-0.04875577265446159,8.982806384185777,0.22260213286190111,-0.02265336150000019,0.0035303939999999923,0.043051193500000196
98252.0,1.2553492665000001,-1.529641267,8.7903868605,-0.028775243377630513,0.15391709607487591,-0.03623128994215028,9.010360999641607,0.16072085572954312,-0.06109542949999969,0.04667965399999985,0.04550285600000059
98262.0,1.181112926,-1.509243435,8.815589951,-0.0053267448770866945,0.08356985524399248,-0.01464854841198841,9.021500411474083,0.08501102803204884,-0.07423634050000016,0.020397832000000005,0.025203090499999803
98272.0,1.1655203525,-1.517677154,8.814315086499999,0.02211855761052414,0.023350760062432138,0.00853466004225227,9.019641460721527,0.03327655343181094,-0.015592573499999984,-0.008433719000000117,-0.0012748645000009162
98282.0,1.099717731,-1.5630819434999998,8.835889716499999,0.03544065579099686,-0.029408797896104455,0.024788911366075462,9.040218544488953,0.05230112430249451,-0.06580262150000005,-0.04540478949999982,0.021574629999999928
98292.0,1.007535221,-1.611036462,8.7880332645,0.03677408733952053,-0.0811037050109245,0.031716123167240956,8.991111964679758,0.09453071953028466,-0.09218251,-0.0479545185000001,-0.04785645199999955
98302.0,0.9907658494999999,-1.6876263984999997,8.7066380695,0.03011216558465817,-0.12347157260308685,0.023455479817551795,8.923858263257896,0.12923672578160125,-0.01676937150000002,-0.07658993649999979,-0.08139519499999892
98312.0,1.0159689399999998,-1.77500365,8.656329955,0.019985765264587067,-0.14771943190104406,0.002405063709248186,8.894654525859245,0.14908469306345273,0.025203090499999914,-0.0873772515000002,-0.050308114499999945
98322.0,1.111681844,-1.8288421584999999,8.5569885905,0.009061749476354559,-0.14692007110363065,-0.027970646592461127,8.820575599184746,0.14983317278716504,0.09571290400000021,-0.05383850849999994,-0.09934136450000075
98332.0,1.2661365814999999,-1.8480631925,8.4659828785,0.0026668630970473352,-0.1192077332404647,-0.05621530987748536,8.757357221533272,0.13182472032107592,0.15445473749999983,-0.01922103400000008,-0.0910057119999994
98342.0,1.389406172,-1.8432579339999997,8.3834108855,0.0021327923459370708,-0.06325073209227451,-0.06634171019755646,8.695379658023308,0.09168656622066364,0.12326959050000008,0.004805258500000242,-0.08257199300000018
