timestamp,ax,ay,az,gx,gy,gz,acc_mag,gyro_mag,dax,day,daz
126172.0,0.0546230405,1.20425662,10.798004248499998,-0.20505175249980578,-0.16913462182301447,0.2119161324478995,10.865086904115921,0.33994291975879043,0.0,0.0,0.0
126182.0,-0.32724791049999996,0.8642600644999999,10.558623922,-0.18053685782629345,-0.17153270421525468,0.23349887397806138,10.598989375419094,0.34137772305499364,-0.38187095099999996,-0.3399965555000001,-0.2393803264999974
126192.0,0.1468055505,0.653515156,10.490369637999999,-0.17067749288177747,-0.19125143410428663,0.22017677579758865,10.51173102160874,0.33791379111243314,0.47405346099999995,-0.21074490849999994,-0.06825428400000177
126202.0,0.10973641349999999,0.6798950444999999,10.510767470000001,-0.16748004969212388,-0.1923178302772552,0.19512955570221802,10.533305851459632,0.3211094181053748,-0.037069137,0.02637988849999995,0.020397832000002225
126212.0,0.0989490985,0.8725957169999999,10.468795007999999,-0.1778717400584981,-0.1683352610256011,0.18899995936921396,10.505564388882037,0.30934786350896254,-0.010787314999999992,0.1927006725,-0.04197246200000215
126222.0,0.1336646395,0.9348679444999999,10.4592825575,-0.21464408206876662,-0.1030512203547532,0.19059868096404076,10.501830122751466,0.30499097227455685,0.03471554099999999,0.062272227499999944,-0.009512450499999048
126232.0,0.070215614,0.986352857,10.545483010999998,-0.25487915731499194,-0.03030764246088153,0.19965868511114332,10.591743677329577,0.3251853756943072,-0.06344902549999999,0.05148491250000009,0.08620045349999828
126242.0,0.016279039,1.0366609715,10.6220729475,-0.29165149932526047,0.02405063709248186,0.21404717946458457,10.67255192908207,0.3625675457621252,-0.053936575,0.050308114499999945,0.07658993650000134
126252.0,-0.04118793,1.0366609715,10.671106197499999,-0.3116355192605955,0.05442809272344317,0.22577230137948248,10.721421076225477,0.38865440459683537,-0.05746696899999999,0.0,0.04903324999999903
126262.0,-0.158475464,1.0150863415,10.731024828999999,-0.2996451072993944,0.04030488841630505,0.23616399174585673,10.780093164439922,0.38364711044924277,-0.11728753400000001,-0.021574629999999928,0.05991863150000043
126272.0,-0.215942433,0.9827243964999999,10.746519335999999,-0.2655378830569213,-0.022846359908605774,0.23749567796512838,10.793519176471968,0.35698252135299385,-0.05746696899999998,-0.032361945000000114,0.015494506999999658
126282.0,-0.22310128749999997,0.9169217749999999,10.746519335999999,-0.22610216860810942,-0.10811442051478874,0.22923677994469122,10.787872708044675,0.33964749351636514,-0.007158854499999978,-0.06580262149999994,0.0
126292.0,-0.1979962635,0.869065323,10.776527685,-0.18293494021853368,-0.20484056766031447,0.22177549739241545,10.813326315319099,0.35300031410157645,0.025105023999999976,-0.047856451999999994,0.030008349000000933
126302.0,-0.16445752049999998,0.9217270335,10.7717224265,-0.14642963358382025,-0.2879775812498124,0.22177549739241545,10.812336982997559,0.3918636193086026,0.03353874300000001,0.052661710500000014,-0.004805258499999354
126312.0,-0.12375992299999998,0.9240806294999999,10.711803795,-0.12777729986775688,-0.34846371180692787,0.226838697552451,10.752301245358339,0.43498251863155224,0.0406975975,0.002353595999999958,-0.05991863150000043
126322.0,-0.0710982125,0.9205502354999999,10.623249745499999,-0.12218177428586303,-0.3889658224287083,0.2382950387625418,10.663296997043908,0.4722365111722349,0.052661710499999986,-0.0035303939999999923,-0.08855404950000079
126332.0,-0.057859234999999995,0.9384964049999999,10.510767470000001,-0.12431282130254812,-0.39083157939909025,0.25428400004006185,10.552741634366065,0.48255917116159014,0.013238977499999999,0.017946169499999942,-0.1124822754999979
126342.0,-0.08786758399999998,0.9839992609999999,10.455654096999998,-0.12537921747551664,-0.3588554021733021,0.26734080817423145,10.5022225197374,0.4647238487090872,-0.03000834899999999,0.045502856000000036,-0.05511337300000285
126352.0,-0.1560238015,0.9994937679999999,10.4484952425,-0.12164770353475278,-0.31968672310004537,0.27986354555729076,10.497351287417722,0.4419517720675209,-0.06815621750000002,0.01549450699999999,-0.007158854499998313
126362.0,-0.1979962635,0.9061344599999999,10.4592825575,-0.12324642512957958,-0.2863788596549856,0.2748003453972552,10.500327318592655,0.41559326557941445,-0.04197246199999999,-0.09335930800000003,0.010787314999999964
126372.0,-0.215942433,0.8031646349999999,10.486839244,-0.13710259406116257,-0.2586665217918196,0.24469167047110102,10.519767197746495,0.3815488230778804,-0.017946169499999998,-0.10296982499999996,0.027556686500000538
126382.0,-0.2434991195,0.744520868,10.468795007999999,-0.15335684538498576,-0.2344186624938624,0.19672827729704484,10.498060395311624,0.3423046106030545,-0.02755668650000001,-0.05864376699999996,-0.01804423600000149
126392.0,-0.241047457,0.752954587,10.509492605499998,-0.16508196729988367,-0.21176952479073197,0.13997191535144124,10.539187791840018,0.302804433000647,0.002451662500000007,0.008433719000000006,0.04069759749999946
126402.0,-0.2134907705,0.788846926,10.515572728499999,-0.17973749702888003,-0.20563992845772788,0.0914744514262748,10.547280577955686,0.28802937919254695,0.027556686499999983,0.035892338999999995,0.00608012300000027
126412.0,-0.13209557549999998,0.8929935489999999,10.558623922,-0.19305959520935279,-0.2189637719674526,0.05976530957604183,10.597142343379792,0.29797488646752407,0.08139519500000003,0.104146623,0.04305119350000197
126422.0,-0.050700380499999996,0.9707602834999999,10.556270326,-0.19305959520935279,-0.24640907445506344,0.05283809777487634,10.600933414194808,0.31746071229786454,0.08139519499999998,0.07776673449999993,-0.002353596000000735
126432.0,-0.018436501999999997,1.055783939,10.5622523825,-0.16961109670880894,-0.2778511809297413,0.06962467452055779,10.61490438120303,0.33289157119535245,0.032263878499999996,0.08502365550000002,0.00598205650000061
126442.0,-0.0279489525,1.1323738755,10.497528492499999,-0.1288436960407254,-0.3108920089992459,0.1024002125437593,10.558463722943316,0.3517674555697686,-0.009512450500000002,0.07658993650000001,-0.06472389000000156
126452.0,0.03187161249999999,1.0725533104999998,10.450848838499999,-0.08594175769745278,-0.32847969187159276,0.13943784460033098,10.50579020582101,0.36705286566783574,0.05982056499999999,-0.0598205650000001,-0.04667965400000007
126462.0,0.0295180165,1.0366609715,10.398187127999998,-0.04997052181384965,-0.32235009553858873,0.17327803346724904,10.449776688141919,0.3693669097609622,-0.0023535959999999925,-0.035892338999999884,-0.05266171050000068
126472.0,0.016279039,1.0509786804999999,10.423390218499998,-0.02199114857512855,-0.2978369461943284,0.20232380287893867,10.476253378049698,0.36072895412679623,-0.013238977500000002,0.014317708999999956,0.025203090499999803
126482.0,-0.020790097999999996,1.0162631395,10.511944267999999,0.014779448105887983,-0.2562684393995794,0.22177549739241545,10.560975110775486,0.33922900283180946,-0.037069136999999995,-0.03471554099999996,0.08855404950000079
126492.0,-0.0710982125,0.953990912,10.719060716,0.04915370772391631,-0.21256888558814538,0.23003614074210463,10.761664195155586,0.3170461230652657,-0.0503081145,-0.062272227499999944,0.20711644800000073
126502.0,-0.19554460099999998,0.903780864,11.0062974945,0.06993883378591678,-0.18325782613015262,0.22417357978465569,11.045073203856543,0.29787357248126384,-0.12444638849999999,-0.05021004799999995,0.2872367785000005
126512.0,-0.207508714,0.8941703469999999,11.290003878999999,0.08006348877673587,-0.17846166134567218,0.20925101468010415,11.327258629680662,0.2864344845684839,-0.011964113000000026,-0.009610517000000152,0.2837063844999985
126522.0,-0.19554460099999998,0.8774009754999998,11.415725131999999,0.08832413212642504,-0.1728643904345264,0.18820059857180055,11.451063289152016,0.2703751377234426,0.011964113000000026,-0.01676937150000002,0.12572125300000003
126532.0,-0.1775984315,0.9001524034999999,11.4876078765,0.08192924574711782,-0.1544790920940181,0.1628863431008748,11.524189788294139,0.23897311976801838,0.017946169499999998,0.022751428000000073,0.07188274450000165
126542.0,-0.0950264385,0.942026799,11.548605239499999,0.05235115091356991,-0.11690738928633618,0.13783912300550416,11.587352048326442,0.18816908487487743,0.08257199299999998,0.04187439550000005,0.06099736299999847
126552.0,-0.020790097999999996,1.021068398,11.5809671845,0.006520550085450815,-0.06681294909559493,0.12345062865206291,11.625911311808421,0.14052240196800284,0.07423634050000001,0.07904159899999996,0.03236194500000167
126562.0,0.021084297499999998,1.11207411,11.624018377999999,-0.04357563543454243,-0.025511477676401113,0.12584871104430312,11.677112512338617,0.1356007727421572,0.041874395499999995,0.09100571200000007,0.04305119349999842
126572.0,0.0665871535,1.2329901045,11.695901122499999,-0.09926560120717749,0.009662142739040609,0.14716616252816186,11.760901390374077,0.17777765882865415,0.045502855999999994,0.12091599450000001,0.07188274449999987
126582.0,0.0295180165,1.3298798065,11.693449459999998,-0.1669477242702656,0.03257657048847416,0.18660187697697372,11.768866210753218,0.2524936357121518,-0.037069136999999995,0.09688970199999991,-0.0024516625000003955
126592.0,-0.048346784500000003,1.4304960354999998,11.694626258,-0.23889194136672387,0.03843913144592311,0.24016079573292373,11.78189032513271,0.3409166089872277,-0.07786480100000001,0.10061622899999989,0.0011767980000012557
126602.0,-0.11414940599999998,1.4280443729999999,11.603718612499998,-0.31190255463615063,0.03204424506661589,0.29691715767852733,11.691818783073316,0.43182153229585685,-0.06580262149999998,-0.0024516624999999515,-0.09090764550000152
126612.0,-0.20280152199999998,1.3742058645,11.472015303000001,-0.37398915211734496,0.01285958592869422,0.3427495038358985,11.555808293997348,0.5074549016725157,-0.088652116,-0.05383850849999994,-0.1317033094999971
126622.0,-0.27340940199999997,1.2461310154999998,11.3379583975,-0.4059635840138811,-0.005792747787369179,0.37126120249647776,11.409509009257754,0.5501589478972911,-0.07060787999999998,-0.1280748490000001,-0.13405690550000138
126632.0,-0.34637087799999994,1.1288434815,11.203901491999998,-0.4123584703931883,-0.044163811392464516,0.3789877750950567,11.265951758874671,0.5618021751588547,-0.07296147599999997,-0.11728753399999992,-0.13405690550000138
126642.0,-0.35960985549999996,0.9923349134999999,11.081710633,-0.40223381540236913,-0.11370994609668257,0.35900375515972166,11.13186230521511,0.5510042561661743,-0.013238977500000026,-0.136508568,-0.12219085899999804
126652.0,-0.29488596549999996,0.9468320574999999,10.92853076,-0.3865118895004042,-0.18778695553907787,0.3243624601661381,10.97343306581968,0.5383924098284055,0.06472389,-0.045502856000000036,-0.1531798730000009
126662.0,-0.22545488349999998,0.9755655419999999,10.744165739999998,-0.3787853169018254,-0.2549350078510557,0.28386034954435774,10.790720804460722,0.537630795780784,0.06943108199999998,0.028733484500000017,-0.18436502000000132
126672.0,-0.12375992299999998,1.0461734219999999,10.499980155,-0.3787853169018254,-0.30929328740441914,0.24948783525558144,10.55269532407877,0.5489852765551777,0.1016949605,0.07060787999999996,-0.24418558499999854
126682.0,-0.023143694,1.1527717075,10.222255827,-0.37691955993144344,-0.34366754702244745,0.22523823062837223,10.287075990427011,0.557591246408997,0.10061622899999997,0.10659828550000006,-0.2777243279999997
126692.0,0.059428299,1.2712360395,9.9660080625,-0.3689259519573094,-0.35379394734251857,0.21617997181052165,10.046934333052082,0.5549867524687465,0.082571993,0.11846433200000006,-0.2562477644999994
126702.0,0.10365629049999998,1.3298798065,9.828420763,-0.3564014692449981,-0.3399377784109356,0.2137818894182814,9.918527089284286,0.5369193577383907,0.04422799149999999,0.05864376699999996,-0.13758729949999982
126712.0,0.142000292,1.3718522684999999,9.7637949395,-0.344411057283797,-0.30716224038773404,0.21538061101310826,9.860721796609136,0.5092704840256648,0.038344001500000016,0.04197246199999993,-0.06462582350000012
126722.0,0.116895268,1.3622417515,9.7541844225,-0.3401472179211749,-0.27305501614526084,0.21431421484013968,9.849542164047639,0.48599357442681224,-0.025105024000000004,-0.009610516999999819,-0.009610517000000485
126732.0,0.0403053315,1.335861863,9.819987044,-0.3385484963263481,-0.2562684393995794,0.21298252862086803,9.910514466015021,0.47502647809871196,-0.0765899365,-0.02637988849999995,0.0658026214999996
126742.0,0.021084297499999998,1.288005411,9.797235616,-0.3281568059599738,-0.2562684393995794,0.20925101468010415,9.881560008510055,0.4659896881635912,-0.019221034,-0.047856451999999994,-0.022751427999999407
126752.0,0.012748645,1.1826819899999998,9.7302561965,-0.30231022506718985,-0.2573330902432959,0.19832699889187166,9.8018765992511,0.4437852971920045,-0.008335652499999999,-0.10532342100000025,-0.06697941950000086
126762.0,-0.018436501999999997,1.1335506734999998,9.6955406555,-0.2674036400273032,-0.26132989423036296,0.18207274756804848,9.761597494081165,0.41587078008112394,-0.031185146999999996,-0.04913131650000002,-0.03471554099999885
126772.0,0.028243152,1.1311970775,9.657196654,-0.23782554519375532,-0.26745949056336704,0.1623540176790165,9.723263429415468,0.3930068652016669,0.046679654,-0.002353595999999847,-0.0383440015000005
126782.0,0.0916921775,1.1431611904999999,9.654843057999999,-0.20851448573576253,-0.2658607689685402,0.14396871933850824,9.722716669608904,0.36726997071114215,0.0634490255,0.011964112999999887,-0.002353596000000735
126792.0,0.10493115499999998,1.2018049575,9.725450938,-0.171743889054746,-0.26452908274926856,0.13224359742361036,9.799986818899619,0.3419941053693122,0.013238977499999985,0.05864376700000018,0.07060788000000073
126802.0,0.0055897905,1.2677056455,9.8822592715,-0.1325734646522373,-0.2655937335929851,0.1301125504069253,9.963240294128116,0.32410651123844186,-0.09934136449999999,0.06590068799999993,0.15680833350000078
126812.0,-0.0028439284999999996,1.2916338714999998,10.0534833805,-0.09073966781118518,-0.27465373774008767,0.13464167981585057,10.136116328649997,0.31905602158981283,-0.008433719,0.023928225999999775,0.17122410899999885
126822.0,-0.015984839499999997,1.3059515805,10.223432625,-0.04517435702936923,-0.2895763028446392,0.14423400938481137,10.306519280708626,0.32664752741357916,-0.013140910999999998,0.014317709000000178,0.1699492444999997
126832.0,-0.044718324,1.331154671,10.4808571875,0.016379915029966784,-0.3034324717762222,0.15329401353191394,10.56514741361411,0.34035073252358283,-0.0287334845,0.025203090500000025,0.2574245625000007
126842.0,-0.023143694,1.3718522684999999,10.747794200500001,0.09791646169538587,-0.31702160533225004,0.15622442134601244,10.8350170490619,0.36673751041211655,0.021574629999999997,0.040697597499999905,0.2669370130000015
126852.0,0.0403053315,1.3753826625,11.0961264085,0.2007704598446637,-0.3292790526690062,0.16475210007125674,11.181114580463971,0.4193765927549191,0.0634490255,0.0035303940000002143,0.34833220799999864
126862.0,0.0438357255,1.3718522684999999,11.588126038999999,0.32387725863408373,-0.34340051164689234,0.1746114650157727,11.669128729822484,0.5032986725341435,0.003530393999999999,-0.0035303940000002143,0.49199963049999873
126872.0,-0.09139797799999999,1.436478092,12.207023720499999,0.47389528916000434,-0.3772424458430624,0.1948625203266629,12.291592696311902,0.6362861069218462,-0.1352337035,0.06462582350000012,0.6188976815
126882.0,-0.3847148795,1.517873287,12.891724023499998,0.6422986180264333,-0.43373177241311084,0.236696317167715,12.98647346865129,0.8103677632285505,-0.2933169015,0.08139519500000003,0.6847003029999996
126892.0,-0.705490401,1.5406247149999999,13.6076094735,0.814433460833626,-0.503544942492884,0.2873248281095665,13.712704941099656,0.9997074212407304,-0.32077552150000005,0.02275142799999985,0.7158854500000018
126902.0,-0.9760558744999999,1.5489603674999999,14.339087497,0.9705810876925506,-0.5642981084255546,0.34434822543072524,14.455497000686396,1.1743235087983221,-0.2705654734999998,0.008335652500000013,0.7314780234999994
126912.0,-1.1209000949999999,1.5705349974999998,14.9950543155,1.0657085132432496,-0.5893453285209254,0.4056337167852541,15.118685495972805,1.283589211407448,-0.1448442205,0.021574629999999928,0.6559668184999996
126922.0,-1.1364926685,1.6435945399999998,15.587670174999998,1.0816957291915177,-0.581086430500488,0.4543964707567237,15.715230831332276,1.3092758467561882,-0.015592573500000206,0.07305954250000002,0.5926158594999986
126932.0,-1.178367064,1.7597052759999998,16.073687748999998,1.0617117092561825,-0.602936207406205,0.48610561260695667,16.21260464725686,1.3141774957672376,-0.04187439549999983,0.11611073599999999,0.4860175739999999
126942.0,-1.0994235315,1.8362952124999998,16.3130680755,1.0550497875013203,-0.6708836205155964,0.5012934677578114,16.45286911893982,1.347037500294386,0.07894353249999986,0.07658993650000001,0.23938032650000096
126952.0,-0.9880199875,1.8650286969999998,16.5537232665,1.0795646821748326,-0.7604155204844015,0.49543265212961435,16.687728111405594,1.4103705823608894,0.11140354400000008,0.028733484500000017,0.24065519100000188
126962.0,-0.9389867375,1.8411004709999998,16.7500523995,1.1251299929566485,-0.8821888877252978,0.45892734549490094,16.877073277778734,1.501595499167343,0.04903325000000003,-0.023928225999999997,0.196329132999999
126972.0,-0.8168939449999999,1.9751573765,16.840960045,1.1626999504350786,-1.0362037222382854,0.4109639523208448,16.976056597944247,1.6107391777781346,0.12209279250000005,0.13405690550000005,0.09090764549999975
126982.0,-0.552310528,2.1965915335,16.874498788,1.1826857156996655,-1.1678364544236977,0.3691284101505407,17.0258265770152,1.7025989749736163,0.2645834169999999,0.22143415700000002,0.03353874300000115
126992.0,-0.0842391235,2.4947136935,16.847040168,1.1429829658752986,-1.2213953731796479,0.34941142559076077,17.030955788348166,1.7088900088183303,0.4680714045,0.29812216000000014,-0.027458620000000877
127002.0,0.26173948849999995,2.9855365259999997,16.791926795,1.004955347310579,-1.174231340803005,0.3723258533401943,17.057278252891322,1.5897738936331962,0.34597861199999996,0.4908228324999997,-0.055113373000001076
127012.0,0.5263229054999999,3.6044342074999998,16.6566930915,0.7515492478842702,-1.0236792395259742,0.4421390234199675,17.050348574192668,1.3447053110115434,0.264583417,0.6188976815,-0.13523370349999908
127022.0,0.6328231245,3.9886587544999994,16.560882121,0.45071208070576363,-0.8086442037047608,0.5431290099281154,17.046192548261587,1.0733293759629057,0.10650021900000006,0.38422454699999964,-0.09581097050000054
127032.0,0.6495924959999999,4.107221153,16.7512291975,0.14587985486944205,-0.5525747318399087,0.6379894001032592,17.259632546427127,0.8565338527862124,0.016769371499999908,0.11856239850000083,0.19034707650000016
127042.0,0.592125527,4.0353384085,16.9822738715,-0.18053685782629345,-0.33514161362645517,0.6947457620488627,17.465170899749936,0.7922027089721357,-0.05746696899999992,-0.07188274449999987,0.23104467399999962
127052.0,0.5178891865,3.9467843589999996,17.058863807999998,-0.5458569595489826,-0.17259910038822324,0.684886397104347,17.517138761962034,0.8926475489696125,-0.07423634049999994,-0.08855404950000079,0.07658993649999957
127062.0,0.5155355905,3.9156972784999997,16.942753072,-0.9431514931682078,-0.02391275608157431,0.6233338703742628,17.396992377439553,1.1307748108817224,-0.002353596000000069,-0.031087080499999864,-0.11611073599999955
127072.0,0.6172305509999999,3.970712585,16.617172292,-1.3556356272675396,0.12210847045727927,0.5239443507901937,17.09613836419727,1.458484184075861,0.10169496049999993,0.05501530650000008,-0.32558077999999924
127082.0,0.709413061,4.0210206995,16.0580951755,-1.7454706236637412,0.24121671993038032,0.4242860505013175,16.569076468600816,1.8124215449770695,0.0921825100000001,0.05030811450000039,-0.5590771164999992
127092.0,0.8052240315,4.027002756,15.2787607,-2.0657594853557244,0.3203569295328112,0.3307573465454454,15.821051338820729,2.1164572369718746,0.09581097049999998,0.005982056499999722,-0.7793344755000007
127102.0,0.928493622,3.9851283604999996,14.3234949235,-2.2863900467588314,0.38297585243586374,0.25374992928895157,14.896504800767405,2.332088972591092,0.12326959049999997,-0.04187439550000027,-0.9552657764999992
127112.0,0.99439431,3.890494188,13.5107197715,-2.4555927364226737,0.45625350108084567,0.19433019490480463,14.094832876434653,2.505168091979471,0.06590068800000004,-0.09463417249999972,-0.8127751520000004
127122.0,1.0146940755,3.8354788815,12.811603692999999,-2.578432499836539,0.5297964397721308,0.16794954326091033,13.411848921896581,2.637651507096811,0.02029976550000001,-0.05501530650000008,-0.6991160785000012
127132.0,1.0457811559999999,3.6044342074999998,12.2154574395,-2.667697364429789,0.5689668641746395,0.17914059442469799,12.779006402638537,2.7335734622075183,0.031087080499999864,-0.23104467400000006,-0.5961462534999988
127142.0,1.172679207,3.2021654244999995,11.673149694500001,-2.69993883170188,0.548181738112639,0.20445484989562374,12.161063428771305,2.7626028847045228,0.12689805100000018,-0.40226878300000024,-0.5423077449999987
127152.0,1.1967054995,2.8239229339999996,11.308048115,-2.6431824697562765,0.42827412784212454,0.21591293643496653,11.71659493884037,2.686345229698855,0.02402629249999988,-0.3782424904999999,-0.365101579500001
127162.0,1.0194993339999998,2.7066354,11.072198182500001,-2.5043554903941434,0.19192164053705246,0.19965868511114332,11.443724335770936,2.5196217829098946,-0.17720616550000012,-0.11728753399999947,-0.23584993249999897
127172.0,0.8962297435,2.6682913984999996,10.685521973,-2.3402160008903365,-0.14781717033915576,0.17194634724797736,11.050040116484146,2.35117553428113,-0.12326959049999986,-0.0383440015000005,-0.3866762095000009
127182.0,1.0494096165,2.5198187174999997,10.2425555925,-2.203520068544889,-0.5283268725419515,0.15169529193708714,10.600032640408191,2.2710441295417203,0.15317987300000002,-0.14847268099999988,-0.4429663804999997
127192.0,1.3869545095,2.3881154079999996,9.622481113,-2.121981776550218,-0.862737193211821,0.15302697815635882,10.010938057114883,2.2957655325851323,0.337544893,-0.1317033095000002,-0.6200744795000013
127202.0,1.73773838,2.2385639955,8.723505507499999,-2.1230481727231862,-1.075107111265239,0.1823380376143516,9.172265356969168,2.386720763800701,0.35078387049999993,-0.1495514124999997,-0.8989756055000004
127212.0,2.0586119679999997,1.9020978339999999,7.715479954,-2.199790299933377,-1.1158762572625747,0.22950206999099437,8.208805657674944,2.4772824597395955,0.32087358799999977,-0.33646616149999997,-1.0080255534999987
127222.0,2.1938456714999996,1.5226785454999998,6.768647896499999,-2.3157011062168245,-0.9813131172630637,0.27853185933801905,7.276407295505051,2.530420329532758,0.13523370349999997,-0.37941928850000006,-0.9468320575000009
127232.0,2.005852191,1.1886640465,5.9282179914999995,-2.4230842337750276,-0.7076559625258648,0.3185016445379412,6.370253824010904,2.5443186637763935,-0.18799348049999987,-0.3340144989999998,-0.8404299049999997
127242.0,1.6599716455,0.8187572084999999,5.4314131025,-2.4643874505234735,-0.36551732392816444,0.3374192683003077,5.738128398732758,2.5140923179170462,-0.3458805454999998,-0.3699068380000001,-0.49680488899999986
127252.0,1.2744722339999999,0.418940088,5.341682254999999,-2.413758939581622,-0.05269149011770881,0.33022502112358715,5.507572930606755,2.436812913647064,-0.3854994115000001,-0.3998171204999999,-0.08973084750000027
127262.0,0.924963228,-0.0263798885,5.626565437499999,-2.2997121449393045,0.1207767842380076,0.29638483225666906,5.702147971961006,2.3218757395657557,-0.3495090059999999,-0.4453199765,0.2848831824999998
127272.0,0.7860029974999999,-0.43345393,6.1329808434999995,-2.1504934752107974,0.09945933275414887,0.23882910951365205,6.198317275539337,2.165999466608244,-0.13896023050000006,-0.4070740415,0.5064154060000003
127282.0,0.778844143,-0.633313457,6.4489511065,-1.9868863111288486,-0.07933743180790624,0.17594315123504436,6.526611257607601,1.9962383710127394,-0.007158854499999867,-0.19985952699999998,0.31597026300000053
127292.0,0.8615142024999999,-0.6799931109999999,6.371184372,-1.8411303746362984,-0.32235009553858873,0.13037784045322842,6.4650280474359665,1.8736779397173307,0.08267005949999984,-0.04667965399999996,-0.07776673449999993
127302.0,1.0350919075,-0.6931340220000001,5.988136623,-1.7310821293102998,-0.5040772679147423,0.10986149509603507,6.116341246622832,1.8063246603394996,0.17357770500000014,-0.013140911000000144,-0.38304774900000016
127312.0,1.1547330374999998,-0.7003909429999999,5.58586784,-1.655673433648633,-0.5403172845031525,0.12185190705723611,5.746814368576444,1.7458651649185857,0.11964112999999976,-0.007256920999999861,-0.40226878300000024
127322.0,1.2314210405,-0.8224837355,5.23871243,-1.6042455619093678,-0.4542498630995562,0.15542506054859906,5.4439861497238065,1.6745458221495177,0.07668800300000012,-0.12209279250000005,-0.34715541000000005
127332.0,1.193077039,-0.9781152709999998,5.092691411500001,-1.5520183293726895,-0.2847801380601588,0.20072508128411187,5.321244978115392,1.5906448943742504,-0.038344001499999836,-0.15563153549999986,-0.14602101849999904
127342.0,0.9632091629999999,-1.1804264604999999,5.157317235,-1.4846032416851564,-0.0969233693510011,0.25161888227226653,5.377648146054534,1.5088913104211217,-0.22986787600000014,-0.20231118950000004,0.06462582349999924
127352.0,0.7920831204999998,-1.5407227815,5.494862128,-1.3761537179539851,0.006997024971245267,0.2779977885869088,5.7614869751603885,1.4039696521849168,-0.17112604250000008,-0.3602963210000001,0.33754489300000046
127362.0,0.6064432359999999,-1.77892631,5.8911488545,-1.2285337698203045,-0.014320426512613475,0.27533441614836546,6.183687171969248,1.2590906793873717,-0.1856398844999999,-0.23820352849999993,0.39628672649999963
127372.0,0.39216793349999995,-1.7729442535,6.1843676895,-1.0603957310001788,-0.13795780539463978,0.24469167047110102,6.445427117966341,1.096971046104065,-0.2142753025,0.005982056499999944,0.29321883500000023
127382.0,0.304790682,-1.77892631,6.3328403705,-0.9093113043012897,-0.30929328740441914,0.19699356734334797,6.585008985147917,0.9804671597448859,-0.08737725149999997,-0.005982056499999944,0.14847268099999944
127392.0,0.36823970749999996,-1.7453875669999999,6.302930087999999,-0.8024605021649449,-0.4505183491587923,0.1373067975836459,6.5504889844525,0.9304637537949855,0.06344902549999998,0.03353874300000004,-0.029910282500000385
127402.0,0.570550897,-1.6425158085,6.235852602,-0.7470358264386129,-0.4827615617601355,0.08321380807658565,6.473734948320797,0.8933340860789503,0.2023111895,0.10287175849999985,-0.06707748599999963
127412.0,0.721377174,-1.520423016,6.1783856329999995,-0.739309253840034,-0.398292861951366,0.06003234495159696,6.403477196399748,0.8419140449804275,0.15082627700000006,0.12209279249999994,-0.057466969000000034
127422.0,0.744128602,-1.488061071,6.2071191175,-0.7592932737753691,-0.23495098791572067,0.06695955675276245,6.426226020470655,0.797628876460486,0.022751427999999962,0.032361945000000114,0.028733484500000017
127432.0,0.6818563744999999,-1.5490584339999998,6.3759896304999994,-0.7814100860566413,-0.05482253713439388,0.0952059653670387,6.596798762705767,0.7890953104729298,-0.062272227500000055,-0.060997362999999805,0.1688705129999999
127442.0,0.6459640354999999,-1.763431803,6.605759439999999,-0.7782126428669875,0.05176297495564783,0.12558167566874798,6.867533693993818,0.7899778986516339,-0.035892338999999995,-0.21437336900000026,0.2297698094999996
127452.0,0.5765329535,-1.9836891619999997,6.8368041139999995,-0.7315809359122031,0.05042954340712416,0.14503337018222479,7.142079769304948,0.7475215602943103,-0.06943108199999992,-0.22025735899999965,0.2310446740000005
127462.0,0.5071018715,-2.0938178415,6.9912588515,-0.6447141537111933,-0.029508281663468132,0.15809017831639438,7.3156630451476925,0.6644693997185876,-0.06943108200000003,-0.11012867950000027,0.15445473750000005
127472.0,0.44845810449999995,-2.1260817199999997,7.094228676499999,-0.5290703828033011,-0.15741124523736857,0.17061466102870568,7.419529544794927,0.5777569840726728,-0.05864376700000001,-0.03226387849999979,0.10296982499999974
127482.0,0.4245298785,-2.127258518,7.103741127,-0.39823701141530216,-0.26879117678263875,0.18287210836546186,7.427556288549687,0.5140852283378861,-0.02392822599999994,-0.0011767980000003675,0.009512450500000824
127492.0,0.3994248545,-2.171584576,7.118156902499999,-0.28658829916522494,-0.3026331109788088,0.19832699889187166,7.452749658597277,0.4615769183663595,-0.02510502400000003,-0.04432605799999978,0.01441577549999895
127502.0,0.45090976699999996,-2.2793596595,7.260647527,-0.22023960765066047,-0.25573436864846916,0.21431421484013968,7.623372126996239,0.39979511598904444,0.05148491249999998,-0.10777508349999998,0.1424906245000006
127512.0,0.4700327345,-2.379877822,7.4772764254999995,-0.19545942293084495,-0.15927525687849853,0.2212414266413052,7.860942180329726,0.3354411458489412,0.019122967500000032,-0.10051816250000023,0.21662889849999978
127522.0,0.4700327345,-2.49481176,7.755000753499999,-0.20558407792166405,-0.0721431846311856,0.22150846201686034,8.159966493566099,0.3107015463893043,0.0,-0.11493393800000007,0.2777243279999997
127532.0,0.4819968475,-2.5762069549999995,7.9501530885,-0.23622682359892852,-0.013521065715200072,0.2180439834516516,8.371027258740494,0.32175939788167524,0.011964112999999998,-0.08139519499999937,0.1951523350000004
127542.0,0.4843504435,-2.63602752,8.032725081499999,-0.25594555348796044,0.01898743693244631,0.20845165388269077,8.468052236097458,0.33063687198791236,0.0023535960000000133,-0.059820565000000325,0.08257199299999929
127552.0,0.40658370899999996,-2.658778948,8.1356949065,-0.24422043157306256,0.029913198049930815,0.19459548495110776,8.568777475136242,0.3136970216286156,-0.07776673450000005,-0.022751428000000296,0.10296982500000063
127562.0,0.30841914249999997,-2.6635842065,8.231505877,-0.19998855233977025,0.02325127629506846,0.18207274756804848,8.657221967563395,0.27145262629653255,-0.0981645665,-0.004805258499999798,0.09581097050000054
127572.0,0.24497011699999996,-2.6791767799999997,8.3583058615,-0.14216579422119813,0.024849997889895264,0.17514379043763098,8.780619309086314,0.2269448892804873,-0.0634490255,-0.015592573499999762,0.12679998449999985
127582.0,0.177892631,-2.63602752,8.548652938,-0.08620879307300791,0.03577575900737977,0.169281229480182,8.947611632650217,0.19330803291632984,-0.06707748599999996,0.043149259999999856,0.19034707650000016
127592.0,0.0761976705,-2.540314616,8.764203105,-0.0449073216538141,0.03977256299444678,0.17674251203245778,9.12525399640714,0.18664522459685337,-0.1016949605,0.09571290399999999,0.21555016699999996
127602.0,0.0330484105,-2.457742623,8.977203543,-0.022258183950683685,0.03177720969106076,0.19619420654593456,9.307619161246299,0.19999346111990998,-0.043149259999999995,0.08257199299999973,0.2130004379999999
127612.0,0.082179727,-2.4780423885,9.138817134999998,-0.01852667000991981,0.019254472308001442,0.22177549739241545,9.469182974982697,0.22337937113612197,0.049131316499999994,-0.0202997654999999,0.16161359199999836
127622.0,0.09051537949999999,-2.517563188,9.317200098499999,-0.015596262195821328,0.002467895562319982,0.24282591350071908,9.651763316357645,0.24333877243556157,0.008335652499999999,-0.03952079949999998,0.1783829635000007
127632.0,0.097674234,-2.5678713025,9.399870158,-0.0030735248127620146,-0.021247638313778967,0.26680673742312117,9.744796676660293,0.26766909388843935,0.007158854500000006,-0.050308114499999945,0.08267005950000161
127642.0,0.0916921775,-2.6313203279999997,9.438116093,0.00865159710213589,-0.038035960388712424,0.28386034954435774,9.798484041366107,0.28652797849172484,-0.005982056499999999,-0.06344902549999976,0.038245934999999065
127652.0,0.030694814499999997,-2.585817472,9.5231397485,0.02730393081819929,-0.037501889637602155,0.29158866747218865,9.868008149550663,0.29525556279725285,-0.060997363,0.0455028559999997,0.08502365550000057
127662.0,-0.026772154499999996,-2.5534555269999997,9.666807170999999,0.03822969193568379,-0.01884955592153876,0.3054448364037716,9.998400509977603,0.308404544696837,-0.05746696899999999,0.032361945000000336,0.1436674224999983
127672.0,-0.122583125,-2.56541964,9.804492537,0.03476521337047505,0.006464699549386997,0.3145048405508742,10.13530850344089,0.3164865038684735,-0.09581097050000001,-0.011964113000000332,0.13768536600000125
127682.0,-0.2434991195,-2.620533013,10.0115109185,0.02463881305040395,0.011793189755725684,0.3193010053353546,10.351658609356516,0.3204672876306027,-0.1209159945,-0.05511337300000019,0.20701838150000107
127692.0,-0.2937091675,-2.65760215,10.133603711,0.007852236304722489,-0.0039287361462392355,0.32143205235203964,10.480412130939847,0.32155195048691015,-0.05021004799999998,-0.03706913700000003,0.12209279249999838
127702.0,-0.357158193,-2.7378205469999997,10.222255827,-0.00813497964354557,-0.03590316804277536,0.31397076979976396,10.588566357871015,0.3161215899902521,-0.06344902550000003,-0.08021839699999944,0.08865211600000045
127712.0,-0.3296015065,-2.747431064,10.2868816505,-0.027853709532577507,-0.07480655706972897,0.30944164039083866,10.6525559700906,0.31957155524721675,0.02755668650000004,-0.009610517000000485,0.06462582350000012
127722.0,-0.2362421985,-2.7869518634999997,10.307181415999999,-0.040643482291191954,-0.11370994609668257,0.30251268326042113,10.679929766068406,0.3257234532966344,0.09335930799999997,-0.03952079949999954,0.020299765499999012
127732.0,-0.19554460099999998,-2.7438026035,10.363471587,-0.03851243527450687,-0.14461972714950214,0.29531843608370056,10.722324083542238,0.33107559837972395,0.040697597500000016,0.043149259999999856,0.056290171000000555
127742.0,-0.1309187775,-2.6612306104999996,10.401815588499998,-0.030784117346675986,-0.15554548826698666,0.298250589227051,10.7376466521173,0.3377802166724871,0.06462582349999998,0.08257199300000018,0.038344001499998726
127752.0,-0.162005858,-2.5798354155000003,10.5179263245,-0.023057544748097087,-0.1395565269894666,0.31477013059717734,10.830908126131641,0.3450911614506177,-0.031087080500000003,0.08139519499999937,0.11611073600000132
127762.0,-0.35960985549999996,-2.518739986,10.713078659499999,-0.022525219326238816,-0.12250466019748199,0.3403514214436582,11.011059201088798,0.36242774087328683,-0.19760399749999996,0.06109542950000035,0.1951523349999995
