timestamp,ax,ay,az,gx,gy,gz,acc_mag,gyro_mag,dax,day,daz
141812.0,-1.0874594185,1.2808465565,10.977564009999998,-0.35826722621538004,-0.06628062367373666,0.06402914893866397,11.10540622768161,0.3699300722683294,0.0,0.0,0.0
141822.0,-0.728241829,1.173071473,10.768093965999999,-0.39210741508229807,-0.12010483247598978,0.07149043149093973,10.856255362825491,0.4162742816237485,0.35921758949999993,-0.10777508349999998,-0.2094700439999997
141832.0,-0.40864310549999994,1.091676278,10.9368664125,-0.4320772002822202,-0.1326293151883011,0.07522020010245162,10.99880871769717,0.4581913582276431,0.31959872350000007,-0.08139519500000003,0.168772446500002
141842.0,-0.49003830049999997,1.1682662145,11.0135544155,-0.44273592602414963,-0.17339846118563665,0.08428020424955418,11.086178978668828,0.4828926168024881,-0.08139519500000003,0.07658993650000001,0.07668800299999923
141852.0,-0.49484355899999993,1.2604487245,10.966874761499998,-0.4259493492784681,-0.2210948189841377,0.11146021669086187,11.05015579842217,0.49268564728146175,-0.004805258499999965,0.09218251,-0.04667965400000185
141862.0,-0.561921045,1.1886640465,10.831542991500001,-0.3782512461507151,-0.2623962904033315,0.14716616252816186,10.911049493654057,0.48330497392977834,-0.06707748600000002,-0.07178467799999999,-0.13533176999999696
141872.0,-0.5463284715,1.1192329644999999,10.692680827499998,-0.3116355192605955,-0.2925067106587377,0.17514379043763098,10.764970065280304,0.4619006602875517,0.015592573499999984,-0.06943108200000014,-0.1388621640000025
141882.0,-0.5104361325,1.0258736565,10.583728945999999,-0.24288874535379085,-0.31249073059407273,0.18953228479107223,10.645575616511325,0.43882557617449797,0.035892338999999995,-0.09335930799999992,-0.10895188149999946
141892.0,-0.493666761,0.953990912,10.547836606999999,-0.19279430516304963,-0.3244828878845258,0.18740123777438714,10.602389476861529,0.42140006235471444,0.016769371499999963,-0.07188274449999998,-0.035892339000000106
141902.0,-0.4912150985,0.9001524034999999,10.486839244,-0.16881173591139553,-0.3420688254276206,0.16954826485573715,10.53685740399004,0.41743873517732144,0.002451662500000007,-0.05383850850000005,-0.06099736299999847
141912.0,-0.4865079065,0.8714189189999999,10.434079466999998,-0.15842004554502132,-0.3703134887126449,0.14263528778998458,10.48170192283434,0.42728657371364775,0.004707192000000027,-0.028733484500000017,-0.05275977700000212
141922.0,-0.43502299399999994,0.931239484,10.425743814499999,-0.14722899438123369,-0.37457732807526706,0.12158487168168099,10.476286845416858,0.42043719211835484,0.051484912500000035,0.0598205650000001,-0.008335652499999568
141932.0,-0.4768973895,1.007927487,10.450848838499999,-0.1325734646522373,-0.35752371595403043,0.11252486753457841,10.510166049322857,0.3975685812701384,-0.04187439550000005,0.0766880029999999,0.025105024000000142
141942.0,-0.450517501,1.0509786804999999,10.546659809,-0.12457985667810326,-0.33833905681610876,0.11518998530237376,10.608466210171418,0.37849992175839603,0.026379888500000004,0.04305119349999997,0.09581097050000054
141952.0,-0.4649332765,1.1060920534999998,10.669929399499999,-0.13870131565598937,-0.31542288373742317,0.12051847550871243,10.737178212767416,0.3650402080440982,-0.014415775500000005,0.055113372999999966,0.12326959049999964
141962.0,-0.450517501,1.1323738755,10.747794200500001,-0.17893813623146665,-0.30076735400842686,0.12558167566874798,10.816668469955232,0.3718206759971692,0.014415775500000005,0.026281822000000066,0.07786480100000226
141972.0,-0.40511271149999994,1.149143247,10.733378425,-0.22850025100034962,-0.2994356677891552,0.12558167566874798,10.802317294238309,0.39704513737776803,0.04540478950000004,0.01676937150000013,-0.014415775500001615
141982.0,-0.370299104,1.1275686169999999,10.6244265435,-0.26367387141579135,-0.2927737460342928,0.1247823148713346,10.690508490745136,0.4132928779195121,0.034813607499999955,-0.02157463000000015,-0.10895188149999946
141992.0,-0.37157396849999996,1.1311970775,10.491546435999998,-0.27379852640661045,-0.27572013391305616,0.1301125504069253,10.55889296569274,0.4097761597273073,-0.0012748644999999725,0.003628460500000097,-0.1328801075000019
142002.0,-0.355981395,1.1168793685,10.410151241,-0.26127404369429913,-0.25200460003695724,0.1397048799758861,10.475943448580702,0.3889574499058143,0.015592573499999984,-0.014317708999999956,-0.08139519499999892
142012.0,-0.4062895095,1.1192329644999999,10.452123703,-0.23169769419000322,-0.2368167448861026,0.15888953911380777,10.519726398398754,0.3674396246884812,-0.0503081145,0.002353595999999847,0.04197246200000038
142022.0,-0.425412477,1.1204097625,10.4963516945,-0.1933266305849079,-0.2538703570073392,0.1762101866105995,10.56454886429731,0.3645207458097407,-0.019122967500000032,0.0011767980000001454,0.044227991499999675
142032.0,-0.4325713315,1.055783939,10.557447124,-0.15575492777722594,-0.295171828426533,0.1884676339473557,10.61892120032642,0.38328325670353247,-0.007158854499999978,-0.06462582350000012,0.06109542949999991
142042.0,-0.4325713315,1.009104285,10.6004983175,-0.1341721862470641,-0.3399377784109356,0.19273147330997784,10.657202916063921,0.41316496651762946,0.0,-0.04667965399999985,0.043051193500000196
142052.0,-0.41109476799999994,0.9695834855,10.6363906565,-0.13630323326374916,-0.3852360538171964,0.1892669947447691,10.688400125430924,0.4503414081100186,0.021476563500000045,-0.03952079950000009,0.035892339000000106
142062.0,-0.3823612834999999,1.0294040505,10.593339463,-0.1554896377309228,-0.4169451956674294,0.1807393160195248,10.650103935110618,0.48029889026214734,0.028733484500000017,0.05982056499999999,-0.043051193500000196
142072.0,-0.3141069995,1.0605891975,10.492821300500001,-0.1879981403785692,-0.42813624683121704,0.1708799510750088,10.550962586286387,0.49783923541231506,0.06825428399999994,0.03118514699999997,-0.10051816249999845
142082.0,-0.284196717,1.122861425,10.3671000475,-0.22823321562479448,-0.41774455646484276,0.16342041385198508,10.431603373814646,0.5032962813631711,0.029910282499999996,0.062272227500000055,-0.1257212530000018
142092.0,-0.2745862,1.150320045,10.290510111,-0.2618081144454094,-0.3839026222686727,0.16155465688160311,10.358244645293547,0.49195997737047303,0.009610516999999985,0.02745861999999999,-0.07658993649999957
142102.0,-0.272232604,1.1539485054999998,10.217450568499999,-0.2756642833769924,-0.33167713506124635,0.16448506469570162,10.28601010420305,0.46157973911355354,0.0023535960000000133,0.003628460499999875,-0.07305954250000113
142112.0,-0.30086802199999996,1.1587537639999999,10.186363488,-0.26607195380803156,-0.2767847847567727,0.1754108258131861,10.256472734907742,0.42210550753163617,-0.028635417999999968,0.00480525850000002,-0.031087080499998976
142122.0,-0.33087637099999995,1.1515949095,10.243830457,-0.24182234918082232,-0.23202058010162216,0.19219740255886758,10.31366629478738,0.38633073875165597,-0.03000834899999999,-0.007158854499999867,0.057466969000000034
142132.0,-0.32126585399999996,1.1012867949999998,10.290510111,-0.21837385068027854,-0.19924504207842067,0.20685293228786397,10.354257225816873,0.3607961488844523,0.009610516999999985,-0.05030811450000017,0.04667965400000007
142142.0,-0.3164605955,1.0378377694999998,10.3312077085,-0.20451768174869553,-0.180060382940499,0.21511357563755312,10.388027111077191,0.3471643329550332,0.004805258499999965,-0.06344902549999998,0.04069759749999946
142152.0,-0.31165533700000003,1.0198915999999998,10.4280974105,-0.19759046994753005,-0.16940165719856962,0.21164909707234436,10.4824865145493,0.33546125792294723,0.004805258499999965,-0.017946169500000053,0.09688970200000036
142162.0,-0.332053169,0.950460518,10.5179263245,-0.19679110915011663,-0.17499718278046344,0.1956618811240763,10.56600249247225,0.32807670802213956,-0.02039783199999995,-0.06943108199999981,0.08982891399999993
142172.0,-0.3129302015,0.9229038314999999,10.5969679235,-0.19226023441193937,-0.20297481068993256,0.16981530023129227,10.641682478109187,0.3271085564509002,0.019122967499999977,-0.027556686500000094,0.07904159899999996
142182.0,-0.3727507665,0.9360447424999999,10.675911456,-0.1770723792610847,-0.2437439566872681,0.14476808013592168,10.72334874515607,0.33425071569854103,-0.05982056499999999,0.013140911000000033,0.0789435325000003
142192.0,-0.41580195999999997,0.9672298894999999,10.733378425,-0.15895411629613157,-0.2890422320935289,0.13064487582878354,10.784889306030799,0.3547955842473407,-0.04305119349999997,0.03118514699999997,0.057466969000000034
142202.0,-0.39903258849999995,1.0031222285,10.7513245945,-0.14083410800192644,-0.34393458239800256,0.12131783630612585,10.80539040240085,0.39095173660182997,0.01676937150000002,0.03589233900000022,0.017946169500000053
142212.0,-0.38706847549999995,1.089322682,10.76574037,-0.12511218209996153,-0.3775077358893655,0.12131783630612585,10.827631856712404,0.4157922151413237,0.011964112999999998,0.08620045349999983,0.014415775499999839
142222.0,-0.3141069995,1.1192329644999999,10.747794200500001,-0.12697793907034347,-0.3956277441835706,0.12851382881209847,10.810477594087128,0.43492587089557916,0.07296147599999997,0.02991028249999994,-0.017946169499998277
142232.0,-0.21231397249999998,1.1527717075,10.618444487,-0.15362388076054087,-0.3937619872131887,0.1397048799758861,10.682945434477885,0.44515868272233555,0.10179302700000001,0.03353874300000004,-0.12934971350000168
142242.0,-0.077080269,1.2029817555,10.5167495265,-0.17840581080960838,-0.36258691611406596,0.15569209592415417,10.585609433333206,0.43305650185743494,0.13523370349999997,0.05021004800000006,-0.10169496049999971
142252.0,-0.032754211,1.193469305,10.508315807499999,-0.19146087361452596,-0.3164892799103918,0.1714140218261191,10.575922793329656,0.40768308439527023,0.04432605800000001,-0.009512450499999936,-0.008433719000001005
142262.0,-0.0938496405,1.1563021015,10.467618209999998,-0.18160325399926197,-0.28024926332198147,0.1815386768169382,10.531707995158186,0.3800995693710774,-0.0610954295,-0.037167203500000134,-0.04069759750000124
142272.0,-0.17406803749999997,1.159930562,10.5191031225,-0.1576206847476079,-0.2501388430665753,0.18527019075770207,10.584293509352904,0.34891082622123504,-0.08021839699999997,0.003628460500000097,0.05148491250000298
142282.0,-0.28537351499999997,1.1300202794999998,10.6112856325,-0.13870131565598937,-0.2181644111700392,0.1855354808040052,10.67510031098751,0.3182093334631241,-0.1113054775,-0.029910282500000163,0.09218250999999889
142292.0,-0.3607866535,1.088145884,10.686698770999998,-0.13630323326374916,-0.1995120774539758,0.17834123362728457,10.748011867145603,0.3003152278187954,-0.07541313850000003,-0.04187439549999983,0.07541313849999831
142302.0,-0.367945508,1.0737301085,10.723865974499999,-0.1528245199631275,-0.18938567713390472,0.16555146086867015,10.783764726745275,0.2943289907589444,-0.007158854499999978,-0.014415775500000061,0.03716720350000102
142312.0,-0.34637087799999994,1.0605891975,10.726219570499998,-0.18133621862370683,-0.18352311617645575,0.15462569975118565,10.784090527511225,0.300786744022082,0.02157463000000004,-0.013140911000000033,0.0023535959999989586
142322.0,-0.27340940199999997,1.091676278,10.677088254,-0.20611640334352233,-0.20350888144104282,0.1437016839629531,10.736234134032038,0.3233419405620658,0.07296147599999997,0.031087080500000086,-0.04913131649999869
142332.0,-0.180050094,1.1527717075,10.678363118499998,-0.20824919568945943,-0.233619301696449,0.14316935854109483,10.741915077699268,0.3441557363396865,0.09335930799999997,0.06109542949999991,0.0012748644999991399
142342.0,-0.15484700349999997,1.1778767314999998,10.6244265435,-0.189596861973396,-0.27198861997229234,0.15089593113967376,10.690641260809823,0.3642723726816243,0.025203090500000025,0.02510502399999992,-0.053936574999998044
142352.0,-0.12493672099999999,1.1838587879999998,10.593339463,-0.1592194063424347,-0.3231494563360021,0.16395273927384335,10.660017438659853,0.3957990540687129,0.029910282499999982,0.005982056499999944,-0.031087080500000752
142362.0,-0.136900834,1.2066102159999998,10.595693058999998,-0.1275102644922017,-0.3604541237681289,0.17860826900283971,10.665053279390882,0.42200350312350676,-0.011964113000000012,0.022751428000000073,0.0023535959999989586
142372.0,-0.12375992299999998,1.2006281595,10.541854550499998,-0.11738560950138262,-0.3828379714249562,0.1932637987318361,10.610726735705846,0.4446292720717411,0.013140911000000019,-0.005982056499999944,-0.05383850850000016
142382.0,-0.09738003449999999,1.2018049575,10.435354331499997,-0.1275102644922017,-0.3849690184416412,0.2057865361148954,10.504781675548834,0.4547615981555161,0.02637988849999999,0.0011767980000001454,-0.10650021900000084
142392.0,-0.050700380499999996,1.113250908,10.2880584485,-0.14403155119158004,-0.360721159143684,0.21937741500017527,10.348238727073216,0.4460844007637735,0.046679653999999994,-0.08855404950000012,-0.14729588299999818
142402.0,-0.049523582499999996,1.04146623,10.151647946999999,-0.15069347294644242,-0.3055635187929073,0.2305684661639629,10.20505073643847,0.4113871709168458,0.0011767979999999997,-0.07178467799999999,-0.13641050150000034
142412.0,-0.11532620399999999,0.9576193725,10.128896518999998,-0.1344392216226192,-0.24134587429502788,0.23243422313434486,10.17471767119494,0.3610365680007962,-0.06580262149999999,-0.08384685749999998,-0.022751428000001184
142422.0,-0.192014207,0.8546495475,10.224609423,-0.09633519339307901,-0.184057186927566,0.22150846201686034,10.262062812009688,0.30368324993460827,-0.076688003,-0.10296982499999996,0.09571290400000265
142432.0,-0.3056732805,0.7936521845,10.4832107835,-0.04197691383971562,-0.14222164475726193,0.1985922889381748,10.5176531733873,0.24784663556052405,-0.11365907349999999,-0.06099736300000003,0.25860136050000015
142442.0,-0.42305888099999994,0.7697239585,10.823207339,0.013180726511061176,-0.12276995024378513,0.16555146086867015,10.858787726632533,0.2065271856922756,-0.11738560049999996,-0.023928225999999997,0.3399965554999991
142452.0,-0.46973853499999996,0.7456976659999999,11.2589167985,0.056347954900636925,-0.11450930689409597,0.13091191120433868,11.29335763959892,0.18282615207355624,-0.046679654000000015,-0.0240262925000001,0.43570945949999995
142462.0,-0.46973853499999996,0.787670128,11.6719728965,0.08139517499600755,-0.0969233693510011,0.10266550259006245,11.707947293118382,0.1629709159974607,0.0,0.041972462000000155,0.4130560980000002
142472.0,-0.446987107,0.8211108045,12.1950596075,0.10537774424766164,-0.059618701918874306,0.08374787882769591,12.230842131986208,0.1472160514663928,0.022751427999999962,0.03344067649999993,0.5230867109999995
142482.0,-0.367945508,0.7313799569999999,12.730208497999998,0.13628752530048122,-0.0007312929565856241,0.0773529924483887,12.756508493349976,0.1567109114983323,0.07904159900000002,-0.08973084750000004,0.5351488904999986
142492.0,-0.3607866535,0.7038232704999999,13.399316227499998,0.1703947495429544,0.07654315967546332,0.08134979643545569,13.422637951236926,0.20374252218179617,0.007158854499999978,-0.027556686499999983,0.6691077295000003
142502.0,-0.49003830049999997,0.8546495475,14.3019202935,0.22048918973369566,0.1495537729448901,0.08961043978514485,14.33581136408491,0.2810904564547869,-0.12925164699999997,0.15082627700000006,0.9026040660000021
142512.0,-0.6528286905,0.8438622324999999,15.267973385,0.27218235151926373,0.17726611080805607,0.09893573397855056,15.305204998680944,0.33955085919114475,-0.16279039000000006,-0.010787315000000075,0.9660530914999992
142522.0,-0.9605613674999999,0.9288858879999999,16.2759989385,0.31135277592177246,0.15514929852678394,0.10879509892306653,16.330757746648256,0.36448351054228284,-0.30773267699999984,0.08502365550000002,1.0080255534999996
142532.0,-1.2095522109999999,1.053430343,17.1354537445,0.3348012744223163,0.08427147760329422,0.12904615423395674,17.210360457253273,0.36857358181891414,-0.2489908435,0.12454445500000011,0.8594548060000022
142542.0,-1.317229228,1.218574329,17.554491899,0.3004287601335399,0.02218488012209992,0.16954826485573715,17.64596843662744,0.3456822571914839,-0.1076770170000001,0.1651439859999999,0.41903815449999726
142552.0,-1.42980957,1.412549866,17.592737833999998,0.18851301250790753,-0.003394665395128971,0.2382950387625418,17.70717586252125,0.3038637937247422,-0.112580342,0.19397553700000003,0.038245934999999065
142562.0,-1.499240652,1.3406671215,17.4431864215,0.026237534645230758,0.04057192379186019,0.3166358875675593,17.5587546084135,0.3203010685591421,-0.06943108199999992,-0.0718827445000001,-0.14955141249999926
142572.0,-1.6081925334999998,1.1012867949999998,17.240875232,-0.128044335243312,0.1362316747644174,0.37632265732726133,17.350703000023877,0.4202060963561464,-0.1089518814999999,-0.23938032650000007,-0.20231118949999782
142582.0,-1.9266144589999998,0.8415086365,17.2276362545,-0.25861067125575576,0.24068439450852205,0.3819181829091552,17.355443842676415,0.5202595078265436,-0.31842192550000004,-0.25977815849999986,-0.013238977500002136
142592.0,-2.284557184,0.6451795035,17.3545343055,-0.35533681840128156,0.26439992838462095,0.3355552566591778,17.516144526678204,0.5556697822564628,-0.35794272500000024,-0.196329133,0.1268980510000013
142602.0,-2.529919567,0.6559668185,17.3055010555,-0.41928742752360576,0.18019826395140656,0.24948783525558144,17.501747120341275,0.5201130080578449,-0.2453623829999998,0.010787315000000075,-0.049033250000000805
142612.0,-2.5455121405,0.755308183,17.0995614055,-0.44833145160604343,0.02564935868730867,0.1466320917770516,17.304482736250883,0.4723980847115766,-0.015592573500000206,0.09934136449999997,-0.2059396499999977
142622.0,-2.2605308914999998,0.860631604,16.6721875985,-0.4467327300112166,-0.14488676252505725,0.060564670373455226,16.846736360162065,0.4735297090106514,0.2849812490000003,0.10532342100000003,-0.42737380700000216
142632.0,-1.927791257,1.1323738755,16.0245564325,-0.4339429572526021,-0.2922396752831825,0.0011449359893082802,16.179773131377882,0.5231747593655233,0.33273963449999977,0.27174227149999985,-0.647631166
142642.0,-1.6165281859999998,1.5166964889999999,15.3781020645,-0.41369190194171196,-0.4156117641189057,-0.016175711507483446,15.537038157964876,0.5866308735899887,0.31126307100000017,0.38432261349999997,-0.6464543679999988
142652.0,-1.3232112845,1.8422772689999998,14.916110782999999,-0.372123395146963,-0.517401111424467,0.007539822368615503,15.087585444001007,0.6373669117865524,0.2933169014999999,0.3255807799999999,-0.46199128150000135
142662.0,-1.164049355,2.0469420544999997,14.5772910255,-0.29591533868788256,-0.6016027758576814,0.04830722303669905,14.76625871090844,0.6721795707903874,0.15916192949999997,0.2046647854999999,-0.3388197574999996
142672.0,-1.1388462645,2.073321943,14.698207019999998,-0.2189079214313888,-0.6802089147090021,0.07628659627542014,14.887341075432783,0.7186268089114812,0.025203090500000025,0.02637988850000017,0.1209159944999989
142682.0,-1.1652261529999999,1.9763341744999998,14.930428491999999,-0.2189079214313888,-0.7865291367527406,0.07015874527166806,15.10567256733897,0.819433347237295,-0.02637988849999995,-0.09698776850000002,0.23222147200000087
142692.0,-1.0287175849999999,2.038606402,14.963967235,-0.36146466940503363,-0.9306846063212123,0.037116171872911406,15.137189017189327,0.9991036752438957,0.136508568,0.06227222750000028,0.03353874300000115
142702.0,-0.8120886864999999,2.3115254715,14.752045528499998,-0.6305926947333073,-1.0524579735621087,-0.004452334921837535,14.954112655556377,1.226920843433565,0.2166288985,0.2729190694999999,-0.21192170650000186
142712.0,-0.39903258849999995,2.6251421384999998,14.213366244,-0.973261913423614,-1.1177420142329566,-0.03482804522354685,14.45926617225411,1.482497539706773,0.4130560979999999,0.3136166669999998,-0.5386792844999988
142722.0,0.11444360549999999,2.9603334355,13.417262396999998,-1.3393813759437163,-1.0902949664160937,-0.04255636315137774,13.740436733165696,1.7275695725677231,0.5134761939999999,0.33519129700000017,-0.7961038470000013
142732.0,0.6304695284999999,3.2069706829999998,12.525445645999998,-1.687647865545169,-0.9562641518384413,-0.00951378975262109,12.94484227091581,1.939764665717446,0.5160259229999999,0.24663724749999982,-0.8918167510000004
142742.0,0.960855567,3.2680661124999997,11.694626258,-1.9666352558179585,-0.7305703902752985,0.05816658798121502,12.180631463541157,2.0987545536652314,0.33038603850000003,0.06109542949999991,-0.8308193879999983
142752.0,1.0027299625,3.2561019995,11.0182616075,-2.136104980857356,-0.4771660361782417,0.14236999774368145,11.532985583106901,2.1933766506423824,0.04187439549999994,-0.011964112999999887,-0.6763646505
142762.0,0.9656608255,3.0417286304999998,10.4280974105,-2.194193029022231,-0.2634626865763,0.22790334839616755,10.905495380512779,2.2216740472080825,-0.03706913699999992,-0.21437336900000004,-0.590164197
142772.0,0.9022117999999999,2.6814323095,9.9960164115,-2.1608851655771715,-0.1054510480762454,0.30251268326042113,10.38866735734026,2.184504187655697,-0.06344902550000009,-0.36029632099999986,-0.4320809990000001
142782.0,0.812382886,2.341435754,9.678771284,-2.07268669715689,-0.0039287361462392355,0.35953608058157993,9.99104103242291,2.103642501181892,-0.08982891399999993,-0.33999655549999996,-0.31724512749999967
142792.0,0.6651850695,2.0349779414999998,9.42615198,-1.9565088554978873,0.05629210436457311,0.4005705166252186,9.66622716209045,1.9978869941627928,-0.14719781649999997,-0.30645781250000015,-0.25261930399999954
142802.0,0.4592454194999999,1.655558653,9.2897414785,-1.8219457154983765,0.06695083010650248,0.42135564268721903,9.447278843466952,1.8712319956379542,-0.20593965000000009,-0.37941928849999984,-0.13641050150000034
142812.0,0.31440119899999996,1.1419843925,9.1185173695,-1.683918096933657,0.004598942579005058,0.40829883455304944,9.195125637234078,1.7327173011633756,-0.14484422049999995,-0.5135742605,-0.17122410900000062
142822.0,0.185149552,0.72176944,9.010742286,-1.5346994272051497,-0.12650146418454902,0.35953608058157993,9.041499213395541,1.581319431849433,-0.12925164699999997,-0.42021495249999996,-0.10777508349999998
142832.0,0.1013026945,0.40217071649999997,8.735469620499998,-1.374287960983603,-0.2922396752831825,0.2891905850799485,8.745309200468641,1.4344694566329992,-0.0838468575,-0.3195987235,-0.27527266550000107
142842.0,0.1336646395,0.213000438,8.4242065495,-1.2298654560395763,-0.4555815493188279,0.21244845786975777,8.427958911330759,1.3286300972394147,0.03236194499999999,-0.18917027849999998,-0.31126307099999906
142852.0,0.24732371299999997,0.175931301,7.968099258,-1.1176844183676407,-0.5634987476281412,0.15089593113967376,7.973877765994648,1.2607612302394153,0.11365907349999999,-0.037069136999999974,-0.4561072914999995
142862.0,0.429335137,0.12562318649999998,7.582599846499999,-1.0526691584016,-0.6090640584099571,0.11252486753457841,7.595783717101945,1.2213653139460015,0.182011424,-0.05030811450000003,-0.38549941150000056
142872.0,0.636451585,0.0789435325,7.239072896999999,-1.03721426787519,-0.5930768424616891,0.10666405190638145,7.267425892945352,1.1995544166553183,0.207116448,-0.04667965399999999,-0.3435269495000002
142882.0,0.7620747714999999,0.06099736299999999,6.913492117,-1.0492046798363912,-0.5269934409934278,0.12691510721727167,6.955634542403077,1.1809572352463273,0.12562318649999993,-0.017946169500000005,-0.32558077999999924
142892.0,0.8555321459999999,-0.024026292499999997,6.681172578499999,-1.084643590298136,-0.3857683792390547,0.16715018246349694,6.735768667291877,1.1632747499594143,0.09345737450000002,-0.08502365549999999,-0.23231953850000053
142902.0,0.6220358094999999,-0.07786480099999998,6.6261572719999995,-1.1144869751779871,-0.2210948189841377,0.21058444622862782,6.65574576353496,1.1555561197174398,-0.2334963365,-0.053838508499999986,-0.05501530649999964
142912.0,0.2952782315,-0.18318822199999998,6.7351091535,-1.0969010376348922,-0.11983954242968664,0.2382950387625418,6.7440672051987125,1.1288657704940395,-0.32675757799999994,-0.105323421,0.10895188150000035
142922.0,-0.060310897499999995,-0.274193934,6.937420343,-1.0238904243654654,-0.1139769814722377,0.23909439955995518,6.943098784640032,1.057595615211103,-0.355589129,-0.09100571199999999,0.2023111895000005
142932.0,-0.38706847549999995,-0.3376429595,7.157677701999999,-0.890126645163368,-0.20217544989251915,0.21084973627493098,7.1760835320203595,0.9368340131828279,-0.32675757799999994,-0.06344902550000003,0.22025735899999876
142942.0,-0.4996488175,-0.39873838899999997,7.357537229,-0.7217215709676872,-0.36338627691147934,0.16661785704163867,7.385255264363749,0.8250412853504973,-0.11258034200000006,-0.061095429499999965,0.19985952700000098
142952.0,-0.40148425099999996,-0.4549304935,7.34321952,-0.5653086540624593,-0.5379192021109124,0.12051847550871243,7.368244314395812,0.7895920752492986,0.09816456650000005,-0.056192104500000006,-0.014317709000000178
142962.0,-0.16445752049999998,-0.49690295549999997,7.188764782499999,-0.4661844245246934,-0.6658204203555608,0.0853466004225227,7.207794247989179,0.8172691062529875,0.23702673049999998,-0.04197246199999999,-0.15445473750000094
142972.0,0.1383718315,-0.42619700899999996,7.034310045,-0.44273592602414963,-0.707921252572168,0.06136403117086863,7.048567830660432,0.8372175012249492,0.30282935199999994,0.0707059465,-0.15445473749999916
142982.0,0.4245298785,-0.3843226135,6.875148115499999,-0.4896329230252372,-0.6719500166885648,0.058700658732325287,6.898955797731269,0.83348844717465,0.286158047,0.04187439549999994,-0.15916192950000063
142992.0,0.5873202685,-0.2813527885,6.862007204499999,-0.5791648229940424,-0.5765555557623108,0.07175746686649485,6.8928402972938185,0.8203641478789792,0.16279038999999995,0.10296982500000001,-0.01314091099999981
143002.0,0.5645688405,-0.22633748199999998,6.774629953,-0.6737581777936309,-0.4425247411846583,0.09334020839665674,6.801880448192719,0.8114743515403763,-0.022751427999999962,0.05501530650000003,-0.08737725149999953
143012.0,0.48317364549999997,-0.25379610199999997,6.7602141775,-0.7467687910630578,-0.33354289203162835,0.11172550673716501,6.782209445215338,0.8254677928219124,-0.08139519500000003,-0.02745861999999999,-0.014415775499999839
143022.0,0.36470931349999997,-0.353235533,6.831998855499999,-0.7768792113184639,-0.2631956512007449,0.1250493502468897,6.850839115515758,0.8297292328145079,-0.118464332,-0.09943943100000002,0.07178467799999932
143032.0,0.301260288,-0.505238608,6.9230045675,-0.763023042386881,-0.24054651349761447,0.1373067975836459,6.947950493042209,0.811738840411044,-0.06344902549999998,-0.152003075,0.0910057120000003
143042.0,0.34911674,-0.7362832819999999,6.934968680499999,-0.7307815751147897,-0.2666601297659536,0.1405042407732995,6.982677578767103,0.7905003333391641,0.047856451999999994,-0.23104467399999995,0.011964112999999443
143052.0,0.47836838699999995,-0.8691633894999999,6.845237833,-0.7006711548593836,-0.32608160947935255,0.12904615423395674,6.9167595231916685,0.7835318712185239,0.12925164699999997,-0.1328801075,-0.08973084749999938
143062.0,0.5645688405,-0.9146662455,6.685977837,-0.6732258523717728,-0.38363733222236956,0.12185190705723611,6.771827814790907,0.7843841777024075,0.08620045350000005,-0.045502856000000036,-0.1592599959999994
143072.0,0.6627334069999999,-0.957717439,6.466897276,-0.6420490359433981,-0.398292861951366,0.13330999359657889,6.570935902902628,0.7672259920192855,0.09816456649999994,-0.04305119349999997,-0.21908056100000017
143082.0,0.5969307855,-0.9158430435,6.320876257499999,-0.5935533173474836,-0.3497971433554515,0.1623540176790165,6.4147152318425,0.7078293643883073,-0.06580262149999994,0.04187439549999994,-0.14602101850000082
143092.0,0.44129925,-0.866711727,6.3795200245000006,-0.5197433432806434,-0.2677265259389222,0.20232380287893867,6.453232522446899,0.6186643328876014,-0.15563153550000003,0.04913131650000002,0.05864376700000129
143102.0,0.271251939,-0.8500404219999999,6.5303463015,-0.42994615326553515,-0.17046630804228616,0.25268527844523503,6.591021859390237,0.5270315994590311,-0.17004731099999998,0.016671305000000136,0.1508262769999993
143112.0,0.0989490985,-0.8763222439999999,6.7625677735,-0.3465421043004821,-0.09052848297169387,0.294252039910732,6.819828039665215,0.4635419067072464,-0.1723028405,-0.026281822000000066,0.23222147199999998
143122.0,0.084533323,-1.0702977809999998,6.9840999969999995,-0.2863230091189218,-0.039100611232428965,0.31796757378683094,7.0661401055177455,0.4296662673861511,-0.014415775500000005,-0.19397553699999992,0.22153222349999968
143132.0,0.12170052649999999,-1.2965371964999999,7.2427013575,-0.24821898088938155,-0.0007312929565856241,0.32116501697648453,7.358841123029549,0.40590659688240727,0.037167203499999996,-0.22623941550000004,0.25860136050000015
143142.0,0.097674234,-1.3875429085,7.539548652999999,-0.2277008902029362,0.011526154380170552,0.31263908358049225,7.666786123915954,0.3869415255772572,-0.02402629249999999,-0.09100571200000007,0.2968472954999992
143152.0,0.0414821295,-1.3827376499999997,7.8028572055,-0.2151764074906249,0.0016685347649065792,0.30517780102821646,7.924535617007386,0.3734128554150899,-0.0561921045,0.004805258500000242,0.26330855250000074
143162.0,-0.07825706699999999,-1.3970553589999999,8.039883935999999,-0.2103802427061445,-0.008990190977022791,0.302247393214118,8.160736581277263,0.36836687793506795,-0.11973919649999998,-0.014317709000000178,0.23702673049999934
143172.0,-0.17406803749999997,-1.429417304,8.2494520465,-0.21544344286618003,-0.03830125043501557,0.29851587927335416,8.374186084519305,0.3701278063551326,-0.09581097049999998,-0.032361945000000114,0.20956811050000113
143182.0,-0.262622087,-1.4006838195,8.315254668,-0.2205066430262156,-0.059351666543319165,0.29398674986442885,8.4364889448446,0.37225530088369524,-0.08855404950000004,0.028733484500000017,0.0658026214999996
143192.0,-0.30331968449999996,-1.3707735369999998,8.430188606,-0.22476873705958572,-0.047893580003976394,0.30251268326042113,8.546291760376361,0.3799061774943629,-0.04069759749999996,0.029910282500000163,0.11493393800000007
143202.0,-0.31165533700000003,-1.4556991259999998,8.555909859,-0.22850025100034962,-0.01698379895115682,0.31503716597273246,8.684456373881508,0.3895500353974661,-0.008335652500000068,-0.08492558900000002,0.12572125300000003
143212.0,-0.34519408,-1.601818211,8.734194755999999,-0.22636745865441257,0.004331907203449926,0.3232978093224216,8.886570686698901,0.3946928746131014,-0.03353874299999998,-0.14611908500000026,0.17828489699999928
143222.0,-0.3823612834999999,-1.7490160275,8.791661724999999,-0.21784152525842027,-0.010056587149991327,0.3208997269301814,8.97209970421649,0.38798543763379223,-0.03716720349999991,-0.14719781649999986,0.057466969000000034
143232.0,-0.358334991,-1.8543394485,8.861092807,-0.19865686612049857,-0.04309741521949598,0.3033120440578345,9.060129385958316,0.3651302969159928,0.024026292499999935,-0.10532342100000003,0.06943108200000125
143242.0,-0.41707682449999994,-1.7501928254999999,8.9472932605,-0.16268388490764343,-0.08413359659238666,0.2801305809328459,9.126400423680488,0.3346903805877718,-0.05874183349999995,0.1041466230000001,0.08620045350000005
143252.0,-0.575061956,-1.4712916994999998,9.064678860999999,-0.10592752296203986,-0.13529443295609644,0.2670737727986763,9.201293298842092,0.31757459568848406,-0.15798513150000004,0.27890112600000005,0.11738560049999869
143262.0,-0.655280353,-1.2988907925,9.205894620999999,-0.0449073216538141,-0.18778695553907787,0.266541447376818,9.320139773888897,0.32912756095241213,-0.080218397,0.17240090699999988,0.1412157599999997
143272.0,-0.6265468685,-1.2965371964999999,9.311218042,0.0001256637061435917,-0.2181644111700392,0.28306098874694435,9.421908039564043,0.3573783001847408,0.028733484500000017,0.002353596000000069,0.10532342100000136
143282.0,-0.5259306395,-1.4353993605,9.4178163275,0.015046483481443114,-0.20750568542810985,0.31157268740752375,9.541081633662627,0.3746498974889671,0.100616229,-0.13886216400000007,0.1065982855000005
143292.0,-0.42904093749999994,-1.6580103154999999,9.541085918,-0.004937536453891958,-0.158210606034782,0.3403514214436582,9.693574925021894,0.3753585821675657,0.09688970200000002,-0.22261095499999994,0.12326959049999964
143302.0,-0.35480459699999994,-1.9417167,9.6188526525,-0.05529901202018834,-0.0969233693510011,0.3648645707879186,9.819291033247639,0.38154721237746136,0.0742363405,-0.2837063845000001,0.07776673449999905
143312.0,-0.3823612834999999,-2.1680541819999997,9.693088993,-0.11765089954768576,-0.03590316804277536,0.3704618416990644,9.93995137379581,0.3903495200393489,-0.027556686499999983,-0.2263374819999997,0.07423634050000061
143322.0,-0.42658927499999993,-2.2350336015,9.799687278499999,-0.17200917910104915,0.008862781941627205,0.36433224536606035,10.060378937484105,0.4029934138571459,-0.04422799150000001,-0.06697941950000041,0.10659828549999872
143332.0,-0.552310528,-2.1260817199999997,9.8942233845,-0.20904855648687282,0.019786797729859713,0.34647927244741034,10.135133288805058,0.4051428174969099,-0.1257212530000001,0.10895188150000035,0.0945361060000014
143342.0,-0.6959779505,-1.8160935134999998,10.110950349499998,-0.20078791313718367,-0.00019722220547535924,0.33901798989513454,10.2963050618857,0.3940165255812516,-0.14366742249999997,0.3099882064999999,0.21672696499999766
143352.0,-0.936535075,-1.4222584495,10.224609423,-0.15868708092057643,-0.028176595444196456,0.35687096281378455,10.36545005760868,0.39157680508625264,-0.2405571245,0.3938350639999999,0.1136590735000027
