timestamp,ax,ay,az,gx,gy,gz,acc_mag,gyro_mag,dax,day,daz
136832.0,-0.470915333,-0.3576485255,10.1072238225,0.2845846611839354,0.16643983345793525,-0.046890015684079654,10.124507253035,0.33300048215210404,0.0,0.0,0.0
136842.0,0.9405558014999998,-0.4498310355,10.0366159425,0.2907125121876875,0.2245296269520625,-0.08286299689693478,10.090622020147196,0.37655490220743393,1.4114711344999997,-0.09218251,-0.07060788000000073
136852.0,1.3259571465,-0.5431903435,10.102418563999999,0.3125622890934045,0.3391087470162383,-0.12203167597019153,10.2035326699079,0.47705519262065044,0.3854013450000001,-0.09335930799999997,0.0658026214999996
136862.0,1.333116001,-0.46660040699999994,10.0581905725,0.3341450306235664,0.4587493219111976,-0.1753253046798384,10.156875100377215,0.5940057275022572,0.007158854500000089,0.07658993650000001,-0.044227991499999675
136872.0,1.3043825164999998,-0.31214566949999994,10.029457088000001,0.33228101898243645,0.5770582105868852,-0.22488741944872134,10.118737972117469,0.7028379652580311,-0.02873348450000024,0.1544547375,-0.02873348449999824
136882.0,1.2948700659999999,-0.075118939,10.12634679,0.30536804191668393,0.6982992524059233,-0.2515333611389188,10.209075896189754,0.8025836521513149,-0.009512450499999936,0.23702673049999995,0.09688970199999858
136892.0,1.2744722339999999,0.20623384949999998,10.344250553,0.2518091231607339,0.8317977415617175,-0.2502016749196471,10.424506289467974,0.9043761360776544,-0.020397832000000005,0.2813527885,0.2179037630000007
136902.0,1.2194569275,0.4300216025,10.7284751,0.18386171005134264,0.9389155790736176,-0.2315475958743317,10.806117329918477,0.9843687734814293,-0.05501530649999986,0.223787753,0.3842245470000005
136912.0,1.0769663029999998,0.6047761054999999,11.2612703945,0.13563128150173134,0.979417689695398,-0.1910454852525513,11.328804943753928,1.007051752813854,-0.14249062450000016,0.17475450299999995,0.5327952944999996
136922.0,0.970466084,0.6587126804999999,11.722084877999999,0.11990935559976643,0.9570338420385707,-0.142816802032192,11.780618859070268,0.9750326493559902,-0.10650021899999984,0.05393657499999993,0.4608144834999983
136932.0,0.8674962589999999,0.6047761054999999,12.1985900015,0.12577191655721537,0.8821592171280139,-0.08552636933547812,12.244341628762998,0.8951749656967034,-0.10296982500000007,-0.05393657499999993,0.47650512350000085
136942.0,0.7896314579999999,0.5102399995,12.5912482675,0.14895512501145605,0.7662466655153146,-0.049555133451875004,12.626297780045213,0.7821619352358884,-0.07786480100000004,-0.09453610599999995,0.39265826599999976
136952.0,0.7118647235,0.44796777199999993,12.8832903045,0.17400234510682666,0.6284860823261501,-0.04156152547774097,12.910716307755278,0.653451553047649,-0.07776673449999993,-0.062272227500000055,0.29204203699999987
136962.0,0.6927417559999999,0.386970409,13.122768697499998,0.204378055408536,0.4888597421666037,-0.06181258078863117,13.146737067654216,0.5334557452943252,-0.019122967500000088,-0.060997362999999916,0.23947839299999885
136972.0,0.7226520385,0.365395779,13.267612917999998,0.23049167167687518,0.3678857357231207,-0.09032253411995854,13.292302004767256,0.44342359593372266,0.029910282500000163,-0.02157463000000004,0.14484422049999957
136982.0,0.6962721499999999,0.432473265,13.345379652499998,0.2478123191736669,0.2687615061853548,-0.11297341715234097,13.370526769771129,0.3826312660046598,-0.02637988850000017,0.06707748600000002,0.07776673450000082
136992.0,0.7142183195,0.46238354749999994,13.441190622999999,0.2701944215012422,0.17976367696765996,-0.12762894688133733,13.468092356259337,0.34872503932090015,0.017946169500000164,0.02991028249999994,0.09581097050000054
137002.0,0.7250056344999999,0.4731708625,13.489047074999998,0.29897315553737663,0.1000911419433708,-0.12709487613022707,13.516801205416234,0.33993571740266154,0.010787314999999853,0.010787315000000075,0.04785645199999955
137012.0,0.727457297,0.5353450235,13.572795865999998,0.3296159012146411,0.0401373368081136,-0.11057533476010074,13.602815004007494,0.3499779318712772,0.0024516625000000625,0.062174161000000006,0.08374879099999966
137022.0,0.7106879255,0.653907422,13.653014263,0.3655888824274962,-0.006759660192974038,-0.0860604400865884,13.687127920410461,0.3756425472552429,-0.016769371499999908,0.11856239849999994,0.08021839700000122
137032.0,0.752562321,0.714904785,13.819433113499999,0.4100877970363437,-0.04299967678138429,-0.062344906210489444,13.858361031417283,0.4170226142690821,0.04187439549999994,0.06099736300000003,0.1664188504999995
137042.0,0.7022542064999999,0.6718535915,13.949959625,0.43540205250726943,-0.07763922644571576,-0.03569896452029202,13.983773516404238,0.443708477356984,-0.050308114500000056,-0.04305119349999997,0.13052651150000116
137052.0,0.578984616,0.5485840009999999,13.9116156235,0.4548537470207462,-0.11601029005081108,-0.018910642445358557,13.934461483951473,0.4697956268146634,-0.12326959049999997,-0.12326959050000008,-0.0383440015000005
137062.0,0.5334817599999999,0.4743476605,13.778735516,0.48229904950835706,-0.1463860003525204,-0.03330088212805181,13.797215694159249,0.5051239283644947,-0.045502856000000036,-0.07423634049999994,-0.13288010750000012
137072.0,0.495235825,0.5198505165,13.606334609,0.5046811518359323,-0.13839239237838635,-0.054084262860800286,13.62526493591739,0.5260994457095092,-0.0382459349999999,0.045502856000000036,-0.1724009070000001
137082.0,0.37549662849999993,0.63350959,13.284284222999998,0.4966875438617983,-0.10188708574367297,-0.05568298445562709,13.304681109898256,0.5100785128063032,-0.11973919650000009,0.11365907349999993,-0.3220503860000008
137092.0,0.3180296595,0.6826409065,12.959880240999999,0.45272095467480916,-0.04752880619030958,-0.05754874142600903,12.981742461342044,0.458832330878355,-0.05746696899999992,0.04913131650000002,-0.32440398199999976
137102.0,0.3311705705,0.6694999955,12.5565327265,0.36905161566345296,0.030810297285455902,-0.07620107514207242,12.578728803118594,0.37809386836529224,0.013140910999999977,-0.013140911000000033,-0.4033475144999983
137112.0,0.29763182749999995,0.668225131,12.343434221999999,0.26912977065752564,0.11474667167236718,-0.09751852662593116,12.365091100484529,0.308395031006258,-0.03353874300000004,-0.001274864499999917,-0.21309850450000134
137122.0,0.267721545,0.795123182,12.217712968999999,0.19132124727436642,0.1427242995818363,-0.11750254656126624,12.246485450654067,0.2660467887386118,-0.02991028249999994,0.12689805099999996,-0.12572125300000003
137132.0,0.38863753949999996,1.0597065989999999,12.107584289499998,0.12230743799200663,0.11021754226344192,-0.1310916801172941,12.160082834439079,0.2104567523429389,0.12091599449999996,0.2645834169999999,-0.11012867950000071
137142.0,0.4784664535,1.289574475,11.884875268,0.021319196813110737,0.045732862390007414,-0.09218829109034049,11.964204637568452,0.10509369091100025,0.08982891400000004,0.22986787600000014,-0.22270902149999827
137152.0,0.5274997035,1.4918856644999998,11.5162432945,-0.10125353122519903,-0.05685584571296728,-0.0015917402778188286,11.624450025323753,0.11613525913529071,0.04903324999999997,0.20231118949999982,-0.36863197349999943
137162.0,0.6987238124999999,1.542193779,11.146336456499998,-0.2081060786907959,-0.16850281263379255,0.09353568527288011,11.274191457467882,0.2836375544123627,0.17122410899999996,0.05030811450000017,-0.3699068380000021
137172.0,0.8519036855,1.4140208635,10.697388019499998,-0.29737094328404584,-0.2513727908477353,0.17374054571902753,10.8240152130124,0.4263842575834244,0.15317987300000002,-0.12817291549999998,-0.4489484370000003
137182.0,0.9967479059999999,1.1435534565,10.137134105,-0.38849981951842577,-0.29587170545658276,0.22143690351752857,10.25001018334824,0.5361963055589506,0.1448442204999999,-0.27046740699999994,-0.5602539144999987
137192.0,1.1153103045,0.852590151,9.603260079,-0.4796304410820577,-0.29160786609396055,0.22063754272011518,9.705330040025489,0.6031263821439194,0.11856239850000005,-0.29096330550000005,-0.5338740259999994
137202.0,1.213474871,0.5006294825,9.0526166815,-0.5475778541914489,-0.23884830813542401,0.17827142045720482,9.147295771071839,0.623434615699109,0.09816456650000016,-0.3519606685000001,-0.5506433975
137212.0,1.3020289205,0.18818961349999996,8.668294068,-0.5563725682922483,-0.12347157260308685,0.09620080304067545,8.767554772556123,0.5779708111097503,0.0885540494999999,-0.312439869,-0.3843226135000002
137222.0,1.36312435,-0.0571727695,8.385764481499999,-0.5481119249425592,0.05905670589973213,-0.011184069846779665,8.496023932306345,0.551397733214694,0.06109542950000013,-0.24536238299999996,-0.2825295865000008
137232.0,1.4061755434999998,-0.1134629405,8.2445487215,-0.5806204275902056,0.27595575336207545,-0.1318910409147075,8.364376074710636,0.6562521660324093,0.04305119349999975,-0.056290171,-0.1412157599999997
137242.0,1.3427265179999999,0.0099047165,8.2229740915,-0.6624240096311798,0.47047444382609543,-0.25499783970412754,8.33188547179026,0.8515724684858565,-0.06344902549999998,0.12336765699999999,-0.021574629999999928
137252.0,1.261331323,0.1978001305,8.389392941999999,-0.78979290245397,0.5893156579236414,-0.3322705470069245,8.485988188377718,1.0399372528421709,-0.08139519499999981,0.187895414,0.1664188504999995
137262.0,1.2470136139999999,0.389324005,8.610827099,-0.9198269130445555,0.6029065368089211,-0.3290731038172709,8.709360450873723,1.1479838630154762,-0.014317709000000178,0.19152387449999997,0.2214341570000009
137272.0,1.2349514345,0.51386846,8.738901948,-0.9979007264740178,0.5120429506208445,-0.24833591794926518,8.840677185403536,1.1487665434376026,-0.012062179499999992,0.124544455,0.12807484900000077
137282.0,1.2757470985000001,0.594086857,8.825102401499999,-0.990172408546187,0.33617659387288784,-0.12922766847616415,8.936604626476006,1.0536393553839565,0.04079566400000023,0.080218397,0.08620045349999828
137292.0,1.238579895,0.49464742599999995,8.7903868605,-0.8865190495994957,0.10408794593043783,0.008799950088555409,8.890987424892563,0.8926520962347939,-0.037167203500000134,-0.09943943100000002,-0.03471554099999885
137302.0,1.1990590955,0.3223445855,8.615632357500001,-0.696264198498098,-0.1439879179602802,0.14043268227396777,8.704640697116881,0.7247328424180846,-0.03952079949999998,-0.17230284049999994,-0.17475450299999906
137312.0,1.3008521224999998,0.051779111999999995,8.3486953445,-0.472169158529782,-0.3560925459673951,0.22356969586346565,8.449592373382767,0.6322412707730699,0.10179302699999981,-0.2705654735,-0.2669370130000015
137322.0,1.470801367,-0.18407082049999998,8.030273419,-0.29044198615362843,-0.47893230938125997,0.2515473237729347,8.165931049918715,0.61401039110707,0.16994924450000015,-0.23584993249999997,-0.31842192549999915
137332.0,1.6576180495000001,-0.3097920735,7.78844143,-0.18891967422362219,-0.5114408120289063,0.24435307659621414,7.968907618699822,0.5974703118645996,0.18681668250000016,-0.125721253,-0.24183198900000047
137342.0,1.6815462755,-0.33489709749999996,7.593289094999999,-0.14761820280442842,-0.4853271957605672,0.23476074702725327,7.784458441202429,0.5589688981408708,0.023928225999999775,-0.025105023999999976,-0.1951523350000004
137352.0,1.675564219,-0.3241097825,7.442462818,-0.15721053237338925,-0.42830379843940847,0.2185064957034301,7.635628029207406,0.5058699278582816,-0.005982056499999944,0.010787314999999964,-0.1508262769999993
137362.0,1.7437204364999999,-0.32293298449999996,7.356262364499999,-0.20170944698223667,-0.3531621381532966,0.2030516051770203,7.56699693726018,0.4545768924965857,0.0681562174999999,0.0011767980000000344,-0.08620045350000094
137372.0,1.7317563235,-0.29419949999999995,7.402942018499999,-0.23954818516547371,-0.28361425811982655,0.20758247991519757,7.608487618380891,0.42533618044163024,-0.011964112999999887,0.028733484500000017,0.04667965400000007
137382.0,1.7066512994999998,-0.25232510449999995,7.414906131499999,-0.25393667951891497,-0.23991470430839254,0.23369435085428472,7.612959973321956,0.42030459451412266,-0.025105024000000142,0.041874395499999995,0.011964112999999443
137392.0,1.7425436384999997,-0.291845904,7.3646960835,-0.2595322051008088,-0.20820556245815955,0.27099901828641154,7.573663629055534,0.4291235132630298,0.035892338999999884,-0.03952079950000004,-0.05021004799999851
137402.0,1.8634596329999997,-0.3792231555,7.497576190999999,-0.2584675542570923,-0.17703049135903684,0.31363392125412903,7.734981625404028,0.443296185451337,0.12091599450000001,-0.08737725150000003,0.13288010749999923
137412.0,2.0682224849999997,-0.547995602,7.942896167499999,-0.22782306325057583,-0.16104153008151678,0.3472088200747439,8.226022304550181,0.4454118176447139,0.204762852,-0.16877244649999995,0.44531997649999955
137422.0,1.3043825164999998,-0.453459496,7.517875956499999,-0.21396689431899282,-0.22765725697163633,0.4316775198835135,7.643657381200718,0.5328744126800853,-0.7638399684999999,0.09453610599999995,-0.42502021099999965
137432.0,1.22779258,-0.45218463149999993,7.103741127,-0.18359118401728353,-0.29587170545658276,0.4892332426265305,7.223232210021984,0.6004955908493622,-0.07658993649999979,0.0012748645000000836,-0.41413482949999914
137442.0,1.5797532485,-0.8675943254999999,7.0079301565,-0.12789947291539647,-0.25696831642962914,0.4735113167245656,7.235981296145549,0.5537183019252173,0.3519606685000001,-0.415409694,-0.09581097050000054
137452.0,1.735384784,-1.1417882595,7.053433012499999,-0.09965480963037224,-0.14132454552173684,0.4071626252100012,7.352969334894277,0.4423630992943366,0.15563153549999997,-0.27419393400000003,0.0455028559999997
137462.0,1.679094613,-1.1549291705,7.0977590704999995,-0.12656778669612478,-0.019816468327143618,0.3059056033262981,7.384538166408408,0.33164790847002623,-0.05629017100000011,-0.013140911000000033,0.044326058000000224
137472.0,1.561807079,-1.057941402,7.235346369999999,-0.17826094848169283,0.07557624726985845,0.2107799231048512,7.4772132814272725,0.28621130461439587,-0.11728753399999992,0.09698776850000002,0.13758729949999982
137482.0,1.536702055,-0.885540495,7.414906131499999,-0.2214281768712686,0.14565645272518676,0.15242483956442077,7.624071623029413,0.3057442909512094,-0.025105024000000142,0.172400907,0.1795597614999993
137492.0,1.4767834235,-0.664106338,7.613686926999999,-0.2736554094079469,0.18669088876882545,0.1433648354173182,7.783967826916221,0.3609629441947743,-0.059918631499999986,0.22143415700000002,0.19878079550000027
137502.0,1.4408910845,-0.628213999,7.5525914975,-0.25420371489447013,0.20694194407971564,0.17560630268940947,7.714431817965627,0.37186297265240825,-0.035892338999999884,0.035892338999999995,-0.06109542949999902
137512.0,1.3463549785,-0.6353728535,7.650756063999999,-0.1894537449747325,0.20161345387337698,0.21744009953046153,7.794256779317013,0.351881944906982,-0.09453610600000006,-0.007158854499999978,0.0981645664999995
137522.0,1.212298073,-0.765899365,7.751372292999999,-0.09379224867292327,0.16297710022197848,0.26327244568783265,7.882895462949828,0.32352882679344214,-0.13405690550000005,-0.13052651150000005,0.10061622899999989
137532.0,1.205041152,-0.932220149,7.825510566999999,-0.005593780252641826,0.10701835374453632,0.2843228617961363,7.972438411078741,0.3038481662864701,-0.007256920999999972,-0.16632078400000005,0.07413827400000006
137542.0,1.2098464105,-1.0496057495,7.818351712499999,0.04183728749955607,0.05692391355379506,0.26780157509675795,7.980728291749749,0.27696276678265785,0.00480525850000002,-0.11738560049999991,-0.007158854500000089
137552.0,1.205041152,-1.104621056,7.801582341,0.053028338663343715,0.02095093234093993,0.22543545283384755,7.971009903316836,0.23253406129371848,-0.00480525850000002,-0.05501530650000008,-0.016769371499999686
137562.0,1.1882717804999998,-1.1082495165,7.7740256545,0.03837280893434733,0.010826277350120825,0.17320822029716926,7.942020000728988,0.17773792033577523,-0.01676937150000013,-0.003628460499999875,-0.02755668649999965
137572.0,1.217005265,-1.1190368314999999,7.7967770825,0.013058553463421572,0.030810297285455902,0.12098098776049095,7.970136643714993,0.12552370149449574,0.02873348450000024,-0.010787314999999964,0.022751428000000296
137582.0,1.170325611,-1.1106031125,7.7728488565,-0.023979078593150092,0.06305350988679914,0.079412480965742,7.9385313915894145,0.10419732939166666,-0.04667965400000007,0.008433718999999895,-0.023928226000000663
137592.0,1.144043789,-1.078339234,7.7728488565,-0.04129972608994182,0.10995050688788677,0.04264188428472546,7.930247854936599,0.12495243749266909,-0.026281822000000066,0.03226387850000001,0.0
137602.0,1.191900241,-1.1333545405,7.856695714,-0.037569957478429936,0.16244302947086822,0.007735299244838868,8.027003565550086,0.16691037829629288,0.047856451999999994,-0.05501530650000008,0.0838468575000002
137612.0,1.1608131605,-1.1489471139999998,7.982416967,-0.017851227589398,0.19601792829148315,-0.01091703447122453,8.147794014296656,0.19713162146083874,-0.031087080499999864,-0.015592573499999762,0.12572125300000003
137622.0,1.133256474,-1.1094263144999998,8.090093984,0.009594074898212828,0.20028176765410532,-0.01038470904936626,8.244071667150944,0.20078016562859374,-0.027556686500000094,0.03952079949999998,0.10767701699999943
137632.0,1.055391673,-1.105797854,8.1786480335,0.04663345228403649,0.17390111601021102,-0.0026563911215353696,8.320271878563954,0.18006480343286121,-0.07786480100000004,0.003628460499999875,0.08855404950000079
137642.0,1.030286649,-1.1190368314999999,8.1859049545,0.08873428450064372,0.1333990053884306,0.0032044245066615894,8.326029902268479,0.16024773390248803,-0.02510502399999992,-0.013238977499999915,0.00725692099999975
137652.0,1.0087120189999998,-1.067551919,8.207381518,0.11964406555346328,0.1038209105548827,-0.008785987454539455,8.337762194920387,0.15865269448124006,-0.02157463000000015,0.05148491249999987,0.021476563500000267
137662.0,1.0494096165,-1.034013176,8.2433719235,0.13030279129539266,0.08383689061954762,-0.03676361536400855,8.37398498090917,0.15924511001207356,0.04069759750000013,0.03353874300000004,0.03599040549999977
137672.0,1.1404153285,-0.9933155785,8.329572377,0.12204214794570349,0.06518455690348422,-0.06394362780531625,8.465754481654306,0.15242079868183792,0.09100571200000007,0.040697597500000016,0.08620045350000005
