timestamp,ax,ay,az,gx,gy,gz,acc_mag,gyro_mag,dax,day,daz
155172.0,0.19230840649999997,-0.08953471449999999,9.663080643999999,0.10552086124632516,0.0681149647175827,-0.057014670674898765,9.665408761183285,0.13793104526831843,0.0,0.0,0.0
155182.0,1.4827654799999999,0.046973853499999996,9.8318530905,0.09992533566443135,0.030545007239152763,-0.054084262860800286,9.943145136462942,0.11765703406122947,1.2904570734999998,0.136508568,0.16877244650000023
155192.0,2.01428591,0.0373633365,9.803119606,0.11484790076898287,0.04972966637707443,-0.04156152547774097,10.007991694425037,0.13187281914425797,0.53152043,-0.009610516999999999,-0.028733484500000017
155202.0,2.1160789369999997,0.09247670949999999,9.7947839535,0.14629000724366073,0.07717496886468526,-0.03969576850735903,10.021184296536816,0.1700955498418618,0.10179302699999981,0.05511337299999999,-0.008335652499999568
155212.0,2.1758995019999996,0.07453053999999999,9.815083719,0.16680809793010604,0.11394731087495379,-0.04316024707256778,10.053654154344848,0.20657138746219986,0.05982056499999988,-0.017946169499999998,0.020299765500000788
155222.0,2.197474132,0.11277647499999999,9.950415489,0.168672109571236,0.15071965288522232,-0.05301786668783175,10.19079876642914,0.2323307739004492,0.021574630000000372,0.038245934999999995,0.13533176999999874
155232.0,2.1938456714999996,0.1164049355,10.170672848,0.14948745043331432,0.17496751218317955,-0.06287723163234771,10.405243635802695,0.23856587017922662,-0.003628460500000319,0.0036284605000000136,0.22025735900000143
155242.0,2.231012875,0.090025047,10.401717522,0.1268383127301839,0.17976367696765996,-0.08392764774065133,10.638667696896306,0.2354714148011431,0.037167203500000134,-0.026379888500000004,0.23104467399999962
155252.0,2.3087796094999997,0.055309505999999994,10.678265052,0.11831063400493962,0.17097070819611251,-0.11350574257419922,10.925148371874018,0.2368795955270344,0.07776673449999993,-0.034715541,0.2765475300000002
155262.0,2.3434951505,0.1164049355,10.885381500000001,0.11990935559976643,0.14645581352260018,-0.1412180804373652,11.1353962673076,0.23615695017791033,0.03471554100000018,0.061095429500000006,0.20711644800000073
155272.0,2.3650697805,0.20741064749999996,11.088869487499998,0.1268383127301839,0.10995050688788677,-0.1497440138333575,11.34017639872234,0.22494519603687457,0.021574629999999928,0.09100571199999996,0.2034879874999973
155282.0,2.4260671434999996,0.281646988,11.3318782745,0.15428361521779474,0.06305350988679914,-0.1412180804373652,11.592091788745671,0.21845302761951224,0.060997362999999805,0.07423634050000003,0.24300878700000084
155292.0,2.5015783485,0.246931447,11.4719172365,0.2051774162059494,0.015090116712742975,-0.12496382911354201,11.744094450161207,0.24071028712971973,0.07551120500000019,-0.03471554099999999,0.1400389620000002
155302.0,2.5613989134999997,0.1522972745,11.464758381999998,0.2683304098601122,-0.005960299395560636,-0.10257998145671472,11.748388979410679,0.28733149256606116,0.05982056499999988,-0.0946341725,-0.0071588545000018655
155312.0,2.5972912525,0.0350097405,11.372575872,0.32695078344684575,0.022284363889463598,-0.08099723992655283,11.665445962184192,0.33757067489073134,0.035892339000000106,-0.117287534,-0.09218250999999711
155322.0,2.646422569,-0.07992419749999999,11.268429248999999,0.36718760402232303,0.11208155390457186,-0.07513467896910389,11.575294295644376,0.3911958988244995,0.04913131650000002,-0.11493393799999999,-0.10414662300000188
155332.0,2.742135473,-0.11699333449999999,11.2744113055,0.3799773767809375,0.27115958857759503,-0.08952317332254514,11.60367806681091,0.47531539834580533,0.09571290399999999,-0.037069137,0.00598205650000061
155342.0,2.739781877,-0.015298373999999998,11.498297125,0.35039928194738956,0.4776686910028161,-0.11030829938454562,11.820214699766158,0.6025902057507245,-0.002353595999999847,0.10169496049999999,0.2238858195000013
155352.0,2.5710094305,0.08286619249999999,11.827408298999998,0.27925442564834474,0.6636597027415918,-0.11297341715234097,12.103906120291638,0.7288279826339832,-0.16877244649999978,0.0981645665,0.3291111739999977
155362.0,2.3961568609999997,0.169066646,12.254782106,0.20944125556857154,0.7864977208262047,-0.0953857342799941,12.487987656097554,0.8194771154236633,-0.1748525695000005,0.0862004535,0.42737380700000216
155372.0,2.2872049795,0.1175817335,12.696571688499999,0.17640042749906687,0.8555115301085645,-0.07620107514207242,12.901475292520704,0.8768259193382449,-0.1089518814999999,-0.051484912499999994,0.44178958249999845
155382.0,2.0549835075,0.097281968,13.072460583,0.18386171005134264,0.8568449616570882,-0.06421066318087137,13.233353569352088,0.8786987117358647,-0.23222147199999998,-0.020299765499999997,0.37588889450000096
155392.0,1.8144263829999998,0.097281968,13.392059306499998,0.22036701668605602,0.779303473649484,-0.05275257664152861,13.514764494782646,0.8115776983305942,-0.2405571245,0.0,0.3195987234999986
155402.0,1.691058726,0.088848249,13.545337245999999,0.28032082182131324,0.6633926673660366,-0.04822170190335133,13.650777806923895,0.72179978303963,-0.12336765699999974,-0.008433718999999992,0.15327793950000057
155412.0,1.5570018204999998,0.0265760215,13.504639648499998,0.3405416623321256,0.5445497079392387,-0.04475896866739458,13.594125679491022,0.6438216938538235,-0.13405690550000027,-0.0622722275,-0.04069759750000124
155422.0,1.375088463,-0.027262487,13.326256684999999,0.3831748199705911,0.4313040194235867,-0.03649832531770542,13.397041791335141,0.5780815060019077,-0.18191335749999982,-0.0538385085,-0.17838296349999894
155432.0,1.263684919,-0.0703136805,13.0784426395,0.4060909930492766,0.3471023549903723,-0.035164893769181756,13.139539773632304,0.5353751107675887,-0.11140354400000008,-0.0430511935,-0.24781404549999841
155442.0,1.166795217,0.019417167,12.786302536,0.42927245617426535,0.2895466322473553,-0.05248554126597348,12.83944393838411,0.5204486775059132,-0.09688970199999991,0.0897308475,-0.2921401034999995
155452.0,1.1535562394999999,0.1522972745,12.539763354999998,0.45618543324001787,0.2570381295997089,-0.07966555370728116,12.593631384827425,0.5296417185380956,-0.013238977500000138,0.1328801075,-0.24653918100000283
155462.0,1.0913820785,0.4060933765,12.2129077105,0.4628473549948803,0.25836981581898055,-0.09165596566848222,12.268298228234366,0.5379437254906062,-0.06217416099999995,0.253796102,-0.3268556444999984
155472.0,1.1008945289999998,0.585653138,11.899291043499998,0.43246989936391894,0.2879479106525285,-0.08259596152137966,11.96445091510474,0.5260858351682128,0.009512450499999936,0.17955976149999997,-0.31361666700000157
155482.0,1.1608131605,0.791592788,11.598815287499999,0.3754482473720122,0.3340455468562027,-0.057014670674898765,11.683604855058531,0.5057652484120893,0.05991863150000021,0.20593965000000003,-0.3004757559999991
155492.0,1.251720806,0.9567367739999999,11.4024861545,0.3122952537178494,0.3790767868869084,-0.020244073993882228,11.510814077834,0.49156622990505383,0.09090764549999997,0.1651439859999999,-0.196329132999999
155502.0,1.2829059529999998,1.09442214,11.227731651500001,0.24274911901363133,0.4030593561385625,0.039177405719516716,11.353658685325183,0.4721428263477465,0.031185146999999747,0.13768536600000014,-0.17475450299999906
155512.0,1.2709418399999999,1.130314479,11.027774057999999,0.17213658813644475,0.3809425438572903,0.11245505436449864,11.158167620913273,0.432890709010764,-0.011964112999999887,0.035892338999999884,-0.19995759350000242
155522.0,1.2553492665000001,1.0668654535,10.872142522499999,0.1167119124101128,0.30313576580338314,0.1774720596597914,10.99625330311768,0.3701476664353268,-0.015592573499999762,-0.06344902549999998,-0.15563153549999953
155532.0,1.2877112115,0.9519315155,10.758483448999998,0.09592853167736433,0.187757284941794,0.2139773662945048,10.87700969461882,0.3004020547946066,0.03236194499999989,-0.11493393799999996,-0.11365907350000093
155542.0,1.317621494,0.86102387,10.556172259499998,0.10605318666818343,0.01961924612166826,0.22277033506605223,10.672875024022247,0.2475051825847296,0.02991028249999994,-0.09090764549999997,-0.2023111894999996
155552.0,1.4277501735,0.9136855804999999,10.241280727999998,0.1268383127301839,-0.17063560497972963,0.24382075117435587,10.380612835841971,0.3235011993273988,0.11012867950000005,0.0526617104999999,-0.3148915315000007
155562.0,1.536702055,1.1327661414999999,9.895302115999998,0.1316344775146643,-0.27961745413275957,0.31336688587857386,10.077778341682459,0.4401276649921926,0.1089518814999999,0.21908056099999995,-0.3459786119999997
155572.0,1.5234630774999998,1.3398825895,9.5039187145,0.10765190826301024,-0.31479107454820127,0.42208344498530065,9.718060302034266,0.5374353807654815,-0.013238977500000138,0.20711644800000006,-0.39138340149999884
155582.0,1.5222862795,1.30036179,9.198637699999999,0.05809153882337926,-0.3033329880088585,0.5369296004250316,9.413991280934312,0.6194182143833312,-0.0011767979999997014,-0.03952079949999998,-0.3052810145000002
155592.0,1.573771192,1.0656886555,9.004662162999999,-0.005860815628196958,-0.24497790446842807,0.6248627787990099,9.203064095451815,0.6711944689626028,0.05148491249999987,-0.23467313449999994,-0.19397553700000003
155602.0,1.5594534829999998,0.7185332455,8.8478538295,-0.08340055830654904,-0.16743641646082402,0.6560378498981326,9.012918649290441,0.6821849215440424,-0.014317709000000178,-0.34715541000000005,-0.156808333499999
155612.0,1.6264329025,0.35107806999999996,8.7174253845,-0.17772862305983456,-0.08163603043278277,0.617134460871179,8.874798314998177,0.6473846211598849,0.06697941950000019,-0.3674551755,-0.13042844499999973
155622.0,1.6491843304999998,0.06727361899999999,8.699479215,-0.27578645642463195,0.019352210746113128,0.5435915221798939,8.854675223179962,0.6098560654727241,0.02275142799999985,-0.28380445099999996,-0.017946169500000053
155632.0,1.59652262,0.027850886,8.797545715,-0.34160282251733814,0.09156346321812651,0.4620532301852228,8.941279033535276,0.5818672904304792,-0.05266171049999979,-0.039422732999999995,0.09806649999999983
155642.0,1.4445195449999997,0.142784824,8.9017904045,-0.3562583522463345,0.10488730672785122,0.38957494233765433,9.019362318229598,0.5382285725927994,-0.15200307500000032,0.11493393800000001,0.10424468949999977
155652.0,1.3738135984999997,0.281646988,9.095667875,-0.31975304561162116,0.07157944328279145,0.34507602772880686,9.20314418672119,0.47586037005793425,-0.07070594649999995,0.13886216399999998,0.19387747050000037
155662.0,1.3643011479999998,0.45159623249999997,9.365056550499999,-0.25766819345967884,0.005497787143782138,0.3434773061339801,9.474678937763814,0.42941795888540657,-0.009512450499999936,0.16994924449999999,0.26938867549999834
155672.0,1.2314210405,0.5580964515,9.4715567695,-0.19238415278883095,-0.11521092925339768,0.3917077346835914,9.567562754747119,0.45135370816540155,-0.1328801074999999,0.10650021900000001,0.10650021900000084
155682.0,1.1308048114999998,0.47552445849999997,9.4248771155,-0.13003226526133355,-0.27828576791348786,0.46072154396595116,9.504375396343457,0.5537289045250964,-0.10061622900000011,-0.08257199300000001,-0.04667965400000007
155692.0,1.189546645,0.16788984799999998,9.1950092395,-0.0847339898550727,-0.43230060242647544,0.5057527839966568,9.273154972078412,0.6707082364302843,0.058741833500000284,-0.30763461049999996,-0.22986787600000014
155702.0,1.3164446959999998,-0.141019627,8.920913372,-0.06501525996604077,-0.526628667179761,0.49775917602252284,9.018625647156787,0.7275499532256215,0.12689805099999973,-0.308909475,-0.2740958674999998
155712.0,1.4852171425,-0.326561445,8.656329955,-0.07620631112982841,-0.5340899497320367,0.44739770045622645,8.78888847508982,0.7008738678494905,0.16877244650000023,-0.185541818,-0.264583416999999
155722.0,1.5259147399999997,-0.4282564055,8.353500603,-0.13029755530763668,-0.47413614459677955,0.3842464521313156,8.502516784277606,0.6240415631252043,0.04069759749999968,-0.10169496049999999,-0.30282935199999983
155732.0,1.561807079,-0.515633657,8.064988959999999,-0.20410752937447688,-0.3750119150590136,0.309637117267062,8.230988175496766,0.5274172583192913,0.03589233900000033,-0.08737725149999997,-0.2885116430000014
155742.0,1.7245974689999999,-0.6485137644999999,7.966824393499999,-0.2861781467910062,-0.24524493984398324,0.20571672294481563,8.177108134890586,0.4293744080857262,0.16279038999999984,-0.1328801074999999,-0.09816456650000038
155752.0,1.7186154124999997,-0.6689115965,8.008698789,-0.3453343364581021,-0.14665303572807553,0.10499377181222289,8.218292885566004,0.38959800942070405,-0.005982056500000166,-0.020397832000000116,0.041874395500001604
155762.0,1.6408486779999998,-0.49533389149999996,8.104509759499999,-0.3749106859623979,-0.10961540367150387,0.01386315024859096,8.283768374960372,0.39085258871558914,-0.07776673449999993,0.17357770500000003,0.09581097049999876
155772.0,1.6348666214999998,-0.28704064549999997,8.203851124,-0.3682487642075356,-0.13066581977980748,-0.04236088627515437,8.370086885273052,0.3930332727456072,-0.005982056499999944,0.208293246,0.09934136450000075
155782.0,1.6958639844999999,-0.143373223,8.2121867765,-0.3317434575728222,-0.19248538188544664,-0.0596797884426941,8.38668719978986,0.3881572117461195,0.06099736300000003,0.14366742249999997,0.008335652499999568
155792.0,1.8611060369999999,-0.07992419749999999,8.080483467,-0.2872445429639747,-0.2609651204166961,-0.057014670674898765,8.292425255542808,0.39225360955490335,0.16524205250000001,0.0634490255,-0.13170330949999887
155802.0,2.0622404285,-0.08708305200000001,7.941621303,-0.24860818931257628,-0.29240722689137394,-0.05435129823635542,8.205471830623082,0.38763653304553025,0.20113439150000012,-0.00715885450000002,-0.13886216400000073
155812.0,2.246507382,-0.04638545449999999,7.927303594,-0.20304287853076033,-0.2873457720605904,-0.05355193743894201,8.2396049237336,0.35589578986919507,0.18426695349999989,0.040697597500000016,-0.014317709000000178
155822.0,2.373405433,0.015886773,7.8985701095,-0.1569452423270861,-0.2575006418514874,-0.061545545413076046,8.247467218100178,0.3077762885656216,0.12689805099999996,0.06227222749999999,-0.028733484500000017
155832.0,2.441659717,0.12003339599999999,7.897393311499999,-0.1366941870161959,-0.21246940182078172,-0.0735359573742771,8.267099328440462,0.2631275061658341,0.068254284,0.104146623,-0.0011767980000003675
155842.0,2.4919678315,0.202605389,7.832767487999999,-0.15587884615411757,-0.13093110982611061,-0.09138893029292709,8.222116463414544,0.223143690878146,0.050308114499999945,0.08257199300000001,-0.06462582350000012
155852.0,2.600919713,0.309105608,7.914162682999999,-0.22196050229312686,0.00016755160819145564,-0.11830190735867964,8.336324166163333,0.2515190528299202,0.10895188150000035,0.10650021899999998,0.08139519499999981
155862.0,2.6404405124999997,0.177500365,7.940444504999999,-0.3077626336504201,0.14752220969556873,-0.14068400968625494,8.369832221532944,0.36915123134876354,0.03952079949999954,-0.13160524299999998,0.02628182200000051
155872.0,2.6044501069999995,0.121210194,8.0745014105,-0.37437836054053963,0.28021959272469754,-0.1622684965456688,8.485011803123689,0.4949881230484317,-0.03599040550000021,-0.056290171,0.1340569055000005
155882.0,2.557770453,0.0697252815,8.3522257385,-0.42340640455831235,0.35829340615415994,-0.18118786563728734,8.735372120979275,0.5835033769985764,-0.046679653999999626,-0.051484912499999994,0.2777243279999997
155892.0,2.5051087425,0.11042287899999999,8.530608701999999,-0.43566385189506857,0.3652206179553254,-0.1902461244551379,8.891515497967413,0.5994853455239068,-0.05266171049999979,0.04069759749999999,0.17838296349999894
155902.0,2.509914001,0.2193747605,8.609650301,-0.41834494972752884,0.3292493820717223,-0.18918147361142135,8.970723041286563,0.5649843205921103,0.004805258499999798,0.1089518815,0.07904159900000174
155912.0,2.554240059,0.2911594385,8.692222294,-0.3895662156913943,0.2874138399014182,-0.16946274372238943,9.06441639080744,0.5129192658546882,0.044326058000000224,0.07178467799999999,0.08257199300000018
155922.0,2.5637525095,0.367749375,8.646719438,-0.3749106859623979,0.24930981167187802,-0.1342891233069477,9.026285147959124,0.46983717741704056,0.009512450499999936,0.07658993650000001,-0.04550285600000059
155932.0,2.600919713,0.3258749795,8.555811792499998,-0.3749106859623979,0.22426259157650738,-0.09058956949551368,8.948345840680174,0.4461593913959333,0.037167203500000134,-0.041874395499999995,-0.09090764550000152
155942.0,2.5733630264999996,0.21221590599999998,8.434895798,-0.3767764429327799,0.21387090121013314,-0.04182681552404411,8.82126408061989,0.43525938568903405,-0.027556686500000538,-0.11365907350000001,-0.1209159944999989
155952.0,2.5841503415,0.07335374199999999,8.3008388925,-0.36771643878567734,0.23731939971067698,0.002939134460358451,8.694086500500244,0.43765798900926384,0.010787315000000408,-0.138862164,-0.1340569054999996
155962.0,2.5135424614999997,-0.10748088399999998,8.226602552,-0.3482647442722005,0.2882132006988316,0.04077612731434352,8.602699424875997,0.4538919185431723,-0.07060788000000029,-0.18083462599999997,-0.07423634050000061
155972.0,2.4021389175,-0.2882174435,8.1978690675,-0.34639898730181856,0.3572270099811914,0.058896135608548644,8.547420541986867,0.5010710028064368,-0.11140354399999985,-0.1807365595,-0.028733484500000017
155982.0,2.2524894385,-0.5084748025,8.182276494,-0.3597228308115433,0.43556785878620885,0.05196717847813116,8.501876494021563,0.5672922194545338,-0.1496494789999998,-0.22025735899999999,-0.015592573499999318
155992.0,2.14961768,-0.7634477024999999,8.214638439,-0.385037086282469,0.5115088798697341,0.01599594259452803,8.525490792213517,0.6404301384054087,-0.10287175850000008,-0.25497289999999995,0.03236194499999989
156002.0,1.9867292234999998,-0.9514411829999999,8.279264262499998,-0.4074191886100443,0.5677329163934794,-0.03410024292546521,8.567295376052293,0.6996241034812108,-0.16288845650000017,-0.18799348049999998,0.06462582349999835
156012.0,1.8466902615,-1.024402659,8.4061623135,-0.41834494972752884,0.5722620458024048,-0.08099723992655283,8.66736583804981,0.7134822344699284,-0.14003896199999977,-0.07296147600000003,0.1268980510000013
156022.0,1.713810154,-1.057941402,8.464806080499999,-0.40235598845000875,0.5179037662490413,-0.10924190321157708,8.701110689704446,0.6648672393446776,-0.13288010750000012,-0.03353874300000004,0.058643766999999514
156032.0,1.653989589,-1.1524775079999998,8.3618362555,-0.35252858363482265,0.439829952819579,-0.12176638592388839,8.601406369353825,0.5766748151409185,-0.05982056499999988,-0.09453610599999984,-0.10296982499999885
156042.0,1.597699418,-1.2231834544999998,8.182276494,-0.2771198879731557,0.37135021428832954,-0.1318910409147075,8.426058973084928,0.4817589237739221,-0.05629017100000011,-0.07070594649999995,-0.1795597615000002
156052.0,1.597699418,-1.266234648,7.983593765,-0.18998607039659077,0.3252525780846553,-0.13775360187215643,8.239767170170532,0.4010735609887614,0.0,-0.043051193500000196,-0.19868272899999972
156062.0,1.5498429660000002,-1.2806504235,7.903375367999999,-0.11217929234268353,0.3039351266007966,-0.13908528809142812,8.155085587164585,0.35256981177608365,-0.04785645199999977,-0.014415775500000061,-0.08021839700000122
156072.0,1.5438609094999998,-1.2830040194999999,7.952408617999999,-0.05035973023704439,0.30206936963041464,-0.1342891233069477,8.20185397636266,0.3343883597510723,-0.005982056500000388,-0.002353595999999847,0.04903324999999992
156082.0,1.4684477710000001,-1.290162874,7.9895758215,-0.008791223442295439,0.29700616947037906,-0.12043295437536472,8.225216161603305,0.32061510696262985,-0.07541313849999964,-0.007158854500000089,0.03716720350000102
156092.0,1.4397142864999999,-1.2961449305000001,8.103234895,0.008794714100799426,0.2999383226137295,-0.11004126400899049,8.331577561972207,0.31960823542760725,-0.02873348450000024,-0.005982056500000166,0.11365907350000004
156102.0,1.39058297,-1.3547886974999999,8.1966922695,0.014924310433803512,0.29700616947037906,-0.11270638177678582,8.423475385623728,0.3180222134358018,-0.0491313164999998,-0.058643766999999736,0.0934573744999998
156112.0,1.3822473174999999,-1.356063562,8.238566664999999,0.011192796493039635,0.2764898241131857,-0.12549615453540028,8.46306662649948,0.3038440164535876,-0.008335652500000235,-0.001274864500000028,0.04187439549999894
156122.0,1.399016689,-1.3440994489999998,8.1870817525,-0.0005305800926062762,0.2562387688022955,-0.14708064139481414,8.413807618850164,0.29545101662654816,0.01676937150000013,0.01196411300000011,-0.051484912499999425
156132.0,1.4744298275,-1.3200731565,8.1188274685,-0.011189305834535647,0.24984388242298827,-0.17878803791579514,8.356548086261675,0.30742857487720715,0.07541313850000009,0.02402629249999988,-0.068254284
156142.0,1.548666168,-1.218378196,8.080483467,-0.0170518667919846,0.25010917246929143,-0.20383700334041777,8.317272713387265,0.32310197808922003,0.07423634049999994,0.10169496049999993,-0.038344001499998726
