timestamp,ax,ay,az,gx,gy,gz,acc_mag,gyro_mag,dax,day,daz
17062.0,0.383832281,0.660772077,10.4280974105,-0.24208938455637746,-0.17792759059456192,0.13464167981585057,10.456058653266886,0.3292322577654044,0.0,0.0,0.0
17072.0,0.44845810449999995,0.58055368,10.425743814499999,-0.24235641993193258,-0.21469993260483045,0.12611574641985826,10.45152100569282,0.3474735627897178,0.06462582349999996,-0.080218397,-0.002353596000000735
17082.0,0.71784678,0.592517793,10.4126029035,-0.24715258471641302,-0.180060382940499,0.10293253796561758,10.454122658576118,0.32264725166770936,0.26938867550000006,0.011964112999999998,-0.013140910999998923
17092.0,0.6532209565,0.7350084175,10.404169184499999,-0.24581915316788935,-0.16620421400891602,0.0853466004225227,10.450534503627363,0.30876356492012064,-0.06462582350000001,0.14249062450000005,-0.008433719000001005
17102.0,0.6675386655,0.860631604,10.453300501000001,-0.24688554934085788,-0.15874293145664026,0.08028340026248716,10.509889913407656,0.3042979085016712,0.014317708999999956,0.12562318650000004,0.04913131650000224
17112.0,0.6758743179999999,0.9240806294999999,10.499980155,-0.25114938870348,-0.14701780954174237,0.09174148680182995,10.562211622522193,0.3051339905175988,0.008335652499999902,0.06344902549999987,0.046679653999998294
17122.0,0.7142183195,0.9240806294999999,10.6471779715,-0.2532804357201651,-0.13689315455092324,0.11465765988051549,10.711042506428651,0.3098985218596172,0.03834400150000017,0.0,0.1471978165000003
17132.0,0.720200376,0.9169217749999999,10.695132489999999,-0.24715258471641302,-0.1310305935934743,0.14716616252816186,10.758498645336777,0.3160874815343488,0.005982056499999944,-0.007158854499999978,0.04795451849999921
17142.0,0.6268410680000001,0.9935117115,10.674734657999998,-0.23516217275521198,-0.13769251534833665,0.1839367592091784,10.739178519054676,0.32877531486758454,-0.09335930799999992,0.07658993650000001,-0.02039783200000045
17152.0,0.48082004949999996,0.9732119459999999,10.696309287999998,-0.21171367425466817,-0.1630067708192624,0.21591293643496653,10.75124931328417,0.3435291593435777,-0.1460210185000001,-0.02029976550000001,0.021574629999999928
17162.0,0.417371024,0.8367033779999998,10.683168377,-0.17680708921478155,-0.20750568542810985,0.2321671877587897,10.724008470985288,0.35807954333278874,-0.06344902549999998,-0.1365085680000001,-0.013140910999998923
17172.0,0.41619422599999994,0.6691077295,10.719060716,-0.14243282959675324,-0.2597311726355362,0.21777869340534844,10.747985179591884,0.36766146423973944,-0.0011767980000000344,-0.16759564849999986,0.035892339000000106
17182.0,0.4472813065,0.5386792844999999,10.6197193515,-0.12990834688444194,-0.31249073059407273,0.1794076298002531,10.642775720803167,0.3830322870568622,0.03108708050000003,-0.13042844500000006,-0.09934136449999897
17192.0,0.522694445,0.556625454,10.618444487,-0.1373696294367177,-0.3455333039928294,0.13677272683253563,10.645863267127531,0.39619497481036986,0.07541313849999998,0.017946169500000053,-0.0012748645000009162
17202.0,0.49994301699999993,0.7373620135,10.513121066,-0.14882771597606048,-0.34686499021210104,0.1101267851423382,10.55079903645088,0.39318306077866405,-0.022751428000000018,0.1807365595,-0.10532342099999958
17212.0,0.5406406145,0.8738705814999999,10.458105759499999,-0.15868708092057643,-0.32981137809086447,0.10639701653082632,10.50846887725063,0.3811528038673593,0.04069759750000007,0.13650856799999989,-0.055015306500001415
17222.0,0.5753561555,0.9265322919999999,10.489192840000001,-0.16081812793726152,-0.29836927161618665,0.11385829908310208,10.545741473623265,0.3575617496155263,0.03471554099999996,0.052661710500000014,0.03108708050000253
17232.0,0.5514279295,0.9456552595,10.490369637999999,-0.15602196315278108,-0.2685258867363356,0.12904615423395674,10.547331026052273,0.33630628117261985,-0.023928225999999997,0.019122967500000088,0.001176797999997703
17242.0,0.5741793574999999,0.931239484,10.529890437499999,-0.15069347294644242,-0.2498735530202722,0.1405042407732995,10.586570811027224,0.32386224998124785,0.022751427999999962,-0.01441577549999995,0.03952079949999998
17252.0,0.5933023249999999,0.9468320574999999,10.559800719999998,-0.15069347294644242,-0.23868075652723253,0.14956424492040207,10.61875180235759,0.31944716258511713,0.019122967499999977,0.015592573499999873,0.029910282499999497
17262.0,0.6424336414999999,0.9672298894999999,10.560977518,-0.1592194063424347,-0.24134587429502788,0.15702552747267784,10.62461767681899,0.3290222890220987,0.04913131650000002,0.020397832000000005,0.0011767980000012557
17272.0,0.6758743179999999,0.9780172045,10.5287136395,-0.17387493607143112,-0.24107883891947274,0.16794954326091033,10.595618653416292,0.34140672086260065,0.03344067649999993,0.010787315000000075,-0.03226387850000023
17282.0,0.6795027785,0.9109397185,10.466441412,-0.18506598723521875,-0.24747547062803196,0.17407739426466246,10.527959490212652,0.3546779770268896,0.003628460500000097,-0.06707748599999996,-0.06227222749999939
17292.0,0.6723439239999999,0.858278008,10.4484952425,-0.1824026147966754,-0.2477407606743351,0.1770095474080129,10.50522442995395,0.3549346112423415,-0.007158854500000089,-0.052661710500000014,-0.017946169500000053
17302.0,0.569374099,0.8571012100000001,10.423390218499998,-0.1701451674599192,-0.24241227046799643,0.17647722198615462,10.47405714114244,0.34475686615840373,-0.10296982499999985,-0.0011767979999999234,-0.02510502400000192
17312.0,0.532304962,0.8714189189999999,10.387399813,-0.153890916136096,-0.24161290967058302,0.17167931187242222,10.437470688824636,0.3339655645626966,-0.03706913700000003,0.014317708999999845,-0.03599040549999799
17322.0,0.5082786695,0.8283677254999999,10.373082104,-0.14243282959675324,-0.23654970951054746,0.16715018246349694,10.418511056328722,0.3227724577996742,-0.02402629249999999,-0.04305119349999997,-0.014317709000000178
17332.0,0.5011198149999999,0.8451370970000001,10.352684272,-0.1429651550186115,-0.22642330919047637,0.1636857038982882,10.399204268473015,0.31384639579727497,-0.007158854500000089,0.01676937150000013,-0.02039783200000045
17342.0,0.5286765015,0.8270928609999999,10.295217303,-0.1490947513516156,-0.20990376782035003,0.15702552747267784,10.341908951443443,0.30157230128752244,0.027556686500000094,-0.018044236000000158,-0.057466969000000034
17352.0,0.5765329535,0.800811039,10.258148166,-0.1490947513516156,-0.1872546301172196,0.15196232731264228,10.305498161770972,0.2835244086550776,0.047856451999999994,-0.026281821999999955,-0.037069136999999586
17362.0,0.567020503,0.7923773199999999,10.230591479500001,-0.1272449744458986,-0.16646950405521915,0.15009657034226034,10.276885524734173,0.2577447569411202,-0.009512450500000047,-0.008433719000000006,-0.02755668649999876
17372.0,0.547799469,0.7804132069999999,10.2868816505,-0.07075390254659812,-0.16034165305146705,0.1498295349667052,10.330975903722276,0.23057417456686186,-0.01922103399999997,-0.011964112999999998,0.05629017099999878
17382.0,0.5250480409999999,0.7350084175,10.436531129499999,0.01584584427885652,-0.15874293145664026,0.15276168811005567,10.47554747190696,0.2208767584482154,-0.022751428000000073,-0.04540478949999993,0.14964947899999892
17392.0,0.547799469,0.6212512775,10.692680827499998,0.10884222281287038,-0.1670035748063294,0.1567584920971227,10.72471261558174,0.2535942592203212,0.022751428000000073,-0.11375714000000003,0.25614969799999976
17402.0,0.6866616329999999,0.5206350485,11.026695326499999,0.19251156182422652,-0.1816591045353258,0.16022297066233143,11.060315315370431,0.3094060956484887,0.13886216399999995,-0.100616229,0.33401449900000024
17412.0,0.8746551135,0.3782424905,11.341488791499998,0.2692519437051652,-0.18672055936610935,0.16501913544681188,11.38145232195397,0.3668684935267888,0.1879934805000001,-0.142392558,0.3147934649999993
17422.0,1.029109851,0.2501676415,11.809560196,0.3595832044713837,-0.17739526517270365,0.16821657863646547,11.856954202375348,0.4348171781010508,0.15445473750000005,-0.128074849,0.4680714045000016
17432.0,1.0613737295,0.23692866399999998,12.411688506,0.4781591285226265,-0.1366261191753681,0.17567786118874124,12.459239983059565,0.5274140304753848,0.03226387850000001,-0.013238977499999999,0.6021283100000012
17442.0,0.8422931684999999,0.4596376855,13.472375769999998,0.6281771590485471,-0.04523020756543305,0.19512955570221802,13.506503376955733,0.6593389555723679,-0.21908056100000017,0.22270902150000002,1.0606872639999967
17452.0,0.346763144,0.6966644160000001,14.907677063999998,0.7555460518713373,0.06188762994646693,0.23536463094844332,14.927974458414276,0.7937735349205423,-0.4955300244999999,0.23702673050000006,1.4353012940000003
17462.0,0.03187161249999999,0.6511615599999999,16.490274240999998,0.7696692561784754,0.09173276015556996,0.26254464338975103,16.50315641688865,0.818373602314211,-0.31489153150000004,-0.04550285600000015,1.5825971770000002
17472.0,-0.17406803749999997,0.4260989425,17.9411681085,0.6726760736573945,0.054161057347888036,0.24122719190589229,17.947071434859122,0.7166708298228496,-0.20593964999999997,-0.2250626174999999,1.4508938675000032
17482.0,-0.27095773949999996,0.2609549565,19.1681761565,0.5026722778668868,-0.08066911802717791,0.1770095474080129,19.171867221335848,0.5389984280243839,-0.096889702,-0.16514398600000002,1.2270080479999983
17492.0,-0.055505638999999996,0.40815277299999997,19.911618292999997,0.30122812093095336,-0.2605305334329496,0.10160085174634591,19.91587840413273,0.4110197960756066,0.21545210049999997,0.14719781649999997,0.743442136499997
17502.0,0.29763182749999995,0.756484981,20.121088337,0.07313627697557039,-0.4078851915203268,0.0533704231967346,20.13750357160929,0.4178129324753119,0.35313746649999994,0.348332208,0.20947004400000324
17512.0,0.6962721499999999,1.2257331835,20.031259422999998,-0.17387493607143112,-0.5032779071173289,0.06642723133090418,20.080801050145507,0.5365945603978226,0.3986403224999999,0.4692482025000001,-0.0898289140000017
17522.0,1.0494096165,1.5861275709999998,19.693714529999998,-0.433675921877047,-0.537385131359802,0.14450104476036651,19.785334295983528,0.7055055893182816,0.3531374665000001,0.36039438749999975,-0.33754489300000046
17532.0,1.1906253764999999,1.8650286969999998,19.335771805,-0.6820188211433201,-0.499548138505817,0.2638763296090227,19.46196269965679,0.8856233580965898,0.1412157599999999,0.27890112600000005,-0.35794272499999735
17542.0,1.0625505275,2.0577293694999996,18.8221975445,-0.9135751436639119,-0.43133369002087063,0.3979071441866752,18.964134153337326,1.085816923179204,-0.12807484899999988,0.19270067249999978,-0.5135742605000004
17552.0,0.8542572815,2.1044090234999997,18.2188924365,-1.1126229635368572,-0.38043988903271597,0.5116869034534376,18.359911068791725,1.2823758635137092,-0.208293246,0.04667965400000007,-0.6033051080000007
17562.0,0.6339999224999999,1.933282981,17.5281120105,-1.2653061118305733,-0.3551256335617902,0.5862962383176912,17.645799773288502,1.439047272091484,-0.2202573590000001,-0.17112604249999963,-0.6907804259999999
17572.0,0.479545185,1.7238129369999997,16.790749997,-1.3769530787513984,-0.3292790526690062,0.6228015449524046,16.88581594380268,1.5467081948462855,-0.15445473749999994,-0.20947004400000035,-0.7373620135000003
17582.0,0.338329425,1.5298374,16.1167389425,-1.4486320058015536,-0.2975699108187732,0.6102770622400931,16.192718839372084,1.5998501907221574,-0.14121575999999997,-0.1939755369999998,-0.6740110544999993
17592.0,0.2652698825,1.2904570735,15.590023770999998,-1.4891341164233338,-0.27465373774008767,0.5460594177422139,15.645590073546373,1.6097005870830354,-0.07305954250000002,-0.23938032649999985,-0.5267151715000011
17602.0,0.29763182749999995,1.1180561665,15.0860600275,-1.5277704700747325,-0.28291438108977685,0.44507117656331796,15.13036157695919,1.616233741903453,0.03236194499999995,-0.1724009070000001,-0.5039637434999982
17612.0,0.32636531199999996,1.11207411,14.638386455,-1.5669408944772412,-0.31622224453483666,0.33049205649914226,14.684194943848185,1.6323373652933448,0.028733484500000017,-0.005982056499999944,-0.44767357250000117
17622.0,0.3431346835,1.2617235889999998,14.164332994,-1.6023798049389861,-0.37457732807526706,0.23003614074210463,14.22455682933485,1.6615793210171554,0.01676937150000002,0.1496494789999998,-0.4740534609999987
17632.0,0.34793994199999995,1.413726664,13.611237934,-1.6189010916383644,-0.4507853845343474,0.15649145672156758,13.688881743214239,1.6877611748836105,0.004805258499999965,0.1520030750000001,-0.5530950600000004
17642.0,0.34793994199999995,1.5011039155,13.096486875499998,-1.5930545107455802,-0.5491102532747,0.1093274243449248,13.186824623407718,1.6885784643220285,0.0,0.0873772515000002,-0.5147510585000017
17652.0,0.4245298785,1.5609244805,12.618804953999998,-1.5299032624206694,-0.6620906517440489,0.08454723962510931,12.722065450179791,1.6691663365945566,0.07658993650000007,0.05982056499999988,-0.47768192150000033
17662.0,0.5884970665,1.6531069905,12.107682356,-1.469415386534302,-0.755352320324366,0.07788531787024697,12.234176047168553,1.6540268524854442,0.16396718799999999,0.09218251,-0.5111225979999983
17672.0,0.83748791,1.774022985,11.434946166,-1.455559217602719,-0.7987848387602449,0.08028340026248716,11.602005747715461,1.6622741286981448,0.2489908435,0.12091599450000001,-0.6727361900000002
17682.0,1.1392385305,1.7811818395,10.837525048,-1.4760773082891643,-0.7827976228119767,0.09813637318113716,11.041848683113159,1.6736807001538296,0.3017506204999999,0.007158854500000089,-0.5974211179999998
17692.0,1.1512026434999998,1.726166533,10.315615135,-1.4824721946684716,-0.7420284768146411,0.11465765988051549,10.52220670959717,1.6617690716035989,0.011964112999999887,-0.05501530650000008,-0.521909913
17702.0,0.9464397914999999,1.7692177264999998,9.912169554,-1.4387726408570374,-0.7452259200042949,0.11971911471129904,10.113208437975604,1.6247341475922263,-0.20476285199999988,0.04305119349999975,-0.4034455809999997
17712.0,0.8770087094999999,1.6543818549999998,9.7433971075,-1.3449786468548621,-0.7982525133383865,0.10906213429862166,9.92168890830243,1.5678230718688757,-0.06943108200000003,-0.11483587149999996,-0.16877244650000023
17722.0,0.8949548789999999,1.5681814015,9.622481113,-1.2527816291182619,-0.8771256875652623,0.0890763690340346,9.79041775990678,1.5319092275860628,0.017946169500000053,-0.08620045349999983,-0.12091599450000068
17732.0,1.031463447,1.5717117955,9.529121804999999,-1.2056175967416192,-0.9754505563056148,0.06802595292573099,9.712793480000354,1.5523031622854553,0.136508568,0.0035303939999999923,-0.09335930800000014
17742.0,1.2588796605,1.6064273365,9.335146267999999,-1.225336326630651,-1.0817690330201015,0.0618981019219789,9.55564454299287,1.6356970163155173,0.22741621350000019,0.03471554099999996,-0.19397553700000003
17752.0,1.5797532485,1.550235232,8.820395209499999,-1.330323117125866,-1.1361273125734648,0.08401316887399905,9.093856236627612,1.7514574156624918,0.320873588,-0.056192104500000006,-0.5147510584999999
17762.0,1.8370797444999998,1.4771756894999997,8.2039491905,-1.5088528463123658,-1.1028194491284051,0.13224359742361036,8.535906063541677,1.8735890740128542,0.2573264959999997,-0.07305954250000024,-0.6164460189999996
17772.0,1.9412263674999997,1.3909752359999998,7.5323897985,-1.7113633994212678,-1.0148862707544266,0.19033164558848564,7.901902808411994,1.998745847464596,0.10414662299999988,-0.08620045349999983,-0.6715593919999998
17782.0,1.8359029464999999,1.308403243,6.909863656499999,-1.8813671952117754,-0.9352137357301374,0.24575632131481756,7.268333676069077,2.1153163886718067,-0.1053234209999998,-0.08257199299999973,-0.6225261420000008
17792.0,1.7174386145,1.0486250844999998,6.44296905,-1.9570411809197457,-0.8789914445356442,0.28066290635470414,6.749893342985222,2.1636561211029077,-0.11846433199999984,-0.2597781585000003,-0.4668946064999986
17802.0,1.6754661524999999,0.7589366435,6.0647265595,-1.924000352850241,-0.8382222985383088,0.30624419720118506,6.337513700066053,2.1208912013241266,-0.041972462000000155,-0.2896884409999998,-0.3782424904999999
17812.0,1.6719357584999999,0.60212831,5.648140067499999,-1.8627148614957123,-0.7985195487139417,0.3331571742669376,5.921099045308508,2.0538582783826245,-0.0035303939999999923,-0.1568083335,-0.4165864920000013
17822.0,1.7425436384999997,0.410506369,5.089062950999999,-1.8243437978906167,-0.7289716686804717,0.36699736313385567,5.394769274983611,1.9985787578146512,0.07060787999999985,-0.19162194100000002,-0.5590771165000001
17832.0,1.8514955199999998,0.05266171049999999,4.558719319,-1.8139521075242424,-0.5733581125726572,0.4122956385401165,4.920643326411363,1.9465737764605078,0.10895188150000013,-0.35784465849999997,-0.5303436319999992
17842.0,1.7832412359999998,-0.3005738225,4.375629163499999,-1.7958320992300376,-0.3769754104675072,0.4621247886845546,4.7345986635632356,1.8922691957115545,-0.068254284,-0.353235533,-0.1830901555000004
17852.0,1.576124788,-0.6668522,4.2869770475,-1.7396080627062922,-0.22962249770938198,0.5084894602637839,4.615954225269646,1.826889223375733,-0.20711644799999984,-0.36627837750000003,-0.08865211599999956
17862.0,1.3498853725,-1.0977564009999998,4.43064447,-1.6346230175403291,-0.15261333512363617,0.5548523865137613,4.760028366970886,1.7329582829226522,-0.22623941550000004,-0.4309042009999998,0.14366742250000009
17872.0,0.9500682519999999,-1.3659682784999998,4.6557070875,-1.4563585784001325,-0.1600746176759119,0.5844304813473092,4.944098250027432,1.5773912576249407,-0.39981712050000007,-0.2682118775,0.2250626174999999
17882.0,0.6447872375,-1.4976715879999998,4.850859422499999,-1.2570454684808838,-0.2631956512007449,0.5886943207099314,5.117578324168801,1.4127973187529188,-0.3052810144999999,-0.13170330949999998,0.1951523349999995
17892.0,0.5382870184999999,-1.7071416320000001,4.950200787,-1.082512543281451,-0.4012232697654644,0.5631130298634506,5.263893359254978,1.2844881482384185,-0.10650021900000006,-0.20947004400000035,0.09934136450000075
17902.0,0.639981979,-1.8519858524999997,4.767012565,-0.9194377046213609,-0.5200662291922623,0.5090217856856423,5.1540117700848125,1.1725773977560097,0.10169496050000004,-0.14484422049999957,-0.18318822200000007
17912.0,0.7944367164999999,-1.9237705305,4.5156681254999995,-0.8077889923712835,-0.5741574733700706,0.43307901927286496,4.972251137080692,1.08154394148239,0.15445473749999994,-0.07178467800000021,-0.2513444395000004
17922.0,0.997924704,-1.8830729329999998,4.267854079999999,-0.7446377440463727,-0.5573708966243891,0.34941142559076077,4.770366425550908,0.9935975194190626,0.20348798750000008,0.04069759750000013,-0.2478140455000002
17932.0,1.2553492665000001,-1.7933420855,4.179300030499999,-0.7195905239510021,-0.4641092280440721,0.29371971448887374,4.717894271967619,0.9052508869894399,0.2574245625000001,0.08973084749999982,-0.0885540494999999
17942.0,1.4444214785,-1.8064829965,4.196069402,-0.7030692372516237,-0.30956032277997425,0.27266929838057014,4.791318466831065,0.8151579552998144,0.1890722119999999,-0.013140911000000033,0.016769371500000574
17952.0,1.5462145055,-1.976432241,4.277464597,-0.6910788252904227,-0.12037186785154491,0.2716029022076016,4.959210328154198,0.7522283335679749,0.10179302700000004,-0.16994924449999993,0.08139519499999981
17962.0,1.5294451339999997,-2.202769723,4.546755205999999,-0.6644328836002253,0.07814188127029012,0.27373569455353863,5.278672160095744,0.7228474534024997,-0.016769371500000352,-0.22633748199999992,0.26929060899999957
17972.0,1.4121575999999998,-2.4110629689999996,4.959811304,-0.6151378042068975,0.21190740580163955,0.2657420865794046,5.6927271056152895,0.7027930871726328,-0.11728753399999992,-0.20829324599999977,0.4130560980000002
17982.0,1.2924184035,-2.5474734705,5.4063080784999995,-0.5434588771567423,0.23055973951770295,0.24975312530188457,6.11458366957728,0.6410007552608632,-0.11973919649999987,-0.13641050150000034,0.4464967744999999
17992.0,1.160715094,-2.6085689,5.808478795,-0.4451340084163898,0.16287761645461482,0.24175951732775056,6.472272950629577,0.5320912211353671,-0.13170330949999998,-0.06109542949999991,0.4021707165000006
18002.0,1.0613737295,-2.6480896995,6.062274896999999,-0.33481872771483623,0.06801722627947102,0.24975312530188457,6.700005237092512,0.4232098145097692,-0.09934136449999986,-0.03952079949999998,0.253796101999999
18012.0,0.9703680174999999,-2.693494489,6.274196603499999,-0.22556809785699913,-0.0020629791758572974,0.2761337769457789,6.896525913170426,0.3565600726725385,-0.09100571200000018,-0.04540478950000004,0.21192170650000008
18022.0,0.9883141869999998,-2.8168621459999996,6.4369869935,-0.12990834688444194,-0.025244442300845982,0.30491076565266134,7.095511175122013,0.33239138898025233,0.017946169499999942,-0.12336765699999974,0.1627903900000005
18032.0,0.9907658494999999,-2.936503276,6.6189984175,-0.06888814557621618,-0.00019722220547535924,0.325961181760965,7.308611941358064,0.33316108343042283,0.0024516625000000625,-0.1196411300000002,0.1820114240000006
18042.0,0.9751732759999999,-3.0131912789999995,6.788947662,-0.037713074477093475,0.052562335753061226,0.32809397410690205,7.491334658086067,0.3344110210079699,-0.015592573499999984,-0.07668800299999967,0.1699492444999997
18052.0,0.9225115654999999,-3.0227037295,7.156500904,-0.00813497964354557,0.11011805849607824,0.325961181760965,7.8232519206380715,0.3441552799475136,-0.052661710500000014,-0.00951245050000038,0.3675532419999996
18062.0,0.8040472334999998,-2.946113793,7.486886942499999,0.02703689544264416,0.14422528273855142,0.3403514214436582,8.085762457850269,0.3706359615241217,-0.11846433200000006,0.07658993650000001,0.3303860384999995
18072.0,0.6687154635,-2.958077906,7.837572746499999,0.07127052000518845,0.1516865652908272,0.36459928074161546,8.403865290791428,0.4012741414903802,-0.13533176999999985,-0.011964113000000332,0.35068580400000027
18082.0,0.5298532994999999,-3.083799159,8.385862547999999,0.14268241167978846,0.11278317626387357,0.3925769086510845,8.950600675149639,0.43266031093338175,-0.13886216400000007,-0.1257212529999996,0.5482898014999993
18092.0,0.35392199849999995,-3.1376376675,8.826377266,0.23461239404083375,0.026181684109166936,0.4184234895438686,9.37416484575019,0.48042343055104164,-0.17593130099999998,-0.05383850850000016,0.4405147180000011
18102.0,0.22221868899999997,-3.1759816689999996,9.069386052999999,0.3190810938496033,-0.08866272600131195,0.43334605464842013,9.611971914540522,0.5454013444369151,-0.13170330949999998,-0.038344001499999614,0.24300878699999906
18112.0,0.21741343049999998,-3.2274665815,9.1855948555,0.3766368165926203,-0.19498120271579852,0.4309479722561799,9.738529765002987,0.6046396578270694,-0.0048052584999999925,-0.05148491250000031,0.11620880250000098
18122.0,0.26409308449999996,-3.2298201774999997,9.183143193,0.4019510720635461,-0.2429445958898547,0.3979071441866752,9.73815190061282,0.6155622116406386,0.04667965399999999,-0.002353595999999847,-0.0024516625000003955
18132.0,0.405406911,-3.2298201774999997,9.207071419,0.3872955423345497,-0.21150248941517685,0.34754566862037883,9.765564871375304,0.5617108970972667,0.14131382650000002,0.0,0.023928226000000663
18142.0,0.571727695,-3.2155024685,9.203541025,0.328406388043009,-0.09239423994207582,0.29132163209663353,9.765833097130917,0.44861536376875855,0.166320784,0.014317708999999734,-0.0035303940000002143
18152.0,0.6291946639999999,-3.106550587,9.3291642115,0.24660280600203482,0.08853531696591636,0.24096015653033712,9.852910603467818,0.3559680369267121,0.05746696899999992,0.1089518814999999,0.12562318650000037
