timestamp,ax,ay,az,gx,gy,gz,acc_mag,gyro_mag,dax,day,daz
98152.0,0.60408964,1.7093971614999999,10.544208146499999,-0.4171546351776687,-0.014053391137058342,0.13357528364288201,10.698938656970444,0.43824404599827865,0.0,0.0,0.0
98162.0,-0.048346784500000003,1.5346426585,10.629231802,-0.41209318034688514,-0.003394665395128971,0.16315337847642994,10.73955465564134,0.44322831356968667,-0.6524364245,-0.17475450299999995,0.08502365550000057
98172.0,0.45444016099999995,1.3191905579999998,10.778881280999999,-0.384113807108164,-0.04682892916025986,0.17567786118874124,10.868811400430971,0.42496950046947496,0.5027869454999999,-0.21545210050000008,0.14964947899999892
98182.0,0.35147033599999994,1.1803283939999998,10.9584410425,-0.3302878529766589,-0.07534062782083922,0.1466320917770516,11.027426562744322,0.36914393718884636,-0.10296982500000001,-0.13886216400000007,0.17955976150000197
98192.0,0.1109132115,1.249759476,11.1416292645,-0.282858530553713,-0.180060382940499,0.0952059653670387,11.212051692527103,0.3485611361772203,-0.24055712449999994,0.06943108200000014,0.18318822200000007
98202.0,0.14317708999999998,1.2688824435,11.1069137235,-0.2615410790698543,-0.32608160947935255,0.043778093627773774,11.180075795619457,0.42029688740621296,0.03226387849999998,0.019122967499999977,-0.03471554100000063
98212.0,0.37069136999999996,1.2987927259999998,10.890186758499999,-0.27299916560919707,-0.4555815493188279,0.0006108652381980154,10.973624846508637,0.5311153035447205,0.22751427999999999,0.02991028249999994,-0.21672696500000121
98222.0,0.6137001569999999,1.4592295199999998,10.651983229999999,-0.296714699485296,-0.511273260420715,-0.012178907520416431,10.768970489649531,0.5912599136591864,0.24300878699999995,0.160436794,-0.2382035284999997
98232.0,0.7967903125,1.6650711034999999,10.420938556,-0.3182974410154579,-0.489688773561301,0.019530234329816546,10.583161010290446,0.5843712740732022,0.18309015550000007,0.20584158350000004,-0.23104467399999962
98242.0,0.872203451,1.8291363579999997,10.2294146815,-0.3316212845251826,-0.4084175169421851,0.08774468281476293,10.428202309227682,0.5333635475523384,0.07541313849999998,0.16406525449999987,-0.19152387449999964
98252.0,0.8781855075,1.8422772689999998,10.073783145999998,-0.3361504139341079,-0.30956032277997425,0.16501913544681188,10.278438704107291,0.48585595529058523,0.005982056500000055,0.013140911000000033,-0.1556315355000013
98262.0,0.8889728224999999,1.6303555625,10.074959944,-0.3193638371884264,-0.22162714440599596,0.22150846201686034,10.244664455828838,0.447412394091119,0.010787314999999853,-0.21192170649999986,0.0011767980000012557
98272.0,0.7908082559999999,1.3431187839999998,10.203034792999999,-0.26873532624657487,-0.1600746176759119,0.24282591350071908,10.321398391345037,0.3959886148166398,-0.09816456649999994,-0.28723677850000007,0.128074848999999
98282.0,0.5861434704999999,1.181505192,10.3767105645,-0.20771512493834915,-0.14781717033915576,0.22737102297430928,10.46019315434178,0.34160367542462544,-0.2046647855,-0.16161359199999992,0.17367577150000102
98292.0,0.479545185,1.06892485,10.5322440335,-0.16907877128695067,-0.18751992016352276,0.1863348416014186,10.597203796313465,0.3138025247710169,-0.10659828549999995,-0.112580342,0.15553346899999987
98302.0,0.514260726,0.988706453,10.599321519499998,-0.14776131980309196,-0.25440268242919745,0.12691510721727167,10.657749350507622,0.32040845322352884,0.03471554099999996,-0.08021839699999989,0.06707748599999874
98312.0,0.6088948985,1.0641195915,10.5310672355,-0.14216579422119813,-0.3132900913914861,0.07255682766390827,10.602192255427887,0.3516053009430885,0.09463417250000006,0.07541313849999987,-0.06825428399999822
98322.0,0.7705084904999999,1.2521130719999998,10.353959136499999,-0.15202515916571407,-0.3354069036727583,0.04191233665739183,10.457817185212107,0.37062930808934985,0.16161359199999992,0.18799348049999987,-0.17710809900000157
98332.0,0.869849855,1.4627599139999998,10.258148166,-0.15868708092057643,-0.3114260797503562,0.04431041904963204,10.398360886786818,0.3523225880299513,0.09934136450000008,0.21064684200000006,-0.09581097049999876
98342.0,0.8615142024999999,1.6172146514999999,10.210291714,-0.15255748458757235,-0.25893181183812275,0.07761828249469181,10.373410569099853,0.31039340692560813,-0.008335652500000124,0.15445473750000005,-0.04785645199999955
98352.0,0.813559684,1.6052505385,10.239025198499998,-0.13976771182895792,-0.20377417148734595,0.12398295407392118,10.395977379078056,0.27646102643257503,-0.047954518499999876,-0.011964112999999887,0.02873348449999824
98362.0,0.7357929495,1.5717117955,10.3886746775,-0.11978369189362284,-0.16273973544370726,0.16448506469570162,10.53262696517718,0.2605526642425737,-0.07776673450000005,-0.03353874300000004,0.1496494790000007
98372.0,0.6328231245,1.5215017475000001,10.5406777525,-0.09580112264196874,-0.15874293145664026,0.1879335631962454,10.66870752043545,0.2640003741712241,-0.10296982499999996,-0.05021004799999984,0.15200307500000143
98382.0,0.628017866,1.4220623165,10.662770544999999,-0.08407774605632284,-0.17046630804228616,0.19193211251256442,10.77549736055576,0.27012176027305684,-0.00480525850000002,-0.09943943100000019,0.12209279249999838
98392.0,0.580161414,1.405292945,10.697486086,-0.0939371110008388,-0.18618823394425107,0.18180571219249334,10.804982373318563,0.2766650615243688,-0.047856451999999994,-0.016769371499999908,0.03471554100000063
98402.0,0.592125527,1.3705774039999998,10.7597583135,-0.12484689205365838,-0.2072386500525547,0.15942360986491805,10.862849259057809,0.28974211277172784,0.011964112999999998,-0.03471554100000018,0.062272227500001165
98412.0,0.6077181005,1.379011123,10.768093965999999,-0.16215155948578516,-0.2173650503726258,0.13091191120433868,10.87303272448118,0.30112891236535044,0.015592573499999984,0.008433719000000117,0.008335652499997792
98422.0,0.5873202685,1.470016835,10.723865974499999,-0.18746406962745893,-0.22322586600082275,0.1101267851423382,10.840073617462805,0.31160948871767813,-0.020397832000000005,0.09100571200000007,-0.044227991499999675
98432.0,0.651946092,1.5346426585,10.6579652865,-0.20718279951649088,-0.22935546233382684,0.09946805940040883,10.787603341076322,0.32468836652817906,0.06462582350000001,0.0646258234999999,-0.06590068799999926
98442.0,0.7238288365,1.6076041344999998,10.6004983175,-0.22317001546475893,-0.223759936751933,0.10666405190638145,10.746110171458822,0.3335424786543043,0.07188274449999998,0.07296147599999991,-0.057466969000000034
98452.0,0.7608979735,1.6519301924999998,10.5179263245,-0.2322300196118615,-0.20910440702293664,0.1311772012506418,10.674015797935636,0.3389142858796172,0.03706913700000003,0.044326058,-0.08257199300000018
98462.0,0.78845466,1.6303555625,10.453300501000001,-0.23382874120668828,-0.19311719107466857,0.16501913544681188,10.609015570506873,0.34525562235318874,0.027556686499999983,-0.021574629999999928,-0.06462582349999835
98472.0,0.7417750059999999,1.6135861909999998,10.454477298999999,-0.23329641578483,-0.180060382940499,0.1948625203266629,10.604243780233388,0.35329925127402484,-0.04667965400000007,-0.01676937150000013,0.001176797999997703
98482.0,0.6806795765,1.5202268829999999,10.499980155,-0.2245034470132826,-0.1792610221430856,0.21298252862086803,10.631274510473988,0.35762811589466575,-0.06109542949999991,-0.09335930799999992,0.04550285600000059
98492.0,0.5873202685,1.460406318,10.557447124,-0.1997215169642151,-0.18325782613015262,0.21857805420276186,10.67414734241106,0.34820752570199,-0.09335930800000003,-0.05982056499999988,0.057466969000000034
98502.0,0.5263229054999999,1.440008486,10.640019117,-0.17147685367919088,-0.18618823394425107,0.21458125021569485,10.749913815967615,0.3318365301637607,-0.06099736300000003,-0.020397832000000005,0.08257199300000018
98512.0,0.41374256349999994,1.473547229,10.728573166499999,-0.15602196315278108,-0.18858631633649128,0.20871868925824588,10.837195510550178,0.3216693068060662,-0.112580342,0.03353874300000004,0.08855404949999901
98522.0,0.4017784505,1.4268675749999997,10.838701846,-0.15628899852833625,-0.2011107990488026,0.1985922889381748,10.939599385094334,0.3229716733410868,-0.011964112999999943,-0.04667965400000029,0.11012867950000071
98532.0,0.395796394,1.3431187839999998,10.8411535085,-0.16508196729988367,-0.21469993260483045,0.18420379458473354,10.931204519553136,0.3275349674882566,-0.005982056499999999,-0.08374879099999988,0.0024516625000003955
98542.0,0.4017784505,1.3526312345,10.828012597499999,-0.17494133224439964,-0.23654970951054746,0.16661785704163867,10.919564734523528,0.338114987958413,0.005982056499999999,0.009512450500000158,-0.013140911000000699
98552.0,0.4353171935,1.3658702119999997,10.757306651,-0.17414197144698623,-0.2634626865763,0.14876488412298866,10.852407515322787,0.3490974136048145,0.03353874299999998,0.013238977499999693,-0.07070594649999862
98562.0,0.4580686215,1.4041161469999999,10.7154322555,-0.1616174887346749,-0.28771054587425726,0.13624040141067736,10.816739686175259,0.35701403032473156,0.022751428000000018,0.038245935000000175,-0.041874395500000716
98572.0,0.5035714775,1.4544242614999998,10.714255457499998,-0.14216579422119813,-0.30423183257363556,0.1301125504069253,10.824241505711143,0.36013524788758366,0.04550285599999998,0.050308114499999945,-0.0011767980000012557
98582.0,0.5394638165,1.449619003,10.717883917999998,-0.1328405000277924,-0.309027997358116,0.12904615423395674,10.828917404011097,0.36027463346921307,0.035892338999999995,-0.004805258499999798,0.003628460499999875
98592.0,0.6208590115,1.4927682629999999,10.696309287999998,-0.1482953905542022,-0.30050031863287174,0.13357528364288201,10.81780270589808,0.36074134883369996,0.08139519500000003,0.043149259999999856,-0.021574629999999928
98602.0,0.663910205,1.5489603674999999,10.653160027999999,-0.18506598723521875,-0.2685258867363356,0.14689912715260675,10.785632738164498,0.35767991981250385,0.04305119349999997,0.056192104500000006,-0.043149259999999856
98612.0,0.6687154635,1.584950773,10.5669595745,-0.22423641163772745,-0.23068714855309852,0.16768250788535521,10.706067624159422,0.36278912919552303,0.00480525850000002,0.03599040550000021,-0.08620045349999828
98622.0,0.6866616329999999,1.5645529409999999,10.545483010999998,-0.2476849101382713,-0.19844568128100729,0.18660187697697372,10.683002482388346,0.3681694767639168,0.017946169499999942,-0.020397832000000227,-0.021476563500002044
98632.0,0.6376283829999999,1.542978311,10.560977518,-0.25061706328162175,-0.18885335171204642,0.20152444208152526,10.692127859258186,0.37294316137589695,-0.04903325000000003,-0.021574629999999928,0.015494507000001434
98642.0,0.5610384464999999,1.5262089394999998,10.572941631,-0.23702618439634193,-0.20803801084996812,0.2111167716504861,10.697250702773765,0.3795148446635831,-0.07658993650000001,-0.01676937150000013,0.01196411300000122
98652.0,0.5610384464999999,1.4663883745,10.5885342045,-0.21491111744432176,-0.25200460003695724,0.21484654026199795,10.704303601971795,0.3947811326589762,0.0,-0.05982056499999988,0.015592573499999318
98662.0,0.5298532994999999,1.440008486,10.625701408,-0.19092854819266766,-0.29437246762911956,0.21244845786975777,10.735916326551555,0.4101746060694825,-0.03118514699999997,-0.02637988849999995,0.037167203499999246
98672.0,0.532304962,1.4268675749999997,10.547836606999999,-0.1786711008559115,-0.3276803310741794,0.20738525770972224,10.657211489743716,0.4269735434067022,0.0024516625000000625,-0.013140911000000255,-0.07786480100000048
98682.0,0.580161414,1.3969572924999998,10.465264614,-0.18373430101594707,-0.3338081820779315,0.20605357149045053,10.574017230192316,0.43317925864007195,0.047856451999999994,-0.02991028249999994,-0.0825719929999984
98692.0,0.636451585,1.3861699775,10.352684272,-0.2010549485127388,-0.3114260797503562,0.20392252447376547,10.464445014537919,0.42307646053389536,0.056290171,-0.010787314999999742,-0.11258034200000111
98702.0,0.6532209565,1.3849931795,10.222255827,-0.21650983903914855,-0.26532844354668195,0.2025890929252418,10.336315490439896,0.3978919877654425,0.01676937150000002,-0.0011767980000001454,-0.13042844499999973
98712.0,0.6112484945,1.3969572924999998,10.1707709145,-0.2189079214313888,-0.2051076030358696,0.19805996351631652,10.28443947886012,0.35946843538287976,-0.041972462000000044,0.011964112999999887,-0.051484912499999425
98722.0,0.570550897,1.3838163815,10.154001543,-0.21837385068027854,-0.1630067708192624,0.19006635554218249,10.263733406466754,0.3322402225844177,-0.040697597500000016,-0.01314091099999981,-0.016769371500000574
98732.0,0.556233188,1.4245139789999999,10.252166109500001,-0.217309199836562,-0.13529443295609644,0.18180571219249334,10.365594308701235,0.31397641457335335,-0.014317708999999956,0.040697597499999905,0.09816456650000127
98742.0,0.5753561555,1.43765489,10.279722796,-0.21624280366359344,-0.11824082083485984,0.17807594358098144,10.395700411757483,0.3040606576495054,0.019122967499999977,0.013140911000000033,0.02755668649999876
98752.0,0.5394638165,1.4185319225,10.303651022,-0.21650983903914855,-0.10092017333806812,0.17887530437839483,10.414820133234464,0.29842547864384356,-0.035892338999999995,-0.019122967499999977,0.023928226000000663
98762.0,0.5310300975,1.3981340905,10.3347381025,-0.21464408206876662,-0.08679696903093,0.17754187282987116,10.442393573636958,0.2917651665432969,-0.008433719000000006,-0.020397832000000005,0.031087080499998976
98772.0,0.4712095325,1.377834325,10.418584959999999,-0.21624280366359344,-0.07613998861825262,0.17167931187242222,10.519856387774752,0.28641234981764924,-0.05982056499999999,-0.0202997654999999,0.08384685749999932
98782.0,0.418547822,1.3826395835,10.546659809,-0.22610216860810942,-0.07720463946196916,0.15622442134601244,10.645135397163246,0.2854624613301003,-0.05266171049999996,0.00480525850000002,0.12807484900000077
98792.0,0.42570667649999994,1.392152034,10.587357406499999,-0.23782554519375532,-0.09825505557027278,0.1357080759888191,10.686975732786026,0.2909153275102765,0.007158854499999923,0.009512450499999936,0.04069759749999946
98802.0,0.4353171935,1.4353012939999998,10.6112856325,-0.2375602551474522,-0.13822484077019492,0.12131783630612585,10.716761340909654,0.30043135461810283,0.00961051700000004,0.043149259999999856,0.023928226000000663
98812.0,0.49513775849999997,1.4532474635,10.5981447215,-0.2135776858957981,-0.19311719107466857,0.11412358912940522,10.708770290183645,0.3097319340929371,0.05982056499999999,0.017946169500000053,-0.013140910999998923
98822.0,0.523871243,1.5585708844999997,10.501156953,-0.16827941048953726,-0.237616105683516,0.12584871104430312,10.629105401339933,0.3172022568431986,0.028733484500000017,0.1053234209999998,-0.09698776850000002
98832.0,0.534658558,1.601622078,10.4484952425,-0.12511218209996153,-0.27065693375302063,0.15196232731264228,10.584049597716595,0.33466518017367086,0.010787314999999964,0.043051193500000196,-0.05266171050000068
98842.0,0.5310300975,1.6040737404999998,10.4269206125,-0.09713455419049243,-0.2823820556679186,0.18367146916287527,10.562940830506905,0.3505851616447482,-0.003628460499999986,0.0024516624999999515,-0.021574629999999928
98852.0,0.5130839279999999,1.57887065,10.431725870999998,-0.07155326334401153,-0.28557949885757217,0.21138380702604123,10.56300110263622,0.3624343161674156,-0.017946169500000053,-0.025203090499999803,0.004805258499997578
98862.0,0.48680210599999996,1.5369962545,10.5753932935,-0.036114352882266665,-0.2767847847567727,0.22603759142578564,10.697582768502324,0.35917552296130684,-0.026281821999999955,-0.04187439550000005,0.14366742250000186
98872.0,0.45689182349999996,1.4891398025,10.731024828999999,-0.009468411192069237,-0.26506140817112683,0.21831101882720672,10.843485665153311,0.34352132663567747,-0.029910282499999996,-0.047856451999999994,0.15563153549999953
98882.0,0.46885593649999996,1.4663883745,10.960892705,-0.01080009741134091,-0.2647943727955717,0.18660187697697372,11.068481812994149,0.3241187474670731,0.011964112999999998,-0.022751428000000073,0.22986787600000014
98892.0,0.5095535339999999,1.517873287,11.200273031499998,-0.036646678304124936,-0.27225565534784746,0.14796552332557528,11.314137178748815,0.31202550695836273,0.04069759749999996,0.05148491250000009,0.23938032649999919
98902.0,0.5765329535,1.6291787645,11.2685273155,-0.07501774190922027,-0.28744351049870215,0.1202531854624093,11.400277257739779,0.32048753789005974,0.06697941950000008,0.11130547749999997,0.06825428400000177
98912.0,0.6675386655,1.6997866445,11.296084001999999,-0.10859264072983518,-0.2927737460342928,0.11172550673716501,11.442744263811823,0.3316495391875405,0.09100571199999996,0.07060788000000007,0.02755668649999876
98922.0,0.732164489,1.7477411629999997,11.278039766,-0.11232240934134707,-0.2914403144857691,0.12291830323020464,11.436120188913483,0.3356526326677651,0.06462582350000001,0.047954518499999654,-0.018044235999999714
98932.0,0.7860029974999999,1.7560768155,11.328347880499999,-0.07821518509887389,-0.28264734571422173,0.14716616252816186,11.49056448550916,0.3281234776918763,0.05383850849999994,0.008335652500000235,0.050308114499999945
98942.0,0.732164489,1.8099153239999999,11.468386842500001,-0.00467224640758882,-0.27252269072340257,0.17727658278356803,11.633389664591736,0.3251421745160658,-0.05383850849999994,0.05383850849999994,0.140038962000002
98952.0,0.6999006105,1.8901337209999998,11.735323855499999,0.08485965356121629,-0.25653372944588254,0.21298252862086803,11.907152990589603,0.3440527178263264,-0.03226387850000001,0.08021839699999989,0.26693701299999795
98962.0,0.6304695284999999,1.9871214895,12.0897361865,0.14055136466310336,-0.2290884269582717,0.24975312530188457,12.26816468342218,0.36689619386542416,-0.06943108200000003,0.09698776850000024,0.3544123310000007
98972.0,0.557409986,2.052924111,12.488376509,0.1370868860978946,-0.2027095206436294,0.29132163209663353,12.66825762007391,0.3804632142888895,-0.07305954249999991,0.06580262149999982,0.39864032250000037
98982.0,0.47238633049999995,2.086462854,12.8785831125,0.0787318025574642,-0.1536797312966047,0.33821862909772116,13.055051860177931,0.37974728124647056,-0.08502365550000007,0.03353874300000026,0.39020660349999936
98992.0,0.2988086255,2.0673398864999997,13.194651442,-0.009201375816514106,-0.14595315869802583,0.3824522536602655,13.358967305778531,0.4094590531184576,-0.17357770499999997,-0.01912296750000042,0.3160683295000002
99002.0,0.21741343049999998,1.9871214895,13.373034405499999,-0.09606815801752387,-0.19045207330687325,0.4160254071516284,13.521611206675082,0.4675234995242964,-0.081395195,-0.08021839699999966,0.17838296349999894
99012.0,0.212608172,1.795597615,13.473552567999999,-0.1514928337438558,-0.2765194947104696,0.443205419592936,13.594336755886777,0.5439155757902392,-0.004805258499999965,-0.19152387450000008,0.10051816250000023
99022.0,0.25811102799999996,1.6997866445,13.441288689499999,-0.1389683510315445,-0.39109861477464536,0.4621247886845546,13.550798410945252,0.621151873042187,0.04550285599999995,-0.09581097049999987,-0.03226387850000023
99032.0,0.4017784505,1.6135861909999998,13.325079887,-0.062493259196908964,-0.5107391896696046,0.474914561443169,13.428434023146705,0.7002169435112049,0.14366742250000003,-0.08620045350000027,-0.11620880249999921
99042.0,0.5514279295,1.612409393,13.171900013999998,0.0467556253316761,-0.5954749248539294,0.48930305579661026,13.281674848861512,0.7721359692708595,0.14964947899999997,-0.0011767979999997014,-0.1531798730000009
99052.0,0.661556609,1.7417591064999998,13.059319671999999,0.14001729391199308,-0.6349106393027412,0.5084894602637839,13.1915583699377,0.8253955983003588,0.11012867950000005,0.12934971349999969,-0.11258034199999933
99062.0,0.6962721499999999,1.8339416165,13.031861052,0.19570900501388017,-0.6191904587300282,0.5367341235488082,13.178677446475074,0.8424858207753606,0.03471554099999985,0.09218251000000022,-0.0274586199999991
99072.0,0.7465802645,1.8866033269999998,13.218579667999999,0.2186234327633137,-0.5634987476281412,0.5695079162427578,13.373387852150676,0.8304615045833652,0.05030811450000017,0.05266171049999979,0.1867186159999985
99082.0,0.6268410680000001,1.994280344,13.508268108999998,0.19411028341905337,-0.4529164315510325,0.587894959912518,13.669066944002525,0.7670935927176601,-0.11973919649999998,0.10767701700000032,0.28968844099999913
99092.0,0.34911674,2.0086961195,14.005072998,0.1432147371016467,-0.3897651832261217,0.5942898462918252,14.152696290034323,0.7249881243054588,-0.2777243280000001,0.014415775500000061,0.49680488900000164
99102.0,0.1826978895,1.9882982875,14.4048901185,0.06487563362588122,-0.3945613480106021,0.5796343165628288,14.542612142423454,0.7041757210523242,-0.1664188505,-0.020397832000000227,0.39981712049999985
99112.0,0.09051537949999999,1.867382293,14.6131833645,-0.022258183950683685,-0.449986023736934,0.5393974959873515,14.732292343917,0.7028033202744448,-0.09218251,-0.12091599450000001,0.2082932460000002
99122.0,0.09414383999999999,1.740484242,14.5988656555,-0.0814126282885275,-0.5413819353468691,0.48077712240061804,14.70255171344749,0.7286076155164632,0.0036284604999999998,-0.12689805099999996,-0.014317709000000178
99132.0,0.233006004,1.6471249339999998,14.409695376999998,-0.12058305269103624,-0.6341112785053278,0.4109639523208448,14.50540013939773,0.7651985077292821,0.138862164,-0.09335930800000014,-0.18917027850000068
99142.0,0.43168873299999994,1.6231967079999998,14.135599509499999,-0.13097474305741047,-0.6826087424304942,0.33448886048620924,14.235037625803376,0.7713571652294793,0.19868272899999995,-0.023928225999999997,-0.2740958674999998
99152.0,0.5777097514999999,1.7728461869999999,13.850618260499997,-0.12218177428586303,-0.6884695580586911,0.2686724943935031,13.975562899498344,0.7490685066032332,0.1460210185,0.14964947900000003,-0.2849812490000012
99162.0,0.8195417405000001,1.9967320065,13.5836812475,-0.1259115428973749,-0.6357100001001545,0.21324781866717116,13.754089704661899,0.6822430307657549,0.24183198900000014,0.2238858195000002,-0.26693701299999795
99172.0,1.018322536,2.3786029574999996,13.3646006865,-0.1405670726263713,-0.5016791855225021,0.18180571219249334,13.612761818468341,0.5518101340851655,0.19878079549999983,0.38187095099999957,-0.21908056100000017
99182.0,1.1188406985,2.827453328,13.277223435,-0.16028580251540325,-0.32847969187159276,0.1855354808040052,13.620974964133493,0.4098949390968822,0.10051816250000001,0.4488503705000002,-0.08737725149999953
99192.0,1.2600564584999998,2.9616082999999995,13.298798065,-0.19838983074494343,-0.15101461352880935,0.20738525770972224,13.682722535185905,0.324303227793975,0.1412157599999999,0.1341549719999997,0.021574629999999928
99202.0,1.2696669754999999,2.916105444,13.5956453605,-0.2588759613020589,-0.011922344120373267,0.21511357563755312,13.962710981671394,0.3367977969835358,0.00961051700000004,-0.0455028559999997,0.296847295500001
99212.0,1.297223662,2.943564064,14.018213908999998,-0.3777189207288568,0.008328711190516942,0.2220407874387186,14.382547751584415,0.43822718057312887,0.027556686500000094,0.02745861999999999,0.4225685484999975
99222.0,1.4719781650000001,2.9471925245,14.106866024999999,-0.586626105546318,-0.049492301598803204,0.23856207413809694,14.486418899852534,0.6352098384337711,0.17475450300000017,0.003628460500000319,0.08865211600000045
99232.0,1.565337473,2.892177218,13.865034035999999,-0.852287906980131,-0.12676675423085215,0.27293633375612525,14.249706638528902,0.9038576926967169,0.09335930799999992,-0.05501530650000008,-0.24183198899999958
99242.0,1.7317563235,2.7485097955,13.441288689499999,-1.0979674338078609,-0.15847589608108512,0.30837524421787016,13.828287229242177,1.1514088702922838,0.16641885049999994,-0.14366742250000009,-0.4237453465000005
99252.0,1.7317563235,2.664662938,12.869070661999999,-1.2820926885762547,-0.1390242015676083,0.33661990750289433,13.255654953290016,1.3328174491840423,0.0,-0.08384685749999976,-0.5722180275
99262.0,1.7186154124999997,2.5306060324999997,12.390211942499999,-1.4105279775720134,-0.09479232233431602,0.34914439021520566,12.762247365095128,1.4561856217892262,-0.013140911000000255,-0.1340569055000005,-0.4788587194999998
99272.0,1.633591757,2.4455823769999996,12.007066127,-1.4800741122762315,-0.0681446353148666,0.3592690452060247,12.362003566145017,1.5245777500658075,-0.08502365549999968,-0.08502365550000013,-0.38314581549999893
99282.0,1.589265699,2.4168488925,11.691095864000001,-1.4867360340310938,-0.08146847882459131,0.3704618416990644,12.043614346716454,1.5343608193914366,-0.044326058,-0.028733484499999573,-0.31597026299999875
99292.0,1.6120171269999999,2.293579302,11.440928222499998,-1.4518294489912071,-0.14222164475726193,0.37605736728095823,11.77938639423553,1.5064710049257033,0.02275142799999985,-0.12326959050000008,-0.2501676415000027
99302.0,1.64555587,2.209830511,11.249306281500001,-1.3785518003462254,-0.23388459174275214,0.38298457908212374,11.581800241052052,1.4497531708215727,0.03353874300000004,-0.0837487910000001,-0.19162194099999752
99312.0,1.703022839,2.1535403399999997,10.996785044,-1.3074069440471803,-0.32341649171155723,0.39950586578150205,11.334341802244406,1.4048188784493274,0.057466969000000034,-0.05629017100000011,-0.25252123750000166
99322.0,1.8059926639999997,1.9882982875,10.734555223,-1.2898192611748336,-0.38070517907901913,0.4349447762432469,11.06551469287054,1.413416823961166,0.10296982499999974,-0.1652420524999998,-0.26222982100000003
99332.0,1.9628009974999998,1.6411428774999999,10.434079466999998,-1.3340528857373777,-0.390299253977232,0.47891136543023605,10.743181652742681,1.4701655367806925,0.15680833350000012,-0.34715541000000005,-0.30047575600000087
99342.0,1.920926602,1.3574364929999998,10.097711372,-1.411859663791285,-0.3703134887126449,0.5100881818586107,10.368045514706111,1.5461790787082828,-0.04187439549999983,-0.2837063845000001,-0.3363680949999992
99352.0,1.8096211244999998,1.0941279405,9.736238253,-1.4899334772207473,-0.33061073888827786,0.5351354019539815,9.963241434573384,1.6172739797683662,-0.1113054775000002,-0.26330855249999985,-0.36147311899999934
99362.0,1.689881928,0.825916063,9.421346721499999,-1.5490879215585913,-0.27545309853750105,0.5460594177422139,9.60726872323353,1.6654514961167715,-0.11973919649999987,-0.2682118775,-0.3148915315000007
99372.0,1.4779602215,0.7026464725,9.17117908,-1.5810640987843794,-0.21390057180741703,0.5473928492907375,9.31604015658384,1.686759043414036,-0.21192170649999986,-0.12326959049999997,-0.25016764149999915
99382.0,1.0949124725,0.5973230515,8.973673149,-1.5845268320203358,-0.14302100555467534,0.5455270923203556,9.059935868171083,1.681897766773526,-0.38304774900000016,-0.10532342100000003,-0.19750593100000025
99392.0,0.671167126,0.2656621485,8.9700446885,-1.5496202469804494,-0.11770675008374959,0.5346013312028711,8.999041249036244,1.6434647462574028,-0.42374534649999995,-0.331660903,-0.003628460499999875
99402.0,0.45444016099999995,-0.2813527885,9.001229835499998,-1.4840709162632986,-0.158210606034782,0.46478816112309795,9.017084551174053,1.5631778897747595,-0.216726965,-0.5470149369999999,0.031185146999998636
99412.0,0.231829206,-0.6751878524999999,9.0945891435,-1.3889434907125995,-0.2682588513607805,0.3163688521920041,9.122564064230309,1.4495572021702325,-0.22261095499999994,-0.3938350639999999,0.09335930800000192
99422.0,0.705882667,-0.472876663,9.095765941499998,-1.2863565279388767,-0.46171114565183197,0.15729081751898097,9.135362102321528,1.3757291522192436,0.474053461,0.20231118949999993,0.001176797999997703
99432.0,0.9309452844999999,0.1364105015,8.6109251655,-1.2421229033763326,-0.5541734534347356,0.14023720539774437,8.662176352019939,1.367349259465774,0.2250626174999999,0.6092871645,-0.48484077599999864
99442.0,1.2457387495,0.4129580315,8.1607999305,-1.2759648375725023,-0.46837132207744225,0.08001636488693203,8.26565513879178,1.3615654889558975,0.31479346500000016,0.27654753,-0.4501252349999998
99452.0,1.657519983,-0.17485256949999997,7.9370121775,-1.4121266991668402,-0.23335226632089387,0.06722659212831758,8.11012381045372,1.4328553693189414,0.41178123349999995,-0.5878106009999999,-0.22378775299999987
99462.0,1.8023642035,-0.13415497199999998,8.1931618755,-1.5181781405057717,0.011260864333867414,0.07228979228835312,8.390138008204465,1.519939961789347,0.1448442205,0.04069759749999999,0.25614969799999976
99472.0,1.6287864984999998,0.0897308475,8.7042844735,-1.4941973165833693,0.11411486248314524,0.11359126370754695,8.85582098273797,1.5028475630998528,-0.17357770500000025,0.22388581949999997,0.511122598
99482.0,1.4636425124999999,0.023928225999999997,9.015547544499999,-1.4017350088004659,0.006729989595690135,0.2382950387625418,9.13361480967622,1.4218617559930506,-0.1651439859999999,-0.0658026215,0.31126307099999906
99492.0,1.492375997,0.043051193499999994,9.1065532565,-1.2860894925633215,-0.184057186927566,0.35687096281378455,9.22812828991634,1.3473158928184246,0.028733484500000017,0.019122967499999997,0.09100571200000118
99502.0,1.2673133795,-0.0024516625,9.065855658999999,-1.149660595593429,-0.39429605796429895,0.44906798055038505,9.154006119854357,1.295704795677636,-0.2250626174999999,-0.045502855999999994,-0.04069759750000124
99512.0,1.1020713269999998,-0.2586013605,8.835987783,-1.0236233889899102,-0.5994717288409964,0.5084894602637839,8.908204980509444,1.2906326849131617,-0.16524205250000024,-0.256149698,-0.22986787599999836
99522.0,0.9596787689999999,-0.517202721,8.615730423999999,-0.9346255597722155,-0.7036591585387978,0.49942945611668144,8.6844281753791,1.272042031543007,-0.14239255799999984,-0.2586013605,-0.22025735900000143
99532.0,0.800418773,-0.6967624825,8.478045058,-0.8762704762317851,-0.705790205555483,0.4322796584754516,8.544202489095667,1.2053445419900417,-0.15925999599999996,-0.17955976149999997,-0.13768536599999948
99542.0,0.7105898589999999,-0.863181333,8.375075232999999,-0.8893272843659547,-0.5949425994320711,0.3243624601661381,8.449373060752098,1.11806561565131,-0.08982891400000004,-0.16641885050000005,-0.10296982500000063
99552.0,0.9356524764999999,-1.1708159434999998,8.4708862035,-1.0063044868223705,-0.3687147671178181,0.18340443378732013,8.602451313607128,1.0873069879396657,0.2250626175,-0.30763461049999985,0.09581097050000054
99562.0,0.9703680174999999,-1.267803712,8.7031076755,-1.1768406080347364,-0.16380613161667582,0.03631681107549801,8.848334507289769,1.1887410046942442,0.03471554099999996,-0.09698776850000024,0.23222147200000087
99572.0,0.8877960245,-1.047546353,8.802449039999999,-1.334319921112933,-0.09772273014841451,-0.040423570805440664,8.908908139867561,1.3385041833864944,-0.08257199299999995,0.2202573590000001,0.09934136449999897
99582.0,0.732164489,-0.9601691014999999,8.6683921345,-1.4182545501705923,-0.1390242015676083,-0.009248499706317952,8.752086136452807,1.4250821844539063,-0.15563153549999997,0.08737725150000009,-0.1340569054999996
99592.0,0.49513775849999997,-0.9565406409999999,8.4134192345,-1.3956054124674617,-0.2647943727955717,0.08055043563804229,8.482084331886334,1.422785612752024,-0.2370267305,0.003628460499999986,-0.2549729000000003
99602.0,0.3909911355,-0.8260141295,8.0411588005,-1.2661054726279866,-0.44705561592283555,0.15142825656153203,8.092923344813778,1.3512262240024608,-0.104146623,0.13052651149999994,-0.3722604339999993
99612.0,0.083356525,-1.19837263,7.729895729499999,-1.0755835861510334,-0.6767461814730453,0.20472188527117885,7.822680695230729,1.2871583023252624,-0.30763461049999996,-0.37235850049999997,-0.31126307100000083
99622.0,0.10247949249999999,-1.6568335174999997,7.3515551725,-0.9111770612716716,-0.8701967304348448,0.23003614074210463,7.5366413478024805,1.280782031687943,0.01912296749999999,-0.4584608874999998,-0.3783405569999987
99632.0,0.44482964399999997,-1.7801031079999998,7.0247975945,-0.8003277098190078,-0.9434743790798267,0.15809017831639438,7.260469800982951,1.2472613405234332,0.3423501515,-0.12326959050000008,-0.3267575780000005
99642.0,0.5873202685,-1.7609801405,6.7613909754999995,-0.7510326304256799,-0.892313542716117,0.04537681522260057,7.011590695170329,1.167190012739335,0.1424906245,0.019122967499999755,-0.2634066190000004
99652.0,0.8877960245,-1.6891954624999999,6.5579029879999995,-0.7827417722759129,-0.7321691118701252,-0.029764845063511295,6.829908834799181,1.0722137083827925,0.300475756,0.07178467800000021,-0.20348798749999997
99662.0,1.2122000064999998,-1.7849083664999998,6.482489849499999,-0.8589498287349933,-0.46490858884148556,-0.06893526946602004,6.832130076442546,0.9791255668395186,0.32440398199999987,-0.09571290399999999,-0.07541313850000009
99672.0,1.3367444614999997,-1.891506652,6.695588354,-0.9087789788794315,-0.19285015569911346,-0.08066039138091795,7.084884372813123,0.9325108652150051,0.12454445499999989,-0.10659828550000006,0.21309850450000045
99682.0,1.1859181845,-1.89268345,7.099033935,-0.8829323979866474,-0.05775294494849237,-0.05827654372409066,7.442105575206069,0.8867362503095838,-0.15082627699999973,-0.0011767980000001454,0.4034455809999997
99692.0,1.0218529299999999,-1.9273989909999998,7.438932424,-0.7680862425469165,-0.11504337764520622,-0.011911872144861299,7.752210387360234,0.7767453555882092,-0.1640652545000001,-0.03471554099999974,0.3398984890000003
99702.0,0.985960591,-1.9441683625,7.6639950415,-0.5986165175075192,-0.2946377576754227,0.02672448150653717,7.967981482463898,0.6677329864493924,-0.035892338999999884,-0.01676937150000013,0.2250626174999999
99712.0,1.0003763665,-1.824429166,7.630554365,-0.4408701690537677,-0.4926209267046515,0.06402914893866397,7.909150053806272,0.6641849255310278,0.014415775500000061,0.11973919649999987,-0.03344067649999971
99722.0,1.1487509809999998,-1.7561748819999998,7.4282431755,-0.3465421043004821,-0.6202551095737447,0.11332422833199182,7.718975042509109,0.7194791252930037,0.14837461449999978,0.06825428400000022,-0.2023111895000005
99732.0,1.3749903964999999,-1.8735604824999998,7.134926274,-0.3150999978258042,-0.616525340962233,0.15249465273450055,7.503865697590035,0.7089754042214973,0.22623941550000004,-0.11738560050000002,-0.2933169014999999
99742.0,1.5378788529999998,-2.0722432115,6.937420343,-0.3318865745714857,-0.4800964439923402,0.16794954326091033,7.401828443674081,0.6073288590182694,0.16288845649999995,-0.19868272900000017,-0.19750593099999936
99752.0,1.609663531,-2.180018295,6.937420343,-0.36253106557800213,-0.2583994864162645,0.16208698230346139,7.447905575733109,0.47378397811824907,0.07178467800000021,-0.10777508349999998,0.0
99762.0,1.5211094815,-2.311623538,7.100210733,-0.3729227559443764,-0.044163811392464516,0.1421029623681263,7.620391714941774,0.401515972349364,-0.08855404950000012,-0.1316052430000001,0.16279038999999962
99772.0,1.2337746365,-2.227874747,7.541902249,-0.32336064117549346,0.1013250897245308,0.10959445972047993,7.96027105540146,0.35614578990988277,-0.28733484499999995,0.0837487910000001,0.4416915159999997
99782.0,0.9429093974999999,-2.03389921,8.0207609685,-0.2205066430262156,0.1658080242687133,0.07921700408951864,8.328170906156133,0.2870380014344858,-0.29086523900000005,0.19397553700000003,0.4788587194999998
99792.0,0.9296704199999999,-1.9669197904999998,8.5511046005,-0.11738560950138262,0.1618112202816463,0.06456147436052224,8.823516897517441,0.21007245487843218,-0.013238977500000026,0.06697941950000019,0.530343632000001
99802.0,1.054214875,-1.904647563,9.05742194,-0.058496455209841945,0.12557294902248803,0.06322978814125056,9.315360623245159,0.1522774011687514,0.12454445500000011,0.06227222749999983,0.5063173394999989
99812.0,1.238579895,-1.8986655065,9.33396947,-0.06542541234025943,0.06428571233870714,0.07681892169727841,9.605310871011056,0.11964231743626737,0.18436502,0.005982056499999944,0.2765475300000002
99822.0,1.3307624049999998,-1.9189652719999999,9.413011069,-0.12431282130254812,-0.012986994964089806,0.107728702750098,9.698357267023109,0.16500852394532692,0.09218250999999977,-0.0202997654999999,0.07904159899999996
99832.0,1.365477946,-1.9453451604999998,9.263361589999999,-0.20371832095128214,-0.06628062367373666,0.1365074367862325,9.563407643804611,0.2540247146711051,0.03471554100000018,-0.02637988849999995,-0.1496494790000007
99842.0,1.3008521224999998,-1.9800607015,8.9712214865,-0.2596753220994723,-0.061484458889256244,0.1548927351267408,9.278775327923222,0.3085504350789543,-0.06462582350000012,-0.03471554100000018,-0.2921401034999995
99852.0,1.1799361279999998,-2.0099709839999997,8.7617514425,-0.27912701661294914,-0.000996583002888762,0.17194634724797736,9.066450295613624,0.32783903201548353,-0.12091599450000001,-0.02991028249999972,-0.2094700439999997
99862.0,1.0135172774999999,-2.063907559,8.718700249,-0.257011949660929,0.08293804605477054,0.17967466517580827,9.016799083699327,0.32437146461724087,-0.16641885049999994,-0.053936575000000264,-0.043051193500000196
99872.0,0.8434699665,-2.0471381875,8.91620618,-0.19199494436563624,0.15781441629457926,0.18820059857180055,9.186998910818401,0.31174815790176935,-0.17004731099999992,0.01676937150000013,0.19750593100000025
99882.0,0.671167126,-2.0411561309999997,9.2897414785,-0.11285473476320534,0.17353634219654418,0.20152444208152526,9.53499241738059,0.288899903042039,-0.1723028405,0.005982056500000166,0.3735352985000002
99892.0,0.547799469,-2.044686525,9.6500377995,-0.038779470650062015,0.10931869769866483,0.222840148236132,9.879476543599466,0.25122133005844144,-0.12336765699999996,-0.0035303940000002143,0.36029632099999986
99902.0,0.5155355905,-2.1404974955,10.001998467999998,0.0211760798144472,-0.008724900930719653,0.2436252742981325,10.24145887201566,0.24469945755844863,-0.03226387850000001,-0.09581097050000009,0.3519606684999985
99912.0,0.6328231245,-2.250626175,10.1923455445,0.04595626453426269,-0.1288995465767892,0.2478891136607546,10.457040259317456,0.2831538169072766,0.11728753400000003,-0.11012867949999983,0.19034707650000193
99922.0,0.7346161515,-2.309269942,10.168319252,0.03023433863229777,-0.22322586600082275,0.23616399174585673,10.453090689631617,0.3263699334829831,0.10179302700000004,-0.05864376699999996,-0.024026292500000324
99932.0,0.8567089439999999,-2.3295697075,9.992387951,-0.019593066182888343,-0.24827483142544537,0.2180439834516516,10.29605080601884,0.33100975647440434,0.12209279249999982,-0.020299765500000344,-0.17593130100000032
99942.0,0.9883141869999998,-2.3727189675,9.829597561,-0.08327838525890943,-0.18032567298680213,0.204987175317482,10.160095887449925,0.28543366976254664,0.13160524299999998,-0.043149259999999856,-0.16279038999999962
99952.0,0.997924704,-2.379877822,9.727804533999999,-0.14589730816196197,-0.05109102319363001,0.2033884537226552,10.064286026053308,0.2554665932907299,0.009610517000000152,-0.007158854500000089,-0.10179302700000115
99962.0,0.9057421939999999,-2.3595780564999997,9.7900767615,-0.17600598308811619,0.0794753128188138,0.20125740670597014,10.11106228458566,0.27892467654274483,-0.0921825100000001,0.020299765500000344,0.062272227500001165
99972.0,0.8087544255,-2.3727189675,10.025926693999999,-0.16961109670880894,0.1588808124675478,0.21751165802979333,10.334557808293582,0.3183117309745005,-0.0969877684999999,-0.013140911000000255,0.23584993249999897
99982.0,0.6879364975,-2.3835062825,10.222255827,-0.13870131565598937,0.16287761645461482,0.23616399174585673,10.518976804611036,0.3186543643259513,-0.12081792800000002,-0.010787314999999964,0.19632913300000077
99992.0,0.6795027785,-2.4313627345,10.371905305999999,-0.09660048343938214,0.11651294487538545,0.24948783525558144,10.674721001006793,0.2918066134699025,-0.008433719000000006,-0.047856451999999994,0.14964947899999892
100002.0,0.6663618674999999,-2.4325395325,10.5861806085,-0.046239007873085776,0.04989721798526589,0.2524182430696799,10.882486232080188,0.2614244587756479,-0.013140911000000033,-0.0011767979999999234,0.21427530250000082
