timestamp,ax,ay,az,gx,gy,gz,acc_mag,gyro_mag,dax,day,daz
186042.0,0.25212897149999997,0.67273619,10.95010539,-0.20931384653317597,-0.21363353643186192,0.0003455751918948773,10.973648028423018,0.2990847599947394,0.0,0.0,0.0
186052.0,-0.06864655,0.7541313849999999,10.523908381,-0.2322300196118615,-0.2165656895752124,-0.002319542575900464,10.551117197072116,0.3175482013614221,-0.3207755215,0.08139519499999992,-0.4261970089999991
186062.0,0.5418174124999999,1.006750689,10.545483010999998,-0.26367387141579135,-0.1630067708192624,0.02565808533356864,10.607276982976346,0.3110521743105158,0.6104639624999999,0.2526193040000001,0.02157462999999815
186072.0,0.5071018715,1.2784929605000002,10.663947343,-0.2764636441744058,-0.04762828995767326,0.08294851803028251,10.752277409572523,0.29254240239306295,-0.03471554099999996,0.2717422715000002,0.11846433200000206
186082.0,0.3215600535,1.308403243,10.833994654,-0.27459788720402384,0.027780405703993743,0.1522276173589454,10.917452087240887,0.3151967609046352,-0.18554181799999997,0.02991028249999994,0.17004731099999937
186092.0,0.2533057695,1.1036403909999999,10.983546066499999,-0.23169769419000322,0.06695083010650248,0.2127154932453129,11.041760281786424,0.3215806527319558,-0.068254284,-0.20476285200000022,0.14955141249999926
186102.0,0.16239812399999998,0.767272296,11.3618866235,-0.12857666066517026,0.08080699903808547,0.24442463509554588,11.388922142685676,0.28775880699457007,-0.09090764550000002,-0.33636809499999987,0.37834055700000135
186112.0,-0.0352058735,0.5649611065,11.759350148,0.01398008730847458,0.04883082181229735,0.2382950387625418,11.772966338550969,0.24364814281840566,-0.19760399749999996,-0.20231118950000004,0.3974635244999991
186122.0,-0.14533455299999998,0.44404511199999996,12.168679719,0.13335537215713072,-0.03190636405570834,0.1977929281407614,12.177646090168196,0.24067345880449437,-0.11012867949999998,-0.12091599450000001,0.40932957100000067
186132.0,-0.127290317,0.40217071649999997,12.545843478,0.18904708325901778,-0.11744146003744645,0.13197656204805522,12.552933230304669,0.2587452591923054,0.01804423599999999,-0.041874395499999995,0.3771637590000001
186142.0,-0.0626644935,0.40579917699999996,12.768454432999999,0.19810708740612035,-0.20484056766031447,0.06616019595534905,12.775054928194901,0.2925461463919603,0.06462582349999998,0.003628460499999986,0.2226109549999986
186152.0,0.07374600799999999,0.5206350485,12.928891227000001,0.2037026129880142,-0.29090798906391085,0.01153662635568252,12.939579888351094,0.35532422713209943,0.1364105015,0.11483587150000002,0.16043679400000244
186162.0,0.14317708999999998,0.7229462379999999,13.1431665295,0.25432937860061366,-0.3769754104675072,-0.02177123708937727,13.163813177203188,0.4552668225128224,0.06943108199999999,0.20231118949999993,0.21427530249999904
186172.0,0.139646696,0.92770909,13.3969626315,0.3531883180920765,-0.48036347936789536,-0.026567401873857685,13.429771148652524,0.5968223246406482,-0.0035303939999999923,0.2047628520000001,0.253796101999999
186182.0,0.22584714949999998,1.1790535295,13.724995073999999,0.48508634032379194,-0.5909440501157521,-0.007115707360380882,13.777396849248698,0.7645745622417586,0.0862004535,0.25134443949999996,0.32803244249999963
186192.0,0.301260288,1.449619003,14.045770595499999,0.5959356917764558,-0.6639564087144308,0.042711697454805235,14.123591067302854,0.8931974868446049,0.0754131385,0.27056547350000004,0.3207755214999999
186202.0,0.40776050699999994,1.6974330484999998,14.114024879499999,0.6239133196859249,-0.6842074640253211,0.11812039311647224,14.221576772086626,0.93346671691039,0.10650021899999995,0.24781404549999975,0.068254284
186212.0,0.5035714775,1.9153368115,14.0206655715,0.5636924791751126,-0.6314479060667845,0.20711996766341909,14.15984330429839,0.8714208800342158,0.09581097050000004,0.21790376300000025,-0.09335930799999836
186222.0,0.5406406145,1.9512291505,13.937995512,0.4560423162413544,-0.49182156590723813,0.30277971863597625,14.084292895432842,0.7358930662205674,0.03706913700000003,0.035892338999999884,-0.08267005949999984
186232.0,0.5286765015,1.7524483549999998,13.888962262,0.3350683097978714,-0.28371374188719023,0.38085353206543865,14.00906302346594,0.5812174054974211,-0.011964112999999998,-0.19878079550000005,-0.049033250000000805
186242.0,0.46522747600000003,1.2784929605000002,13.936818714,0.23381303324342034,-0.12810018577937582,0.41975692109239227,14.003067404014521,0.49726659340454815,-0.06344902549999998,-0.4739553944999997,0.04785645199999955
186252.0,0.346763144,0.7660954979999999,14.0338064825,0.1727928319351946,-0.058019980324047496,0.4218879681090773,14.058978319150778,0.4595793060182248,-0.118464332,-0.5123974625000003,0.09698776850000002
186262.0,0.17073377649999996,0.6033051079999999,14.0338064825,0.14801090188612712,-0.059086376497016035,0.39604138721629334,14.047805930608375,0.42690421332296297,-0.17602936750000006,-0.16279038999999995,0.0
186272.0,-0.032754211,0.6475330995,13.970357456999999,0.14294944705534357,-0.11264529525296603,0.36859608472868244,13.985394503897336,0.4110797740504517,-0.20348798749999997,0.04422799150000012,-0.06344902550000064
186282.0,-0.006472388999999999,0.7697239585,13.850618260499997,0.14587985486944205,-0.17153270421525468,0.3507431118100325,13.871991315676501,0.41680346826089687,0.026281822,0.12219085899999993,-0.1197391965000012
186292.0,0.12405412249999999,1.0019454305,13.602804214999999,0.11656879541144927,-0.17020101799598303,0.34994375101261904,13.640218714618575,0.4062232138410201,0.1305265115,0.23222147199999998,-0.24781404549999841
186302.0,0.197113665,1.2700592414999998,13.335867202,0.02703689544264416,-0.09159487914466242,0.36459928074161546,13.397658687368796,0.3768995239025981,0.0730595425,0.26811381099999987,-0.2669370129999997
186312.0,0.2293775435,1.483157746,13.139538069,-0.09340304024972855,0.03177720969106076,0.3936433048240531,13.224970004642058,0.4058188886885927,0.03226387850000001,0.21309850450000023,-0.196329132999999
186322.0,0.116895268,1.6183914495,13.137184473,-0.1997215169642151,0.15434993772937053,0.43361309002397525,13.237011417428324,0.5017299068778818,-0.1124822755,0.13523370349999997,-0.002353596000000735
186332.0,-0.11061901199999999,1.6028969425,13.2341722415,-0.27140044401437025,0.20657717026604885,0.47624624766244067,13.331347647247851,0.5857839334591555,-0.22751427999999999,-0.015494507000000102,0.09698776850000002
186342.0,-0.35960985549999996,1.4903166005,13.28801075,-0.3044412720838749,0.15834848704568952,0.5132856250482644,13.376157613829697,0.6174308579743114,-0.24899084349999998,-0.112580342,0.05383850850000016
186352.0,-0.5367179544999999,1.3645953474999999,13.1790588685,-0.2919185347008156,0.016589354540206103,0.5290058056209773,13.260383828701558,0.6044326099464118,-0.17710809899999996,-0.12572125300000003,-0.10895188149999946
186362.0,-0.565451439,1.1838587879999998,13.0043043655,-0.2274338548273811,-0.1853888731468377,0.5170153936597763,13.070317096013943,0.59447465033378,-0.028733484500000017,-0.18073655950000012,-0.17475450300000084
186372.0,-0.470915333,1.0713765124999999,12.710987463999999,-0.1272449744458986,-0.39163094019650363,0.47891136543023605,12.764748771219756,0.6316028600150476,0.09453610599999995,-0.1124822754999999,-0.2933169015000008
186382.0,-0.318912258,1.076181771,12.361478458,-0.011332422833199182,-0.5757561949648974,0.4274834936909711,12.41233345910967,0.7171929707031197,0.152003075,0.00480525850000002,-0.3495090059999981
186392.0,-0.11414940599999998,1.1886640465,12.0442333305,0.09045517914311012,-0.7127174173566485,0.3779213789220882,12.103285042576623,0.8117714118418534,0.20476285200000002,0.11248227550000012,-0.31724512750000144
186402.0,0.0295180165,1.425690777,11.7078652355,0.15520514906284774,-0.7769350618545278,0.33688694287844945,11.794387388819754,0.8609352710375545,0.14366742249999997,0.2370267305,-0.3363680949999992
186412.0,0.1719105745,1.6974330484999998,11.386991647499999,0.20663302080211265,-0.8001182703087685,0.29318738906701547,11.51409618598002,0.8768382387166035,0.142392558,0.27174227149999974,-0.3208735880000013
186422.0,0.20064405899999999,1.9631932635,11.0841622955,0.2428730373905229,-0.7737376186648741,0.26680673742312117,11.258465242707269,0.8537230522615978,0.02873348449999999,0.26576021500000024,-0.30282935199999805
186432.0,0.3550987965,2.1271604515,10.985997729,0.2631240927014131,-0.717780617516684,0.25428400004006185,11.195671165378812,0.8056696939310477,0.1544547375,0.16396718799999999,-0.09816456650000127
186442.0,0.570550897,2.189432679,11.110444117499998,0.2812423556663663,-0.628515752923434,0.24735504290964436,11.338479275018804,0.7316514412932636,0.21545210049999997,0.06227222749999983,0.12444638849999912
186452.0,0.7944367164999999,2.306720213,11.345117251999998,0.2687196182833069,-0.5224643115845026,0.24895376450447115,11.604472124970359,0.6380886827007215,0.22388581949999997,0.11728753400000036,0.2346731344999995
186462.0,1.030286649,2.351046271,11.624018377999999,0.18158580070674205,-0.41747752108928765,0.2593454548708454,11.90406285263869,0.523947467400436,0.23584993250000008,0.04432605799999978,0.27890112600000094
186472.0,1.215828467,2.40851324,11.892230255499998,0.0211760798144472,-0.31941968772449025,0.2676060982205346,12.194437885292311,0.4172414014298403,0.18554181799999991,0.057466969000000034,0.26821187749999886
186482.0,1.3199750899999998,2.5425701455,12.061002702,-0.18160325399926197,-0.237616105683516,0.27719842778949544,12.39656336896076,0.40777459939565686,0.10414662299999988,0.13405690550000005,0.168772446500002
186492.0,1.308010977,2.790384191,12.117292872999998,-0.40809637635981816,-0.18325782613015262,0.30650948724748817,12.503036559947818,0.5422860398430718,-0.011964112999999887,0.24781404549999975,0.05629017099999878
186502.0,1.354690631,2.9579798395,12.224969889999999,-0.6431154321163666,-0.14701780954174237,0.3454128762744418,12.65048300453442,0.7446621720249094,0.04667965400000007,0.1675956485000003,0.10767701700000032
186512.0,1.288789943,3.2153063355,12.189077550999999,-0.8837317587840607,-0.10944785206331241,0.3949749910433248,12.671731763755755,0.9741488065765499,-0.06590068799999993,0.2573264959999997,-0.035892339000000106
186522.0,1.0087120189999998,3.5732490605000002,11.979607507,-1.1014301670438176,-0.08573231818721345,0.4663868827179248,12.5417943216834,1.1991727013350781,-0.2800779240000002,0.35794272500000046,-0.2094700439999979
186532.0,0.7501106585,3.613946658,11.573808329999999,-1.2703675666613565,-0.0993214517432413,0.5377987743925248,12.148099263112812,1.3830856903820468,-0.2586013604999998,0.040697597499999905,-0.40579917700000223
186542.0,0.7105898589999999,3.2596323935,11.1416292645,-1.3513735332341694,-0.12436867183861193,0.572173034010553,11.63039311270393,1.4727728859907576,-0.03952079950000009,-0.35431426450000014,-0.43217906549999796
186552.0,0.7393233435,2.8550100145,10.687875569,-1.3559026626430948,-0.11291058529926916,0.5463264531177691,11.087306497412541,1.4661832846583334,0.028733484500000017,-0.4046223790000001,-0.45375369550000144
186562.0,0.651946092,2.5485522019999998,10.295217303,-1.3428458545089252,-0.04922701155250007,0.4805100870250628,10.625989429186522,1.4270768134095055,-0.08737725149999997,-0.30645781250000015,-0.39265826599999976
186572.0,0.6196822135,2.256510165,10.039067605,-1.352438184077886,0.044034657027816934,0.3853826614743639,10.308187161098552,1.406964067962118,-0.03226387850000001,-0.29204203699999987,-0.25614969799999976
186582.0,0.569374099,1.956034409,9.978070242,-1.3913415731048397,0.17326930682098907,0.2710705767857433,10.183915908337518,1.4280521290677843,-0.050308114499999945,-0.300475756,-0.06099736300000025
186592.0,0.282039254,1.851887786,10.067801089499998,-1.4387726408570374,0.300105874221921,0.16421977464939846,10.240588522661684,1.478884167947962,-0.287334845,-0.10414662299999988,0.08973084749999849
186602.0,0.035500073,1.7441127025,10.313261538999999,-1.4790077161032626,0.3872396917984859,0.0874776474392078,10.459758742247427,1.531362381018508,-0.24653918100000002,-0.10777508349999998,0.24546044950000123
186612.0,-0.020790097999999996,1.6052505385,10.698662883999999,-1.5069870893419839,0.389370738815171,0.03738320724846655,10.818440230689847,1.5569255485966818,-0.056290171,-0.13886216400000007,0.385401345
186622.0,-0.045895122,1.4484422049999999,11.147611321,-1.5019238891819484,0.2550728888619633,0.025392795287265502,11.241411359234926,1.523641145933096,-0.025105024,-0.15680833350000012,0.4489484370000003
186632.0,-0.0818855275,1.4652115764999998,11.4097430755,-1.4313113583047619,-0.04922701155250007,0.03844960342143508,11.503729275867185,1.4326736805992766,-0.0359904055,0.016769371499999908,0.26213175450000037
186642.0,-0.13454723799999999,1.601622078,11.2338117745,-1.3026107792627,-0.4739685929885881,0.0618981019219789,11.34820793010444,1.387541871228578,-0.052661710499999986,0.13641050150000011,-0.17593130100000032
186652.0,0.049817782,1.6172146514999999,10.6328602625,-1.1645831606979804,-0.8896501702775735,0.09893573397855056,10.755258360554674,1.4688497687354172,0.18436502,0.015592573499999984,-0.600951512
186662.0,0.455616959,1.5250321415,9.809199729,-1.0659912565820726,-1.1241369006122637,0.1186544638675825,9.937490083987512,1.5537374334884502,0.405799177,-0.09218250999999977,-0.8236605335
186672.0,0.8914244849999999,1.4041161469999999,9.087430289,-1.0393453148918752,-1.0735083896704123,0.11412358912940522,9.238374804269323,1.498560355766904,0.43580752599999995,-0.12091599450000023,-0.7217694399999992
186682.0,1.218182063,1.4041161469999999,8.734194755999999,-1.0819784725303407,-0.7492227239913619,0.10879509892306653,8.929819019925262,1.3205485521985951,0.32675757800000005,0.0,-0.3532355330000012
186692.0,1.2792774925000001,1.655558653,8.82402367,-1.1632497291494566,-0.26293036115444174,0.11998615008685418,9.068672399257817,1.1986154443339008,0.06109542950000013,0.25144250600000007,0.0898289140000017
186702.0,0.9535986459999999,1.8303131559999999,9.193930508,-1.274631406023979,0.19325507208557613,0.17754187282987116,9.422725445040456,1.3013661516719284,-0.32567884650000023,0.17475450299999995,0.3699068379999986
186712.0,0.6376283829999999,1.7764746475,9.828420763,-1.3977364594841468,0.4663781560716648,0.28332802412249947,10.008011132217378,1.5004834433892442,-0.315970263,-0.05383850849999994,0.6344902550000011
186722.0,0.38500907900000003,1.3849931795,10.5646059785,-1.4630205001549947,0.46184902666273947,0.3997711558278052,10.661957492840228,1.5854180787208747,-0.2526193039999999,-0.39148146800000005,0.736185215499999
186732.0,0.1791674955,0.907311258,11.032677383,-1.4155894324027967,0.18712547575257205,0.49969474616298454,11.071372315467356,1.5128133474255798,-0.20584158350000004,-0.4776819214999999,0.46807140449999984
186742.0,-0.042364728,0.6092871645,11.108090521500001,-1.2740990806021206,-0.23122121930420877,0.5687085554453444,11.12486856789064,1.4142917451800474,-0.2215322235,-0.29802409350000003,0.07541313850000186
186752.0,-0.1860321505,0.5614307125,10.628055004,-1.1195501753380226,-0.6421048864794618,0.621468113403881,10.644499310630225,1.4324503119892078,-0.1436674225,-0.047856451999999994,-0.48003551750000106
186762.0,-0.08786758399999998,0.5674127689999999,9.893046586499999,-1.0156297810157762,-0.9056373862258417,0.6670334241856969,9.909694683763043,1.5154591767504078,0.09816456650000001,0.005982056499999944,-0.7350084175000013
186772.0,0.030694814499999997,0.524263509,9.161568563,-0.9929806433126459,-0.9421426928605551,0.714996817359753,9.176607920852675,1.5443004437410197,0.11856239849999999,-0.04314925999999997,-0.7314780234999994
186782.0,0.08571012099999999,0.318323859,8.6540744255,-1.0465395620685958,-0.8059808312662173,0.756565324154502,8.660351059058959,1.5222487461175054,0.055015306499999986,-0.20593964999999997,-0.5074941375000002
186792.0,0.06541035549999999,-0.1077750835,8.3547754675,-1.1331393088940505,-0.6247859843119221,0.760562128141569,8.355726604884216,1.5009386963886087,-0.020299765499999997,-0.42609894249999997,-0.2992989579999996
186802.0,-0.033931009,-0.5447594075,8.1356949065,-1.207750389087556,-0.4990158130839587,0.7229904253338871,8.153983427569715,1.4934500122781018,-0.09934136449999999,-0.436984324,-0.21908056100000017
186812.0,0.00196133,-1.0798102315,7.9058270305,-1.2573107585271872,-0.4483873021421072,0.6478487650477752,7.979228973970599,1.4837754340210703,0.035892338999999995,-0.535050824,-0.22986787599999925
186822.0,0.061781894999999996,-1.3898965044999998,7.6425184779999995,-1.2607752370923957,-0.4505183491587923,0.5372664489706664,7.768121908308503,1.442628232977471,0.059820565,-0.3100862729999998,-0.26330855250000074
186832.0,0.0438357255,-1.4018606175,7.4174558605,-1.2189414402513437,-0.4872906911690608,0.4130949993375299,7.54889304495655,1.376196908490829,-0.017946169499999998,-0.01196411300000011,-0.2250626174999999
186842.0,-0.10100849499999999,-1.167187483,7.3013451245,-1.1267444225147432,-0.5469792062580149,0.29078930667477526,7.394739343857494,1.2858062321450796,-0.14484422049999998,0.23467313449999994,-0.11611073599999955
186852.0,-0.23987065899999999,-0.933789213,7.3264501485,-0.9953787257048861,-0.6357100001001545,0.19273147330997784,7.3896124394869265,1.1966835139741234,-0.138862164,0.23339827000000002,0.025105024000000142
186862.0,-0.055505638999999996,-0.875145446,7.36479415,-0.8722736722447181,-0.7311044610264087,0.12851382881209847,7.416815576747851,1.1453780582933946,0.18436502,0.05864376699999996,0.038344001499999614
186872.0,0.271251939,-0.8967200759999999,7.236621234499999,-0.8056579453545986,-0.791325301537221,0.08694532201734953,7.297011127902231,1.1326252455188643,0.326757578,-0.021574629999999928,-0.12817291550000043
186882.0,0.6758743179999999,-0.9505585845,6.934968680499999,-0.8093877139661103,-0.7918576269590794,0.05550321554267167,7.032365058485979,1.1336787815903262,0.40462237899999987,-0.05383850850000005,-0.30165255400000035
186892.0,1.088930416,-0.991256182,6.471702534499999,-0.8765375116073402,-0.7001946799735892,0.02672448150653717,6.637114731891929,1.1221875052904031,0.4130560980000001,-0.040697597500000016,-0.4632661459999996
186902.0,1.378618857,-0.9062325265,6.126998787,-0.9538102189101371,-0.4824945263845804,0.010470230182713983,6.345231396951733,1.0689548762265708,0.289688441,0.08502365550000002,-0.34470374749999966
186912.0,1.263684919,-0.7410885405,6.049133986,-0.9796567998029212,-0.21603161882410216,0.033119367885844395,6.223996608285444,1.0037400053106487,-0.11493393800000007,0.16514398600000002,-0.0778648009999996
186922.0,1.0135172774999999,-0.669205796,6.265860950999999,-0.9284977087684634,0.012325515177583957,0.10186614179264905,6.382481267223399,0.9341502150919836,-0.25016764150000004,0.07188274449999998,0.21672696499999855
186932.0,0.768056828,-0.8847559629999999,6.775806750999999,-0.8043262591353267,0.12983678838511017,0.18740123777438714,6.876355250566876,0.8360128866663247,-0.2454604494999999,-0.21555016699999996,0.5099458000000006
186942.0,0.5526047274999999,-1.152869774,7.3407678575,-0.6385863027074412,0.11464718790500353,0.25748144322971545,7.45126522399809,0.698020871684896,-0.21545210050000008,-0.2681138110000001,0.5649611065000011
186952.0,0.4353171935,-1.3192886245,7.807662463999999,-0.47950826803441815,0.005131268000863329,0.3105062912345552,7.930297389470734,0.5712868508209361,-0.11728753399999992,-0.16641885049999994,0.4668946064999986
186962.0,0.325188514,-1.3551809635,8.111766680499999,-0.3667931596113723,-0.14435443710319898,0.35234183340485925,8.230614903659403,0.5286966928364246,-0.11012867949999999,-0.035892339000000106,0.30410421649999986
186972.0,0.1599464615,-1.2067082825,8.2757338685,-0.31456767240394595,-0.2879775812498124,0.3877807438666041,8.364777272099863,0.5764180888364498,-0.1652420525,0.1484726810000001,0.16396718800000087
186982.0,0.05226944449999999,-1.1480645154999998,8.201497527999999,-0.31430063702839084,-0.40282199136029123,0.41496075630791185,8.281627009734782,0.6582118780723705,-0.10767701700000001,0.05864376700000018,-0.07423634050000061
186992.0,-0.004020726499999999,-1.2078850804999999,8.0315482835,-0.3409465787185883,-0.45984538868145003,0.4210886073116639,8.121869881014337,0.7106461610669412,-0.05629017099999999,-0.0598205650000001,-0.1699492444999997
187002.0,0.07256921,-1.4018606175,7.848360061499999,-0.38118339929406553,-0.43080136459901236,0.4056337167852541,7.972906316775946,0.703867396482299,0.0765899365,-0.19397553700000003,-0.18318822200000007
187012.0,0.152787607,-1.719105745,7.658012985,-0.4272810354977398,-0.3271462603230691,0.3693954455260959,7.850084808062484,0.6527225705572107,0.080218397,-0.3172451275000001,-0.19034707649999927
187022.0,0.350293538,-2.03389921,7.6724287605,-0.4757767540936543,-0.18458951234942428,0.29958227544632265,7.945162971528699,0.5917654497914593,0.19750593100000002,-0.31479346499999994,0.014415775499999839
187032.0,0.4017784505,-2.1584436649999996,7.830413891999999,-0.5016233349864383,-0.05082573314732687,0.21138380702604123,8.132385055953229,0.5467104711140097,0.05148491249999998,-0.12454445499999967,0.15798513149999938
187042.0,0.26409308449999996,-2.021935097,8.074599477,-0.49842589179678465,0.02271895087321019,0.13943784460033098,8.328092423102051,0.5180612250004679,-0.13768536600000003,0.13650856799999955,0.24418558500000032
187052.0,0.1599464615,-1.7453875669999999,8.294856836,-0.4712476246847289,0.021919590075796785,0.10213317716820418,8.478007463981172,0.48268621078145774,-0.10414662299999997,0.2765475300000002,0.22025735899999965
187062.0,0.1838746875,-1.6556567195,8.534335229,-0.4075623056087079,-0.046029568362846454,0.11119318131530674,8.695394578423638,0.4249584423067442,0.023928225999999997,0.08973084749999982,0.23947839300000062
187072.0,0.3550987965,-1.7478392294999998,8.742628474999998,-0.320430233361395,-0.14408740172764387,0.14263528778998458,8.922700811936693,0.3791853624701159,0.17122410899999999,-0.09218250999999977,0.20829324599999843
187082.0,0.485625308,-1.9310274514999999,8.756946183999998,-0.2415570591345192,-0.25040587844213047,0.18100635139507992,8.980467996028315,0.39219410503149044,0.1305265115,-0.18318822200000007,0.014317709000000178
187092.0,0.6543977544999999,-2.054297042,8.622889278499999,-0.1965240737745615,-0.32288416628969896,0.2119161324478995,8.888340242538808,0.4333409092218492,0.16877244649999995,-0.12326959050000008,-0.1340569054999996
187102.0,0.7716852885,-2.1752130364999998,8.411065638499998,-0.18000453240443517,-0.33167713506124635,0.2305684661639629,8.72198802531867,0.4422365557004284,0.11728753400000003,-0.12091599449999979,-0.21182364000000042
187112.0,0.768056828,-2.150009946,8.2194436975,-0.18773110500301407,-0.24720843525247682,0.2305684661639629,8.530633549467987,0.3866740175326411,-0.003628460499999986,0.025203090499999803,-0.1916219409999993
187122.0,0.6376283829999999,-2.0782252679999997,8.1715872455,-0.19838983074494343,-0.10571633812254853,0.2233742189872423,8.4557925903004,0.31690773230896213,-0.13042844500000006,0.07178467800000021,-0.04785645199999955
187132.0,0.5777097514999999,-2.0411561309999997,8.3428113545,-0.19092854819266766,0.046966810171167404,0.2236395090335454,8.60828485848785,0.29778217168490717,-0.059918631499999986,0.03706913700000003,0.17122410900000062
187142.0,0.5155355905,-2.1152944049999998,8.802449039999999,-0.1554896377309228,0.17460273836951273,0.22790334839616755,9.067709549091953,0.32650127089800285,-0.06217416099999995,-0.07413827400000006,0.45963768549999884
187152.0,0.3909911355,-2.1260817199999997,9.3411283245,-0.1056604875864847,0.2332231119562463,0.24175951732775056,9.58800166473358,0.3521431850911166,-0.124544455,-0.010787314999999964,0.5386792845000006
187162.0,0.30724234449999993,-2.2218926905,9.854702584999998,-0.05476668659833007,0.19565315447781634,0.26680673742312117,10.106748637675562,0.3353585871160157,-0.08374879100000004,-0.09581097050000009,0.5135742604999987
187172.0,0.2833141185,-2.3823294845,10.189893882,-0.02119178777771515,0.0733457164858097,0.294252039910732,10.468509826564643,0.30399498184618035,-0.02392822599999994,-0.16043679400000022,0.3351912970000015
187182.0,0.25693423,-2.457742623,10.253342907499999,-0.003338814859065152,-0.09905441636768618,0.3086422795934253,10.546921578272835,0.32416505338983126,-0.026379888500000004,-0.07541313850000009,0.06344902549999887
187192.0,0.280862456,-2.4911832995,10.086924057,0.0030560715202420713,-0.2360173840886892,0.3054448364037716,10.39379213196913,0.3860182550747199,0.023928225999999997,-0.03344067649999971,-0.1664188504999995
187202.0,0.29047297299999997,-2.4062577105,9.831951156999999,0.005721189288037412,-0.2863788596549856,0.2875918634851216,10.126288277104193,0.4058998191758704,0.009610516999999985,0.08492558900000002,-0.2549729000000003
187212.0,0.2353596,-2.2722008049999998,9.715840421,0.01584584427885652,-0.26452908274926856,0.2633440041871644,9.980773803963912,0.37359977374512476,-0.055113372999999966,0.13405690550000005,-0.11611073599999955
187222.0,0.1719105745,-2.184725487,9.848720528499998,0.031567770180821436,-0.20830504622552323,0.24842143908261288,10.089592397498999,0.32573106666862905,-0.0634490255,0.08747531799999964,0.13288010749999835
187232.0,0.1360182355,-2.1260817199999997,10.091729315499999,0.03822969193568379,-0.14275571550837218,0.24842143908261288,10.31415168677622,0.28905694084674893,-0.035892338999999995,0.0586437670000004,0.24300878700000084
187242.0,0.14798234849999997,-2.1464795519999997,10.307181415999999,0.02783625624005756,-0.10225185955733979,0.2508195214748531,10.52935240102436,0.2722879584140114,0.01196411299999997,-0.020397832000000005,0.2154521005000003
187252.0,0.13003617899999997,-2.2757311989999995,10.4628129515,0.0025237460983838006,-0.08706400440648514,0.24575632131481756,10.708235931096542,0.26073488378783044,-0.017946169499999998,-0.1292516469999998,0.1556315355000013
187262.0,0.1611232595,-2.3164287965,10.535872494,-0.020127136933998608,-0.10331825573030833,0.23190015238323455,10.78871689701014,0.25467124746166525,0.03108708050000003,-0.04069759750000035,0.07305954249999935
187272.0,0.083356525,-2.2326800055,10.551465067499999,-0.024656266342923894,-0.1435550763057856,0.21617997181052165,10.785417163368894,0.26067176988529284,-0.0777667345,0.0837487910000001,0.015592573499999318
187282.0,-0.023143694,-2.0842073245,10.599321519499998,0.0003909537524467298,-0.17899398676753045,0.2041878145200686,10.802317921437378,0.27153575039440636,-0.10650021900000001,0.14847268099999988,0.04785645199999955
187292.0,-0.10100849499999999,-1.9932016124999998,10.683168377,0.04782202150464463,-0.20936969706923977,0.19912635968928505,10.867987024075228,0.2928718540842777,-0.07786480099999998,0.09100571200000007,0.08384685750000109
187302.0,-0.09139797799999999,-1.952504015,10.814773619999999,0.08912349292383843,-0.2330852309453387,0.1972606027189031,10.989993356268306,0.3180934882401906,0.009610516999999999,0.040697597499999905,0.1316052429999992
187312.0,-0.077080269,-1.952504015,11.017084809499998,0.10511070887210651,-0.24187819971688615,0.19672827729704484,11.189029046176252,0.3290217921447477,0.014317708999999984,0.0,0.2023111894999996
187322.0,0.0199074995,-2.066261155,11.1188778365,0.07366860239742866,-0.24427628210912636,0.19992572048669846,11.30925620066188,0.32414234325736185,0.0969877685,-0.11375713999999992,0.10179302700000115
