timestamp,ax,ay,az,gx,gy,gz,acc_mag,gyro_mag,dax,day,daz
139922.0,-0.9816456649999998,2.169427113,9.908835293000001,0.07592356779100533,0.04531398336952878,0.022684044288170304,10.190930235951733,0.09128149374433453,0.0,0.0,0.0
139932.0,-1.2618216555,3.2348215689999997,9.860978841,0.0663312382220445,0.03412293220574114,-0.003427826650916863,10.454432943790211,0.07467233531861688,-0.2801759905000001,1.065394456,-0.047856452000001326
139942.0,-1.243875486,3.1582316324999997,10.0417154005,0.024495696051740415,0.004277801996638102,-0.013821262346543097,10.599891577456546,0.02844935865417113,0.01794616949999983,-0.07658993650000001,0.18073655949999967
139952.0,-1.064217658,2.931992217,10.092023515,-0.0045483280306972225,-0.0029164451800825246,-0.007958701389094143,10.563052409765868,0.009619452591703007,0.17965782800000007,-0.22623941549999982,0.050308114499999945
139962.0,-0.9984150365,2.9522919825,10.033281681499998,-0.024000022544174025,0.007475245186291714,-0.03220656068705136,10.506169703339392,0.04085514562456927,0.06580262150000005,0.0202997654999999,-0.05874183350000095
139972.0,-1.024794925,3.0325103794999997,10.0309280855,-0.041320670040965755,0.035187583049457676,-0.05112592977866989,10.529284975560007,0.07456154819496663,-0.02637988849999995,0.08021839699999989,-0.0023535959999989586
139982.0,-1.029502117,3.1678421494999998,10.164984990999999,-0.05171236040733999,0.06849544649451747,-0.06524738875655602,10.69682281615955,0.10781009298266597,-0.004707192000000138,0.13533177000000007,0.1340569054999996
139992.0,-1.107366918,3.3115095719999994,10.374455035,-0.06183876072741109,0.09460906276285662,-0.07377506748180032,10.946308711605264,0.13497284047952882,-0.07786480100000004,0.14366742249999964,0.20947004400000147
140002.0,-1.1013848615,3.2480605464999996,10.605499709,-0.09328086720208893,0.10659947472405767,-0.07723954604700906,11.146280545745757,0.1613403721049595,0.005982056500000166,-0.06344902549999976,0.23104467399999962
140012.0,-1.0869690859999999,2.967884556,10.731220961999998,-0.14097722500058998,0.12365308684529426,-0.07244163593327664,11.186998876684093,0.2010284916919148,0.014415775500000061,-0.28017599049999964,0.12572125299999826
140022.0,-1.1719927415,2.7954836489999995,10.9790350075,-0.17508444924306316,0.18573968432648852,-0.06258401631801266,11.389798308743908,0.2628127732796556,-0.08502365550000013,-0.17240090700000055,0.24781404550000197
140032.0,-1.3420400525,2.7607681079999997,11.260387795999998,-0.18680957115796107,0.2883266471002112,-0.06311634173987093,11.671300071755923,0.3493046577114242,-0.17004731100000003,-0.03471554099999974,0.2813527884999978
140042.0,-1.5071840385,2.7092831955,11.850551993,-0.17161997067785442,0.40104175552325705,-0.08363443242631628,12.24938372727886,0.44416508450790626,-0.1651439859999999,-0.05148491249999987,0.5901641970000018
140052.0,-1.6687976304999999,2.7021243409999998,12.859656278,-0.10687000075811678,0.502297032077708,-0.12360247229698643,13.246022839859966,0.5282055250127938,-0.16161359199999992,-0.007158854500000089,1.0091042849999994
140062.0,-1.9202401365,2.9128692495,13.968199993999999,-0.018137461586725072,0.4788485335771642,-0.1662373752647039,14.397317129204655,0.5072077982017907,-0.25144250600000007,0.21074490850000016,1.1085437159999998
140072.0,-2.2218926905,3.3784889915,15.088707823,0.04608018291115429,0.30298217682920764,-0.18702075599745238,15.621142684248339,0.3590241578322402,-0.3016525539999999,0.4656197419999999,1.120507829000001
140082.0,-2.2733776029999997,3.6573901175,15.993665485,0.0578035594968002,-0.014107496343870166,-0.20274268189941733,16.563275154494324,0.21129332220247934,-0.05148491249999987,0.27890112600000005,0.9049576619999993
140092.0,-2.10450709,3.742413773,16.558724658,0.0029129545215785357,-0.41007034374382373,-0.20966989370058278,17.106313841376156,0.4605731607971053,0.1688705129999999,0.08502365550000013,0.5650591729999999
140102.0,-1.8591447069999998,3.878922341,16.672481798,-0.12232489128452657,-0.8052355756756159,-0.19981227408531882,17.218423472365764,0.8386254564682366,0.24536238300000002,0.136508568,0.11375714000000059
140112.0,-1.5885792335,4.0812335305,16.492922036499998,-0.29605845568654615,-1.1180614094860715,-0.17263226164401113,17.06448148680915,1.1694074663374652,0.2705654734999998,0.2023111894999996,-0.17955976150000197
140122.0,-1.1816032585,4.0272969555,16.0786891405,-0.4612643413633214,-1.3043194566004024,-0.13559462958743945,16.617447201815025,1.3901078882779792,0.40697597499999993,-0.05393657499999982,-0.4142328959999979
140132.0,-0.7889449924999999,3.9459017605,15.5004890565,-0.6083519640751436,-1.3317647590880133,-0.10042100917199774,16.014297858332224,1.4675741428718216,0.3926582660000001,-0.08139519499999981,-0.5782000840000006
140142.0,-0.4118793,3.823808968,14.8420705755,-0.7346562060542172,-1.2027971446703962,-0.09322676199527712,15.332260712290559,1.4124913951855984,0.37706569249999994,-0.12209279250000016,-0.658418481
140152.0,-0.06227222749999999,3.627479835,14.297409234499998,-0.8244533960693253,-0.9853640264569427,-0.10894694256799005,14.750538925829634,1.2893933081959885,0.3496070725,-0.19632913299999988,-0.5446613410000012
140162.0,0.15553346899999998,3.509015503,13.947802161999999,-0.8476366045235662,-0.7498108999492838,-0.1204050291073328,14.383273814071863,1.1380692290213865,0.21780569649999998,-0.11846433199999984,-0.34960707249999956
140172.0,0.32558077999999996,3.5053870424999998,13.792170626499999,-0.8081991447455021,-0.5470333114648267,-0.12440183309439982,14.234384839272883,0.9838227063332001,0.17004731099999998,-0.003628460500000319,-0.15563153549999953
140182.0,0.453655629,3.556871955,13.761083546,-0.7514427827998986,-0.39248440620072883,-0.11294549188430905,14.220568269024303,0.8552584106980666,0.12807484900000005,0.05148491250000031,-0.031087080499998976
140192.0,0.42727574049999995,3.7927218874999995,13.899945709999999,-0.720265966371524,-0.2739084821494861,-0.07084291433844984,14.414430082916521,0.7738395424236898,-0.02637988850000006,0.23584993249999942,0.13886216399999896
140202.0,0.3411733535,3.9339376474999996,13.975358848499999,-0.7359878922734888,-0.2195502025961227,0.005098106745075437,14.522497017245467,0.7680536828409557,-0.08610238699999995,0.14121576000000013,0.07541313850000009
140212.0,0.22378775299999998,3.9543354794999996,13.9741820505,-0.7948753012357775,-0.22514572817801654,0.10022553229577437,14.524620959713257,0.8322034010717865,-0.11738560050000002,0.020397832000000005,-0.0011767979999994793
140222.0,0.117287534,3.8513656545,13.819727312999998,-0.8806774325930707,-0.2787046469339665,0.1990827264579852,14.346833684683606,0.9449354223835905,-0.10650021899999998,-0.10296982499999974,-0.15445473750000183
140232.0,0.0789435325,3.682593208,13.407946079499999,-0.9829991053204903,-0.33785909127181035,0.2707616535081403,13.90470218622861,1.0741265659252452,-0.0383440015,-0.16877244649999978,-0.4117812334999993
140242.0,-0.0718827445,3.6095336655,12.945856731499997,-1.0634710011421928,-0.3559790995660155,0.3131295211003026,13.439832845830281,1.164363253706812,-0.150826277,-0.07305954250000024,-0.462089348000001
140252.0,-0.22751427999999996,3.5245100099999997,12.312641341,-1.1119667197381073,-0.35890950738011396,0.3421735451827403,12.809179144281511,1.2175256692636454,-0.15563153549999997,-0.08502365550000013,-0.6332153904999966
140262.0,-0.1401370285,3.455078928,11.736794853,-1.1556662735495413,-0.32799972632729435,0.3602935534769454,12.235585895529224,1.2541769416504625,0.08737725149999995,-0.06943108199999992,-0.5758464880000016
140272.0,-0.08620045349999998,3.3115095719999994,11.295103337,-1.2033626313480423,-0.2528580660411825,0.3914686245760682,11.770848973508231,1.2904520557209593,0.05393657500000003,-0.14356935600000043,-0.4416915159999988
140282.0,0.020299765499999997,3.1809830604999996,10.8521369565,-1.2606530640447562,-0.2187508417987093,0.45382051210356555,11.30875509657453,1.3575901943808442,0.10650021899999998,-0.13052651149999983,-0.4429663804999997
140292.0,0.0801203305,3.0636955265,10.404463383999998,-1.315810704395533,-0.2230146811613314,0.5358911295200949,10.846451394601473,1.4381490397429892,0.059820565000000006,-0.11728753399999947,-0.44767357250000295
140302.0,-0.089828914,3.0791900334999998,9.911188888999998,-1.3325972811412143,-0.28883104725403763,0.637146406074546,10.378879789728426,1.5050562880957412,-0.16994924449999999,0.015494506999999658,-0.49327449499999965
140312.0,-0.16406525449999998,2.9990697029999995,9.3246531525,-1.2825028409504733,-0.39088568460590206,0.7437319181645876,9.79645307780397,1.5332130711589427,-0.07423634049999998,-0.08012033050000023,-0.5865357364999984
140322.0,-0.3268556445,2.827845594,8.9319948865,-1.1652586031185022,-0.4670937410649824,0.8513838264275979,9.37465081847366,1.5168581327817912,-0.16279039,-0.17122410899999974,-0.39265826599999976
140332.0,-0.4549304935,2.6171006854999996,8.520213652999999,-1.0437522712531608,-0.521719055993901,0.9382506086286078,8.924697106609743,1.4973055071445012,-0.128074849,-0.21074490850000016,-0.41178123350000106
140342.0,-0.47169986499999994,2.240034993,8.132360645499999,-0.9917920740920377,-0.49720416132038864,0.9958063313716248,8.448405009289191,1.4908030540168313,-0.016769371499999963,-0.37706569249999955,-0.3878530075000004
140352.0,-0.600951512,1.834235816,7.959959738499999,-1.0093780116351325,-0.37623015487690564,1.0259167516270309,8.190636287066669,1.4875813527602963,-0.12925164700000003,-0.405799177,-0.17240090699999921
140362.0,-0.714708652,1.4655057759999999,7.865325565999999,-1.051745879227295,-0.2693793527405608,1.0040652293920618,8.032550148981718,1.4788108787227163,-0.11375714000000003,-0.3687300400000002,-0.09463417250000017
140372.0,-0.7745292169999999,1.07284751,7.919262141,-1.0922479898490753,-0.22434636738060312,0.9361178162826705,8.029047897825478,1.4559029946559126,-0.05982056499999988,-0.392658266,0.05393657500000071
140382.0,-0.8105196225,0.7616825054999999,7.861795171999999,-1.1498037125920924,-0.22914253216508354,0.8497851048327711,7.940083477150904,1.4479950282833256,-0.0359904055000001,-0.31116500449999995,-0.05746696900000092
140392.0,-0.818855275,0.48150651499999997,7.617609587,-1.2369375301686574,-0.22887724211878038,0.75039383991945,7.676610469819155,1.4647491800607686,-0.008335652500000013,-0.28017599049999997,-0.24418558499999943
140402.0,-0.8080679599999999,0.3845187465,7.2536848055,-1.3291328025760059,-0.20622635908639797,0.6360817552308294,7.308677838838572,1.4878586348854224,0.010787315000000075,-0.09698776849999996,-0.36392478149999974
140412.0,-0.797280645,0.227710413,6.948403790999999,-1.4005446942506057,-0.1558648835201016,0.5316272901574728,6.997701315565234,1.5061364075502708,0.010787314999999964,-0.1568083335,-0.3052810145000011
140422.0,-0.7577598455,0.0960071035,6.8155236834999995,-1.4322538361008388,-0.08445299184550162,0.44822498652167175,6.85819075469063,1.5031264076582442,0.03952079949999998,-0.1317033095,-0.13288010749999923
140432.0,-0.6153672874999999,-0.20799904649999998,6.777179682,-1.4437119226401813,-0.02076941809873252,0.3672207652781109,6.8082380205148265,1.489827699686447,0.14239255800000006,-0.30400615,-0.038344001499999614
140442.0,-0.5351488904999999,-0.48690017249999995,6.798754312,-1.452771926787284,0.003213151152921561,0.3016714345609599,6.837142408047568,1.483766238337979,0.080218397,-0.27890112599999994,0.021574629999999928
140452.0,-0.4992565514999999,-0.652142225,6.726969634,-1.4538383229602525,-0.01837133570649231,0.24677908425648623,6.7769216494365425,1.4747485520284431,0.035892338999999995,-0.16524205250000001,-0.07178467800000021
140462.0,-0.42266661499999997,-0.836507245,6.646751237,-1.4365176754634608,-0.08525235264291502,0.20787569522953261,6.712502770571799,1.4539818775408646,0.07658993649999996,-0.18436502,-0.08021839699999944
140472.0,-0.37951735499999995,-0.9190792379999999,6.4552273625,-1.389353643086818,-0.16892169165427118,0.18176207896119345,6.531362826396767,1.4113382078078411,0.04314926000000002,-0.08257199299999995,-0.19152387450000052
140482.0,-0.25144250599999995,-0.9597768354999999,6.2373235995,-1.325670069340049,-0.22141595956650462,0.16204509440141351,6.315742283585168,1.3537668826331841,0.128074849,-0.040697597500000016,-0.2179037629999998
140492.0,-0.0814932615,-1.0914801449999998,6.0601174339999995,-1.2699783582381619,-0.2040953120697129,0.1516534040350393,6.158164773085392,1.2951828757969066,0.16994924449999996,-0.13170330949999987,-0.17720616550000035
140502.0,0.005982056499999999,-1.219554994,5.9033091005,-1.232673690806035,-0.1380119106014516,0.1465902038750037,6.027968853970334,1.249007767528029,0.087475318,-0.1280748490000001,-0.1568083334999999
140512.0,0.07060788,-1.3859738445,5.82907276,-1.204961352942869,-0.0626032149397846,0.13886188594717286,5.991994510322103,1.2145508009035737,0.0646258235,-0.16641885050000016,-0.07423634049999972
140522.0,0.043051193499999994,-1.5966206865,5.8327012205,-1.1740515718900495,0.02719397507532365,0.12740379940783006,6.047433716002491,1.1812570989591742,-0.027556686500000004,-0.21064684200000006,0.003628460499999875
140532.0,0.0214765635,-1.797755078,5.87222202,-1.145007547807612,0.09407673734099835,0.10155721851504605,6.141284557438079,1.1533458222396442,-0.021574629999999994,-0.2011343914999999,0.03952079949999998
140542.0,-0.031185147,-1.9629971304999998,5.8805576725,-1.1175622453200011,0.13058204397571174,0.06984807666481306,6.199620051853441,1.1273312717153423,-0.0526617105,-0.1652420524999998,0.008335652500000457
140552.0,-0.053936574999999994,-2.144910488,5.898503842,-1.0733303660867088,0.14497053832915302,0.03574085242233988,6.2766151490866395,1.0836659726498512,-0.022751427999999994,-0.18191335750000004,0.017946169500000053
140562.0,-0.07541313849999999,-2.249057111,5.910467955,-1.0163069687655502,0.1303150086001566,0.0027000243528352277,6.3243637211248345,1.024631224567837,-0.021476563499999997,-0.1041466230000001,0.011964112999999443
140572.0,-0.045502855999999994,-2.272985337,5.905760762999999,-0.9451603671372533,0.08208458005054531,-0.025544638932189008,6.328233801141634,0.9490619191956222,0.029910282499999996,-0.02392822600000022,-0.004707192000000582
140582.0,0.0299102825,-2.2515087735,5.948811956499999,-0.8542967809491765,0.015203563114122605,-0.03886848244191372,6.360703583405224,0.8553156710822196,0.07541313849999999,0.021476563500000267,0.043051193500000196
140592.0,0.069431082,-2.179626029,5.9284141245,-0.7474459788128316,-0.03622430862514231,-0.02714336052701581,6.3167780025114935,0.7488153669627388,0.03952079950000001,0.07188274449999987,-0.02039783199999956
140602.0,0.106500219,-2.095877238,5.934494247499999,-0.6424591883176167,-0.06207088951792634,-0.005293583621298802,6.2946219637897345,0.6454724053023748,0.03706913699999999,0.0837487910000001,0.006080122999999382
140612.0,0.1842669535,-2.1389284314999997,5.988332755999999,-0.5441343195772641,-0.0540772815437923,0.016289157908863077,6.36153270382333,0.5470574437720034,0.0777667345,-0.04305119349999975,0.05383850850000016
140622.0,0.213000438,-2.2334645374999997,6.114054009,-0.46313009833370333,0.003213151152921561,0.031211723013414596,6.512709839370034,0.46419175345581415,0.02873348449999999,-0.09453610600000006,0.12572125300000092
140632.0,0.177108099,-2.3148597325,6.3187187945,-0.4021098970254776,0.0711605642623128,0.032011083810828,6.7317271233947755,0.4096106745175409,-0.035892338999999995,-0.08139519500000025,0.20466478549999945
140642.0,0.05266171049999999,-2.296913563,6.4755271279999995,-0.3581450531677404,0.10526778850478599,0.02454980125855224,6.871028799030758,0.37410142895616744,-0.1244463885,0.017946169500000053,0.1568083334999999
140652.0,-0.045502855999999994,-2.2347394019999998,6.6802899799999995,-0.31044695003998735,0.10393610228551432,0.0008342673824532896,7.044317207625156,0.32738466388867504,-0.0981645665,0.06217416100000017,0.204762852
140662.0,-0.06344902549999999,-2.179626029,6.905254531,-0.2507601802802853,0.06396631708559218,-0.03433760770373644,7.241362823600764,0.26105828666891884,-0.017946169499999998,0.055113372999999743,0.22496455100000023
140672.0,0.020299765499999997,-2.1485389485,7.063337729,-0.1894729435965044,0.01466949236301234,-0.06897890269731989,7.382910778792855,0.20217141088353452,0.08374879099999999,0.031087080499999864,0.15808319799999992
140682.0,0.09571290399999999,-2.0216408974999998,7.145909722,-0.14817147217731058,-0.016505578736110374,-0.0961571698093756,7.426992569904108,0.17740749872075465,0.07541313849999999,0.1268980510000004,0.08257199300000018
140692.0,0.165143986,-1.9186710724999998,7.2776130315,-0.11752872650004616,-0.030894073089551628,-0.11294549188430905,7.528095553114272,0.16590397657010433,0.069431082,0.10296982499999996,0.13170330949999975
140702.0,0.2609549565,-1.899548105,7.4452086799999995,-0.08821766704205339,-0.018903661128350582,-0.10841461714613178,7.688141048477086,0.14104408670107527,0.09581097050000001,0.019122967499999755,0.16759564849999986
140712.0,0.30165255399999996,-1.8816019355,7.556514157499999,-0.06050532917888742,-0.017037904157968645,-0.0884305972107967,7.793094784455659,0.10849495638139045,0.04069759749999996,0.017946169500000053,0.1113054774999993
140722.0,0.3231291175,-1.8959196445,7.6558555219999995,-0.027464501109382772,-0.02316750049097273,-0.07164227513586324,7.893734699032849,0.08014766052000044,0.021476563500000045,-0.014317708999999956,0.09934136450000075
140732.0,0.34950900599999996,-1.9545634114999997,7.785205235499999,0.01490336648277958,-0.02583261825876807,-0.053256976795354974,8.034419408626004,0.06103884071641805,0.02637988849999995,-0.058643766999999736,0.1293497134999999
140742.0,0.33754489299999996,-1.9857485584999999,8.00418773,0.06499780667352083,-0.02183581427170106,-0.03300592148446477,8.253735827457634,0.07609801909586915,-0.011964112999999998,-0.03118514700000019,0.2189824945000005
140752.0,0.26576021499999997,-1.992907413,8.21012738,0.11402759602054553,-0.04475024202113461,-0.01222254075171629,8.452721457879282,0.12310266982320983,-0.07178467799999999,-0.007158854500000089,0.20593964999999947
