timestamp,ax,ay,az,gx,gy,gz,acc_mag,gyro_mag,dax,day,daz
134412.0,-1.45334553,1.7540174189999997,10.974229749,0.09217781911482852,0.10420139233181745,-0.04153360020970906,11.208144758146327,0.1451885685825001,0.0,0.0,0.0
134422.0,-1.6460462025,2.4854954425,11.2795107635,0.1324128943610538,0.11166267488409322,-0.06418273791283947,11.666812707820643,0.18471911487805084,-0.1927006725,0.7314780235000002,0.3052810145000002
134432.0,-1.8400217394999998,2.6614267435,11.919983075,0.14546970249522337,0.05837079150369835,-0.08709716566227303,12.351310409067374,0.17931675858998358,-0.1939755369999998,0.17593130099999987,0.6404723115
134442.0,-1.7812799059999997,2.493831095,12.522111384999999,0.14200522393001463,0.00614355896702004,-0.0636486671617292,12.891680463471582,0.15573817698836545,0.05874183350000006,-0.16759564849999986,0.6021283099999994
134452.0,-1.8184471095,2.5357054905000003,13.151796381499999,0.13614440830181768,0.02772630049718192,-0.05565505918759518,13.516889445617185,0.14967141765977496,-0.037167203500000356,0.04187439550000027,0.6296849965
134462.0,-1.8460037959999998,2.5129540624999995,13.9059277665,0.1230876001676481,0.07222696043528135,-0.07084291433844984,14.251227848231089,0.15932987679878322,-0.02755668649999965,-0.02275142800000074,0.7541313850000009
134472.0,-1.9920248145,2.6937886884999998,14.486579512999999,0.07059333225541464,0.012805480721882397,-0.09722356598234413,14.868949066640372,0.12082971769297937,-0.14602101850000015,0.18083462600000022,0.5806517464999992
134482.0,-2.1320637765,2.9403278694999995,15.022807134999999,0.005843362335677015,-0.12335638087245522,-0.14412056298343176,15.455612512696762,0.18979377824364413,-0.140038962,0.24653918099999972,0.5362276220000002
134492.0,-1.976432241,3.0097589515,15.401147692,-0.07116405492081679,-0.3317312402680582,-0.2006116348827322,15.816456100536415,0.3941509438437004,0.15563153549999997,0.06943108200000037,0.37834055700000135
134502.0,-1.6832134059999997,3.097136203,15.4765608305,-0.16122828031148018,-0.5643522136323664,-0.23498414917150853,15.872913884042786,0.6322226900118401,0.29321883500000023,0.08737725149999997,0.07541313850000009
134512.0,-1.3827376499999997,3.2552194009999997,15.360450094499999,-0.27687379654862443,-0.750076189995587,-0.2253918196025477,15.762355276512434,0.8307074469133477,0.300475756,0.15808319799999992,-0.11611073600000132
134522.0,-1.0894207484999998,3.3832942499999996,14.995348514999998,-0.42049694069523785,-0.849200419533353,-0.17209993622215286,15.410840166443165,0.9631082066503982,0.2933169014999999,0.12807484899999988,-0.365101579500001
134532.0,-0.7039213369999999,3.3449502485,14.482951052499999,-0.5651847356855677,-0.8521325726767035,-0.10734822097316322,14.880862495256613,1.0281475319304547,0.3854994114999999,-0.038344001499999614,-0.5123974624999992
134542.0,-0.39030467,3.1798062624999996,13.8808227425,-0.666974082991129,-0.7538077039363509,-0.051658255200528164,14.24572727561367,1.0078437662782924,0.3136166669999999,-0.16514398600000035,-0.6021283099999994
134552.0,-0.196329133,2.9522919825,13.437856361999998,-0.7112077075536734,-0.5710141353872289,-0.012487830798019428,13.759744063177271,0.9121565063155641,0.19397553700000003,-0.22751427999999985,-0.4429663805000015
134562.0,-0.111403544,2.7727322209999996,13.137380605999999,-0.6962851424491218,-0.3533139817982201,0.0019006635554218248,13.427256752810392,0.7807991943204461,0.084925589,-0.1795597615000002,-0.3004757559999991
134572.0,-0.2023111895,2.6961422845,13.077560040999998,-0.633133894124211,-0.1641255268697908,0.009361946107697583,13.354126315922942,0.6541279404627947,-0.0909076455,-0.07658993649999957,-0.05982056500000077
134582.0,-0.32803244249999997,2.6949654864999997,13.194847574999999,-0.5385387939953703,-0.051412163775996965,0.015224507065146536,13.471245183138864,0.5412014678818734,-0.12572125299999998,-0.0011767980000003675,0.1172875340000008
134592.0,-0.435807526,2.7632197705,13.393628370499998,-0.44181264684984456,-0.02023709267687425,0.015489797111449674,13.682638364981468,0.4425470468221788,-0.10777508350000004,0.06825428400000044,0.19878079549999939
134602.0,-0.4992565514999999,2.9343458129999997,13.564754412999998,-0.3781290731030755,-0.041020473409622726,0.016289157908863077,13.887483743986497,0.38069621987868546,-0.06344902549999992,0.17112604249999963,0.1711260424999992
134612.0,-0.538777351,3.1019414614999996,13.6760598905,-0.37013546512894147,-0.08418770179919847,0.02534916205596564,14.03377839332894,0.380434503820813,-0.03952079950000009,0.16759564849999986,0.11130547750000197
134622.0,-0.585457005,3.117534035,13.641344349499999,-0.39038652043983163,-0.1667906446375861,0.04799829975909606,14.005286645610738,0.4272289681886104,-0.04667965399999996,0.015592573500000206,-0.03471554100000063
134632.0,-0.4680714045,3.115180439,13.406769281499999,-0.4133026935185172,-0.2803033685287933,0.07331255523002181,13.771888126709817,0.5047413452775638,0.11738560049999996,-0.002353595999999847,-0.23457506799999983
134642.0,-0.287334845,3.1474443174999998,13.079913636999999,-0.4412803214279863,-0.3871559159943902,0.10875146569176668,13.45634080262137,0.59703007182147,0.1807365595,0.03226387849999979,-0.32685564450000015
134652.0,-0.12336765699999998,3.2851296835,12.708830001,-0.48311586359829034,-0.45004012894374584,0.18096271816378007,13.127134364000552,0.6846054050949707,0.16396718800000004,0.13768536600000036,-0.37108363599999805
134662.0,-0.04314926,3.419186589,12.2982255655,-0.5302781506456812,-0.47801950218246697,0.2880805556756801,12.764758158655171,0.7698623046216679,0.08021839699999997,0.13405690550000005,-0.4106044355000016
134672.0,0.0981645665,3.3665248784999995,12.046881125999999,-0.593431144299844,-0.4649626940482974,0.4055918288832063,12.508815727463995,0.8560698344986214,0.1413138265,-0.05266171050000068,-0.2513444395000004
134682.0,0.1375872995,3.2276627144999996,11.820543643999999,-0.6832283343149522,-0.41753162629609947,0.5164394350066182,12.254060098729155,0.9528081159384636,0.039422733000000015,-0.13886216399999984,-0.22633748199999992
134692.0,-0.046777720499999995,3.2480605464999996,11.609896802,-0.8121959487325693,-0.37782887647173247,0.6118338959328722,12.055778250364215,1.0847846031567219,-0.18436502,0.020397832000000005,-0.21064684199999917
134702.0,-0.2095681105,3.152249576,11.3369777325,-0.9619486892121867,-0.3661037545568345,0.6861761954215706,11.768927745955938,1.237018597653599,-0.16279039,-0.09581097049999965,-0.27291906950000033
134712.0,-0.39030467,2.9356206774999998,11.067589057,-1.1002415978232094,-0.3693029430757402,0.7447983143375562,11.456951341094868,1.378999915295515,-0.18073655950000003,-0.21662889850000022,-0.2693886755000001
134722.0,-0.555448656,2.642303776,10.6809128475,-1.2238807220344876,-0.3911527199814572,0.7826353071915413,11.016904815328425,1.5044608656190925,-0.16514398600000002,-0.2933169014999999,-0.38667620949999915
134732.0,-0.635667053,2.3130945355,10.169790249499998,-1.3408579244909038,-0.43165483060323756,0.7823700171452382,10.44888092817862,1.6113127288583693,-0.080218397,-0.3292092405,-0.5111225980000018
134742.0,-0.6836215714999999,2.0089903189999996,9.603554278499999,-1.4213298203126061,-0.4495078035218876,0.7485280829490681,9.835224213761041,1.6680917284431165,-0.047954518499999876,-0.3041042165000003,-0.5662359709999993
134752.0,-0.7638399684999999,1.8390410744999999,9.036141509499998,-1.4533042522091422,-0.44204652096961183,0.698700678133882,9.252965846196835,1.6720290110567035,-0.080218397,-0.1699492444999997,-0.5674127690000006
134762.0,-0.7099033934999999,1.5553346899999998,8.5250189115,-1.4615648955588316,-0.40953801832196546,0.6446076886268217,8.694767177299967,1.6490640996085613,0.05393657500000004,-0.2837063845000001,-0.5111225979999983
134772.0,-0.6441007719999999,1.2716283055,8.00418773,-1.4767544960389383,-0.34452101302667265,0.5961119700309072,8.130124572780073,1.6293704461546712,0.06580262149999994,-0.28370638449999985,-0.5208311815000002
134782.0,-0.657241683,1.0561762049999999,7.5996634174999995,-1.4935410727846197,-0.25099230907080056,0.5484156122324062,7.700802481895549,1.610720881794102,-0.013140911000000033,-0.21545210050000008,-0.4045243125000004
134792.0,-0.6944088865,0.907703524,7.266825716499999,-1.4836817078401037,-0.17878105659878715,0.5079135016106258,7.356146095824763,1.5783694755969757,-0.03716720350000002,-0.14847268099999988,-0.33283770100000076
134802.0,-0.6596933454999999,0.7389310775,7.0597092685,-1.4343866284467757,-0.14387447155890054,0.47167348502221557,7.128864524111613,1.5167863197913751,0.03471554100000007,-0.1687724465,-0.20711644799999895
134812.0,-0.7183371124999999,0.5318146295,6.922023902499999,-1.3621753759747623,-0.14494086773186912,0.44289649631533307,6.979487797405078,1.4396829222086545,-0.05864376699999996,-0.20711644799999995,-0.13768536600000036
134822.0,-0.7278495629999999,0.377359892,6.7341284885,-1.3059513394510172,-0.17425192718986188,0.41092031908954496,6.783852296009756,1.3801188875542354,-0.009512450500000047,-0.15445473750000005,-0.18789541399999976
134832.0,-0.7303012254999999,0.201428591,6.580850548999999,-1.2625170756858861,-0.19903211190967737,0.3696188476703512,6.624311836373091,1.3304815821809883,-0.0024516624999999515,-0.17593130099999998,-0.15327793950000057
134842.0,-0.714708652,0.078060934,6.416883361,-1.2286768868189681,-0.21368764163867374,0.3203237682770233,6.45703446137151,1.2876011093950803,0.015592573499999873,-0.12336765699999999,-0.1639671879999991
134852.0,-0.7123550559999999,0.00392266,6.2373235995,-1.2025632705506288,-0.21795148100129588,0.2606352531880692,6.277871518114231,1.249636748400307,0.002353596000000069,-0.074138274,-0.1795597615000002
134862.0,-0.550741464,-0.052367511,6.163087259,-1.162595230679959,-0.20729275525936652,0.2054776128372924,6.187867409570549,1.1986738531227412,0.16161359199999992,-0.056290171,-0.07423634049999972
134872.0,-0.46571780849999994,-0.122975391,6.1775030345,-1.1106350335188357,-0.20649339446195314,0.16684125918589396,6.19625368793131,1.14192193489859,0.08502365550000007,-0.07060788000000001,0.014415775499999839
134882.0,-0.3758888945,-0.154160538,6.103266694,-1.0759937385252523,-0.21128955924643353,0.16124573360400013,6.116773844975354,1.1083347823638818,0.08982891399999993,-0.03118514700000001,-0.07423634049999972
134892.0,-0.3256788465,-0.2283968785,5.957147609,-1.0664014089562912,-0.1862423391510629,0.17057102779740582,5.970413677508496,1.0958981017595961,0.05021004800000001,-0.0742363405,-0.14611908500000048
134902.0,-0.330484105,-0.34931287299999997,5.841036873,-1.0661343735807363,-0.14200871458851863,0.1767006241304099,5.860797810763206,1.0899688473151647,-0.004805258499999965,-0.12091599449999996,-0.11611073599999955
134912.0,-0.392658266,-0.539561883,5.643530942,-1.063736291188496,-0.11030131806753764,0.17616655337929965,5.682846912662353,1.083852357329371,-0.062174161000000006,-0.19024901,-0.19750593100000025
134922.0,-0.36637644399999997,-0.7969864454999999,5.4867226085,-1.0525452400247084,-0.08178961940695828,0.15458381184913775,5.556396680912357,1.0669757162312625,0.02628182200000001,-0.2574245624999999,-0.1568083334999999
134932.0,-0.34843027449999997,-1.024402659,5.3526657029999996,-1.0171063295629634,-0.050345767603028425,0.1066204186750816,5.460937153275699,1.023917914498536,0.017946169499999998,-0.22741621350000008,-0.1340569055000005
134942.0,-0.32205038599999997,-1.1310009445,5.3347195334999995,-0.9385001907116429,-0.012775810124598492,0.052262139121718204,5.462793432731013,0.9400410419102496,0.026379888500000004,-0.10659828550000006,-0.017946169500000053
134952.0,-0.323227184,-1.1932731719999998,5.383752783499999,-0.8300489216512192,0.021865484868984958,0.015756832487004806,5.523872799887368,0.8304863572226405,-0.0011767980000000344,-0.06227222749999983,0.04903324999999992
134962.0,-0.2334963365,-1.266234648,5.4483786069999995,-0.7210653271689373,0.04931078735659579,-0.008491026810952413,5.5984551590746765,0.7227993202343777,0.08973084749999999,-0.07296147600000014,0.06462582350000012
134972.0,-0.17122410899999999,-1.3081090435,5.708156765499999,-0.6222081330067265,0.08101992920682878,-0.025012313510330737,5.85862787900996,0.627959238753229,0.06227222750000003,-0.04187439550000005,0.25977815849999963
134982.0,-0.180834626,-1.3536118995000002,6.037366005999999,-0.5305451860212362,0.09221098037061641,-0.027410395902570946,6.189891325930766,0.5391960581409642,-0.009610517000000013,-0.04550285600000015,0.3292092405
134992.0,-0.192798739,-1.417060925,6.383344618,-0.4559358511569827,0.05463927756293448,-0.025811674307744142,6.541584023084272,0.4599230300315595,-0.011964112999999998,-0.06344902549999976,0.3459786120000006
135002.0,-0.173577705,-1.474527894,6.716182319,-0.39198524203465845,-0.021568778896145925,-0.04046720403674053,6.878333131791841,0.3946583798661721,0.019221033999999998,-0.057466969000000034,0.3328377009999999
135012.0,-0.1305265115,-1.4577585225,6.868185393999999,-0.3373599271057399,-0.13348278119252632,-0.061250584769489,7.022397573940162,0.36794158154017653,0.0430511935,0.016769371499999908,0.15200307499999965
135022.0,0.003530394,-1.3811685859999998,6.823859336,-0.29632549106210126,-0.2312753245110206,-0.08123635003407606,6.962233503994921,0.38457303200787785,0.1340569055,0.07658993650000023,-0.044326057999999335
135032.0,0.222610955,-1.3763633275,6.8167004815,-0.2523589018751121,-0.2683129565675923,-0.08976228343006837,6.957825601511956,0.37912283701227373,0.219080561,0.004805258499999798,-0.007158854500000089
135042.0,0.3447037475,-1.3368425279999998,6.7808081425,-0.20572719492032762,-0.22088188881539436,-0.08256803625334774,6.919922520057885,0.3129376425858303,0.12209279249999999,0.0395207995000002,-0.035892339000000106
135052.0,0.442868314,-1.3069322454999999,6.79993111,-0.16549211967410232,-0.13321574581697118,-0.06871186732176476,6.938534956215087,0.22328322220588603,0.0981645665,0.02991028249999994,0.01912296750000042
135062.0,0.418940088,-1.2853576155,7.0932480115,-0.11113384012073893,-0.026631979056181476,-0.060185933925772456,7.22092946577558,0.1291601307329328,-0.023928225999999997,0.021574629999999928,0.2933169014999999
135072.0,0.350685804,-1.3763633275,7.4847294794999994,-0.04664916024730444,0.048776716605485534,-0.04819377663531942,7.618302430575353,0.0829334211338565,-0.068254284,-0.09100571200000007,0.3914814679999994
135082.0,0.2944936995,-1.4889436694999998,7.841397339999999,-0.005347688828110626,0.04797735580807212,-0.03433760770373644,7.986938839990475,0.05924099719748437,-0.056192104500000006,-0.11258034199999978,0.3566678605
135092.0,0.30400615,-1.5726924605000001,8.119121668,0.015170401858334712,-0.002649409804527392,-0.02208016036698026,8.27562190861439,0.026920140168417716,0.009512450499999991,-0.08374879100000032,0.2777243280000006
135102.0,0.290865239,-1.6505572614999997,8.315450800999999,0.03168994322846104,-0.06473600728572168,-0.013021901549129692,8.482668441274857,0.07324324583929442,-0.013140910999999977,-0.0778648009999996,0.196329132999999
135112.0,0.25497289999999995,-1.614566856,8.2951510355,0.04687954370856769,-0.1153627728983212,0.001101302758008422,8.454665458430917,0.12452900809400971,-0.03589233900000005,0.03599040549999977,-0.020299765499999012
135122.0,0.29321883499999996,-1.5966206865,8.308291946499999,0.06899461066058785,-0.1409440637448021,0.005098106745075437,8.465393668934436,0.15700788546276626,0.03824593500000001,0.01794616949999983,0.013140910999998923
135132.0,0.317147061,-1.5738692584999998,8.392138804,0.11722503921019914,-0.134814467411798,0.01602386786255994,8.544333818780421,0.17936949234091135,0.023928226000000052,0.022751428000000296,0.08384685750000109
135142.0,0.35549106249999995,-1.5283664024999999,8.5620880485,0.18490716227328727,-0.11829492604167167,0.02908067599672952,8.704690086733399,0.22142726549273717,0.03834400149999995,0.045502855999999925,0.1699492444999997
