timestamp,ax,ay,az,gx,gy,gz,acc_mag,gyro_mag,dax,day,daz
151852.0,-0.9960614404999999,2.6374985175,9.5700155355,0.0865822935329347,0.018133970928221083,0.016289157908863077,9.97665946962093,0.08994815796017565,0.0,0.0,0.0
151862.0,-1.174444404,3.2994473925,9.4886203405,0.08178612874845428,0.0010803588069844899,-0.02074847414770859,10.114325915260606,0.0843838681874012,-0.17838296350000005,0.6619488749999998,-0.08139519499999892
151872.0,-1.072651377,3.0828184939999996,9.637093021499998,0.06313379503239089,-0.011442378576074825,-0.0154199839413699,10.17486671895865,0.06598924160363011,0.10179302700000004,-0.21662889850000022,0.14847268099999766
151882.0,-0.9840973274999999,3.0050517594999997,9.7065241035,0.07112740300652493,0.0016144295580947548,-0.018882717177326654,10.20859411471987,0.07360890468720185,0.08855404950000001,-0.07776673449999993,0.06943108200000125
151892.0,-1.025971723,3.0648723244999996,9.7855657025,0.09084438756630485,0.01227140997077213,-0.0332729568600199,10.305501271642536,0.09752117674216464,-0.04187439550000016,0.05982056499999988,0.07904159899999996
151902.0,-1.1181542329999998,3.1977524319999997,9.911188888999998,0.10150311330823422,0.021331414117874696,-0.03593632929856325,10.474137420264007,0.1097694447603124,-0.09218250999999977,0.13288010750000012,0.1256231864999986
151912.0,-1.1576750325,3.232467973,10.142233562999998,0.09750630932116722,0.009608037532228783,-0.0340723176574333,10.707659049661052,0.10373387861834195,-0.0395207995000002,0.03471554100000018,0.23104467399999962
151922.0,-1.1372772005,3.1618600929999996,10.315811268,0.07219205385024145,-0.016505578736110374,-0.0324735960626065,10.849272823349905,0.08086198865825298,0.020397832000000005,-0.07060788000000029,0.17357770500000136
151932.0,-1.0977564009999998,3.141462261,10.3637657865,0.04021762195370534,-0.02183581427170106,-0.04046720403674053,10.884920556928822,0.06108890654669286,0.0395207995000002,-0.02039783199999956,0.04795451850000099
151942.0,-1.0774566355,3.129498148,10.416427496999999,0.005044001538263612,0.011739084548913861,-0.050326568981256495,10.929621826027471,0.0519231316754847,0.0202997654999999,-0.011964112999999887,0.052661710499998904
151952.0,-1.0762798375,3.08517209,10.451143038,-0.01973618318155188,0.08208458005054531,-0.05832017695539052,10.950025384183355,0.10260915285079697,0.0011767979999999234,-0.044326058000000224,0.03471554100000063
151962.0,-1.105013322,3.0624206619999996,10.637861653999998,-0.02986258350162298,0.16655327985931487,-0.07164227513586324,11.124907879280869,0.183750876220848,-0.028733484500000017,-0.022751428000000296,0.1867186159999985
151972.0,-1.2402470255,3.05771347,10.962265635999998,-0.027731536484937903,0.25048965424622616,-0.096956530606789,11.448104306963117,0.27002717238736285,-0.13523370349999997,-0.004707191999999694,0.32440398199999976
151982.0,-1.429417304,3.0313335814999998,11.348941845499999,-0.02879618732865444,0.27420518812232514,-0.11987270368547454,11.83345672759423,0.30064459197985294,-0.1891702785,-0.02637988850000017,0.3866762095000009
151992.0,-1.6197643805,3.1486211155,11.708061368499997,-0.0354581090835168,0.23316900674943444,-0.14571928457825856,12.231768170868472,0.2772348699321496,-0.19034707649999993,0.11728753400000036,0.3591195229999986
152002.0,-1.7358751165,3.3916299024999996,12.4478750445,-0.009611528190732773,0.22410900260233188,-0.17796075185034982,13.017911082009354,0.28633416792397487,-0.11611073599999999,0.2430087869999995,0.7398136760000025
152012.0,-1.9345578454999999,3.7028929734999996,13.399610426999999,0.05700419869938679,0.16149182502853132,-0.20700652126203944,14.03579317410129,0.26866482476389825,-0.19868272899999995,0.31126307099999995,0.951735382499999
152022.0,-2.044686525,4.075251474,14.4494123095,0.11562631761537234,-0.0711308936650289,-0.20594012508907092,15.151697385170609,0.24665843687289268,-0.11012867950000005,0.3723585005000003,1.0498018825000006
152032.0,-1.9632913299999997,4.271580607,15.250321414999998,0.11482695681795894,-0.3903533591840438,-0.17929418339887349,15.95848416953688,0.44464297952290827,0.08139519500000025,0.19632913299999988,0.8009091054999988
152042.0,-1.7897136249999999,4.378080826,15.63572276,0.009574876276440892,-0.7223655974616731,-0.14012375899636473,16.335436719172264,0.7358929286840175,0.1735777049999998,0.10650021899999995,0.3854013450000018
152052.0,-1.5370943209999999,4.4187784235,15.492055337499998,-0.17695020621344512,-0.9840305949084189,-0.11560886432285239,16.183078825977514,1.0064755320944554,0.252619304,0.04069759750000035,-0.14366742250000186
152062.0,-1.2653520495,4.502625280999999,15.037222910499999,-0.39944652458693425,-1.1420439787377255,-0.10761525634871837,15.747787879265463,1.2146616890207227,0.27174227149999997,0.08384685749999932,-0.4548324269999995
152072.0,-0.969681552,4.4044607145,14.363211855999998,-0.5939634697217022,-1.196402258291089,-0.10335141698609622,15.054614286596713,1.3397210464872509,0.29567049749999996,-0.0981645664999995,-0.6740110545000011
152082.0,-0.7434421365,4.251182774999999,13.598293156,-0.7335898098812486,-1.1564324730911668,-0.07617314987404052,14.266703822302361,1.371602137189605,0.22623941549999993,-0.15327793950000057,-0.7649186999999973
152092.0,-0.5123974625,4.111143813,12.917123247,-0.8068674585262305,-1.0114758973960298,-0.04473104339936267,13.56525442403984,1.294650320698712,0.23104467400000006,-0.14003896199999932,-0.6811699090000012
152102.0,-0.3245020485,3.7950754835,12.425123616499999,-0.8002055367713682,-0.8132291836497498,-0.03913377248821686,12.995829961578039,1.1415787569713933,0.18789541399999998,-0.3160683295000002,-0.4919996305000005
152112.0,-0.216726965,3.523333212,12.116312207999998,-0.7221317233419059,-0.6192445639368401,-0.05112592977866989,12.620058202000106,0.9526551928782059,0.10777508349999998,-0.27174227149999997,-0.30881140850000044
152122.0,-0.15092434349999997,3.3869227105,12.0193244395,-0.5811736969630878,-0.43884907777995824,-0.07164227513586324,12.488321888321247,0.7317677190862587,0.06580262150000002,-0.1364105014999999,-0.09698776849999824
152132.0,-0.09218251,3.3055275154999997,12.2144767745,-0.40157757160361934,-0.29469186288223453,-0.09775589140420239,12.654187158631622,0.5076062000885055,0.05874183349999998,-0.08139519500000025,0.1951523349999995
152142.0,0.069431082,3.3078811115,12.713635259499998,-0.24036848991391105,-0.20222955509933097,-0.12786631165960857,13.137100883930508,0.3391512900706696,0.161613592,0.002353596000000291,0.4991584849999988
152152.0,0.1950542685,3.4120277345,13.2978174,-0.16655851584707088,-0.17904809197434227,-0.1411901551693333,13.72996456777657,0.28237318987037685,0.12562318649999998,0.1041466230000001,0.5841821405000012
152162.0,0.20466478549999997,3.7244676035,13.825709369499998,-0.19053933976947293,-0.21928316722056757,-0.13186311564667558,14.320048399842259,0.3190270030798625,0.009610516999999985,0.31243986899999987,0.5278919694999988
152172.0,0.338721691,3.823808968,14.062736099999999,-0.2816699613331049,-0.30748338097010103,-0.10574949937833643,14.577269772695924,0.4301940879521311,0.13405690550000002,0.09934136449999986,0.23702673050000023
152182.0,0.5745716235,3.8621529695,13.999287074499998,-0.4066407717636549,-0.38822056683810674,-0.061250584769489,14.533629853020607,0.5655294509671853,0.23584993250000003,0.03834400150000006,-0.06344902550000064
152192.0,0.787670128,3.9686531885,13.7909938285,-0.5515956021295398,-0.4220625010342768,-0.009557422983920948,14.372269936890966,0.6946119833418166,0.2130985045,0.10650021899999995,-0.20829324599999843
152202.0,1.078535367,4.0010151335,13.424715450999999,-0.7034793896258423,-0.40740697130528036,0.06132214326882077,14.0497098040025,0.8152448081107729,0.29086523899999994,0.032361945000000336,-0.3662783775000005
152212.0,1.2784929605000002,4.0620124965,12.933892618499998,-0.8588276556873538,-0.34025717366405056,0.16124573360400013,13.616903761085299,0.9377420077018923,0.1999575935000002,0.06099736300000025,-0.490822832500001
152222.0,1.4113730679999998,3.9925814144999996,12.420318358,-1.002183764458412,-0.23953422253145776,0.2947424774305424,13.122385011976991,1.0717378735071732,0.13288010749999968,-0.06943108200000081,-0.5135742604999987
152232.0,1.3730290664999998,3.8417551375,11.8839926695,-1.117295209944446,-0.12309109082615209,0.45835138684174287,12.564775092403812,1.2139135045897318,-0.03834400150000006,-0.15082627699999973,-0.5363256884999998
152242.0,1.1778767314999998,3.731626458,11.352570305999999,-1.2020309451287707,-0.005581562947877866,0.6256900648644552,12.008050723132696,1.3551374853357843,-0.19515233499999995,-0.11012867949999983,-0.5314223635000008
152252.0,0.8833830319999999,3.523333212,11.0006096375,-1.240134973358311,0.08101992920682878,0.7719765814496119,11.584802756226177,1.4630265969495317,-0.29449369949999993,-0.2082932460000002,-0.3519606684999985
152262.0,0.627233334,3.1713725435,10.756325986,-1.2262788044267279,0.11992331823378238,0.8969473918801619,11.23163274782635,1.5240262242635692,-0.25614969799999987,-0.35196066849999985,-0.24428365149999998
152272.0,0.38657814299999993,2.8481453595,10.639038452,-1.1871083800242193,0.12818396158347153,0.9779533584529747,11.020458875773787,1.5433891943513185,-0.2406551910000001,-0.32322718399999983,-0.1172875340000008
152282.0,0.07413827399999999,2.5321750964999996,10.5169456595,-1.170854128700396,0.11246203568150662,1.016322676728818,10.817742519023197,1.5544963439640576,-0.3124398689999999,-0.31597026300000053,-0.12209279250000016
152292.0,-0.240655191,2.3142713335,10.3900476085,-1.2020309451287707,0.09167865494875814,1.0120605826954479,10.647387286696754,1.574023504229282,-0.314793465,-0.2179037629999998,-0.1268980509999995
152302.0,-0.5004333495,1.9312235844999999,10.257167501,-1.2654492288292367,0.05383991676552108,0.9750212053096243,10.449380039705293,1.598413850723667,-0.25977815849999997,-0.38304774899999994,-0.13288010750000012
152312.0,-0.6489060305000001,1.5517062295,10.0656436265,-1.3365940851282814,-0.0013177235852557187,0.9134686785795402,10.205197346195146,1.6189226391465426,-0.1484726810000001,-0.37951735499999995,-0.19152387449999964
152322.0,-0.7003909429999999,1.2344611019999998,9.841757806999999,-1.414934933933299,-0.06207088951792634,0.8186082884043964,9.943572718949307,1.6358524360206672,-0.05148491249999987,-0.3172451275000001,-0.2238858195000013
152332.0,-0.7829629359999999,1.0309731144999998,9.499407655499999,-1.492474676611651,-0.11403108667904953,0.7133562078628785,9.587214523903361,1.6581196664754818,-0.08257199299999995,-0.20348798749999997,-0.3423501514999998
152342.0,-0.7410885405,0.9399674025,9.082821163499998,-1.5556259249365618,-0.14813831092152271,0.6195604685314511,9.161353133175606,1.6810033169700547,0.04187439549999994,-0.09100571199999985,-0.4165864920000004
152352.0,-0.6141904895,0.828661925,8.708109066999999,-1.5846716943482515,-0.12735493018877422,0.5409543296801305,8.768983639288225,1.679296056063857,0.12689805099999996,-0.11130547749999997,-0.3747120964999997
152362.0,-0.5183795189999999,0.7412846735,8.4914801685,-1.5910665807275588,-0.08498706259661187,0.4873954109241805,8.539523156764286,1.6662142574431524,0.09581097050000009,-0.08737725149999997,-0.216628898499998
152372.0,-0.481310382,0.6742071875,8.223268290999998,-1.5929305923686885,-0.07326194068171399,0.462613480875113,8.264886956351168,1.660363338773746,0.03706913699999992,-0.06707748600000007,-0.2682118775000024
152382.0,-0.4549304935,0.5545660575,7.9634901325,-1.5865357059893814,-0.050879838354138694,0.44555986875387643,7.995728882126514,1.6486988509045974,0.026379888500000004,-0.11964112999999998,-0.25977815849999875
152392.0,-0.5279900359999999,0.38814720699999994,7.8103102595,-1.5697491292437,-0.02236813969355933,0.4338364921682305,7.83775338231997,1.6287500619713082,-0.07305954249999996,-0.16641885050000005,-0.15317987300000002
152402.0,-0.6896036279999999,0.16788984799999998,7.606822272,-1.5556259249365618,-0.02476622208579954,0.41171967988695835,7.639861598393486,1.6093782895569817,-0.16161359199999992,-0.22025735899999996,-0.20348798749999997
152412.0,-0.6799931109999999,-0.1242502555,7.440403421499999,-1.530313414794888,-0.05567600313861911,0.36429035746401245,7.472444836308139,1.5740604910129536,0.00961051699999993,-0.29214010349999997,-0.16641885050000038
152422.0,-0.7661935645,-0.35882532349999996,7.1769968025,-1.5031334023535803,-0.11083364348939591,0.30433480699950327,7.2266929707966225,1.5376325297520241,-0.08620045350000005,-0.23457506799999994,-0.2634066189999995
152432.0,-0.7829629359999999,-0.47258246349999994,6.846610763999999,-1.476487460663383,-0.15639895427121187,0.24065123325273413,6.9074194962864475,1.5041239544862637,-0.016769371499999908,-0.11375713999999998,-0.33038603850000037
152442.0,-0.7326548214999999,-0.6102678295,6.584479009499999,-1.426658310518945,-0.1699880878272397,0.17616655337929965,6.653162686853218,1.4475097718169205,0.050308114499999945,-0.1376853660000001,-0.26213175450000037
152452.0,-0.6188976814999999,-0.7503067914999999,6.3798142239999995,-1.359243222831412,-0.15959639746086549,0.11008489724029034,6.4535280393200285,1.3730010318626915,0.11375714000000003,-0.14003896199999988,-0.20466478549999945
152462.0,-0.49445129299999996,-0.860435471,6.200156396,-1.3246036731670805,-0.10710387487788402,0.0506634175268914,6.279074025345144,1.3298920681232307,0.12444638849999995,-0.11012867950000005,-0.17965782799999985
152472.0,-0.484840776,-0.89632781,6.030207151499999,-1.3371281558793917,-0.04661599899151655,0.0021676989309769574,6.115707024625477,1.3379422467080015,0.009610516999999985,-0.035892338999999995,-0.1699492445000006
152482.0,-0.457382156,-0.940653868,5.860257906999999,-1.3461864146972422,-0.0058468529941810045,-0.04073249408304366,5.9528691294674525,1.3468152007159617,0.02745861999999999,-0.044326058,-0.1699492444999997
152492.0,-0.41423289599999996,-0.9848818595,5.764446936500001,-1.325935359386352,0.012805480721882397,-0.07510675370107199,5.862629926323592,1.3281225779494326,0.04314926000000002,-0.04422799150000001,-0.09581097049999876
152502.0,-0.39991518699999995,-0.9597768354999999,5.666282369999999,-1.2787713270097092,0.004277801996638102,-0.09082867960303691,5.7608905238103985,1.282000099614086,0.014317709000000012,0.02510502400000003,-0.09816456650000127
152512.0,-0.312439869,-0.9358486094999999,5.5322254645,-1.218552231828149,-0.013575170922011897,-0.08709716566227303,5.619515093111332,1.2217363640431294,0.08747531799999997,0.023928225999999997,-0.1340569054999996
152522.0,-0.20593965,-1.0041028934999998,5.3634530179999995,-1.1615288345069903,-0.01543918256314184,-0.06711314572693795,5.460518476891228,1.1635685523761592,0.10650021899999998,-0.06825428399999989,-0.16877244650000023
152532.0,-0.122190859,-1.135806203,5.228121248,-1.109568637345867,-0.0002513274122871834,-0.03913377248821686,5.3514706502591896,1.1102585628114705,0.083748791,-0.1317033095000002,-0.13533176999999963
152542.0,-0.087475318,-1.3668508769999999,5.1299566814999995,-1.0490807614594997,0.0314578144379458,-0.010356783781334353,5.309650535137068,1.0496034018256368,0.034715541,-0.23104467399999984,-0.09816456650000038
152552.0,-0.15327793950000002,-1.614566856,5.110833713999999,-0.9662107832455569,0.056505034533316414,0.015756832487004806,5.361990443052852,0.96798986273495,-0.06580262150000002,-0.24771597900000009,-0.01912296750000042
152562.0,-0.20476285199999997,-1.8743450144999998,5.1623186265,-0.8633567850962791,0.05383991676552108,0.02908067599672952,5.49587396693638,0.8655225940006,-0.05148491249999995,-0.25977815849999986,0.0514849125000012
152572.0,-0.30175062049999996,-2.0144820429999997,5.249695878,-0.7463795826398631,0.02159844949342983,0.027214919026347578,5.631029936879378,0.7471878118785044,-0.09698776849999999,-0.14013702849999987,0.08737725149999953
152582.0,-0.4190381544999999,-2.0683205515,5.393363300499999,-0.6235415645552502,-0.029295351494724824,0.012559389297351196,5.791537841529163,0.6243556987861416,-0.11728753399999997,-0.05383850850000016,0.1436674224999992
152592.0,-0.4213917505,-2.0898951814999998,5.5226149475,-0.5089624444910744,-0.10390468635897841,-0.016484634785086442,5.91984026265885,0.5197217495291931,-0.002353596000000069,-0.021574629999999928,0.12925164700000114
152602.0,-0.2825295865,-2.1269643185,5.5657642075,-0.41356798356482033,-0.16785704081055464,-0.05805314157983539,5.965025682501973,0.4500940239848071,0.138862164,-0.03706913700000003,0.043149259999999856
152612.0,-0.10542148749999998,-2.190413344,5.572923062,-0.3373599271057399,-0.18437658218068098,-0.09908932295272606,5.988864313254345,0.397020324916306,0.17710809900000002,-0.0634490255000002,0.007158854500000089
152622.0,0.019122967499999997,-2.1293179144999996,5.677069684999999,-0.2731422826078606,-0.15613191889565675,-0.13319654719519924,6.063289592064907,0.34165070295697514,0.12454445499999997,0.06109542950000035,0.10414662299999922
152632.0,0.09453610599999998,-1.9497581529999999,5.7968088815,-0.21079039508036318,-0.09990788237191141,-0.1598424888853967,6.116656532711715,0.28277870653791004,0.07541313849999998,0.17955976149999975,0.11973919650000031
152642.0,0.2393803265,-1.8935660485,6.058940635999999,-0.14790443680175547,-0.03675663404700058,-0.16996714387621578,6.352452829523351,0.22828841970092972,0.1448442205,0.056192104499999784,0.2621317544999995
152652.0,0.35549106249999995,-1.8935660485,6.2481109145,-0.10287319677104977,0.01653524933339428,-0.1537128925523926,6.538413896002861,0.18569857948093205,0.11611073599999996,0.0,0.18917027850000068
152662.0,0.40932957099999995,-1.9736863789999999,6.430024272,-0.0767595805027106,0.04584630879138705,-0.12386950767254155,6.738560733484139,0.15276639735159414,0.05383850849999999,-0.08012033049999978,0.18191335750000004
152672.0,0.44885037049999993,-2.083913125,6.623999808999999,-0.03838851689761528,0.048244391183627264,-0.0916280404004503,6.958558330378303,0.11043956400631025,0.03952079949999998,-0.11022674600000015,0.19397553699999914
152682.0,0.432080999,-2.1605030615,6.845433966,0.03462209637181152,0.012805480721882397,-0.06444802795914262,7.191274827964385,0.07427124747518339,-0.016769371499999908,-0.07658993650000001,0.2214341570000009
152692.0,0.43570945949999995,-2.179626029,7.0764786399999995,0.1316135335636404,-0.04954640680561503,-0.04499633344566581,7.417355478994406,0.14765377972814828,0.0036284604999999304,-0.019122967499999977,0.23104467399999962
152702.0,0.4716017985,-2.179626029,7.333903202499999,0.2278073552873079,-0.10337236093712014,-0.030874874467779687,7.66546241698976,0.2520620836264612,0.03589233900000005,0.0,0.2574245624999998
152712.0,0.42972740299999995,-2.097054036,7.591229698499999,0.3040154117463883,-0.13161702422214439,-0.010889109203192622,7.8872726341988075,0.33146188973041474,-0.04187439550000005,0.08257199300000018,0.2573264960000001
152722.0,0.40217071649999997,-1.9821200979999998,7.8031514049999995,0.34904665177709393,-0.13721254980403821,0.009894271529555854,8.060999517271982,0.37517828501877093,-0.027556686499999983,0.11493393800000007,0.21192170650000008
152732.0,0.39618865999999997,-1.9761380414999998,8.0868577895,0.37595962884284656,-0.10390468635897841,0.024282765882997107,8.334227973902134,0.3908087500119938,-0.005982056499999999,0.005982056499999944,0.2837063845000003
152742.0,0.40932957099999995,-2.076656204,8.428031142999998,0.3943466725126068,-0.049281116759311884,0.03760660939272182,8.689750320618227,0.39918940825230675,0.013140910999999977,-0.10051816250000001,0.34117335349999856
152752.0,0.33391643249999997,-2.134123173,8.729683696999999,0.3951460333100202,-0.011709413951629957,0.04773300971279292,8.992961656267454,0.3981908314263097,-0.07541313849999998,-0.057466969000000034,0.30165255400000035
152762.0,0.270467407,-2.1628566575,8.984656596999999,0.37755835043767333,-0.00957836693494488,0.056258943108785216,9.245277481241814,0.38184698738902595,-0.06344902549999998,-0.028733484500000017,0.2549729000000003
152772.0,0.22378775299999998,-2.1712903765,9.227665384,0.369032417041681,-0.03809006559552425,0.0591893509228837,9.482319932197298,0.3756849174339699,-0.046679654000000015,-0.008433719000000117,0.24300878700000084
152782.0,0.198682729,-2.211987974,9.481461486,0.3762266642184017,-0.09138194897591911,0.06238679411253731,9.738094142819984,0.3921597576845227,-0.025105023999999976,-0.040697597499999905,0.2537961020000008
