timestamp,ax,ay,az,gx,gy,gz,acc_mag,gyro_mag,dax,day,daz
126692.0,-2.5386474855,2.266512948,11.780630578499999,-0.0024486969405480446,0.39081587143582225,0.014882422531755648,12.262343529121027,0.39110679869220055,0.0,0.0,0.0
126702.0,-2.509914001,2.2042407204999996,11.9183159445,-0.03762231735598977,0.31380845417932846,0.056717964702059726,12.37758459471189,0.3211045191173718,0.028733484500000017,-0.06227222750000028,0.13768536600000125
126712.0,-2.438129323,2.0534144435,12.088265189,-0.04401720373529699,0.19017107529730215,0.08922646734970612,12.501485541808064,0.2146250558069001,0.07178467799999977,-0.15082627699999973,0.1699492444999997
126722.0,-2.5470812045,2.0198757004999996,12.021187702999999,-0.04401720373529699,0.09131213580583933,0.114806012866935,12.452970500990753,0.15315299853578293,-0.1089518814999999,-0.03353874300000026,-0.06707748600000052
126732.0,-2.6871201664999997,2.0677321525,11.9469513625,-0.05014505473904908,0.006311110575211496,0.13052793876889993,12.418767165126896,0.13997106640564136,-0.14003896199999977,0.04785645200000044,-0.07423634049999883
126742.0,-2.7445871354999998,2.0330166115,11.8632025715,-0.05707401186946657,-0.03765547861177766,0.1257317739844195,12.345099851334993,0.1431218253434018,-0.057466969000000034,-0.03471554100000018,-0.08374879099999966
126752.0,-2.7852847329999997,1.9456393599999997,11.765038005,-0.06639930606287227,-0.03685611781436426,0.10521368329797416,12.245792862128546,0.12975808421483298,-0.040697597499999905,-0.0873772515000002,-0.09816456650000127
126762.0,-2.7936203855,1.9133754815,11.7339509245,-0.07066314542549443,0.003113667385557884,0.06897541203881591,12.212736175405613,0.09879566039020586,-0.008335652500000457,-0.03226387849999979,-0.031087080499998976
126772.0,-2.8020541045,1.9612319335,11.778178916,-0.06533290988990374,0.07159515124605939,0.028738591463338632,12.26472325325086,0.10109481409016528,-0.008433718999999673,0.047856451999999994,0.044227991499999675
126782.0,-2.7972488459999996,2.0593964999999996,11.992454218499999,-0.058405698088738245,0.12355534840718257,-0.0019041542139258136,12.485378377665572,0.136677633475721,0.004805258500000242,0.09816456649999972,0.21427530249999904
126792.0,-2.775674216,2.1743304379999997,12.150537416499999,-0.07012907467438415,0.1392755289798955,-0.014428636926237122,12.651784052723432,0.15660123131975762,0.021574629999999484,0.11493393800000007,0.15808319799999992
126802.0,-2.725464168,2.24376152,12.206729521,-0.101572926478314,0.13208128180317488,-0.017359044740335602,12.706961331826642,0.16752271735629068,0.050210048000000285,0.06943108200000037,0.056192104500000895
126812.0,-2.7182072469999996,2.2532739705,12.160049867,-0.13168334673372017,0.11662639127676509,-0.006435028952103093,12.662255209547109,0.1760216706739505,0.007256921000000194,0.009512450499999936,-0.04667965400000007
126822.0,-2.7170304489999997,2.258079229,12.1062113585,-0.15379841368574032,0.10916510872448933,0.006089453760208216,12.611166865992567,0.18870096571606995,0.0011767979999999234,0.004805258499999798,-0.05383850850000016
126832.0,-2.7206589095,2.210222777,12.053549647999999,-0.16952033958770524,0.10543534011297745,0.01941329726993293,12.552893241902929,0.20057575274584144,-0.003628460500000319,-0.047856451999999994,-0.05266171050000068
126842.0,-2.7781258784999996,2.13000438,11.972154453,-0.1871062771308001,0.09131213580583933,0.028471556087783498,12.4734672125315,0.21013637141920866,-0.05746696899999959,-0.08021839699999989,-0.08139519499999892
126852.0,-2.7948952499999997,2.060573298,11.881148741,-0.19856436367014285,0.0662649157104687,0.03113667385557884,12.378170187094256,0.21163255428367575,-0.01676937150000013,-0.06943108199999992,-0.0910057119999994
126862.0,-2.8044077004999997,2.0534144435,11.7459150375,-0.20069715601607996,0.03695385625247594,0.03300243082596078,12.249397270705474,0.2067222686729558,-0.009512450499999936,-0.007158854500000089,-0.13523370350000086
126872.0,-2.7948952499999997,2.0522376455,11.617840188499999,-0.19856436367014285,0.016702800941585733,0.03513347784264585,12.124245521169787,0.20233919873406309,0.009512450499999936,-0.0011767979999999234,-0.12807484900000077
126882.0,-2.7445871354999998,2.0964656369999997,11.52085242,-0.20149651681349334,0.009508553764865106,0.03699923481302779,12.027384054518828,0.20508584119684933,0.050308114499999945,0.044227991499999675,-0.09698776849999824
126892.0,-2.6847665705,2.1838428885,11.423864651499999,-0.21828309355917483,0.02123367567976301,0.04499284278716182,11.936575089845393,0.22388107070207408,0.05982056499999988,0.08737725150000042,-0.09698776850000179
126902.0,-2.635635254,2.2162048335,11.3173644325,-0.2585181688054001,0.047612581994405316,0.05831668629688653,11.829660804696491,0.2692571957577379,0.04913131650000002,0.03236194499999989,-0.10650021899999906
126912.0,-2.6392637144999997,2.1851177529999997,11.1688917515,-0.3038181895409129,0.07559195523312641,0.0759026238399814,11.682662175457992,0.32215034424578654,-0.003628460499999875,-0.031087080500000308,-0.14847268099999944
126922.0,-2.5781682850000003,2.1444201554999998,11.041993700499999,-0.34272157856786656,0.10756638712966253,0.09082518894453291,11.539978959728487,0.3705102198360915,0.061095429499999465,-0.040697597499999905,-0.1268980510000013
126932.0,-2.5459044065,2.1539326059999997,10.958146843,-0.3659030416928552,0.14673681153217127,0.10574600871983243,11.454345775773357,0.40816534166791546,0.03226387850000023,0.009512450499999936,-0.08384685749999932
126942.0,-2.6032733089999995,2.2485667785,10.886362165,-0.37549537126181604,0.17418211401978212,0.13159258961261647,11.416915768554533,0.434341792053682,-0.057368902499999486,0.09463417250000017,-0.07178467800000021
126952.0,-2.671527593,2.2892643759999998,10.787020800499999,-0.35471199052906754,0.17604787099016403,0.16197004524357778,11.346259683869512,0.42784079359204324,-0.06825428400000044,0.040697597499999905,-0.09934136450000075
126962.0,-2.7301713599999995,2.2125763729999997,10.711607661999999,-0.3035511541653578,0.16139234126116764,0.18835069688747208,11.27332553268729,0.39200354083972044,-0.058643766999999514,-0.07668800300000012,-0.07541313850000009
126972.0,-2.8510873544999997,2.1168634689999997,10.687679435999998,-0.21828309355917483,0.13181424642761974,0.2048702382575984,11.262162393433766,0.3270998609274695,-0.12091599450000023,-0.09571290399999999,-0.023928226000000663
126982.0,-2.9409162684999997,2.0449807245,10.7666229685,-0.11489502465878672,0.09397725357363468,0.20513727363315354,11.346854401451367,0.2532072114182962,-0.08982891399999993,-0.07188274449999987,0.07894353250000208
126992.0,-2.9301289534999997,1.9300467865,10.864787535,-0.0277629524114738,0.05720491156336615,0.1878166261363618,11.4172827092487,0.19828834682557672,0.010787314999999964,-0.11493393799999985,0.0981645664999995
127002.0,-2.901395469,1.968390788,10.9868803275,0.010608111193621535,0.03482280923579086,0.16037132364875095,11.532744568949036,0.1644509699424754,0.028733484499999573,0.03834400150000006,0.12209279250000016
127012.0,-2.8188234759999995,2.092935243,10.96775736,-0.005379104754646523,0.04015129944212955,0.136655789772652,11.515982165150932,0.14253373808765513,0.08257199300000062,0.12454445499999989,-0.019122967499999532
127022.0,-2.7110483924999995,2.2592560269999997,10.899503075999998,-0.05467592947722636,0.06679898646157897,0.13212666036372672,11.456578393470979,0.1578259048298613,0.10777508349999998,0.16632078399999983,-0.06825428400000177
127032.0,-2.660740278,2.3371208279999998,10.8240899375,-0.10423629891685735,0.10703406170780426,0.15184364492350666,11.3887047361292,0.21302109961506266,0.0503081144999995,0.07786480100000004,-0.07541313849999831
127042.0,-2.6595634799999996,2.3227050525,10.747500000999999,-0.14553951566530315,0.1347463995709702,0.18355278677373965,11.312691675129916,0.2702405749509805,0.0011767980000003675,-0.014415775499999839,-0.07658993650000134
127052.0,-2.7912667895,2.2425847219999997,10.737889483999998,-0.17511586516959907,0.13527872499282848,0.20780239140094886,11.319126604827389,0.3035584516064998,-0.1317033095000002,-0.08012033050000023,-0.009610517000000485
127062.0,-2.9277753575,2.0557680395,10.745146404999998,-0.19670035202901293,0.10090621070405217,0.2181940817673231,11.325026359399713,0.31061511419323024,-0.136508568,-0.1868166824999995,0.00725692099999975
127072.0,-3.0115241484999995,1.9731960464999998,10.675715322999999,-0.2220128621706867,0.032424726843550654,0.2112651246369056,11.266484722070981,0.30817856312200964,-0.08374879099999966,-0.0825719930000004,-0.06943108199999948
127082.0,-3.019859801,2.028211353,10.509296472499999,-0.22307925834365522,-0.0573724631715576,0.19474558326677927,11.121083888589043,0.3016318902825844,-0.008335652500000457,0.055015306500000305,-0.1664188504999995
127092.0,-2.968472955,2.1120582105,10.2782517985,-0.1932358734638042,-0.14610500234294932,0.190214708528602,10.904819191645286,0.3080071587537757,0.051386845999999764,0.08384685749999976,-0.23104467399999962
127102.0,-2.834317983,2.2173816315,10.0723121485,-0.17111906118253203,-0.20472712125893486,0.20806768144725202,10.695868910251821,0.3383594055760781,0.13415497200000015,0.10532342100000003,-0.20593964999999947
127112.0,-2.7301713599999995,2.328687109,9.901186106,-0.16818865336843355,-0.2151188116253091,0.23924449787562674,10.5313866899015,0.36304470248267373,0.10414662300000055,0.1113054775000002,-0.1711260424999992
127122.0,-2.727817764,2.4448959114999997,9.786252167999999,-0.16658993177360676,-0.19433543089256064,0.2770814907296118,10.449365400221588,0.3772169370183106,0.0023535959999994027,0.11620880249999965,-0.11493393800000185
127132.0,-2.799602442,2.3778184254999997,9.847249531,-0.1753829005451542,-0.14610500234294932,0.30639255018760453,10.510000838424293,0.38207620748186927,-0.07178467799999977,-0.06707748600000007,0.06099736300000025
127142.0,-2.8786440410000003,2.2006122599999998,9.9789528405,-0.20069715601607996,-0.10906737028637765,0.3095899933772581,10.616439404365765,0.38473497851567806,-0.0790415990000004,-0.1772061654999999,0.13170330950000064
127152.0,-2.9959315749999997,2.1048993559999998,10.174105175499998,-0.23640310185337995,-0.0930784090088576,0.28933893806636796,10.812891538488076,0.3850545907671966,-0.11728753399999947,-0.09571290399999999,0.19515233499999773
127162.0,-3.0797784325,2.0318398135,10.290215911499999,-0.28330009885446755,-0.11732801363606682,0.25256659605609943,10.931694824056498,0.3972589762838608,-0.0838468575000002,-0.0730595424999998,0.11611073600000132
127172.0,-3.0893889494999995,1.9540730789999998,10.400344591,-0.3472507079767918,-0.1676894892023632,0.2096664030420788,11.024059746341553,0.43893373024174853,-0.009610516999999597,-0.07776673450000016,0.11012867950000071
127182.0,-3.041434431,1.9396573034999998,10.444670648999999,-0.4271902783766361,-0.22870794518133694,0.1638358022139597,11.05005605502412,0.511508580784007,0.047954518499999654,-0.014415775500000061,0.044326057999999335
127192.0,-2.841574904,1.9743728445,10.412308703999999,-0.5241817155684649,-0.27933645612318847,0.12546473860886437,10.972186136387577,0.607072258705627,0.1998595270000001,0.03471554100000018,-0.03236194499999989
127202.0,-2.6320067935,2.058219702,10.340524026,-0.6678048597150783,-0.2750726167605663,0.11107624425542313,10.866929890038602,0.7307299139822259,0.2095681104999998,0.0838468575000002,-0.07178467799999844
127212.0,-2.5362938895,2.0306630155,10.20283866,-0.8458022634797201,-0.22817561975947867,0.11613769908620668,10.707674616760876,0.883704445790038,0.09571290399999999,-0.027556686500000094,-0.13768536600000125
127222.0,-2.5051087425,1.7768669134999997,10.055542777,-1.0158060592702276,-0.19593415248738744,0.13079322881520306,10.514122235361247,1.0427650794234367,0.03118514699999997,-0.25379610200000036,-0.14729588299999996
127232.0,-2.5314886309999998,1.4380471559999999,9.889221993,-1.1381117519329824,-0.20392776046152147,0.13878858211858908,10.308885775805106,1.1645373166632758,-0.026379888499999726,-0.3388197574999998,-0.16632078399999983
127242.0,-2.554240059,1.032247979,9.6665129715,-1.2044604434475468,-0.27454029133870805,0.14038730371341587,10.051425331629721,1.243304438358573,-0.022751428000000296,-0.4057991769999998,-0.22270902150000005
127252.0,-2.4955962919999997,0.8060085634999999,9.3170039655,-1.2319057459351577,-0.3880530152299152,0.14784684093643966,9.679060571678546,1.3000136914171214,0.0586437670000004,-0.22623941550000015,-0.3495090059999999
127262.0,-2.4584290885,0.7114724575,8.923168901499999,-1.224978534133992,-0.5058295784837445,0.1601042882731958,9.282941876671464,1.3349417046004568,0.03716720349999969,-0.09453610599999995,-0.393835064000001
127272.0,-2.4201831535,0.6085026325,8.5328642315,-1.1775474663817944,-0.5942950822795813,0.17662557497257414,8.890294367649291,1.3307897182268391,0.03824593499999995,-0.10296982499999996,-0.390304669999999
127282.0,-2.3507520715,0.3307783045,8.145011224,-1.101606445298269,-0.6310674242898496,0.18381982214929476,8.483905788460607,1.2827987298627606,0.06943108199999992,-0.277724328,-0.3878530075000004
127292.0,-2.320841789,0.093751574,7.927107460999999,-1.0347236830325943,-0.5950944430769947,0.17955598278667265,8.260395188212126,1.207075327957681,0.02991028249999994,-0.2370267305,-0.2179037629999998
127302.0,-2.3315310374999996,-0.0248108245,7.810996724999999,-0.992622850815987,-0.5188863866179142,0.15877260205392416,8.151584042000604,1.131261218880249,-0.010689248499999415,-0.1185623985,-0.11611073600000044
127312.0,-2.3160365305,-0.14445195449999998,7.705673303999999,-0.9681079561424747,-0.43148727899504613,0.12546473860886437,8.047502261307393,1.067312366327262,0.015494506999999658,-0.11964112999999998,-0.10532342099999958
127322.0,-2.2537643029999996,-0.146903617,7.632613761499999,-0.9459928891904545,-0.3318289787061699,0.08469559261152883,7.959763001396707,1.0060747292899774,0.06227222750000028,-0.002451662500000007,-0.07305954250000024
127332.0,-2.1795279625,-0.15641606749999998,7.633888626,-0.9220103199388004,-0.22630986278909673,0.04978900757164224,7.940469991106555,0.9506829804641703,0.07423634049999972,-0.009512450499999991,0.0012748645000009162
127342.0,-2.1089200824999996,-0.15406247149999996,7.728424732,-0.9009599038304968,-0.12372290001537403,0.027939230665925227,8.012479516210057,0.9098443300415056,0.07060788000000029,0.0023535960000000133,0.09453610599999962
127352.0,-2.0645940245,-0.2103526425,7.911612954,-0.8729822759210277,-0.04698077280518337,0.014083061734342244,8.179267464394867,0.874358953584535,0.04432605799999978,-0.05629017100000003,0.18318822200000007
127362.0,-2.101761228,-0.2797837245,8.088721052999999,-0.8466016242771335,-0.0107425015460251,0.007955210730590153,8.362002598974994,0.8467071494595491,-0.037167203500000134,-0.069431082,0.1771080989999989
127372.0,-2.1197073975,-0.38991240399999993,8.257493499499999,-0.8210203334306525,-0.0192684349420174,0.0018256143975860686,8.53413088885412,0.8212484358338974,-0.017946169500000053,-0.11012867949999994,0.16877244650000023
127382.0,-2.089797115,-0.5371102205,8.3341815025,-0.802102709668286,-0.06723182811607357,0.004223696789826277,8.608967457682775,0.8049265278170477,0.02991028249999994,-0.14719781650000008,0.076688003000001
127392.0,-2.082540194,-0.5730025595,8.3736042355,-0.7805182228088721,-0.13944308058808697,0.01301666556137371,8.647690644652053,0.7929832926631888,0.007256921000000194,-0.035892338999999995,0.03942273300000032
127402.0,-2.0478246529999997,-0.6508673604999999,8.33172984,-0.7592025166542654,-0.21938265098793122,0.027139869868511822,8.604355656128192,0.7907299041930452,0.03471554100000018,-0.07786480099999993,-0.041874395500000716
127412.0,-1.9820220315,-0.7322625555,8.156975336999999,-0.7381521005459618,-0.29639006824442504,0.04259476039492161,8.426201186297716,0.7965738570323856,0.06580262149999982,-0.08139519500000003,-0.17475450300000084
127422.0,-1.954465345,-0.8531785499999999,7.9307359215,-0.6960495230001026,-0.3512806732196467,0.050323078322752506,8.212455216289252,0.7812908946469276,0.027556686499999872,-0.1209159944999999,-0.2262394154999985
127432.0,-1.8718933519999998,-1.0315615135,7.698514449499999,-0.6299678668610932,-0.38085876805319463,0.05005604294719737,7.989695151040275,0.7378472212565721,0.08257199300000018,-0.17838296350000016,-0.23222147200000087
127442.0,-1.792851753,-1.083046426,7.530918800999999,-0.5505623672123592,-0.37259812470350545,0.044460517365303556,7.816779704991168,0.6662769846898782,0.07904159899999974,-0.05148491249999987,-0.16759564849999986
127452.0,-1.7461720989999998,-1.1967054995,7.479433888499999,-0.4823479187274129,-0.3163740881797601,0.04259476039492161,7.773233068955403,0.5784171435783542,0.04667965400000029,-0.11365907350000004,-0.05148491250000031
127462.0,-1.7066512994999998,-1.3068341789999998,7.4003922895,-0.4378490041185655,-0.24629562805368382,0.03886499178340973,7.706249429390324,0.5038688067268132,0.03952079949999998,-0.11012867949999983,-0.07904159899999907
127472.0,-1.7245974689999999,-1.43373223,7.3968618955,-0.4005425913571867,-0.1762154225983555,0.03566754859375612,7.729384868055273,0.4390426137350852,-0.017946169500000053,-0.12689805100000018,-0.0035303940000002143
127482.0,-1.758136212,-1.524737942,7.3884281765,-0.36403728472247326,-0.1141305704464132,0.02580818364924015,7.7462726295308775,0.3823806926634864,-0.03353874300000004,-0.09100571200000007,-0.008433719000000117
