timestamp,ax,ay,az,gx,gy,gz,acc_mag,gyro_mag,dax,day,daz
74712.0,-1.5762228545,0.349901272,12.1277859885,-0.022167426829579978,-0.3137107157412168,0.07030709825808758,12.234790654933668,0.3222559480422102,0.0,0.0,0.0
74722.0,-1.6946871864999997,0.3762811605,11.579496186999998,0.02473131550075965,-0.4165647138904946,0.06764198049029224,11.708897647369799,0.4227448832921775,-0.11846433199999962,0.026379888500000004,-0.5482898015000011
74732.0,-1.5450377075,0.474445727,11.777002117999999,0.0460470216553664,-0.47971596221540547,0.04472580741160669,11.887389080569452,0.4839918702377161,0.1496494789999998,0.0981645665,0.19750593100000025
74742.0,-1.4349090279999999,0.5653533725,11.785435837,0.058571504367677704,-0.506628939281158,0.024209462054413346,11.885919662460996,0.5105777132758619,0.11012867950000005,0.09090764549999997,0.008433719000001005
74752.0,-1.214651669,0.6755801185,11.7578791505,0.06469935537142979,-0.4989023666825791,0.009019861574306696,11.839742788223045,0.5031609444002751,0.22025735899999987,0.11022674600000004,-0.02755668649999876
74762.0,-0.9058402604999999,0.8036549674999999,11.693253326999999,0.06363470452771325,-0.4400132123910384,0.011684979342102036,11.755789265452433,0.44474435515387467,0.3088114085000001,0.12807484899999988,-0.0646258235000019
74772.0,-0.643708506,1.0287175849999999,11.717181553,0.05937086516509111,-0.3294308963139297,0.043661156567890144,11.779854161081472,0.337573564826241,0.2621317544999999,0.2250626175,0.023928226000000663
74782.0,-0.6256642699999999,1.1770921994999999,11.926651597,0.04338364921682305,-0.18154565813394616,0.0953543183534582,12.00091747080618,0.20960298908963262,0.018044236000000047,0.1483746145,0.2094700439999997
74792.0,-0.7538371854999999,1.1064843195,12.380307226,0.005811946409141118,-0.06403438492641995,0.14784684093643966,12.452493126345814,0.16122304285942668,-0.12817291549999998,-0.07060787999999985,0.453655629
74802.0,-0.9285916885,0.8874037585,12.8101326955,-0.03842167815340317,-0.0008831366015091308,0.17929069274036952,12.874364746692137,0.18336345815265978,-0.17475450300000006,-0.21908056100000006,0.4298254695000008
74812.0,-1.0769663029999998,0.5953617215,13.1033515305,-0.06373418829507693,-0.005946336761544681,0.17795726119184582,13.161008066598912,0.18911951905981797,-0.1483746144999999,-0.292042037,0.29321883499999934
74822.0,-1.1571847,0.45885315349999994,13.209949816,-0.03922103895081657,-0.06003758093935294,0.16170300986802266,13.268473792702363,0.17689167425802907,-0.08021839700000011,-0.13650856800000005,0.1065982855000005
74832.0,-1.0794179655,0.43374812949999997,13.153659645,0.026330037095586456,-0.10666928789413743,0.1457157939197546,13.205000667951154,0.18249575455599432,0.07776673449999993,-0.025105023999999976,-0.056290171000000555
74842.0,-0.960855567,0.44571224249999997,13.074716112499999,0.08548448143343026,-0.08082270700135341,0.14278538610565608,13.11754947565346,0.185006953972845,0.11856239850000005,0.011964112999999998,-0.0789435325000003
74852.0,-0.8950529455,0.5031792115,12.939384342499999,0.08521744605787514,0.017502161738999135,0.15584219423982568,12.980060718543196,0.1784800500998599,0.06580262149999994,0.057466969000000034,-0.13533177000000052
74862.0,-0.9393790034999999,0.5067096055,12.9872407945,0.03805341368123236,0.16405745902896302,0.17902365736481438,13.031024940151394,0.2457893041857382,-0.04432605799999989,0.0035303939999999923,0.047856452000001326
74872.0,-1.1524775079999998,0.39422733,13.038725707,-0.004314453910929983,0.2863631516917176,0.21153216001246072,13.095494937441176,0.35604539581196737,-0.2130985044999999,-0.1124822755,0.051484912499999425
74882.0,-1.3355676635,0.299691224,13.0782465065,-0.008576547944300135,0.32180206215346246,0.24190961564342206,13.149680129125153,0.4026790117719199,-0.18309015550000018,-0.09453610600000001,0.03952079949999998
74892.0,-1.4445195449999997,0.26497568299999996,13.169252218499999,0.039652135276059174,0.2922257126491666,0.27761556148072203,13.250888755964088,0.4050167390880539,-0.10895188149999968,-0.034715541000000016,0.0910057119999994
74902.0,-1.3822473174999999,0.382263217,13.2973270675,0.09907361498945812,0.24612807644549234,0.32184744071401433,13.37443979962807,0.41710956150152984,0.06227222749999983,0.11728753400000003,0.12807484900000077
74912.0,-1.4481480054999998,0.7269669645,13.405102151,0.11346210934289937,0.24079784090990167,0.3775374064866494,13.502680374357263,0.4619434421442477,-0.06590068799999993,0.3447037475,0.10777508349999998
74922.0,-1.585735305,0.8515114195,13.460117457499999,0.05883853974323284,0.2570520922337248,0.4313633606181545,13.579925998500824,0.5055809537202122,-0.13758729950000026,0.124544455,0.05501530649999964
74932.0,-1.707926164,0.755700449,13.393138038,-0.029893999428158877,0.27410570435496145,0.46600291028248597,13.522730547312442,0.5414668048490942,-0.12219085900000004,-0.09581097049999998,-0.06697941949999908
74942.0,-1.8240368999999999,0.69823348,13.254275874,-0.10743548743576295,0.28529675551874906,0.4726648320373484,13.397405328990123,0.5624488119953491,-0.11611073599999977,-0.057466969000000034,-0.13886216400000073
74952.0,-1.8647344975,0.559371316,13.051964684499998,-0.172984818152914,0.2959554812606785,0.46387186326580093,13.19635984431939,0.5767932902949916,-0.04069759750000013,-0.13886216399999995,-0.20231118950000138
74962.0,-1.882680667,0.6013437779999999,12.7862044695,-0.22014885052955674,0.2940914696195485,0.4542795336968401,12.938049527231554,0.584230437095064,-0.017946169500000053,0.04197246199999993,-0.26576021499999847
74972.0,-1.7988338095,0.752170055,12.483277050999998,-0.24972520003385265,0.2892935595058161,0.45934273385687563,12.634625787804804,0.5975359288365858,0.08384685749999998,0.15082627700000006,-0.30292741850000127
74982.0,-1.6372202174999997,0.90417313,12.179270900999999,-0.2915607422041568,0.33006270550315164,0.4846569893278014,12.322039553967926,0.6548598729980236,0.16161359200000036,0.152003075,-0.3040061499999993
74992.0,-1.650459195,1.1209000949999999,11.948226227,-0.35684303754575264,0.4265218172731222,0.5366154411596725,12.113651082514375,0.7727961864203499,-0.01323897750000036,0.21672696499999988,-0.23104467399999962
75002.0,-1.9293603209999999,1.0250891245,11.822504974,-0.43864836491597886,0.531241572392782,0.586976916725969,12.022681182734246,0.905081154952937,-0.27890112599999983,-0.09581097049999987,-0.12572125300000003
75012.0,-2.2537643029999996,0.7616825054999999,11.744640172999999,-0.510325546636882,0.59652561306363,0.5923071522615597,11.983162627866955,0.9834138158534129,-0.32440398199999976,-0.26340661900000006,-0.07786480100000048
75022.0,-2.6153354884999995,0.467188806,11.5746909285,-0.532175323542599,0.574942871533468,0.5592663241920549,11.875677462282287,0.9625739981373445,-0.3615711854999999,-0.29449369949999993,-0.16994924449999793
75032.0,-2.857069411,0.23859579449999999,11.2383228335,-0.49407129531305877,0.48860841475431654,0.5123675818617154,11.598261666404687,0.8633453345932157,-0.24173392250000036,-0.22859301150000003,-0.336368095000001
75042.0,-3.063009061,0.045895122,10.8792033105,-0.40427410529795055,0.3652363259185934,0.4566776160890803,11.302265062419375,0.7109075685500731,-0.20593964999999992,-0.1927006725,-0.3591195230000004
75052.0,-2.9851442599999998,-0.0954187045,10.552347666000001,-0.26358136896543566,0.21734934240935785,0.4047174189279571,10.966869756056878,0.5296338960972767,0.07786480100000004,-0.14131382650000002,-0.3268556444999984
75062.0,-2.414201097,-0.0295180165,10.27344654,-0.11969118944326713,0.13234831717873002,0.3711425201073422,10.553337958214552,0.4118116415571744,0.5709431629999999,0.06590068800000001,-0.27890112600000094
75072.0,-2.1304947125,0.3558833285,10.020827236,-0.07412762399070318,0.21974742480159806,0.3823353166003818,10.25098235084102,0.4471734894482848,0.28370638449999985,0.385401345,-0.25261930399999954
75082.0,-2.117255735,0.558194518,9.880788274,-0.13301503295299183,0.3814905772424166,0.4199052740788118,10.120490594972734,0.5827079017101447,0.013238977499999915,0.2023111895,-0.1400389620000002
75092.0,-2.2118899075,0.455224693,9.9897401555,-0.21215524255542273,0.5578892594122314,0.4377582469974618,10.241806230271418,0.7401908912743854,-0.09463417249999972,-0.10296982499999996,0.10895188149999946
75102.0,-2.4848089769999997,0.17396997099999997,10.338072363499998,-0.2673128829061995,0.7148345017393176,0.3940586931860277,10.633921261508004,0.8589102374055173,-0.2729190694999999,-0.281254722,0.34833220799999864
75112.0,-2.6547582215,-0.11699333449999999,10.7319074275,-0.31634092692397225,0.7649306872593108,0.28774021647154113,11.056005865020555,0.8763475169892414,-0.16994924450000015,-0.29096330549999994,0.393835064000001
75122.0,-2.6272996015,-0.2127062385,10.984526731499999,-0.3789598498270248,0.7468106789651057,0.17449452795588907,11.296361124493892,0.855444386435373,0.02745861999999999,-0.09571290400000002,0.25261930399999954
75132.0,-2.634458456,-0.2030957215,11.024047530999999,-0.43065301161259284,0.6703355871304701,0.10068455388904887,11.336279953945592,0.8030872898859656,-0.007158854500000089,0.009610517000000013,0.03952079949999998
75142.0,-2.565027374,-0.18642441649999997,10.952164786500001,-0.45783302405390053,0.5400362864935815,0.06311285108136695,11.25006813326423,0.7107977916508575,0.06943108199999992,0.016671305000000025,-0.0718827444999981
75152.0,-2.5147192594999996,-0.070215614,10.6852277735,-0.4402470865108057,0.3905505813895191,0.06551093347360716,10.977378364533372,0.5921477317439691,0.05030811450000039,0.11620880249999997,-0.2669370130000015
75162.0,-2.4811805165,0.1020872265,10.354841735,-0.38002624599999335,0.2805005907342687,0.10015048313793862,10.64844711280342,0.48283604704276556,0.033538742999999815,0.1723028405,-0.3303860384999986
75172.0,-2.4955962919999997,0.18230562349999999,10.074763810999999,-0.3024847579923892,0.279168904514997,0.16889725704474326,10.380852664422084,0.4449253752069619,-0.014415775499999839,0.08021839699999998,-0.2800779240000022
75182.0,-2.776851014,0.1116977435,10.1633178605,-0.26891160450102636,0.40413971494554696,0.2531006668072097,10.5364324072911,0.5474507354729177,-0.28125472200000035,-0.07060787999999998,0.08855404950000079
75192.0,-3.2676738464999997,-0.1995653275,10.548817271999999,-0.30328411878980266,0.5656158320108104,0.29999766380829734,11.045137596475916,0.708449803741821,-0.4908228324999997,-0.311263071,0.38549941149999967
75202.0,-3.7489842285,-0.5382870184999999,11.014437013999999,-0.3816249675948201,0.6503515671951351,0.2856091694548561,11.647422822032373,0.8063295694203508,-0.4813103820000002,-0.33872169099999994,0.46561974199999945
75212.0,-4.0888827175,-0.5802594805,11.255092204999999,-0.4650272712306212,0.6332979550738984,0.2056695990550118,11.988859974377549,0.8121678686481192,-0.33989848899999986,-0.041972462000000044,0.2406551910000001
75222.0,-4.136837236,-0.368337774,11.2610742615,-0.528178519555532,0.5235149997942031,0.08336390639225716,12.00253675503346,0.7483248254724515,-0.0479545185000001,0.21192170649999997,0.00598205650000061
75232.0,-3.8566612455,-0.09659550249999999,11.110247984499999,-0.5641515007683872,0.35910672958558926,-0.04107457861643456,11.760985372439299,0.6700087164070321,0.2801759905000001,0.2717422715,-0.15082627700000018
75242.0,-3.3335745345,0.26497568299999996,10.748676799,-0.589731046285616,0.1867065967320934,-0.11728263507551497,11.256863871390161,0.6296008868375776,0.5230867109999999,0.36157118549999995,-0.361571185499999
75252.0,-2.7445871354999998,0.570158631,10.200386997499999,-0.6227736196843726,0.0670642765078821,-0.12127943906258197,10.578550671411605,0.6380072890630919,0.5889873990000001,0.305182948,-0.5482898015000011
75262.0,-2.2501358424999998,0.7653109659999999,9.658177318999998,-0.6504859575475386,0.00764279679448317,-0.05599539839173407,9.946315966709937,0.6529363506119329,0.494451293,0.19515233499999995,-0.5422096785000008
75272.0,-2.0730277435,0.952029582,9.277483166,-0.6222395489332624,-0.0379207686580808,0.06924070208511904,9.553821133229215,0.6272274832766257,0.1771080989999998,0.18671861600000006,-0.38069415299999854
75282.0,-2.205907851,0.9185889054999999,8.951804319499999,-0.5161881075943309,-0.1623592536667725,0.23498065851300456,9.26523802171482,0.5899377929479117,-0.13288010750000012,-0.033440676500000044,-0.3256788465000007
75292.0,-2.298090361,0.5510356634999999,8.7782266145,-0.3688351948362057,-0.33023025711134313,0.38206828122482667,9.09077126020043,0.6253539759046702,-0.09218250999999977,-0.36755324200000006,-0.17357770499999958
75302.0,-2.302797553,0.1116977435,8.640639315,-0.2228122229681001,-0.510625743268225,0.4678686672528679,8.942930209273102,0.7275197771807914,-0.004707192000000138,-0.4393379199999999,-0.13758729949999982
75312.0,-2.3160365305,-0.0607031635,8.456274294999998,-0.09091420073638462,-0.6683720917219764,0.49904548368124263,8.767912239350203,0.839066767111528,-0.013238977499999915,-0.172400907,-0.18436502000000132
75322.0,-2.2728872705,-0.042756994,8.237193734,-0.001117010721276371,-0.7520414307333326,0.4947816443186205,8.545127577537137,0.9002091072673211,0.043149259999999856,0.017946169499999998,-0.2190805609999984
75332.0,-2.2369949315,-0.008041452999999999,8.0684212875,0.048179814001303466,-0.762700156475262,0.46973442422324985,8.372791234773873,0.8970413883790075,0.035892339000000106,0.034715541,-0.16877244650000023
75342.0,-2.1639353889999997,0.024320492,7.867286895999999,0.07749087345929623,-0.720864614304958,0.42949760364777256,8.159498205041226,0.84268548057131,0.07305954250000024,0.032361944999999996,-0.201134391500001
75352.0,-2.0981327675,0.19554460099999998,7.5824037135,0.08788256382567049,-0.6510514442251848,0.37087723006103906,7.86976777773881,0.7544145066407597,0.0658026214999996,0.17122410899999999,-0.2848831824999989
75362.0,-1.8790522065,0.432473265,7.3896049745,0.08175296749266639,-0.5332748809713554,0.3074589463605731,7.637023765764215,0.6209642904918318,0.21908056100000017,0.236928664,-0.19279873899999966
75372.0,-1.7245974689999999,0.547407203,7.372835603,0.0694972654851622,-0.3845885366647065,0.2672221257850958,7.59161352446513,0.4734404682248033,0.15445473750000005,0.11493393800000001,-0.016769371499999686
75382.0,-1.6672285665,0.590556463,7.479433888499999,0.052176617988370484,-0.24123242789364827,0.24963618824200096,7.685723083834528,0.351046592651409,0.05736890249999993,0.04314925999999997,0.10659828549999872
75392.0,-1.7222438729999998,0.485233042,7.7033197079999995,0.023132593905932843,-0.1407765121366106,0.2312508899014927,7.90839488055546,0.27171698023936297,-0.05501530649999986,-0.10532342099999997,0.22388581950000042
75402.0,-1.7533309535,0.33440676499999994,7.912789752,-0.013906783479890817,-0.11786033905792509,0.20407087746018499,8.111611367437126,0.23607071223888715,-0.031087080500000086,-0.15082627700000006,0.20947004400000058
75412.0,-1.7629414705,0.230260142,8.0348825445,-0.06027145505912018,-0.14663907309405957,0.17182941018809375,8.22923567929084,0.23379694664049114,-0.00961051700000004,-0.10414662299999994,0.12209279250000016
75422.0,-1.723420671,0.19073934249999996,7.9785923735,-0.11969118944326713,-0.20286136428855292,0.13905387216489223,8.164832917364555,0.27352274734545795,0.03952079949999998,-0.03952079950000004,-0.056290171000000555
75432.0,-1.7054745015,0.18230562349999999,7.7128321584999995,-0.1716513866043903,-0.2713428481490544,0.12386601701403757,7.901244112215377,0.3441423105864382,0.017946169500000053,-0.008433718999999978,-0.26576021500000024
75442.0,-1.6576180495000001,0.11287454149999998,7.362146354499999,-0.19030372032045373,-0.3288985708920714,0.11880281685400201,7.5472933694950965,0.39812546413800004,0.04785645199999977,-0.069431082,-0.35068580400000027
75452.0,-1.675564219,0.16073099349999997,7.0173445405,-0.16898801416584697,-0.3368921788662054,0.12093560919993909,7.216403141756268,0.39582661694926,-0.01794616949999983,0.047856451999999994,-0.3448018139999993
75462.0,-1.8072675285,0.14876688049999998,6.841315173,-0.12049055024068053,-0.29878815063666525,0.12120089924624224,7.0775660223430075,0.3442121288337735,-0.13170330949999998,-0.011964112999999998,-0.17602936749999998
75472.0,-1.9233782645,-0.06187996149999999,6.852102488,-0.07572634558552997,-0.2633492401749204,0.10094984393535202,7.117198998485433,0.2920242673255409,-0.11611073599999999,-0.21064684199999997,0.010787314999999964
75482.0,-1.8850342629999999,-0.277332062,6.884464433,-0.05174377633387589,-0.2534898752304044,0.03992964262712627,7.143256804465253,0.2617802735004037,0.03834400150000006,-0.2154521005,0.03236194499999989
75492.0,-1.697138849,-0.32283491799999997,6.8665182635,-0.04881336851977741,-0.21805096476865957,-0.04214097478940308,7.080506741755435,0.22738696079369175,0.18789541399999998,-0.04550285599999998,-0.017946169500000053
75502.0,-1.5438609094999998,-0.18877801249999998,6.75874318,-0.06773099228214395,-0.1282520294242993,-0.1090219917258258,6.935398547962628,0.18144383441396184,0.15327793950000013,0.1340569055,-0.10777508349999998
75512.0,-1.3152678979999999,-0.07266727649999999,6.6917637605,-0.08744972217117589,0.016437510895282594,-0.14286218059274383,6.820184191275509,0.16830700614045196,0.2285930114999999,0.11611073599999999,-0.06697941949999997
75522.0,-1.2074928145,0.037461403,6.654596557,-0.09650972631827845,0.19842997331773932,-0.13486857261860982,6.763364369174568,0.2586080305502692,0.10777508349999998,0.11012867949999999,-0.037167203500000134
75532.0,-1.3033037849999998,0.13209557549999998,6.817386947,-0.07785739260221504,0.36736737293527844,-0.09143605418273093,6.942104492312686,0.38649852817920366,-0.09581097049999987,0.09463417249999997,0.1627903900000005
75542.0,-1.5870101694999998,0.10934414749999999,7.152578244,-0.014971434323607358,0.479548410607214,-0.032281609844887114,7.327341465854518,0.4808668467422023,-0.2837063845000001,-0.02275142799999999,0.3351912969999997
75552.0,-1.9329887815,-0.030792880999999998,7.5943678265,0.063100633776603,0.4899401009735882,0.016215854080279316,7.836569180138938,0.4942529174912088,-0.34597861200000013,-0.14013702849999998,0.4417895825000002
75562.0,-2.186686817,-0.2342808685,8.0719516815,0.13611124704602978,0.40866884435447226,0.03593283864005926,8.36617539318041,0.43223565888433796,-0.25369803550000003,-0.2034879875,0.4775838549999998
75572.0,-2.2813209894999997,-0.3527452005,8.422735551999999,0.18940487575567663,0.2754391359034851,0.03593283864005926,8.733345797146347,0.33620245900352125,-0.09463417249999972,-0.11846433200000003,0.35078387049999904
75582.0,-2.2944619005,-0.30724234449999993,8.5544388615,0.20512505632838957,0.15126768627034853,0.02554114827368502,8.862131657013528,0.25614556778997355,-0.013140911000000255,0.04550285600000009,0.13170330950000064
75592.0,-2.197474132,-0.22113995749999998,8.5675797725,0.1680874242718179,0.0971746967632883,0.013283700936928843,8.847667410101003,0.19460925106467294,0.09698776850000002,0.08610238699999995,0.013140911000000699
75602.0,-2.117255735,-0.160044528,8.457451093,0.0780231988811545,0.12648575622128105,0.002092649773141201,8.719911988593694,0.1486292207931891,0.08021839699999989,0.06109542949999999,-0.11012867950000071
75612.0,-2.19865093,-0.11699333449999999,8.2084602495,-0.02536487001923359,0.1827097927450264,-0.002436479635784084,8.49862183062224,0.18447813265815197,-0.08139519499999981,0.0430511935,-0.24899084349999967
75622.0,-2.348300409,-0.081002929,8.030077286,-0.0650676198436006,0.22747574272942894,-0.01123119373658351,8.366792545805666,0.23686525366791422,-0.14964947900000025,0.03599040549999999,-0.1783829635000007
75632.0,-2.4692164035,-0.100223963,7.947505293,-0.01443910890174909,0.2325371975602125,-0.02002416250813094,8.322854971242496,0.23384397191115683,-0.12091599449999979,-0.019221033999999998,-0.08257199299999929
