timestamp,ax,ay,az,gx,gy,gz,acc_mag,gyro_mag,dax,day,daz
70692.0,-0.5399541489999999,2.053316377,9.702895643,0.07698821863472187,-0.06047216792309953,-0.07937059306369414,9.93246406920393,0.12603078967121414,0.0,0.0,0.0
70702.0,-0.64527757,2.691337026,9.5904133675,0.08338485034328108,-0.04448495197483147,-0.0985552522016158,9.98176871548256,0.13654699540999993,-0.10532342100000003,0.638020649,-0.11248227549999967
70712.0,-0.6045799725,2.8098994244999997,9.5113717685,0.07938804635621408,-0.03968878719035106,-0.0916280404004503,9.936158444669264,0.1275670785137134,0.040697597500000016,0.11856239849999994,-0.07904159899999996
70722.0,-0.4310022675,2.6171006854999996,9.396437830499998,0.08498357193810789,-0.01837133570649231,-0.0636486671617292,9.763607061690173,0.10775372989583602,0.17357770499999997,-0.1927987390000001,-0.11493393800000185
70732.0,-0.3496070725,2.436364126,9.38692538,0.11909079618058109,0.03652101459798134,-0.061250584769489,9.704249757157422,0.13880935262724567,0.08139519499999998,-0.18073655949999967,-0.009512450499999048
70742.0,-0.4549304935,2.5202109834999997,9.6239521105,0.17105099334170426,0.11512715344930197,-0.0697782634947333,9.958859341333604,0.2176734017762926,-0.10532342099999997,0.08384685749999976,0.23702673050000023
70752.0,-0.573492892,2.6722140585,10.127915853999998,0.20942031161754762,0.15163246008401537,-0.08310036167520601,10.49020026583497,0.27157860736750106,-0.1185623985,0.1520030750000001,0.5039637434999982
70762.0,-0.566235971,2.6973190825,10.744361872999999,0.23686735943441045,0.13670989497946384,-0.09535780901196218,11.092225451443412,0.28963572481703304,0.007256920999999972,0.025105024000000142,0.6164460190000014
70772.0,-0.5315204299999999,2.68898343,11.286669618,0.24699201442522956,0.1084652316944396,-0.09216036582230858,11.614734474804244,0.28506717577592655,0.03471554100000007,-0.008335652500000013,0.5423077450000005
70782.0,-0.6273314004999999,2.864914731,11.5715528005,0.21581519799685484,0.07515736824937981,-0.053789302217213245,11.937424986851791,0.2347724828884536,-0.09581097049999998,0.17593130099999987,0.2848831824999998
70792.0,-0.7889449924999999,3.0205462665,11.727184335999999,0.12548568255988832,0.06183352473965511,0.006164502918043972,12.135608200654042,0.14002871993086694,-0.16161359200000003,0.15563153549999997,0.15563153549999953
70802.0,-1.0151844079999999,3.0026000969999997,11.766705135499999,-0.0026825710603152844,0.0578367207525881,0.06451958645847437,12.186121469546936,0.08668944279252835,-0.22623941549999993,-0.017946169500000053,0.03952079949999998
70812.0,-1.2965371964999999,2.83019919,11.781120911,-0.08395382767943124,0.02479589268308344,0.0948952967601837,12.18547685060319,0.1291053787538767,-0.2813527885,-0.17240090699999966,0.014415775500001615
70822.0,-1.6232947745,2.653091091,11.9020369055,-0.07036469412340339,-0.04368559117741807,0.08716872416160479,12.301725926143314,0.12024145511246348,-0.32675757800000005,-0.17710809900000024,0.1209159944999989
70832.0,-1.8423753354999999,2.469902869,12.1103301515,0.004244640740850209,-0.11216532970866758,0.042669809552757364,12.496193958061117,0.1200824333986515,-0.21908056099999995,-0.18318822200000007,0.2082932460000002
70842.0,-1.7681389949999997,2.293971568,12.769925430499999,0.11269416447202187,-0.11722852986870314,-0.04153360020970906,13.094258916065565,0.16783188870892352,0.07423634050000016,-0.17593130099999987,0.6595952789999995
70852.0,-1.6664440344999998,2.3346691655,13.481005621999998,0.1976969350319017,-0.15426616192527481,-0.1459863199538137,13.78278739634522,0.29016225193815326,0.10169496049999993,0.040697597499999905,0.7110801914999989
70862.0,-1.498848386,2.714088454,14.220819298,0.22061310811058724,-0.2390018971095995,-0.2485732827275364,14.554879735907136,0.4093662506584354,0.16759564849999986,0.3794192885000003,0.7398136760000025
70872.0,-1.2773161625,3.0229979289999998,14.857663149,0.16412203621128676,-0.3735650371091103,-0.3058637154242503,15.215788093519002,0.509940675111916,0.2215322234999999,0.30890947499999966,0.6368438510000001
70882.0,-0.9733100125,3.1738242059999995,15.1294054205,0.02796017461694916,-0.5600883742697442,-0.301332840686073,15.489331839975508,0.6366178125317211,0.30400615,0.15082627699999973,0.2717422714999991
70892.0,-0.6560648849999999,3.256396199,15.109007588499997,-0.17135468063155126,-0.7375534526125277,-0.2664262556461864,15.46986256071922,0.8027019818915662,0.3172451275000001,0.08257199300000062,-0.020397832000002225
70902.0,-0.42619700899999996,3.293465336,14.861193542999999,-0.3634735433740791,-0.8675874632031133,-0.22565885497810284,15.227725743932316,0.9673380701027694,0.22986787599999997,0.03706913700000003,-0.24781404549999841
70912.0,-0.12454445499999998,3.24207849,14.406361115999998,-0.4777856280626997,-0.9328697585447092,-0.19101755998451939,14.767187439089023,1.0653697954292547,0.30165255399999996,-0.05138684600000021,-0.45483242700000126
70922.0,0.22378775299999998,3.0876237525,13.9167150815,-0.5193541348574486,-0.9011606166944762,-0.16490568904543224,14.256874133380167,1.0530968904874074,0.348332208,-0.15445473750000005,-0.489646034499998
70932.0,0.6104639625,2.908063991,13.497774993499998,-0.5316115821942048,-0.7804536456265484,-0.13932439819895134,13.82097797554196,0.9545313275258679,0.38667620950000003,-0.17955976149999975,-0.41894008800000115
70942.0,0.8798526379999999,2.8469685614999998,13.194847574999999,-0.5297458252238229,-0.6213756109535252,-0.10654886017574983,13.527134699641616,0.8234627792649084,0.2693886754999999,-0.06109542950000035,-0.3029274184999995
70952.0,1.0115559475,2.8841357649999995,12.947033529499999,-0.5180224486381769,-0.4452439641592654,-0.05592209456315031,13.302900501765468,0.6853588297918688,0.1317033095000001,0.03716720349999969,-0.2478140455000002
70962.0,0.9923349134999999,2.8733484499999995,12.864461536499999,-0.47991842040863675,-0.26191807018828506,0.010426596951414126,13.218745421550276,0.5468377087058497,-0.01922103400000008,-0.010787314999999964,-0.08257199300000018
70972.0,0.9336911465,2.768025029,12.846515366999999,-0.4186311837248559,-0.12229173002873868,0.0818402339552661,13.174471480586613,0.4437399679025416,-0.05864376699999996,-0.10532342099999958,-0.017946169500000053
70982.0,0.8331729839999998,2.7476271969999995,12.8524974235,-0.3693361043315281,-0.030894073089551628,0.1345997919138027,13.169294683316782,0.3943104179426292,-0.10051816250000012,-0.02039783200000045,0.00598205650000061
70992.0,0.670382594,2.7344862859999997,12.960272506999999,-0.34641993125284254,0.00907396678111852,0.17536719258188627,13.262559765232362,0.388384806443843,-0.16279038999999984,-0.01314091099999981,0.10777508349999998
71002.0,0.556625454,2.7954836489999995,13.0488265565,-0.34508824503357083,-0.018903661128350582,0.20467825203987902,13.356512839416084,0.40166706626571413,-0.11375714000000003,0.060997362999999805,0.08855404950000079
71012.0,0.5494665995,2.911594385,12.986554328999999,-0.37626331613269354,-0.08178961940695828,0.23425634687342692,13.320281106147807,0.4507101740147317,-0.007158854499999978,0.11611073600000044,-0.062272227500001165
71022.0,0.569766365,3.003776895,12.804640971499998,-0.4463435215880218,-0.12442277704542376,0.27875526148227436,13.164578981290575,0.5407476884049929,0.02029976550000001,0.09218251000000022,-0.18191335750000093
71032.0,0.6810718425,3.0289799854999995,12.394036536,-0.5622543278714692,-0.12735493018877422,0.3341799372086062,12.776960525215252,0.6663523376460333,0.11130547749999997,0.02520309049999936,-0.41060443549999803
71042.0,0.7277514964999999,3.033785244,11.946264896999999,-0.6954857816517084,-0.04634896361596142,0.3994622325502022,12.346931608163404,0.8033795952984824,0.04667965399999996,0.0048052585000006864,-0.44777163900000083
71052.0,0.5745716235,2.9977948385,11.539288921999999,-0.8135293802810929,0.08501673319389579,0.46794371641070365,11.936167528552058,0.9423530226150718,-0.1531798729999999,-0.03599040550000021,-0.40697597499999993
71062.0,0.256149698,2.8984534739999996,11.239989964,-0.9025272094987877,0.19479968847359108,0.532161360908583,11.610513321965954,1.065691323301054,-0.31842192550000004,-0.0993413645000003,-0.2992989579999996
71072.0,-0.2250626175,2.803917368,11.032873516,-0.9630133400559032,0.27367111737121486,0.5646698635562295,11.385820295807509,1.149409686933883,-0.4812123155,-0.09453610599999962,-0.20711644799999895
71082.0,-0.624879738,2.4147894959999996,10.762308042499999,-1.01817098040668,0.2904594394461483,0.5422860158994022,11.047576992201279,1.189585202642382,-0.39981712049999996,-0.38912787200000043,-0.2705654735000014
71092.0,-0.7625651039999999,1.9132774149999998,10.379260293499998,-1.085586068094213,0.2598166937688839,0.46208115545325473,10.581643551207595,1.2081062949203858,-0.13768536599999992,-0.5015120809999998,-0.38304774900000105
71102.0,-0.8105196225,1.4224545825000001,10.0058230615,-1.1420771399935135,0.24409476786691894,0.34856843156204753,10.138876379351807,1.2187790615519263,-0.0479545185000001,-0.4908228324999997,-0.3734372319999988
71112.0,-0.8535708160000001,1.174640537,9.7783087815,-1.1580643559417814,0.2329037167031313,0.22652802894559604,9.88552912875434,1.2027768461584893,-0.043051193500000084,-0.2478140455000002,-0.2275142799999994
71122.0,-0.8942684134999999,1.1219788265,9.5005844535,-1.1442081870101986,0.1745486331627009,0.11008489724029034,9.60831189338606,1.1626686050463984,-0.040697597499999794,-0.052661710500000014,-0.2777243279999997
71132.0,-0.9768404065,1.2284790454999999,9.273168239999999,-1.1130331159110758,0.06556503868041899,0.02481683663410737,9.405053277485905,1.1152387039519418,-0.08257199300000018,0.10650021899999995,-0.22741621350000152
71142.0,-0.9781152709999998,1.3302720725,9.1426417285,-1.0426858750801924,-0.07592705844950931,-0.0340723176574333,9.290545250196368,1.0460017567514364,-0.001274864499999806,0.10179302700000004,-0.1305265114999994
71152.0,-0.924178696,1.500221317,9.055264477,-0.9313041982056702,-0.2624503956101433,-0.06604674955396941,9.225106233021902,0.9698298267624438,0.05393657499999982,0.16994924450000015,-0.08737725149999953
71162.0,-0.7291244275,1.6415351435,9.0037795645,-0.8284502000563925,-0.46416333325088394,-0.06284930636431581,9.1811930871881,0.9516970995114589,0.19505426850000007,0.14131382650000002,-0.051484912499999425
71172.0,-0.44061278449999997,1.6331014245,8.9535695165,-0.76396726551221,-0.6544164390230298,-0.021547834945121993,9.111946387867238,1.0061665705183256,0.288511643,-0.008433719000000117,-0.050210048000000285
71182.0,-0.10659828549999999,1.6223141094999998,8.7248784385,-0.7450478964205913,-0.7868485320058556,0.03174404843527286,8.875064508551839,1.0840824068730104,0.33401449899999996,-0.010787315000000186,-0.22869107800000066
71192.0,0.15082627699999998,1.6020143439999999,8.3777230285,-0.767964069499277,-0.8270853525813329,0.07970744160932905,8.530852341148254,1.1314558182909231,0.25742456249999995,-0.0202997654999999,-0.34715540999999916
71202.0,0.34715541,1.5888734329999998,8.061654699,-0.8127300194836795,-0.7618013119104851,0.12287466999890478,8.224069075019631,1.1207004541472347,0.19632913300000002,-0.013140911000000033,-0.3160683295000002
71212.0,0.3794192885,1.4475596064999998,7.8354152835,-0.85749422413883,-0.6256394503161473,0.1663071884347837,7.9770370737361915,1.07442037729579,0.03226387850000001,-0.14131382650000002,-0.22623941550000026
71222.0,0.326757578,1.2991849919999998,7.634378958499999,-0.8939995307735434,-0.507862887062318,0.19561824789277646,7.7510253670211915,1.0466261854106405,-0.052661710500000014,-0.1483746145,-0.20103632500000046
71232.0,0.12689805099999998,1.233284304,7.4068646785,-0.9139852960381305,-0.43804971698254486,0.2038788912424656,7.509909297418396,1.0338390968698437,-0.199859527,-0.06590068799999971,-0.2275142799999994
71242.0,0.058643767,1.047742486,7.2776130315,-0.8958652877439255,-0.41380185768458755,0.18629295369937074,7.352880717421984,1.0042468102044226,-0.06825428399999998,-0.18554181800000014,-0.12925164700000025
71252.0,0.017946169499999998,0.8311135875,7.2536848055,-0.8364438080305264,-0.408738657524552,0.14872125089168883,7.30116532601943,0.9427743869104472,-0.0406975975,-0.2166288985,-0.023928225999999775
71262.0,0.015494507,0.7568772469999999,7.171014746,-0.7724931989082021,-0.4215284302831665,0.10315594010987285,7.2108637301035525,0.8860435135343913,-0.0024516624999999983,-0.07423634050000005,-0.08267005949999984
71272.0,0.0909076455,0.7329490209999999,7.0357810425,-0.7341221353031069,-0.46256461165605717,0.05519254693581668,7.074439436831557,0.869452440755545,0.07541313849999999,-0.023928225999999997,-0.13523370349999997
71282.0,0.24899084349999998,0.69823348,6.9507573869999995,-0.720265966371524,-0.4964048005229752,0.03414213082751307,6.9901755833222685,0.8754235965478673,0.15808319799999998,-0.03471554099999996,-0.08502365550000057
71292.0,0.45002716849999996,0.6359612525,6.7113770605,-0.7269278881263863,-0.5038660830752509,0.041870448755343966,6.756445309130765,0.8854706763571889,0.201036325,-0.062272227499999944,-0.23938032649999919
71302.0,0.6559668185,0.6263507355,6.4815091845,-0.7455802218424497,-0.4692247880816675,0.0741119160274352,6.544659580115093,0.884055623278411,0.20593965000000009,-0.00961051700000004,-0.22986787600000014
71312.0,0.7277514964999999,0.5281861689999999,6.2122185755,-0.7663653479044501,-0.396748245563351,0.1369978743060429,6.276962840384522,0.8737811135465678,0.07178467799999988,-0.09816456650000005,-0.26929060900000046
71322.0,0.7122569894999999,0.35107806999999996,5.978722239,-0.7855500070423718,-0.3112131495816129,0.21986610719073368,6.031225865563293,0.8730885081868761,-0.01549450699999999,-0.17710809899999996,-0.2334963365
71332.0,0.5853589385,0.18701281549999998,5.8327012205,-0.7863493678397852,-0.21049019844902014,0.29580887360351094,5.864982728675787,0.8661145083923462,-0.12689805099999996,-0.16406525449999998,-0.14602101849999993
71342.0,0.45728408949999994,-0.009316317499999999,5.7393419125000005,-0.751975108221757,-0.10736916492418716,0.34403930215312223,5.757537765474123,0.8338811320491953,-0.12807484900000005,-0.196329133,-0.09335930799999925
71352.0,0.270467407,-0.21398110299999998,5.9356710454999995,-0.6733689693704363,-0.027164304478039747,0.3549633179413548,5.945681734761579,0.7616840719305574,-0.18681668249999994,-0.20466478549999997,0.196329132999999
71362.0,0.11846433199999999,-0.388735606,6.141512629,-0.5753111360056388,-0.01543918256314184,0.3320471448626692,6.15494326062352,0.6644370383879628,-0.152003075,-0.17475450300000003,0.2058415835000007
