timestamp,ax,ay,az,gx,gy,gz,acc_mag,gyro_mag,dax,day,daz
131842.0,-0.73746008,1.3434129835,10.212841443,0.10736567426568318,0.06982887804304112,0.026680848275237316,10.327184328445401,0.1308255628077362,0.0,0.0,0.0
131852.0,-0.7638399684999999,1.9659391255,10.01651231,0.13534504750440426,0.0967401097795417,0.01708851870627648,10.236155870200069,0.16723919455588748,-0.02637988849999995,0.6225261420000001,-0.19632913300000077
131862.0,-0.609385231,1.9850620929999998,9.979443173,0.15852651062939296,0.17321520161417725,0.0013683381335635543,10.193189290696154,0.23481063219500703,0.15445473749999994,0.019122967499999755,-0.037069136999999586
131872.0,-0.658418481,2.0820498615,10.070448885,0.21288479018275636,0.27900135290680556,-0.0002303834612632515,10.304483842837168,0.35094407231284486,-0.04903325000000003,0.09698776850000002,0.0910057119999994
131882.0,-0.8379782425,2.125101055,10.691700162499998,0.32320007088430996,0.4500697995410297,-0.01222254075171629,10.933010307946663,0.5542296462486944,-0.17955976149999997,0.043051193500000196,0.621251277499999
131892.0,-1.188762113,2.1059780875,11.472211435999998,0.4281868613795249,0.5928935828902298,-0.03300592148446477,11.724330867841608,0.732090281142634,-0.35078387049999993,-0.019122967499999977,0.7805112735000002
131902.0,-1.6005433464999999,2.2460170495,12.4574855615,0.4556321638671357,0.6600416352022076,-0.08869588725709983,12.759125287638298,0.8069216748650248,-0.41178123349999995,0.14003896199999977,0.9852741255000019
131912.0,-1.904647563,2.202965856,13.9633947355,0.450303673660797,0.6794950750449364,-0.18435738355890904,14.263840066452397,0.8357479287413281,-0.3041042165000001,-0.04305119349999975,1.5059091739999992
131922.0,-1.9908480164999998,2.0544931749999997,15.250321414999998,0.42339069659504447,0.531873381582004,-0.2762856205907024,15.51633723827022,0.7338138184470926,-0.08620045349999983,-0.14847268100000033,1.2869266794999987
131932.0,-2.0578274359999997,2.3921361345,15.9841530345,0.3136077413153491,0.22037923399082,-0.3378381473207864,16.292639972473783,0.5109319289028988,-0.06697941949999997,0.3376429595000001,0.7338316195000019
131942.0,-2.2326800055,2.527369838,16.223533360999998,0.15452970664232593,-0.15480023267638507,-0.37034664996843275,16.57031964146955,0.4301153140896835,-0.17485256950000005,0.13523370349999997,0.2393803264999974
131952.0,-2.100976696,2.516582523,15.7531083605,0.037552504185909996,-0.5385056327395824,-0.38819962288708276,16.090609487830445,0.664904094041061,0.13170330949999975,-0.010787314999999964,-0.470425000499997
131962.0,-1.8699320219999997,2.517759321,14.764303841,-0.035725144459071934,-0.74421537436739,-0.386600901292256,15.09372139913649,0.839400420700038,0.23104467400000028,0.0011767980000003675,-0.9888045195000004
131972.0,-1.6639923719999998,2.5309982984999997,13.7299964655,-0.0759602197052972,-0.7316908916550788,-0.37594392087957856,14.06014316938937,0.826120661619713,0.20593964999999992,0.013238977499999471,-1.034307375500001
131982.0,-1.3192886245,2.356145729,12.998518442,-0.06743428630930491,-0.5518294762493071,-0.3663498459813658,13.276047109664614,0.6657892785845987,0.3447037474999999,-0.1748525694999996,-0.7314780234999994
131992.0,-1.0774566355,2.1969837995,12.759138115499999,-0.020270253932662144,-0.25712190540380464,-0.36288711274540897,12.99166102032582,0.44520738317067116,0.24183198900000002,-0.1591619295000002,-0.23938032650000096
132002.0,-1.0151844079999999,2.125101055,13.0500033545,0.02476273142729555,0.06130119931779684,-0.358890308758342,13.26081601669632,0.3649291487757571,0.062272227500000055,-0.07188274449999987,0.2908652390000004
132012.0,-1.2749625664999997,2.2772021964999998,13.562400817,0.03222401397957131,0.28193176072090403,-0.35809094796092855,13.811223526924866,0.4568949898956008,-0.25977815849999986,0.15210114149999976,0.512397462500001
132022.0,-1.4748220934999998,2.3753667629999997,14.074700212999998,0.010639527120157434,0.3123092163518653,-0.3743451992847518,14.349726601997093,0.4876315969901841,-0.1998595270000001,0.09816456649999994,0.5122993959999977
132032.0,-1.5586689509999998,2.4710796669999997,14.433819736,0.0018465583486100008,0.198529457085103,-0.41244922751429197,14.726535091148067,0.45774634939601294,-0.08384685749999998,0.09571290399999999,0.35911952300000216
132042.0,-1.491591465,2.677019317,14.597884990499999,0.01783377429687806,-0.00957836693494488,-0.4537506989334858,14.916082720269326,0.45420203148096916,0.06707748599999985,0.20593965000000036,0.16406525449999876
132052.0,-1.3443936484999999,3.0636955265,14.651723499,0.03328866482328785,-0.23180764993287886,-0.45961151456168275,15.028859772197357,0.5158349213564406,0.14719781650000008,0.38667620950000003,0.05383850850000016
132062.0,-1.139728863,3.4683179054999997,14.491286704999998,0.004244640740850209,-0.4231271518779933,-0.416446031501359,14.944082485762614,0.5937018618672442,0.2046647854999999,0.40462237899999964,-0.16043679400000066
132072.0,-0.8045375659999999,3.6299314974999994,14.304568089,-0.07995702369236422,-0.5576902918775041,-0.3426360574345188,14.779863043495528,0.6594020436322804,0.33519129700000005,0.1616135919999997,-0.1867186159999985
132082.0,-0.492097697,3.6718058929999997,13.967023196,-0.20119806551140232,-0.6381621876992066,-0.25417055363868224,14.449984623412728,0.715775320691879,0.3124398689999999,0.04187439550000027,-0.33754489300000046
132092.0,-0.287334845,3.7352549185,13.477377161499998,-0.3352288800890549,-0.6807970906669241,-0.1630399320750503,13.988366086596796,0.7761733699099365,0.204762852,0.0634490255000002,-0.48964603450000155
132102.0,-0.12689805099999998,3.9614943339999997,13.030880387,-0.4623307375362899,-0.680530055291369,-0.07483971832551685,13.620329810028938,0.826118545043486,0.16043679400000002,0.22623941549999982,-0.44649677449999814
132112.0,-0.02157463,4.07760507,12.622629547499999,-0.5673175280315048,-0.6434924232347973,0.01948660109851669,13.264920100210531,0.8580858954642836,0.10532342099999999,0.11611073599999999,-0.40825083950000085
132122.0,0.09218251,4.0465179895,12.2982255655,-0.6704385615563377,-0.5981941478285365,0.13033595255118055,12.947167934124234,0.9079160555059393,0.11375713999999999,-0.031087080499999864,-0.32440398199999976
132132.0,0.1579851315,4.0704462155,11.885267533999999,-0.7810208776334465,-0.5433017975240628,0.2318582644811867,12.563959409748495,0.9792490537653966,0.06580262149999999,0.023928225999999775,-0.41295803150000054
132142.0,0.161613592,4.009350786,11.529678404999999,-0.8780123148252753,-0.4924079965359082,0.3235212114666769,12.20796857798386,1.057372798168277,0.0036284605000000136,-0.06109542949999991,-0.35558912900000017
132152.0,0.046679654,3.8226321699999994,11.389639442999998,-0.9363673983657058,-0.4636292624997737,0.4157164838740254,12.014099314503678,1.12452487421703,-0.114933938,-0.18671861600000028,-0.1400389620000002
132162.0,-0.0610954295,3.6538597234999997,11.2891212805,-0.9678112501696357,-0.5193209736016607,0.4951219835227594,11.865862076408913,1.2047815852448116,-0.10777508350000001,-0.16877244649999978,-0.10051816249999845
132172.0,-0.15210114149999998,3.3796657894999997,10.9311785555,-1.0168392941874083,-0.6413596308888603,0.5548104986117135,11.442724335497442,1.324054007851349,-0.09100571199999999,-0.2741939339999999,-0.35794272499999913
132182.0,-0.10542148749999998,3.268360312,10.424763149499999,-1.0903822328786934,-0.7215662366642597,0.5905164444490134,10.925611174769886,1.4346779843700301,0.046679654,-0.11130547749999975,-0.5064154060000021
132192.0,-0.15092434349999997,3.154603172,10.024946028999999,-1.1362145790360645,-0.7436813036162798,0.6134326175276991,10.510653748203117,1.4900822216271807,-0.045502855999999994,-0.11375714000000015,-0.39981712049999985
132202.0,-0.15092434349999997,3.038492436,9.7065241035,-1.1695224424811244,-0.7431489781944216,0.6587308929339598,10.172110135705207,1.534268404342604,0.0,-0.11611073599999999,-0.31842192549999915
132212.0,-0.252619304,2.8924714175,9.2432579575,-1.2420007303286928,-0.7151696049557005,0.7064272507324608,9.688551237553268,1.5978337956642807,-0.10169496050000001,-0.14602101849999993,-0.4632661460000005
132222.0,-0.20829324599999996,2.3933129324999998,8.7033038085,-1.3624406660210655,-0.6301685797250727,0.7237478982292526,9.028777882540448,1.6664837315413255,0.04432605800000003,-0.49915848500000015,-0.5399541489999997
132232.0,-0.180834626,1.7540174189999997,8.28073526,-1.4682268173136939,-0.49693712594483347,0.6981666073827717,8.466395615273553,1.7000215015951354,0.02745861999999996,-0.6392955135,-0.42256854849999925
132242.0,-0.1783829635,1.2835924185,7.9515260195,-1.5327114971871283,-0.35517973876860204,0.639279198420483,8.056438171877398,1.6982447037969752,0.002451662500000007,-0.4704250004999997,-0.3292092405
132252.0,-0.29331690149999995,1.0668654535,7.597211755,-1.5806731450319325,-0.22541276355357165,0.5588073025987804,7.677360428616563,1.6916276501747434,-0.11493393799999996,-0.2167269650000001,-0.35431426450000014
132262.0,-0.4333558635,1.071670712,7.188960915499999,-1.619843569434441,-0.12335638087245522,0.47247284581962895,7.2813071947264385,1.6918453168587724,-0.14003896200000004,0.00480525850000002,-0.40825083950000085
132272.0,-0.21908056099999998,0.802380103,7.086089157,-1.6102512398654802,-0.04368559117741807,0.39200094999792645,7.134736832066852,1.6578547074952357,0.21427530250000001,-0.269290609,-0.10287175849999919
132282.0,-0.1664188505,0.7185332455,6.944775330499999,-1.561755521269566,1.5707963267948964e-05,0.3437722667775671,6.983830585703799,1.5991434206687343,0.052661710499999986,-0.08384685749999998,-0.14131382650000113
132292.0,-0.15808319799999998,0.825131531,6.902900934999999,-1.5156578850658917,0.017868680881917946,0.3149935327414326,6.9538387714530865,1.548146969763465,0.008335652500000013,0.10659828550000006,-0.04187439549999983
132302.0,-0.13288010749999998,0.795123182,6.951934184999999,-1.4575680915717646,0.00614355896702004,0.30993207791064903,6.998518908318718,1.4901679025542556,0.025203090499999997,-0.030008349000000045,0.04903324999999992
132312.0,-0.10061622899999999,0.7616825054999999,6.8418055055,-1.399213008031334,-0.06446897191016654,0.33338057641119284,6.8848083807621725,1.439824954260589,0.032263878499999996,-0.033440676500000044,-0.11012867949999894
132322.0,-0.1293497135,0.6849945024999999,6.655086889499999,-1.3541817680006283,-0.14787127554596757,0.363490996666599,6.6914968671914155,1.4098935703004594,-0.028733484500000003,-0.076688003,-0.18671861600000117
132332.0,-0.076688003,0.3917756675,6.517401523499999,-1.3056843040754618,-0.19823275111226396,0.38560606361861915,6.529616515689823,1.3757905951931806,0.052661710499999986,-0.29321883499999996,-0.13768536599999948
132342.0,-0.046777720499999995,0.040991796999999996,6.26841068,-1.2531917814924804,-0.23713614013921755,0.3877388559645563,6.268719242053717,1.3330658688096122,0.02991028250000001,-0.3507838705,-0.24899084349999967
132352.0,-0.069431082,-0.24389138549999997,5.989509554,-1.218552231828149,-0.27017871353797424,0.3725492554844496,5.994875176392422,1.302558646167003,-0.02265336150000001,-0.2848831825,-0.27890112600000005
132362.0,-0.0981645665,-0.5335798265,5.668734032499999,-1.1831115760371522,-0.27763825076099796,0.34297290598015373,5.694636884348958,1.2627218275911811,-0.02873348449999999,-0.289688441,-0.32077552150000077
132372.0,0.011964112999999998,-0.8436660994999999,5.333542735499999,-1.1402113830231315,-0.26484847800238354,0.3016714345609599,5.399869789064384,1.2088144475914278,0.11012867949999999,-0.3100862729999999,-0.3351912969999997
132382.0,0.072961476,-0.9909619825,5.100046398999999,-1.0709305383652166,-0.20542699828898456,0.2515752490409666,5.195940944592547,1.1190990016791451,0.060997363,-0.14729588300000007,-0.2334963365
132392.0,0.1603387275,-1.135806203,5.0354205755,-0.9779359051604547,-0.13534853816290826,0.21773506017404862,5.164419097098758,1.0109828968948142,0.0873772515,-0.1448442205,-0.06462582349999924
132402.0,0.152003075,-1.24348322,5.009040687,-0.8804103972175157,-0.0820549094532614,0.20414592661802075,5.163317156368806,0.9074861073585738,-0.008335652500000013,-0.10767701699999987,-0.02637988850000017
132412.0,0.1375872995,-1.274668367,5.085728689999999,-0.7828848892745764,-0.0423521596288944,0.19881569108243005,5.244839942181578,0.8088449383536263,-0.014415775499999978,-0.03118514700000019,0.07668800299999923
132422.0,0.15553346899999998,-1.4350070944999997,5.333542735499999,-0.676833447935645,0.013604841519295799,0.19108911848385118,5.525406241413324,0.7034228167753402,0.01794616949999997,-0.16033872749999967,0.2478140455000002
132432.0,0.1591619295,-1.5691620665000001,5.563312545,-0.5928970735487338,0.04691270496435558,0.18336080055602028,5.782564187633293,0.6223736216215063,0.0036284605000000136,-0.13415497200000037,0.22976980950000048
132442.0,0.12562318649999998,-1.6373182839999998,5.815931849,-0.5382735039490673,0.06076887389593856,0.16390910604254347,6.043314952931022,0.5659482451000734,-0.03353874300000001,-0.06815621749999967,0.25261930400000043
132452.0,0.05619210449999999,-1.7259703999999998,6.090027716499999,-0.4924411577916961,0.044779912618418516,0.13806252514975945,6.330131828170918,0.5133856204765257,-0.06943108199999999,-0.088652116,0.2740958674999989
132462.0,0.015494507,-1.7570574804999999,6.300772625,-0.440747996006128,-0.03169343388696503,0.11035018728659349,6.541194595903532,0.4554562916122155,-0.040697597499999995,-0.031087080500000086,0.2107449085000006
132472.0,0.025105024,-1.7187134789999998,6.3881498765,-0.37173418672376823,-0.12229173002873868,0.07357959060557694,6.615365834914445,0.3981903175195093,0.009610517,0.03834400150000006,0.08737725150000042
