timestamp,ax,ay,az,gx,gy,gz,acc_mag,gyro_mag,dax,day,daz
175312.0,-0.2944936995,2.3549689309999997,10.718080051,-0.014407692975213191,-0.13215109497325464,-0.006892305216125607,10.977697626764213,0.1331127243755848,0.0,0.0,0.0
175322.0,-0.4680714045,3.2492373445,10.7503439295,-0.027464501109382772,-0.12895365178360102,-0.05618738460945345,11.240397179955053,0.14331910311875443,-0.17357770500000003,0.8942684135000003,0.03226387850000023
175332.0,-0.2693886755,3.2815012229999994,11.0388555725,-0.08102341986533275,-0.09990788237191141,-0.04206592563156733,11.519425024086594,0.13533632781317156,0.198682729,0.03226387849999934,0.28851164299999965
175342.0,-0.045502855999999994,3.2731655705,11.235184705499998,-0.17055531983413788,-0.025033257461354666,-0.006627015169822469,11.702352700568882,0.17250999516814264,0.22388581950000003,-0.008335652499999568,0.196329132999999
175352.0,-0.0514849125,3.2623782555,11.46985784,-0.27953716898716785,0.07862184681458856,0.023750440461138837,11.924906768943051,0.29135289094840844,-0.005982056500000006,-0.010787314999999964,0.23467313450000127
175362.0,-0.2227090215,3.1402854629999997,11.702079311999999,-0.39038652043983163,0.17667968017938596,0.04773300971279292,12.11815383306075,0.43115633469270837,-0.17122410899999999,-0.12209279250000016,0.2322214719999991
175372.0,-0.264583417,2.8565790785,12.0336421485,-0.48231650280087696,0.22757348116754061,0.03174404843527286,12.370876758517603,0.5342532946232922,-0.041874395499999995,-0.28370638449999985,0.3315628365000016
175382.0,-0.277724328,2.711734858,12.498183158999998,-0.5244173350174842,0.24302837169395042,-0.01222254075171629,12.791998241805949,0.5781225832100667,-0.013140911000000033,-0.1448442205,0.46454101049999785
175392.0,-0.32205038599999997,2.8805073044999996,13.032057185,-0.5113605268833146,0.20599073963737877,-0.03966784323932712,13.350488877022846,0.5527163025078917,-0.044326057999999946,0.16877244649999978,0.5338740260000012
175402.0,-0.3029274185,3.12832135,13.5240568155,-0.48311586359829034,0.1193892474826721,-0.03007551367036629,13.884461539383402,0.4985571848818719,0.019122967499999977,0.2478140455000002,0.4919996305000005
175412.0,-0.31724512749999995,3.3221988205,13.923873936,-0.4809830712523533,0.01600292391153601,0.012559389297351196,14.318237142172014,0.48141307280192047,-0.014317708999999956,0.19387747050000037,0.39981712049999985
175422.0,-0.48003551749999995,3.4120277345,14.211208781,-0.5044315697528972,-0.08498706259661187,0.06798406502368312,14.62295532292396,0.516038605599733,-0.16279039,0.08982891399999993,0.28733484500000017
175432.0,-0.5471130034999999,3.244432086,14.368017114499999,-0.5348090253838584,-0.20649339446195314,0.11301530505438882,14.739931750243283,0.5843224065231359,-0.06707748599999996,-0.16759564849999986,0.156808333499999
175442.0,-0.6476311659999999,3.0301567835,14.438624994499998,-0.5590568846818156,-0.32160483994798716,0.14525677232648007,14.767368350236465,0.6611155748390853,-0.10051816250000001,-0.21427530250000038,0.07060787999999896
175452.0,-0.717062248,2.8912946194999996,14.382432889999999,-0.5952951559409739,-0.4241935480509618,0.16284445519882693,14.687686634715837,0.7488890475122832,-0.06943108200000003,-0.1388621640000003,-0.05619210449999912
175462.0,-0.6082084329999999,2.6733908565,14.3105501455,-0.650986867042861,-0.49720416132038864,0.15991230205547646,14.570819525217523,0.8346063883324119,0.10885381500000002,-0.21790376299999936,-0.0718827444999981
175472.0,-0.4213917505,2.480690184,14.15491861,-0.7128064291485001,-0.553693487890437,0.14552380770203519,14.376825645882603,0.9142464998980374,0.18681668249999994,-0.1927006725,-0.1556315355000013
175482.0,-0.2023111895,2.3585973915,13.878371079999999,-0.7613021477444145,-0.5667502960246067,0.12553978776670013,14.078817255251517,0.9573646622456596,0.219080561,-0.12209279250000016,-0.2765475300000002
175492.0,-0.05746696899999999,2.236504599,13.643796012,-0.7807538422578914,-0.5065294555137942,0.1098178618647352,13.826005384453648,0.9371278537574813,0.1448442205,-0.12209279250000016,-0.23457506799999983
175502.0,0.06580262149999999,2.053316377,13.520428355,-0.7605027869470011,-0.42579226964578865,0.10102489309318777,13.675614100717404,0.8774221189762416,0.12326959049999998,-0.18318822200000007,-0.1233676569999993
175512.0,0.082571993,1.9647623275,13.534844130499998,-0.7133387545703583,-0.36450503296200776,0.10768681484805014,13.676955610607262,0.8082775191224499,0.016769371500000005,-0.0885540494999999,0.014415775499998063
175522.0,0.004707192,1.938382439,13.609080470999999,-0.6520515178865776,-0.3453203738240861,0.10955082648918008,13.746432988365878,0.7459348001941314,-0.077864801,-0.02637988849999995,0.07423634050000061
175532.0,0.023928225999999997,1.8533587834999998,13.6833168115,-0.5841041047771863,-0.37036759391945673,0.10768681484805014,13.808282670348786,0.6999615774707667,0.019221033999999998,-0.08502365550000013,0.07423634050000061
175542.0,0.05619210449999999,1.9132774149999998,13.726368005,-0.5166890170896533,-0.40687290055417014,0.10475466170469966,13.859183476238595,0.6659479234409412,0.032263878499999996,0.059918631499999986,0.043051193500000196
175552.0,0.175931301,2.020954432,13.7215627465,-0.4876449930072157,-0.4319201206495407,0.09915913612280584,13.870706285010458,0.6589272828647652,0.11973919650000002,0.1076770170000001,-0.004805258499999354
175562.0,0.26330855249999996,2.1730555735,13.692829261999998,-0.5145579700729682,-0.42099610486130823,0.1082191402699084,13.86668940726742,0.6735866738547946,0.08737725149999995,0.1521011415000002,-0.028733484500001794
175572.0,0.33391643249999997,2.2891663094999997,13.630655100999999,-0.5857028263720131,-0.38342440205362627,0.1361985135086295,13.825575614015522,0.7131704620862431,0.07060788000000001,0.11611073599999955,-0.06217416099999973
175582.0,0.3303860385,2.3813488195,13.638990753499998,-0.6837606597368105,-0.34105653446146394,0.17376847098705944,13.849261565463634,0.7836093931365057,-0.0035303939999999923,0.09218251000000022,0.008335652499999568
175592.0,0.31479346499999994,2.459115554,13.485712814,-0.8050017015558486,-0.3210725145261289,0.2132059307651233,13.711702824055633,0.8925088615836626,-0.01559257350000004,0.07776673449999993,-0.1532779394999988
175602.0,0.29321883499999996,2.4280284735,13.227209519999999,-0.9331699551760523,-0.325336353888751,0.25610612377914393,13.45140777908781,1.0209016872559669,-0.021574629999999984,-0.031087080499999864,-0.2585032940000005
175612.0,0.26330855249999996,2.3501636725,12.903982335999999,-1.045883318269846,-0.3586442173338108,0.3069999247672986,13.118893276841547,1.1474957707413358,-0.029910282499999996,-0.07786480100000004,-0.3232271840000003
175622.0,0.201036325,2.29867876,12.359320995,-1.149271387170234,-0.4188633125153711,0.35309756097097283,12.572873780607695,1.273164986756702,-0.06227222749999997,-0.05148491249999987,-0.5446613409999994
175632.0,0.2621317545,2.1813912259999997,11.587145373999999,-1.2547905030873072,-0.45270524671154116,0.3834750166019341,11.79360498981531,1.387982109177243,0.06109542949999999,-0.11728753400000036,-0.7721756210000006
175642.0,0.2370267305,2.0748910069999997,10.917939578,-1.3275340809811789,-0.41380185768458755,0.421046719409616,11.115878687299526,1.4528795729568775,-0.025105023999999976,-0.10650021899999995,-0.6692057959999982
175652.0,0.177108099,1.9634874629999999,10.421134688999999,-1.339526238271632,-0.3394578128666371,0.4642122024699398,10.605974660650885,1.457756879131888,-0.059918631500000014,-0.11140354399999985,-0.49680488900000164
175662.0,0.0646258235,1.7803973074999997,10.133897910499998,-1.3246036731670805,-0.25685487002824947,0.4975200659149996,10.289308914113354,1.4380805023408865,-0.11248227549999999,-0.18309015550000018,-0.2872367785000005
175672.0,-0.05874183349999999,1.5314064639999998,9.9962125445,-1.3142119828007062,-0.20676042983750825,0.5071141408132124,10.113007544534074,1.4237512995239996,-0.12336765699999999,-0.2489908434999999,-0.1376853659999977
175682.0,-0.15210114149999998,1.2273022475,9.8334221545,-1.3328643165167697,-0.2211489241909495,0.4905928541138341,9.910882747393169,1.4373988595452856,-0.09335930799999999,-0.30410421649999986,-0.1627903900000014
175692.0,-0.1976039975,0.895739411,9.4515512035,-1.3752321841089319,-0.27817232151210824,0.45461987290097894,9.495957907690457,1.4748974979641674,-0.04550285600000001,-0.33156283649999996,-0.3818709509999998
175702.0,-0.2562477645,0.6838177045,8.9223843695,-1.4199981340933345,-0.3429222914318459,0.39839758170648565,8.952218295310766,1.514170080241647,-0.058643766999999986,-0.21192170649999997,-0.5291668339999998
175712.0,-0.2227090215,0.45041943449999994,8.348989544,-1.4418479109990516,-0.3690359077001851,0.3352445880523228,8.364096088702839,1.5256152311257254,0.03353874299999998,-0.23339827000000007,-0.5733948254999994
175722.0,-0.216726965,0.321069721,7.8426722045,-1.442647271796465,-0.3461197346214995,0.2808863084989594,7.8522330359164725,1.5099427604443862,0.005982056499999999,-0.12934971349999996,-0.5063173394999998
175732.0,-0.19995759349999997,0.30076995549999996,7.281143425499999,-1.4437119226401813,-0.3205401891042706,0.22812675054042283,7.290095691280852,1.4963595633124223,0.01676937150000002,-0.02029976550000001,-0.5615287790000014
175742.0,-0.11493393799999999,0.2756649315,6.850239224499999,-1.456768730774351,-0.285633604064384,0.17883167114709497,6.856746925287635,1.4952399330334867,0.08502365549999999,-0.025105023999999976,-0.4309042009999997
175752.0,0.004707192,0.1534740725,6.570063234,-1.4562364053524928,-0.23074125375991034,0.15218572945689757,6.5718572220754155,1.4822369887136717,0.11964112999999998,-0.12219085899999999,-0.2801759904999992
175762.0,0.06580262149999999,0.08531785499999998,6.279197995,-1.4298557537085985,-0.20542699828898456,0.15565020802210633,6.2801223381228874,1.452898728506888,0.06109542949999999,-0.06815621750000002,-0.2908652390000004
175772.0,0.093359308,-0.0212804305,5.988332755999999,-1.3858891645216094,-0.21448700243608712,0.1633767806206852,5.989098263820277,1.4118730194314226,0.02755668650000001,-0.10659828549999999,-0.2908652390000004
175782.0,0.154356671,-0.13140911,5.599302950499999,-1.33526239890901,-0.23767021089032783,0.1703057377511027,5.602971342738707,1.3669004526284438,0.060997363,-0.11012867949999999,-0.3890298054999999
175792.0,0.1950542685,-0.24751984599999996,5.368258276499999,-1.2766402799930243,-0.22701148514839845,0.17137038859481923,5.377500271039944,1.3079420587232022,0.04069759749999999,-0.11611073599999996,-0.2310446740000005
175802.0,0.22025735899999999,-0.3947176625,5.1719291435,-1.2052283883184243,-0.20676042983750825,0.1735031809407563,5.191643901758648,1.2350824657292234,0.025203090499999997,-0.14719781650000005,-0.196329132999999
175812.0,0.23575186599999998,-0.46660040699999994,5.0030586305,-1.1354152182386512,-0.19503530792261034,0.16923934157813414,5.03029726182813,1.1644090535040474,0.01549450699999999,-0.07188274449999993,-0.1688705129999999
175822.0,0.209470044,-0.48690017249999995,4.9048940640000005,-1.0823886249045593,-0.18411129213437782,0.16310974524513006,4.9334506439586825,1.1099850864800411,-0.026281821999999982,-0.02029976550000001,-0.0981645664999995
175832.0,0.259680092,-0.5815343449999999,4.7840761359999995,-1.040022502641649,-0.17878105659878715,0.16577486301292543,4.826282256524207,1.0682185063958272,0.05021004799999998,-0.09463417249999995,-0.12081792800000102
175842.0,0.336368095,-0.8137558169999999,4.615205623,-1.002183764458412,-0.1641255268697908,0.16843998078072075,4.698453465514592,1.0294083317322285,0.076688003,-0.23222147199999998,-0.1688705129999999
175852.0,0.3076346105,-0.9634052959999999,4.463202548,-0.9646120616507301,-0.11562980827387632,0.1697716669999924,4.576348522830404,0.9862398800289317,-0.02873348449999996,-0.14964947900000003,-0.15200307499999965
175862.0,0.22623941549999999,-1.1453186535,4.332774102999999,-0.9193137862444692,-0.04901408138375676,0.1671065492321971,4.487301028325187,0.9356627686027311,-0.08139519500000003,-0.18191335750000004,-0.13042844500000061
175872.0,0.24418558499999998,-1.3632224165,4.287271247,-0.8516334085106332,0.012006119924468992,0.1548508472246929,4.505407495679256,0.8656803072112043,0.017946169499999998,-0.21790376300000003,-0.0455028559999997
175882.0,0.2405571245,-1.4769795565,4.4572204915,-0.7423827786527961,0.056505034533316414,0.13033595255118055,4.701717861623999,0.7558521479067725,-0.003628460499999986,-0.11375713999999992,0.1699492445000006
175892.0,0.281254722,-1.5511178305,4.6415855115,-0.6064879524340135,0.06609736410227726,0.10342297548542799,4.901977846064692,0.6187833302918969,0.040697597500000016,-0.07413827400000006,0.18436501999999955
175902.0,0.3411733535,-1.6193721145,4.8714533875,-0.47831795348455797,0.06210056011521024,0.07757639459264395,5.1448832259774235,0.4885311056527232,0.059918631499999986,-0.068254284,0.22986787600000014
175912.0,0.360296321,-1.6062312035,5.135938737999999,-0.36533930034446105,0.05837079150369835,0.060788072517710505,5.393297584828063,0.3749335186901365,0.019122967499999977,0.013140911000000033,0.2644853504999993
175922.0,0.40334751449999995,-1.611036462,5.4328841,-0.2734093179834157,0.05250823054624941,0.0506634175268914,5.6810524855329065,0.28297800499466164,0.04305119349999997,-0.00480525850000002,0.29694536200000066
175932.0,0.44885037049999993,-1.6744854875,5.782393106,-0.20546190487402446,0.060234803144828306,0.052262139121718204,6.0366744433721475,0.22039545605555647,0.04550285599999998,-0.06344902549999998,0.3495090059999999
175942.0,0.47640705699999997,-1.7905962235,6.043348062499999,-0.1644257235011338,0.059702477722970035,0.057857664703612026,6.321016874213701,0.18424905362060515,0.02755668650000004,-0.11611073599999999,0.2609549564999991
175952.0,0.44649677449999997,-1.833647417,6.2504645105,-0.1503042645232477,0.0330565360327726,0.05093045290244653,6.529159885967694,0.16210495841031122,-0.029910282499999996,-0.04305119349999997,0.20711644800000073
175962.0,0.42129368399999995,-1.7570574804999999,6.4360063285,-0.12392361287935338,0.005611233545161769,0.025616197431520774,6.684827358911474,0.12666782283524433,-0.025203090500000025,0.07658993650000001,0.1855418180000008
175972.0,0.46326614599999993,-1.7809857064999999,6.682643576,-0.07089701954526166,-0.02076941809873252,-0.006627015169822469,6.9313960190311645,0.07417326633378248,0.04197246199999999,-0.023928225999999997,0.24663724749999982
175982.0,0.5182814525,-1.7809857064999999,6.7915954575,-0.015474089148181727,-0.04528431277224487,-0.03513696850114984,7.040333416046249,0.05936937740680099,0.05501530650000008,0.0,0.10895188149999946
175992.0,0.568589567,-1.797755078,6.9974370409999995,0.026893778443980623,-0.040488147987764456,-0.05752081615797712,7.2470230135507965,0.07530743481192832,0.050308114499999945,-0.01676937150000013,0.20584158349999981
176002.0,0.6870538989999999,-1.8982732404999998,7.278789829499999,0.0703280422091115,-0.02130174352059079,-0.07084291433844984,7.553559805665279,0.10207113357824797,0.11846433199999995,-0.10051816249999979,0.28135278849999956
176012.0,0.752954587,-1.9485813549999997,7.5541605615,0.11109544287719507,0.0010803588069844899,-0.07430739290365859,7.837681525557157,0.1336598415507464,0.06590068800000004,-0.050308114499999945,0.27537073200000073
176022.0,0.7840416674999999,-1.8959196445,7.892882252499999,0.1494665064822904,0.014936527738567473,-0.06604674955396941,8.155171542438984,0.16408994346866693,0.031087080499999975,0.05266171049999979,0.33872169099999905
176032.0,0.7971825785,-1.8480631925,8.235232404,0.17957692673769657,0.006675884388878311,-0.045795694243079214,8.477611124298448,0.18544456222854125,0.013140911000000033,0.047856451999999994,0.3423501515000007
