timestamp,ax,ay,az,gx,gy,gz,acc_mag,gyro_mag,dax,day,daz
52172.0,-0.05746696899999999,2.34182802,9.9746379145,0.14307162010298316,0.05144183437328087,0.03494149162492648,10.246016906738154,0.1560021110099322,0.0,0.0,0.0
52182.0,-0.10659828549999999,2.6171006854999996,10.130269449999998,0.07618885783730847,0.11805756126340043,0.005365142120630569,10.463409497965726,0.1406097954624418,-0.049131316499999994,0.27527266549999974,0.15563153549999775
52192.0,-0.22986787599999997,2.745273601,10.410445440499998,-0.0005515240436302082,0.1396420481228143,-0.016219344738783305,10.768785477220328,0.14058190824732955,-0.12326959049999998,0.12817291550000043,0.2801759905000001
52202.0,-0.12572125299999998,2.6805497110000003,10.6569846215,-0.054110442799580195,0.11486011807374684,-0.03060783909222456,10.989653034080993,0.13060484890606938,0.104146623,-0.06472388999999978,0.24653918100000105
52212.0,0.026281822,2.5860136049999998,10.774370222,-0.0666349255118915,0.0687624818700726,-0.03940080786377199,11.080397591247936,0.10354185564893682,0.152003075,-0.09453610600000051,0.11738560050000046
52222.0,0.07776673449999999,2.6745676544999997,10.8078108985,-0.056241489816265276,0.030658453640532393,-0.020481438772153457,11.134097907833747,0.06724979769902074,0.051484912499999994,0.0885540494999999,0.03344067649999971
52232.0,0.06344902549999999,2.7105580599999994,10.8461549,-0.05171236040733999,0.008808676734815382,0.017622589457386748,11.17990281220109,0.05533820257200897,-0.014317708999999998,0.03599040549999977,0.0383440015000005
52242.0,0.039422733,2.655444687,10.914409183999998,-0.04744852104471784,0.0021467549799530253,0.05119574294874967,11.232865550400629,0.06983534064031933,-0.02402629249999999,-0.0551133729999993,0.06825428399999822
52252.0,-0.0012748644999999999,2.5692442334999996,11.111915114999999,-0.04052130924355235,0.00854164135926025,0.06984807666481306,11.405072339955495,0.08120153910915377,-0.0406975975,-0.0862004535000005,0.19750593100000025
52262.0,-0.0981645665,2.529723434,11.482998751,-0.02240130094934722,0.0330565360327726,0.07970744160932905,11.75875832093306,0.0891505979038493,-0.096889702,-0.03952079949999954,0.3710836360000016
52272.0,-0.20476285199999997,2.4495050369999998,11.948716559499998,-0.00428129265514209,0.026661649653465378,0.08530296719122286,12.198927418880604,0.08947496432337902,-0.10659828549999997,-0.08021839700000033,0.46571780849999733
52282.0,-0.42619700899999996,2.437540924,12.3760903665,-0.012276645958528114,-0.022900465115417597,0.08317192017453777,12.621048387769909,0.08713619020827791,-0.221434157,-0.011964112999999887,0.42737380700000216
52292.0,-0.5447594075,2.32025339,12.848868963,-0.03705683067834361,-0.08258898020437168,0.05945638629843883,13.068043932976769,0.10830147839614522,-0.1185623985,-0.11728753399999992,0.47277859649999954
52302.0,-0.6489060305000001,2.169427113,13.251137746,-0.06849893715302145,-0.18011448814731085,0.01389107551662287,13.443219279566362,0.19320014288470358,-0.1041466230000001,-0.15082627700000018,0.40226878300000024
52312.0,-0.654888087,2.0868551199999996,13.495323330999998,-0.09141511023170701,-0.303486576983034,-0.04659505504049262,13.671415234224934,0.32036217620340374,-0.005982056499999944,-0.08257199300000018,0.24418558499999854
52322.0,-0.5231847775,2.0149723755,13.610257269,-0.0999427889569513,-0.41300249688717416,-0.10894694256799005,13.76854890370816,0.43866736805288686,0.13170330949999998,-0.07188274449999943,0.11493393800000185
52332.0,-0.37235850049999997,2.0844034574999997,13.816196919,-0.08928406321502191,-0.48094990999656545,-0.1561109749446328,13.977506427511226,0.5134735595608134,0.15082627700000006,0.06943108199999948,0.20593964999999947
52342.0,-0.22751427999999996,2.1622682584999997,13.965748331499999,-0.07036469412340339,-0.5339765033306572,-0.1800935441962869,14.133976553967944,0.5679047287613438,0.1448442205,0.07786480100000004,0.14955141249999926
52352.0,0.011964112999999998,2.2352297345,14.012526051999998,-0.0658355647144781,-0.5598230842234412,-0.19288331695490132,14.189689265941361,0.5957685634289923,0.23947839299999996,0.07296147600000014,0.04677772049999973
52362.0,0.221434157,2.274750534,13.825709369499998,-0.07302981189119874,-0.5121267264249402,-0.19155163073562964,14.013342308232524,0.5516331793692874,0.209470044,0.03952079949999998,-0.18681668249999994
52372.0,0.4812123155,2.3693847065,13.5001285895,-0.07729190592456887,-0.3740991078602206,-0.19394971312786988,13.714919653903197,0.4284164707917384,0.25977815849999997,0.09463417250000017,-0.32558077999999924
52382.0,0.7960057805,2.274750534,13.260748262999998,-0.055709164394407006,-0.1643925622453459,-0.20141099568014562,13.477965710342943,0.2658849651634718,0.31479346500000005,-0.09463417250000017,-0.23938032650000096
52392.0,1.098933199,2.3046608164999998,13.181706664,0.0029129545215785357,0.07435800745196641,-0.20247564652386218,13.426708689426343,0.21571737531206767,0.30292741849999993,0.02991028249999994,-0.07904159899999819
52402.0,1.249759476,2.50461841,13.282224826499998,0.07379077544506826,0.32190154592082615,-0.1990129132879054,13.57396436083636,0.38557985354831703,0.15082627699999995,0.1999575935000002,0.10051816249999845
52412.0,1.242502555,2.7416451404999997,13.605452010499999,0.11615864303723061,0.527876577594937,-0.18222459121297196,13.934444914872902,0.5703966279426352,-0.007256920999999972,0.23702673049999978,0.3232271840000003
52422.0,0.9180985729999999,3.01456421,14.1369724405,0.12122184319726616,0.61128062655999,-0.13985672362080961,14.483939110249464,0.6386850889269798,-0.3244039820000001,0.27291906950000033,0.5315204300000005
52432.0,0.5529969935,3.2612014575,14.476968995999998,0.12015544702429763,0.44607299555396274,-0.09562484438751732,14.850046192937091,0.47176536506639755,-0.3651015794999999,0.24663724749999982,0.3399965554999991
52442.0,0.478760653,3.154603172,14.628972071,0.14626906329263678,0.1513654247084602,-0.07004355354103643,14.972894068607829,0.22183829711376246,-0.0742363405,-0.10659828550000006,0.15200307500000143
52452.0,0.521909913,3.0899773484999997,14.5774871585,0.17797820514286977,-0.12202469465318355,-0.04686209041604775,14.910515813604947,0.22082192628731856,0.04314926000000002,-0.06462582350000012,-0.051484912499999425
52462.0,0.67273619,3.300722257,14.311726943499998,0.13907481611591616,-0.30774867101640413,-0.0231465565399488,14.702818420442208,0.33850673858831215,0.15082627699999995,0.21074490850000016,-0.265760215000002
52472.0,0.9109397185,3.650231263,13.858071314499998,-0.021868975527488947,-0.36077526435049584,0.02161939344445376,14.35967060910142,0.3620834732913091,0.23820352850000004,0.3495090059999999,-0.453655629
52482.0,1.0856942215,3.802234338,13.378035796999999,-0.2747410042026874,-0.2664471995972103,0.11301530505438882,13.950181349698584,0.3990603823233187,0.17475450300000006,0.1520030750000001,-0.4800355174999993
52492.0,1.0665712539999999,3.8249857659999997,12.9805722725,-0.5627866532933276,-0.10070724316932482,0.2286608212915331,13.5743635899278,0.6157568815251584,-0.0191229675000002,0.02275142799999985,-0.3974635244999991
52502.0,0.8810294359999999,3.5748181245,12.662150346999999,-0.8396412512201801,0.057304395330729826,0.34004075283680324,13.186568503609434,0.907694297693133,-0.18554181799999991,-0.2501676414999996,-0.3184219255000009
52512.0,0.5375024865,3.2467856819999996,12.4574855615,-1.063736291188496,0.1284492516297747,0.43037201360302174,12.8848543919912,1.1546662624015762,-0.34352694949999996,-0.3280324425000005,-0.20466478549999856
52522.0,0.14121576,2.9630792974999998,12.1210194,-1.2092251923054913,0.08608312936686432,0.49192454033310573,12.478737600788063,1.3082911083737374,-0.39628672649999996,-0.28370638449999985,-0.33646616150000064
52532.0,-0.1293497135,2.6159238874999997,11.655399658,-1.2833022017478866,-0.005581562947877866,0.5239007175588939,11.946050825326425,1.3861340688095933,-0.2705654735,-0.34715541000000005,-0.46561974199999945
52542.0,-0.3184219255,2.2867146469999997,11.1059330585,-1.3011551746665369,-0.09191427439777738,0.5273651961241027,11.343377164642222,1.4069708854424063,-0.189072212,-0.3292092405,-0.5494665995000005
52552.0,-0.39991518699999995,1.95152335,10.593535596,-1.2833022017478866,-0.15186807953303458,0.5113762348465826,10.77921017357522,1.3897604499185796,-0.08149326149999997,-0.3351912969999997,-0.5123974624999992
52562.0,-0.481310382,1.7372480474999998,10.198523734,-1.240667298780169,-0.18943978234071654,0.48659605012676704,10.356619951283568,1.3460752183272486,-0.08139519500000003,-0.21427530250000015,-0.3950118620000005
52572.0,-0.6261546025,1.6558528524999998,9.920799406,-1.1903058232138728,-0.2312753245110206,0.45062306891391196,10.077508576501153,1.2935908853814353,-0.1448442205,-0.08139519500000003,-0.2777243279999997
52582.0,-0.751777789,1.51218543,9.5078413745,-1.1556662735495413,-0.2920284904436912,0.4002615933476156,9.656651708609566,1.257399903833254,-0.12562318650000004,-0.14366742249999986,-0.41295803150000054
52592.0,-0.7625651039999999,1.4296134369999998,9.0685034545,-1.1399443476475764,-0.335195718833267,0.32698569003188566,9.212114579257463,1.2323753191067393,-0.010787314999999853,-0.08257199300000018,-0.4393379199999998
52602.0,-0.6296849965,1.3877390415,8.660252615,-1.1391449868501629,-0.3463867699970546,0.24597972345907285,8.793309854527752,1.215788270978073,0.1328801074999999,-0.04187439549999983,-0.40825083950000085
52612.0,-0.401091985,1.3841105809999998,8.255630236,-1.1479397009509624,-0.32879908712470773,0.18202911433674862,8.380457474053836,1.2078944470356867,0.2285930115,-0.003628460500000097,-0.4046223789999992
52622.0,-0.20711644799999998,1.3973495585,7.9515260195,-1.157264995144368,-0.2920284904436912,0.15698189424137798,8.07602928736999,1.2038215080886894,0.193975537,0.013238977500000138,-0.30410421649999986
52632.0,-0.06707748599999999,1.406862009,7.572106731,-1.1769837250334,-0.2741755175250412,0.1593799766336182,7.70198418897047,1.2189605737493543,0.140038962,0.009512450499999936,-0.3794192885000003
52642.0,0.0418743955,1.3183079594999998,7.099230068,-1.200964548955802,-0.24939358747597373,0.17110509854851608,7.220717201184023,1.2384627423027497,0.10895188149999999,-0.08855404950000012,-0.4728766630000001
52652.0,0.07541313849999999,1.2105328759999998,6.604778775,-1.2102915884784597,-0.20596106904009487,0.17376847098705944,6.715220000269965,1.2399278900851582,0.03353874299999999,-0.10777508349999998,-0.494451293
52662.0,0.08737725149999999,1.047742486,6.151123146,-1.1961683841713218,-0.13215109497325464,0.16524253759106716,6.240329723524718,1.2147377541770883,0.011964112999999998,-0.16279038999999984,-0.453655629
52672.0,0.025105024,0.8430777005,5.7609165424999995,-1.1569997050980652,-0.03169343388696503,0.15218572945689757,5.822333697149327,1.1673959429426184,-0.062272227499999985,-0.2046647855,-0.39020660350000025
52682.0,-0.011964112999999998,0.6132098245,5.490351069,-1.099176946979493,0.06583032872672212,0.12260763462334966,5.5245021757378865,1.1079513640134933,-0.037069137,-0.22986787600000003,-0.2705654734999996
52692.0,-0.069431082,0.37373143149999993,5.3502140405,-1.0306954631189913,0.15642862486849576,0.09036616735125841,5.36370078744164,1.0464077104905507,-0.05746696900000001,-0.239478393,-0.14013702849999987
52702.0,-0.136508568,0.251638639,5.320303758,-0.9539550812380527,0.2147837084089262,0.05892406087658056,5.328000438359976,0.9796093013890678,-0.06707748599999999,-0.12209279249999994,-0.029910282500000385
52712.0,-0.28370638449999996,0.22888721099999998,5.339524792,-0.8758812678085903,0.21664946537930813,0.027480209072650717,5.351953257675936,0.9026960441022217,-0.14719781649999997,-0.022751428000000018,0.01922103400000008
52722.0,-0.4250202109999999,0.2768417295,5.238908563,-0.801804258366195,0.15855967188518083,-0.003961897402027128,5.263406354674296,0.817341382112471,-0.14131382649999996,0.04795451850000004,-0.10061622899999989
52732.0,-0.4429663805,0.23732092999999999,5.1779112,-0.7146704407896302,0.08048585845571851,-0.04499633344566581,5.202240366722281,0.7205945339602235,-0.017946169500000053,-0.03952079950000004,-0.06099736300000025
52742.0,-0.2944936995,0.08051259649999999,5.144372457,-0.611284117218494,0.018401006303776217,-0.09269269124416685,5.153423793322318,0.6185457169899986,0.148472681,-0.1568083335,-0.03353874299999937
52752.0,-0.1209159945,0.09365350749999998,5.061800463999999,-0.5172230878407635,-0.004248131399354199,-0.136659280431156,5.064110543278413,0.534989278531712,0.17357770499999997,0.013140910999999991,-0.08257199300000106
52762.0,0.19024901,0.11875853149999999,5.119267433,-0.43621712126795076,0.03811973619280815,-0.1662373752647039,5.124177721857862,0.46837309498903257,0.3111650045,0.025105024000000004,0.05746696900000092
52772.0,0.40579917699999996,0.17504870250000001,5.134761939999999,-0.381059480917174,0.10180330993957726,-0.15744440649315647,5.1537457446767165,0.42468692356546844,0.21555016699999996,0.05629017100000003,0.01549450699999877
52782.0,0.47042500049999997,0.3031235515,5.1204442310000005,-0.3557452254462482,0.1558962994466375,-0.12013973906102966,5.150935127853057,0.4065610390957426,0.06462582350000001,0.12807484899999996,-0.014317708999998402
52792.0,0.41178123349999995,0.328326642,5.298827194499999,-0.3133791031833379,0.20039521405548494,-0.07270867130883177,5.324934910896331,0.3790135287978946,-0.05864376700000001,0.025203090500000025,0.17838296349999894
52802.0,0.29684729549999994,0.25409030149999995,5.586063973,-0.22091679540043427,0.21531603383078446,-0.029808478294811154,5.599713466652608,0.309925426986669,-0.11493393800000001,-0.07423634050000005,0.2872367785000005
52812.0,0.186718616,0.20741064749999996,5.9368478435,-0.0999427889569513,0.20838882202961895,-0.007426375967235872,5.943403514412253,0.23123497415268446,-0.11012867949999994,-0.04667965399999999,0.35078387049999993
52822.0,0.18907221199999996,0.18701281549999998,6.441988385,0.017034413499464655,0.20039521405548494,-0.011955505376161158,6.447475199408426,0.20147294401088645,0.002353595999999958,-0.020397831999999977,0.5051405415000003
52832.0,0.315970263,0.1534740725,7.064514527,0.09724101927486407,0.21798115159857978,-0.025012313510330737,7.073242325851989,0.23999419599022928,0.126898051,-0.03353874299999998,0.6225261419999999
52842.0,0.258503294,0.26487761649999997,7.555337359499999,0.1052346272489981,0.21185330059482768,-0.025544638932189008,7.5643973137711376,0.23792577902222764,-0.05746696899999998,0.11140354399999997,0.49082283249999925
52852.0,0.15553346899999998,0.3798115545,7.885723397999999,0.06100100268645381,0.16335583666966128,-0.017551030958054978,7.896396709048724,0.17525492971807782,-0.10296982500000001,0.11493393800000001,0.3303860384999995
52862.0,0.08737725149999999,0.49111703199999995,8.0174267075,0.021565288237641936,0.059702477722970035,-0.012754866173574561,8.032929834956514,0.06474669191657677,-0.06815621749999999,0.11130547749999997,0.13170330950000153
