timestamp,ax,ay,az,gx,gy,gz,acc_mag,gyro_mag,dax,day,daz
145862.0,-0.705098135,2.9248333625,9.672985360499998,0.02929186083622083,0.061034163942241704,-0.0015638150097869192,10.130076967270329,0.06771726365382612,0.0,0.0,0.0
145872.0,-0.705098135,2.6590731475,9.676613820999998,0.06180036348386722,0.1068665100996128,0.001101302758008422,10.06005409649989,0.1234542375756035,0.0,-0.2657602149999998,0.003628460499999875
145882.0,-1.10619012,3.3617196199999997,9.738787982,0.05353972013417806,0.10819819631888447,-0.024212952712917332,10.361892044574976,0.12312440212152889,-0.401091985,0.7026464724999997,0.062174161000001504
145892.0,-1.048723151,3.2049112865,9.883730268999999,0.0212982528620868,0.07462504282752154,-0.005560618996853933,10.44315089578453,0.07780381144658008,0.057466969000000034,-0.1568083334999999,0.14494228699999923
145902.0,-0.9397712694999999,3.0540850094999996,10.022592432999998,0.003178244567881674,0.04904375198104066,-0.0036948620264719957,10.519646589228133,0.049285320860330856,0.10895188150000001,-0.15082627700000018,0.13886216399999896
145912.0,-0.946930124,3.049279751,10.014158714,-0.0008185594191853405,0.01227140997077213,-0.016751670160641576,10.510859070921816,0.02078162638881837,-0.007158854500000089,-0.004805258499999798,-0.008433718999997453
145922.0,-0.9565406409999999,3.060067066,9.877650145999999,-0.00881216739331937,-0.009044296183834616,-0.025279348885885868,10.384938750569322,0.02825772580593041,-0.00961051699999993,0.010787314999999964,-0.13650856800000177
145932.0,-0.9266303585,3.0313335814999998,9.840581009,-0.011742575207417848,-0.02050238272317739,-0.03380528228187817,10.338503842351411,0.04124357986386455,0.02991028249999994,-0.028733484500000017,-0.037069136999999586
145942.0,-0.8703401874999999,3.0241747269999997,9.827440097999999,-0.004815363406252355,-0.02076941809873252,-0.042332961007122465,10.31899722362504,0.047398692392562725,0.05629017100000011,-0.007158854500000089,-0.013140911000000699
145952.0,-0.8332710504999999,3.0660491224999995,9.7855657025,0.00477696616270848,-0.015706217938696972,-0.04499633344566581,10.28845440205324,0.047897543895392504,0.03706913699999992,0.04187439549999983,-0.04187439549999894
145962.0,-0.7745292169999999,3.0325103794999997,9.780760444,-0.0018832102629018814,-0.00957836693494488,-0.04073249408304366,10.269337348275055,0.04188588865310048,0.05874183350000006,-0.033538742999999815,-0.004805258499999354
145972.0,-0.7565830474999999,3.0421208964999997,9.7890960965,-0.017872171540421936,0.00028099800957108706,-0.0340723176574333,10.27878007563144,0.03847617842250828,0.017946169499999942,0.00961051700000004,0.008335652499999568
145982.0,-0.7805112734999999,3.0672259205,9.841757806999999,-0.02826386190679617,-0.0010506882097005862,-0.028476792075539478,10.338146324515488,0.04013573871892674,-0.023928225999999997,0.025105024000000142,0.052661710499998904
145992.0,-0.7709988229999999,3.045749357,9.864509235,-0.02826386190679617,-0.01757197490907891,-0.025544638932189008,10.352756675307962,0.04195412697539598,0.009512450500000047,-0.021476563499999823,0.022751428000001184
146002.0,-0.7530526535,3.0349620419999996,9.895694381999999,-0.021069614730075546,-0.03409151627920524,-0.02714336052701581,10.377998371423583,0.04840374125817851,0.017946169499999942,-0.010787315000000408,0.031185146999998636
146012.0,-0.7650167665,3.0517314135,9.908835293000001,-0.0176051361648668,-0.037555994844413985,-0.02900911749739775,10.396313391629326,0.05061543703372499,-0.011964112999999998,0.016769371500000574,0.013140911000002475
146022.0,-0.793750251,3.1007646635,9.968655858,-0.021601940151933816,-0.03435855165476037,-0.029276152872952883,10.469903560903058,0.050042452149960386,-0.028733484500000017,0.04903324999999992,0.05982056499999899
146032.0,-0.8332710504999999,3.0959594049999994,10.027299625,-0.03385938748868999,-0.02076941809873252,-0.03060783909222456,10.527394884326059,0.050146452149326816,-0.03952079949999998,-0.0048052585000006864,0.058643766999999514
146042.0,-0.912214583,3.0517314135,10.1099696845,-0.05091299960992659,0.00614355896702004,-0.041798890256012196,10.599843729371182,0.06615908155873831,-0.07894353250000008,-0.04422799149999923,0.08267005949999984
146052.0,-0.9995918345,3.026528323,10.2152931055,-0.06343748232223789,0.03732037539539475,-0.05618738460945345,10.700993914435992,0.09259668877604683,-0.08737725149999997,-0.025203090500000247,0.10532342100000136
146062.0,-1.096579603,3.0469261549999995,10.427214811999999,-0.06423684311965129,0.06263288553706851,-0.07031058891659157,10.918473087173448,0.11398609247832013,-0.0969877684999999,0.02039783199999956,0.2119217064999983
146072.0,-1.187585315,3.105569922,10.6905233645,-0.05197939578289513,0.05197590512439114,-0.08603251481855648,11.195633667986602,0.11315894089933727,-0.09100571200000007,0.0586437670000004,0.2633085525000016
146082.0,-1.2282829124999999,3.1701957455,10.9813886035,-0.03492578366165853,0.020799088696016425,-0.1094810133191003,11.495638983501763,0.11678400888967098,-0.040697597499999905,0.06462582350000012,0.2908652389999986
146092.0,-1.2306365084999997,3.2037344884999994,11.2891212805,-0.016538739991898265,-0.017037904157968645,-0.132662476444089,11.799264391253185,0.1347707414645115,-0.002353595999999847,0.03353874299999937,0.3077326770000006
146102.0,-1.3299778729999998,3.267183514,11.6494176015,0.0013142329267517303,-0.05567600313861911,-0.14625335532936884,12.171781287509278,0.15649788649938984,-0.09934136450000008,0.06344902550000064,0.36029632099999986
146112.0,-1.4856094085,3.2815012229999994,12.0097139225,0.007974409352362091,-0.09564578833854126,-0.1350605588363292,12.53828194337105,0.16568965744608688,-0.1556315355000002,0.01431770899999929,0.36029632099999986
146122.0,-1.628100033,3.3869227105,12.555650127999998,0.019699531267259998,-0.14014470294738868,-0.11267845650875392,13.10596449335575,0.18090064637130712,-0.14249062449999994,0.10542148750000058,0.5459362054999986
146132.0,-1.7657853989999999,3.4132045325,13.330179345,0.09724101927486407,-0.20915851222974846,-0.12173846065585649,13.873054624914614,0.2608128675327079,-0.13768536599999992,0.026281822000000066,0.7745292170000013
146142.0,-1.7250878015,3.3593660239999994,13.986146163499999,0.16625482855722387,-0.3295984479221211,-0.158509057336873,14.487013236443026,0.4017473411848387,0.040697597499999905,-0.053838508500000604,0.6559668184999996
146152.0,-1.5790667829999998,3.45390213,14.657705555499998,0.1627903499920151,-0.43458523841733604,-0.21926396859879563,15.141704791090335,0.5132657356832513,0.14602101850000015,0.09453610600000051,0.6715593919999989
146162.0,-1.3252706810000001,3.543731044,15.189225985499998,0.07059333225541464,-0.561421805818268,-0.2792177737340528,15.65333696464482,0.6309836985027182,0.2537961019999997,0.08982891399999993,0.5315204300000005
146172.0,-0.9984150365,3.6610185779999997,15.4202706595,-0.09860935740842762,-0.7170353619260824,-0.32265029216993174,15.880322314921917,0.7924435163835422,0.32685564450000015,0.11728753399999992,0.2310446740000014
146182.0,-0.6596933454999999,3.8286142264999996,15.2717979785,-0.33363015849422806,-0.8654546708571762,-0.34396774365379046,15.758213594870831,0.9892596618884583,0.33872169100000005,0.16759564849999986,-0.14847268099999944
146192.0,-0.25742456249999995,3.833419485,14.727136637499997,-0.5822383478068044,-0.966444657365324,-0.33863925344745177,15.220050127806765,1.1780039530418493,0.40226878299999996,0.004805258500000242,-0.544661341000003
146202.0,0.06815621749999999,3.8166501134999997,13.989774623999999,-0.7767570382708243,-0.9885614696465962,-0.30479731925128173,14.501215721075864,1.29364086268016,0.32558077999999996,-0.01676937150000013,-0.7373620134999985
146212.0,0.3184219255,3.7113266924999997,13.2139705425,-0.8660219028640743,-0.922478068178335,-0.2533711928412688,13.728960479189961,1.2904095023953257,0.250265708,-0.10532342100000003,-0.7758040814999987
146222.0,0.4847427095,3.5508898985,12.684901775,-0.833513400216428,-0.7761898062639262,-0.20007756413162195,13.181446339726188,1.1563936333953182,0.166320784,-0.16043679399999977,-0.5290687675000001
146232.0,0.5314223634999999,3.3677016765,12.474254933,-0.6944193854787399,-0.5843379788969535,-0.15637801032018794,12.931777157212526,0.9209360665223988,0.04667965399999996,-0.18318822200000007,-0.21064684200000094
146242.0,0.616446019,3.1989292299999996,12.480236989499998,-0.5281471036289961,-0.38502312364845304,-0.1297320686299905,12.89842894413786,0.6663426884469628,0.08502365550000002,-0.16877244650000023,0.0059820564999988335
146252.0,0.6092871645,3.1343034065,12.7579613175,-0.39678140681913887,-0.18890745691885827,-0.11774165666878947,13.15145108615959,0.4549556129910218,-0.007158854499999978,-0.06462582349999968,0.27772432800000146
146262.0,0.47042500049999997,3.189318713,13.237996835,-0.3109810207910977,-0.01783726495538205,-0.12227078607771476,13.624889494511779,0.3346304057335853,-0.138862164,0.05501530650000008,0.48003551750000106
146272.0,0.4727785965,3.2168753994999997,13.805409603999998,-0.26781379240152187,0.06289992091262364,-0.1411901551693333,14.183128754665953,0.30921721712744293,0.0023535960000000133,0.02755668649999965,0.567412768999997
146282.0,0.5134761939999999,3.304252651,14.455394366,-0.26514867463372654,0.057037359955174685,-0.15238120633312094,14.837121340072333,0.3110901993541666,0.040697597499999905,0.08737725150000042,0.6499847620000025
146292.0,0.6081103664999999,3.4934229295,14.8875734315,-0.3093822991962708,-0.04954640680561503,-0.13319654719519924,15.304040141756875,0.3404608254528577,0.09463417250000006,0.1891702784999998,0.43217906549999974
146302.0,0.7948289824999999,3.6299314974999994,15.101848733999999,-0.4023769324010327,-0.2070257198838114,-0.0807022792829658,15.55229857521331,0.4596517184818756,0.18671861599999995,0.13650856799999955,0.21427530249999904
146312.0,0.925355494,3.8106680569999996,15.126953757999997,-0.5590568846818156,-0.35464741334674377,0.014425146267733134,15.62697039824375,0.6622140688240612,0.13052651150000005,0.18073655950000012,0.025105023999998366
146322.0,1.0378377694999998,3.8884347914999995,14.949845658999998,-0.7695627910941037,-0.46895949803536435,0.14259339988793673,15.4820837612858,0.9124049418573582,0.1124822754999999,0.07776673449999993,-0.1771080989999998
146332.0,1.053430343,3.8286142264999996,14.475792198,-1.0163069687655502,-0.5369069111447556,0.2819527046719279,15.010548362487926,1.1834890002311973,0.015592573500000206,-0.05982056499999988,-0.4740534609999969
146342.0,0.9875296549999999,3.6681774325,13.909556227,-1.2670479504240635,-0.5630205274130947,0.4074558405243362,14.418963032336311,1.4451376698916032,-0.06590068800000015,-0.16043679399999977,-0.5662359710000011
146352.0,0.903780864,3.4132045325,13.105116727499999,-1.4906089196412693,-0.5478326722622401,0.5068471054376573,13.572430492443548,1.667012170442265,-0.08374879099999988,-0.25497289999999984,-0.8044394995000008
146362.0,0.8175804105,3.163036891,12.1497528845,-1.673137198144088,-0.49160863573849484,0.5809241148800527,12.581324860914942,1.8380805101505446,-0.08620045350000005,-0.25016764150000004,-0.9553638429999989
146372.0,0.6463563014999999,2.9044355305,11.1406485995,-1.8183590638855283,-0.38688888061883503,0.6283534373029985,11.531156639160743,1.96238139344309,-0.17122410900000007,-0.25860136050000015,-1.0091042849999994
146382.0,0.4129580315,2.5692442334999996,10.1913648795,-1.9084232892761916,-0.2374031755147727,0.6528683319765108,10.518339620598843,2.030930027769063,-0.2333982699999999,-0.33519129700000017,-0.9492837200000004
146392.0,0.26576021499999997,2.2220888235,9.3929074365,-1.9198813758155344,-0.0711308936650289,0.6464734455972037,9.655828154128338,2.027050077600269,-0.14719781650000002,-0.3471554099999996,-0.7984574430000002
146402.0,0.08492558899999998,1.9420108995,8.6805523805,-1.8716509472659233,0.08794714100799426,0.6259553549107584,8.895538675091466,1.975508054742972,-0.180834626,-0.280077924,-0.7123550559999998
146412.0,-0.11493393799999999,1.6870379994999998,8.1455015565,-1.7874492828327089,0.2305056343108911,0.6102351743380454,8.31916477951994,1.9027597731052694,-0.19985952699999998,-0.2549729000000003,-0.5350508240000007
146422.0,-0.343625016,1.4691342365,7.771966258,-1.6891244140923563,0.33202794624089726,0.6059713349754232,7.917063412147711,1.8249890690575905,-0.22869107800000002,-0.2179037629999998,-0.37353529849999934
146432.0,-0.5351488904999999,1.2787871599999998,7.631927296,-1.587869137537905,0.375193429301221,0.5942462130605254,7.7568031551028875,1.7364409201216597,-0.1915238744999999,-0.19034707650000016,-0.1400389620000002
146442.0,-0.7805112734999999,1.0872632855,7.5888761024999996,-1.4988695629909583,0.3400215542150313,0.5747945185470485,7.705996353434929,1.640918450972883,-0.24536238300000002,-0.19152387449999986,-0.043051193500000196
146452.0,-0.9960614404999999,0.9028982655,7.5661246745,-1.4434466325938784,0.2211785947882334,0.5414866551019887,7.684634425993964,1.5574549590895541,-0.21555016699999996,-0.18436502,-0.022751427999999407
146462.0,-1.1804264604999999,0.629979196,7.438049825499999,-1.4213298203126061,0.048776716605485534,0.48339860693711345,7.557437768361837,1.502075843418507,-0.18436502,-0.2729190695,-0.12807484900000077
146472.0,-1.1851336525,0.3343086985,7.145909722,-1.4104040591951217,-0.1326834203951129,0.39573246393869027,7.251229539543957,1.470866643600571,-0.004707192000000138,-0.29567049749999996,-0.2921401034999995
146482.0,-1.109720514,0.1164049355,6.749721062,-1.3944168432468536,-0.29069505889516756,0.2792875869041326,6.841327659380713,1.4515176561776018,0.07541313850000009,-0.217903763,-0.39618865999999997
146492.0,-0.9804688669999999,0.0350097405,6.2265362845,-1.3813600351126842,-0.3954148140148273,0.16684125918589396,6.303356168207633,1.4464938394323121,0.12925164700000003,-0.081395195,-0.5231847775
146502.0,-0.7901217905,-0.065508422,5.675892886999999,-1.3693696231514831,-0.42552523427023353,0.07677703379523056,5.730998504787193,1.436015181928508,0.19034707649999993,-0.1005181625,-0.5506433975000009
146512.0,-0.62370294,-0.13140911,5.252147540499999,-1.345387053899829,-0.3836914374291814,0.01602386786255994,5.290683084322461,1.399121941897492,0.16641885049999994,-0.065900688,-0.4237453464999996
146522.0,-0.5075922039999999,-0.06080122999999999,4.970794752,-1.297957731476883,-0.2986886668693016,-0.01515294856581477,4.99701381843615,1.331968019235828,0.1161107360000001,0.07060788000000001,-0.28135278849999956
146532.0,-0.4333558635,-0.04285506049999999,4.902540468,-1.2356058439493856,-0.21795148100129588,-0.024745278134775603,4.921842835871331,1.2549250887851828,0.07423634049999994,0.017946169499999998,-0.068254284
146542.0,-0.35441233099999997,-0.1817172245,4.880965838,-1.1527358657354427,-0.1641255268697908,-0.013554226970987963,4.897188658992818,1.1644401580982633,0.07894353250000002,-0.138862164,-0.021574629999999928
146552.0,-0.160436794,-0.3707894365,4.981582067,-1.053344600822122,-0.15853000128789696,-0.009557422983920948,4.997938040966992,1.0652501836299064,0.19397553699999998,-0.18907221200000002,0.10061622899999989
146562.0,-0.069431082,-0.45816668799999993,5.004333494999999,-0.9536880458624976,-0.19823275111226396,-0.021280799569566862,5.025742842438269,0.9743048726476154,0.09100571199999999,-0.08737725149999992,0.022751427999999407
146572.0,0.043051193499999994,-0.47856452,4.9540253805,-0.8657548674885193,-0.2664471995972103,-0.030340803716669425,4.977272835168148,0.9063366731647973,0.1124822755,-0.02039783200000006,-0.05030811449999906
146582.0,0.12689805099999998,-0.4941570934999999,4.819968475,-0.783951285447545,-0.3370597304743969,-0.027410395902570946,4.846894928549389,0.8537799538908529,0.08384685749999998,-0.015592573499999929,-0.1340569055000005
146592.0,0.18789541399999998,-0.4629719465,4.754067786999999,-0.6858934520827475,-0.37303271168725205,-0.02021614872585032,4.780251900605166,0.7810326012837355,0.060997363,0.031185146999999913,-0.06590068800000015
146602.0,0.2536980355,-0.5383850849999999,4.7600498435,-0.557725198462544,-0.3711669547168701,-0.006359979794267337,4.797113267953071,0.6699722043613919,0.06580262149999999,-0.07541313849999992,0.00598205650000061
146612.0,0.34715541,-0.6604778774999999,4.9156813790000005,-0.41783182292744253,-0.34931717781115307,0.014957471689591405,4.971988669054518,0.5448207493517142,0.09345737450000002,-0.12209279249999994,0.15563153550000042
146622.0,0.45600922499999996,-0.8257199299999999,5.1958573695,-0.29392740866986106,-0.3042859377804474,0.02988003679414292,5.280785132939207,0.4241179907727626,0.10885381499999996,-0.16524205250000001,0.2801759904999992
146632.0,0.453655629,-0.8772048425,5.480740552,-0.21372080289446163,-0.259785277842348,0.03893829561199349,5.569004288359464,0.3386460734138907,-0.002353595999999958,-0.05148491250000009,0.28488318250000066
146642.0,0.5134761939999999,-0.9777230049999999,5.783569903999999,-0.17668317083788998,-0.22914253216508354,0.04213573880164711,5.888062577008291,0.2924015447782689,0.05982056499999988,-0.1005181624999999,0.30282935199999894
146652.0,0.5757484214999999,-1.1489471139999998,6.081692064,-0.16522508429854718,-0.2032959512722995,0.03547556237603674,6.215990997174083,0.2643616610082999,0.062272227500000055,-0.17122410899999996,0.298122160000001
146662.0,0.5733948255,-1.1237440234999998,6.291162107999999,-0.15989659409220852,-0.16732297005944438,0.020820032647040358,6.416408880783482,0.2323733437191668,-0.002353595999999958,0.025203090500000025,0.2094700439999988
146672.0,0.568589567,-1.034013176,6.404919248,-0.1622946764844487,-0.11802789066611653,0.01149299312438266,6.512715863389385,0.2010030693328879,-0.00480525850000002,0.08973084749999982,0.11375714000000059
146682.0,0.58055368,-1.0423488285,6.635963921999999,-0.15323467233734614,-0.04821472058634336,0.012027063875492926,6.742369822971926,0.16109057810132218,0.011964112999999998,-0.008335652500000013,0.23104467399999962
146692.0,0.501512081,-1.1094263144999998,6.8298413925,-0.13431530324572763,-0.005047492196767601,0.024282765882997107,6.93751213054077,0.1365859823788541,-0.07904159899999996,-0.06707748599999985,0.19387747050000037
146702.0,0.4727785965,-1.2351475675,7.063337729,-0.10926808315035699,-0.0002513274122871834,0.029613001418587793,7.186087182098792,0.11321001286917504,-0.028733484500000017,-0.12572125300000025,0.2334963365
146712.0,0.5027869455,-1.4338302965,7.28241829,-0.06823364710671831,-0.02130174352059079,0.01655619328441821,7.43923922066316,0.07337371743732365,0.030008349000000045,-0.19868272899999995,0.21908056100000017
146722.0,0.5529969935,-1.5930902925000001,7.507480907499999,-0.01387536755335492,-0.06819874052167843,-0.009025097562062679,7.694544296536006,0.07017867496247467,0.05021004799999995,-0.15925999600000007,0.225062617499999
146732.0,0.6536132225,-1.5523926949999998,7.7348971209999995,0.039418261156291934,-0.12229173002873868,-0.03940080786377199,7.916171220771458,0.13439304374232106,0.100616229,0.04069759750000035,0.22741621350000063
146742.0,0.720592642,-1.460210185,7.886900195999999,0.0881810151277615,-0.1699880878272397,-0.05938657312835906,8.053239239073127,0.20049590145450305,0.06697941949999997,0.09218250999999977,0.15200307499999965
146752.0,0.787670128,-1.356063562,8.011444651,0.12388696096506151,-0.19690106489299228,-0.05698674540686685,8.163490553112938,0.23951095508393785,0.06707748600000007,0.1041466230000001,0.12454445500000055
146762.0,0.9325143484999999,-1.3643992145,8.128732184999999,0.13880778074036101,-0.1846436175562361,-0.03993313328563026,8.29502592896137,0.23442593848020662,0.1448442204999999,-0.008335652500000013,0.11728753399999903
146772.0,0.9911581154999999,-1.356063562,8.311920406999999,0.14387098090039657,-0.12575620859394743,-0.01328719159543283,8.479936535517743,0.19154642415263312,0.05864376699999996,0.008335652500000013,0.18318822200000007
146782.0,0.9684066875,-1.3440994489999998,8.542965081,0.14840011030932188,-0.06127152872051293,0.02454980125855224,8.70210705613199,0.1624176274712876,-0.02275142799999985,0.01196411300000011,0.2310446740000014
146792.0,0.9313375504999999,-1.3751865294999999,8.783522205499999,0.15825947525383782,-0.02183581427170106,0.06744999427257285,8.93917165952199,0.17341385763513376,-0.03706913700000014,-0.031087080500000086,0.24055712449999866
146802.0,0.8235624669999999,-1.3895042385,8.999072372499999,0.17611244817248783,-0.016505578736110374,0.1082191402699084,9.142881423892216,0.20736299296518476,-0.10777508349999998,-0.014317709000000178,0.21555016699999996
146812.0,0.639197447,-1.4230429814999999,9.1534290435,0.1992956566267285,-0.04448495197483147,0.1439250861072084,9.285412643379779,0.24982413837227435,-0.18436501999999988,-0.033538742999999815,0.1543566710000004
