timestamp,ax,ay,az,gx,gy,gz,acc_mag,gyro_mag,dax,day,daz
41682.0,-1.029502117,2.5321750964999996,9.859703976499999,0.04154930817297701,0.059702477722970035,0.0599887117202971,10.231595566305979,0.094283489486631,0.0,0.0,0.0
41692.0,-1.1229594914999999,2.7105580599999994,9.699365249,0.07086036763096977,0.07835481143903343,0.0405370172068203,10.133402649144546,0.11315439867927679,-0.0934573744999998,0.17838296349999982,-0.16033872749999922
41702.0,-1.4521687319999999,3.033785244,9.755557353499999,0.06339908507869402,0.07329161127899789,-0.008491026810952413,10.319086500768298,0.09727898955576958,-0.3292092405,0.3232271840000007,0.05619210449999912
41712.0,-1.340765188,2.826668796,9.826263299999999,0.031424653182157904,0.04744503038621385,-0.02021614872585032,10.31228191103015,0.06039232074753678,0.11140354399999985,-0.20711644800000029,0.0707059465000004
41722.0,-1.163657089,2.6602499455,9.8345989525,0.007709119306058953,0.0501101481540092,-0.04020016866118539,10.254285160352564,0.06470325361896073,0.17710809900000002,-0.16641885049999994,0.008335652500001345
41732.0,-1.0977564009999998,2.736839882,9.815475984999999,0.003977605365295077,0.087414815586136,-0.05565505918759518,10.248850202230196,0.10370466210144513,0.06590068800000015,0.07658993650000001,-0.01912296750000131
41742.0,-1.082261894,2.9212049019999995,9.849014728,-0.0005515240436302082,0.1332454164142551,-0.05059185902755963,10.329947724893588,0.14252782666568453,0.01549450699999988,0.18436501999999955,0.03353874300000115
41752.0,-1.1372772005,2.9990697029999995,10.011805118,-0.008545132017764237,0.14363885210988134,-0.029541442919256023,10.513042387198894,0.14689396164035146,-0.05501530650000008,0.07786480100000004,0.16279038999999962
41762.0,-1.2377953629999998,3.0540850094999996,10.105164426,-0.021601940151933816,0.10366906690995918,-0.01328719159543283,10.628919074036308,0.10672613884519137,-0.10051816249999979,0.05501530650000008,0.09335930800000014
41772.0,-1.3874448419999998,3.0708543809999997,10.142233562999998,-0.03199363051830805,0.03252246528166233,-0.010356783781334353,10.68737813803474,0.04678211316339028,-0.14964947900000003,0.01676937150000013,0.03706913699999781
41782.0,-1.4114711345,3.0325103794999997,10.1374283045,-0.03252770126941832,-0.018903661128350582,-0.029808478294811154,10.675009254992695,0.0479994284568083,-0.0240262925000001,-0.03834400150000006,-0.004805258499997578
41792.0,-1.3934268984999998,2.9475847904999997,10.2068593865,-0.01973618318155188,-0.00957836693494488,-0.0596518631746622,10.71493691789333,0.06355790131781286,0.018044236000000158,-0.08492558900000002,0.06943108199999948
41802.0,-1.4161783265,3.0911541464999996,10.4127990365,0.00477696616270848,0.03598694384687108,-0.08363443242631628,10.953865928721594,0.09117344909802183,-0.022751428000000296,0.14356935599999998,0.20593964999999947
41812.0,-1.442558215,3.279147627,10.6114817655,0.02929186083622083,0.059170152301111764,-0.09189333044675345,11.199880741457148,0.11315257051954902,-0.02637988849999995,0.1879934805000003,0.1986827290000015
41822.0,-1.417453191,3.2492373445,10.811439359,0.03089058243104764,0.039718457787634956,-0.0815016400803792,11.377782643507645,0.09578257309004161,0.025105024000000142,-0.02991028249999994,0.19995759349999886
41832.0,-1.4161783265,3.0899773484999997,11.041307234999998,0.027160813819535758,-0.027696629899898014,-0.05911953775280393,11.552661447664548,0.07071020336031157,0.001274864499999806,-0.1592599960000003,0.22986787599999836
41842.0,-1.478450554,2.930815419,11.3813037905,0.051940998539351246,-0.13561382820921142,-0.026343999729602413,11.845234106277543,0.14759059608449207,-0.06227222749999983,-0.15916192949999974,0.33999655550000263
41852.0,-1.593384492,2.8577558764999997,11.7631747415,0.1084320704386517,-0.23713614013921755,0.000301941960595019,12.209747040298582,0.2607511342807293,-0.11493393800000007,-0.07305954250000024,0.3818709509999998
41862.0,-1.7118488239999998,2.7871479965,12.258704766,0.17025163254429085,-0.3002891337933804,0.00856258531028418,12.687571197458372,0.34530059386796724,-0.11846433199999984,-0.07060787999999985,0.49553002449999894
41872.0,-1.719105745,2.794306851,12.9195749095,0.20569054300603573,-0.311480184957168,-0.006359979794267337,13.329624570190244,0.37332151618417725,-0.007256921000000194,0.007158854500000089,0.6608701435000004
41882.0,-1.7322466559999998,2.8602075389999997,13.607903673,0.19822926045375996,-0.3205401891042706,-0.02767743127812608,14.012726644626394,0.3778979924969192,-0.01314091099999981,0.06590068799999971,0.6883287634999995
41892.0,-1.7657853989999999,2.9882823879999996,14.190810949,0.1417399338837115,-0.34345461685370415,-0.03993313328563026,14.60913909496418,0.37369230367976747,-0.03353874300000004,0.12807484899999988,0.5829072760000003
41902.0,-1.815995447,3.0229979289999998,14.546400078,0.030091221633634237,-0.3903533591840438,-0.03700272547153178,14.967769077972221,0.393256186649356,-0.05021004800000006,0.03471554100000018,0.35558912900000017
41912.0,-1.754998084,2.9954412424999997,14.742729210999999,-0.12392361287935338,-0.4604318193101201,-0.04313232180453586,15.145981351533027,0.4787639494015281,0.06099736300000003,-0.027556686500000094,0.196329132999999
41922.0,-1.6939026544999998,2.9283637564999996,14.722331379,-0.2790048435653095,-0.5571579664556459,-0.0604512239720756,15.106014091294664,0.6260375809786626,0.06109542950000013,-0.06707748600000007,-0.020397831999998672
41932.0,-1.3970553589999999,2.8194118749999997,14.396750598999999,-0.4125033327211038,-0.658680278385652,-0.08203571083148947,14.736596445815039,0.7815040412511284,0.2968472954999999,-0.1089518814999999,-0.325580780000001
41942.0,-1.0068487554999999,2.6363217195,13.935838049,-0.4991030795465584,-0.6592126038075102,-0.0993546129990292,14.218703131900442,0.8327883765733781,0.3902066035,-0.18309015549999952,-0.46091254999999975
41952.0,-0.7577598455,2.6722140585,13.3612664255,-0.5404045509657522,-0.5486320330596536,-0.09242740119786372,13.646917910322857,0.7756139573885039,0.24908890999999989,0.03589233899999966,-0.5745716234999989
41962.0,-0.705098135,2.842163303,12.8656383345,-0.5374741431516538,-0.3693029430757402,-0.05858721233094565,13.194684739509931,0.6547484858857782,0.052661710500000014,0.16994924450000015,-0.4956280910000004
41972.0,-0.7243191689999999,2.8218635375,12.579578353999999,-0.45860096892477803,-0.17478425261172015,-0.02074847414770859,12.912526617485758,0.4912177550122155,-0.01922103399999997,-0.0202997654999999,-0.28605998050000103
41982.0,-0.7110801915,2.677019317,12.499359957,-0.3067171814284755,-0.02476622208579954,-0.006359979794267337,12.802580474146213,0.30778116330083455,0.013238977499999915,-0.1448442205,-0.08021839699999944
41992.0,-0.769822025,2.655444687,12.572419499499999,-0.1108668047451838,0.04531398336952878,-0.026343999729602413,12.872829700858293,0.12263283330729147,-0.05874183349999995,-0.021574629999999928,0.07305954249999935
42002.0,-0.863181333,2.7620429724999997,12.795030454499999,0.09484119155337187,0.034655257627599405,-0.07084291433844984,13.118184620104977,0.12334730239637835,-0.09335930800000003,0.10659828549999961,0.2226109550000004
42012.0,-0.936142809,3.0888005505000002,13.089524154,0.2725733052717104,-0.026897269102484613,-0.12413654304809668,13.481568706117285,0.3007150663865189,-0.07296147600000003,0.3267575780000005,0.29449369950000026
42022.0,-0.889463155,3.5053870424999998,13.399610426999999,0.37436090724801974,-0.11483044747646293,-0.17742842642849155,13.87906490427927,0.42989878698141937,0.04667965400000007,0.41658649199999953,0.3100862729999996
42032.0,-0.646454368,3.7328032559999995,13.3971587645,0.32639751407396356,-0.16892169165427118,-0.20993692907613792,13.922484920413083,0.4232533393783483,0.24300878699999995,0.22741621349999974,-0.002451662499998619
42042.0,-0.4633642125,4.0716230135,13.316940367499999,0.14973354185784554,-0.138811271398865,-0.22965565896516987,13.933187758335835,0.3072953372887245,0.18309015550000002,0.3388197575000005,-0.08021839700000122
42052.0,-0.378340557,4.279916259499999,13.281048028499999,-0.06157172535185596,-0.11589684364943145,-0.2176652470039688,13.958762892918815,0.25416788838089655,0.08502365549999996,0.20829324599999932,-0.035892339000000106
42062.0,-0.19995759349999997,4.3469937455,13.156601639999998,-0.24622930554210803,-0.17025512320279484,-0.17289929701956624,13.857579311563223,0.3457019594888172,0.17838296350000005,0.06707748600000052,-0.12444638850000089
42072.0,0.1471978165,4.16978758,12.822587140999998,-0.41756478755188736,-0.2563225446063912,-0.10281909156423795,13.484344131178316,0.5006329636238942,0.34715540999999994,-0.17720616549999946,-0.33401449900000024
42082.0,0.45483242699999993,3.993856279,12.330587510500001,-0.5686492142507765,-0.3208054791505737,-0.013554226970987963,12.969238561614056,0.653040428602882,0.30763461049999996,-0.17593130100000032,-0.49199963049999695
42092.0,0.5637843084999999,3.8070395964999997,11.7535642245,-0.6896232206942595,-0.3522493309545036,0.10262361468801459,12.36760588049587,0.7811474790142082,0.10895188150000001,-0.18681668250000039,-0.5770232860000011
42102.0,0.6200744794999999,3.646700869,11.164576825500001,-0.7863493678397852,-0.34345461685370415,0.2217318641611156,11.761407028097626,0.8862682560740387,0.056290171,-0.16033872749999967,-0.5889873989999987
42112.0,0.5063173395,3.4336023644999996,10.6318795975,-0.85749422413883,-0.3026872161856206,0.33284650566008256,11.18404426947225,0.9683505003890802,-0.11375713999999992,-0.21309850450000045,-0.5326972280000017
42122.0,0.38422454699999997,3.0421208964999997,10.182931160499999,-0.899062730933579,-0.23687085009291442,0.43570224913861244,10.634576393581513,1.0267706869997462,-0.12209279250000005,-0.39148146799999983,-0.4489484370000003
42132.0,0.22496455099999998,2.6745676544999997,9.905206832499998,-0.8995950563554372,-0.16172744447755055,0.5060477446402438,10.262409248432304,1.0447542062953654,-0.159259996,-0.36755324200000006,-0.27772432800000146
42142.0,-0.087475318,2.4579387559999994,9.803511872,-0.8614910281258971,-0.10870259647271084,0.5516130554220599,10.107322092619338,1.0287176526789965,-0.312439869,-0.21662889850000022,-0.10169496049999793
42152.0,-0.3747120965,2.295148366,9.756832218,-0.8012719329443367,-0.09777683535522633,0.573729867703332,10.030149057088767,0.990334782359642,-0.28723677849999996,-0.16279038999999962,-0.04667965400000007
42162.0,-0.5901641969999999,2.1802144279999998,9.687401136,-0.7586370299766193,-0.10870259647271084,0.5707977145599816,9.947229237393401,0.9555921874306806,-0.2154521004999999,-0.11493393800000007,-0.06943108199999948
42172.0,-0.6309598609999999,1.962310665,9.712506159999998,-0.7479783042346899,-0.13295045577066805,0.5500143338272331,9.928824170071891,0.9379035849760068,-0.04079566400000001,-0.2179037629999998,0.025105023999998366
42182.0,-0.555448656,1.7899097579999999,9.756832218,-0.7626338339636863,-0.18224553516399591,0.5204362389936852,9.935193761645447,0.9411044993257949,0.07551120499999986,-0.1724009070000001,0.04432605800000111
42192.0,-0.517202721,1.7611762734999998,9.678967416999999,-0.7948753012357775,-0.27310912135207266,0.49885349746352325,9.85147962390913,0.9773792245653469,0.038245935000000064,-0.028733484500000017,-0.07786480100000048
42202.0,-0.5494665995,1.8965080435,9.367704346,-0.8404406120175935,-0.38342440205362627,0.48899413251900725,9.57353336115217,1.0452128759524082,-0.03226387850000001,0.13533177000000007,-0.31126307099999906
42212.0,-0.5231847775,1.936028843,8.898456143499999,-0.8939995307735434,-0.48414735318621904,0.48819477172159387,9.12164742412951,1.1278155681479292,0.026281821999999955,0.0395207995000002,-0.4692482025000011
42222.0,-0.5279900359999999,1.824625299,8.404102917,-0.9153169822574022,-0.5278469069976531,0.4900605286919758,8.61608825392324,1.16472608669062,-0.004805258499999909,-0.11140354400000008,-0.49435322649999947
42232.0,-0.4310022675,1.6774274825,8.0629295635,-0.8788116756226889,-0.4964048005229752,0.4682107517862588,8.246839337564344,1.1126315631336667,0.09698776849999996,-0.14719781650000008,-0.34117335350000033
42242.0,-0.450125235,1.53376006,7.9252441975,-0.8028706545391635,-0.40634057513231187,0.44369585711274645,8.084833222698068,1.0032845880098118,-0.019122967500000032,-0.14366742249999986,-0.13768536599999948
42252.0,-0.5794749484999999,1.5852449724999997,8.048513788,-0.7279942842993548,-0.2904297688488644,0.4186486370173758,8.22358602036859,0.8885897871811498,-0.1293497134999999,0.05148491249999965,0.12326959049999964
42262.0,-0.7243191689999999,1.5254244074999999,8.195809671,-0.684827055909779,-0.23313933615215057,0.391201589200513,8.367965944292239,0.8224236924849186,-0.1448442205,-0.05982056499999988,0.14729588299999996
42272.0,-0.633313457,1.3530235005,8.4147921655,-0.6845600205342239,-0.2621833602345882,0.35896012192842175,8.546372664252521,0.8162198877953075,0.09100571199999996,-0.17240090699999988,0.2189824945000005
42282.0,-0.4908228324999999,1.2153381344999998,8.4950105625,-0.7157368369625986,-0.3221389106990974,0.31472824269512945,8.595531297776759,0.8456397367210169,0.14249062450000005,-0.13768536600000014,0.08021839699999944
42292.0,-0.39148146799999994,1.2129845384999998,8.4328364015,-0.777823434443793,-0.3812933550369412,0.277955900684861,8.528617649120575,0.9097545825610315,0.09934136449999997,-0.002353596000000069,-0.06217416099999973
42302.0,-0.401091985,1.2583893279999998,8.151483613,-0.8686870206318698,-0.40953801832196546,0.26090228856362435,8.257790477740585,0.9951927112087857,-0.00961051700000004,0.04540478950000004,-0.28135278849999956
42312.0,-0.4058972435,1.197391965,7.713322491,-0.9774035797385965,-0.4012773749722762,0.2537080413869037,7.81625510972447,1.0866043712478073,-0.00480525850000002,-0.060997362999999805,-0.43816112200000035
42322.0,-0.33881975749999993,1.010673349,7.238092231999999,-1.0765278092763624,-0.3485178170137397,0.24304931564497437,7.316162833438711,1.157345999585637,0.06707748600000007,-0.18671861600000006,-0.4752302590000008
42332.0,-0.2670350795,0.7640361014999999,6.8490624265,-1.133017135846411,-0.25898591704493457,0.21666866400108004,6.896717699034299,1.1822634415853446,0.07178467799999994,-0.24663724750000005,-0.389029805499999
42342.0,-0.2909633055,0.6120330265,6.536622557499999,-1.1311513788760288,-0.17958041739620054,0.18336080055602028,6.5716572133589,1.159902474963253,-0.023928225999999997,-0.15200307499999988,-0.3124398690000003
42352.0,-0.2550709665,0.6323327919999999,6.3977603935,-1.0786588562930475,-0.12468981242097889,0.13886188594717286,6.4339912970431525,1.094684932274949,0.035892338999999995,0.0202997654999999,-0.13886216399999984
42362.0,-0.1569064,0.5677069684999999,6.315090334,-1.0013844036609987,-0.09005026275664745,0.09596169293315222,6.342497674183622,1.0099942674236482,0.0981645665,-0.06462582350000001,-0.08267005949999984
42372.0,-0.07070594649999999,0.5246557749999999,6.295967366499999,-0.9243769864045047,-0.06606769350499335,0.06585127267774606,6.3181855063890175,0.9290716566727362,0.08620045350000001,-0.04305119349999997,-0.01912296750000042
42382.0,-0.0048052584999999995,0.5078864035,6.222907824,-0.8662889382396295,-0.0618038541423712,0.04906469593206459,6.243601002255816,0.8698756148381802,0.06590068799999999,-0.016769371499999908,-0.07305954249999935
42392.0,0.0550153065,0.4899402339999999,6.208590115,-0.8175261842681599,-0.0804561878584346,0.04693364891537951,6.228134498621315,0.8228153058428612,0.059820565,-0.01794616950000011,-0.014317709000000178
42402.0,0.11012867949999999,0.433650063,6.171520977999999,-0.7629008693392414,-0.11190003966236445,0.06265382948809244,6.187717825263397,0.7736051044716109,0.05511337299999999,-0.056290170999999944,-0.037069137000000474
42412.0,0.1699492445,0.31636252899999995,6.025401893,-0.7088096251614332,-0.138811271398865,0.08850041038087647,6.036094429979486,0.7276757357686489,0.05982056500000002,-0.11728753400000003,-0.1461190849999996
42422.0,0.196329133,0.1858360175,5.8697703575,-0.6584481495951368,-0.1262885340158057,0.10741977947249501,5.875992188869083,0.6790005659430929,0.026379888499999976,-0.13052651149999994,-0.15563153549999953
42432.0,0.221434157,0.020593965,5.7728806555,-0.607287313231427,-0.08924915662998203,0.11461402664921563,5.777162647868487,0.6244194646836015,0.025105024000000004,-0.16524205250000001,-0.09688970200000036
42442.0,0.2621317545,-0.15896579649999998,5.7273777995,-0.5510632767076816,-0.032492794684378434,0.11621274824404243,5.735576661450842,0.5641204831387009,0.04069759749999999,-0.17955976149999997,-0.0455028559999997
42452.0,0.213000438,-0.26066075699999997,5.781216308,-0.4807177812060502,0.022664845666398363,0.10475466170469966,5.791008134747624,0.49252088234471403,-0.049131316499999994,-0.10169496049999999,0.05383850850000016
42462.0,0.10532342099999999,-0.22113995749999998,5.927237326499999,-0.4037086186203044,0.06476567788300558,0.08610232798863626,5.932296202017318,0.41783830923578835,-0.107677017,0.03952079949999998,0.14602101849999904
42472.0,0.005982056499999999,-0.1744603035,6.0888509185,-0.32643591131750743,0.09460906276285662,0.06638534342885631,6.091352697900162,0.34629220721339504,-0.09934136449999999,0.04667965399999999,0.16161359200000103
42482.0,0.07178467799999999,-0.08708305200000001,6.391778337,-0.2430318623524544,0.09434202738730149,0.046399578164269255,6.3927745781689875,0.26479770600190405,0.06580262149999999,0.08737725149999999,0.3029274184999995
42492.0,0.16877244649999998,-0.04638545449999999,6.741287343,-0.144974028987657,0.0703612034648994,0.03414213082751307,6.743559207864847,0.16472356580461098,0.09698776849999999,0.040697597500000016,0.3495090059999999
42502.0,0.18907221199999996,0.064920023,7.0716733815,-0.04851491721768638,0.018401006303776217,0.044001495772029046,7.074498379768882,0.06803253527398831,0.020299765499999983,0.11130547749999999,0.33038603850000037
42512.0,0.22976980949999998,0.14513842,7.3841132505,0.027160813819535758,-0.050345767603028425,0.06691766885071458,7.3891127899449085,0.08803624553155097,0.040697597500000016,0.080218397,0.3124398689999994
42522.0,0.3184219255,0.121210194,7.621139981,0.08924566597147805,-0.09804387073078145,0.09303128511905376,7.628752128871755,0.16196360545958927,0.088652116,-0.023928225999999997,0.23702673050000023
42532.0,0.35549106249999995,0.07688413599999999,7.865325565999999,0.13294696511216406,-0.10763620029974229,0.11941019143369605,7.873730457988707,0.20861265773133986,0.037069136999999974,-0.044326058,0.24418558499999943
42542.0,0.360296321,0.0218688295,8.096370239999999,0.1587935460049481,-0.08099025860954487,0.13886188594717286,8.104412547975793,0.22595892461080658,0.00480525850000002,-0.05501530649999999,0.23104467399999962
42552.0,0.38657814299999993,-0.12062179499999999,8.3418306895,0.17185035413911767,-0.05700768935789079,0.1508522979083739,8.351654418757901,0.23566679156788875,0.026281821999999955,-0.1424906245,0.24546044950000123
42562.0,0.474053461,-0.30253515249999996,8.569246903,0.17797820514286977,-0.048481755961898486,0.15565020802210633,8.587679936220223,0.2413580523296281,0.08747531800000008,-0.18191335749999998,0.22741621349999974
42572.0,0.5518201954999999,-0.48091811599999995,8.716542786,0.1790446013158383,-0.04768239516448509,0.14898828626724395,8.74722275368744,0.2377563658744384,0.07776673449999993,-0.1783829635,0.14729588299999996
42582.0,0.5434845429999999,-0.539561883,8.8745279175,0.18010925215955484,-0.02236813969355933,0.13753019972790118,8.907510776448902,0.2277152437234299,-0.008335652500000013,-0.05864376700000001,0.15798513150000026
42592.0,0.453655629,-0.50013915,9.131952479999999,0.20302542523824038,0.0005480333851262194,0.13193467414600735,9.15688258612418,0.24212885386870497,-0.08982891399999993,0.03942273299999999,0.2574245624999989
42602.0,0.34833220800000003,-0.47856452,9.367704346,0.24939009681746974,-0.008779006137531478,0.13086827797303882,9.38638610121064,0.2817782772305529,-0.10532342099999997,0.021574629999999984,0.2357518660000011
42612.0,0.2764494635,-0.47738772199999996,9.6274825045,0.2818985994651161,-0.014374531719425298,0.13273403494342076,9.643274481079514,0.31191628937089505,-0.07188274450000004,0.0011767980000000344,0.25977815849999963
42622.0,0.24300878699999998,-0.4941570934999999,9.797529815499999,0.2848290072792146,-0.008511970761976346,0.13033595255118055,9.81299317177114,0.313348811329067,-0.033440676500000016,-0.016769371499999963,0.17004731099999937
42632.0,0.21898249449999999,-0.4845465765,9.905206832499998,0.26404562654646613,-0.008779006137531478,0.12500571701558988,9.919468791840616,0.2922731481570971,-0.02402629249999999,0.00961051699999993,0.10767701699999854
42642.0,0.142392558,-0.43306166399999996,10.024946028999999,0.22434287672209913,0.0005480333851262194,0.12474042696928672,10.035305721788603,0.25669086621268417,-0.07658993649999998,0.051484912500000035,0.1197391965000012
42652.0,0.0310870805,-0.41511549449999996,10.090748650499998,0.18010925215955484,0.012006119924468992,0.11328234042994395,10.099331443611282,0.2131111876049696,-0.1113054775,0.017946169499999998,0.0658026214999996
42662.0,-0.008433719,-0.467777205,10.071625683,0.13720905914553422,0.011472049173358728,0.09383064591646716,10.08248632727062,0.16661969852613495,-0.039520799499999995,-0.052661710500000014,-0.019122967499997756
