timestamp,ax,ay,az,gx,gy,gz,acc_mag,gyro_mag,dax,day,daz
59072.0,-0.5434845429999999,1.7348944515,10.105164426,0.05700419869938679,-0.06553536808313508,-0.08443379322372968,10.26740387258733,0.12113392826660378,0.0,0.0,0.0
59082.0,-0.769822025,2.468726071,10.082412997999999,0.08018740715362749,-0.08765043503515524,-0.11267845650875392,10.408760071499847,0.16373470490115632,-0.22633748200000003,0.7338316194999999,-0.022751428000001184
59092.0,-0.6931340220000001,2.4160643605,10.254813905,0.09137845831741512,-0.09244834514888764,-0.08976228343006837,10.558362088539752,0.15796830913767276,0.0766880029999999,-0.05266171049999979,0.17240090700000188
59102.0,-0.62370294,2.295148366,10.472619601499998,0.10629927809271464,-0.07566002307395418,-0.07377506748180032,10.739295726305292,0.14988907964400794,0.06943108200000003,-0.12091599450000023,0.21780569649999748
59112.0,-0.633313457,2.1491273475,10.706115938,0.1230876001676481,-0.07006449749206037,-0.0783041968907256,10.938041541724337,0.16183676459490673,-0.00961051699999993,-0.14602101849999993,0.2334963365000018
59122.0,-0.6608701435000001,2.1657986525,11.001786435499998,0.11749207458575427,-0.04554960281854801,-0.09429315816824564,11.232396802200867,0.15738600187034968,-0.027556686500000094,0.016671305000000025,0.29567049749999796
59132.0,-0.725495967,2.272396938,11.438672693,0.08631525815737957,-0.02849599069731142,-0.1132107819306122,11.684749257880927,0.1451861784810695,-0.0646258234999999,0.10659828550000006,0.4368862575000012
59142.0,-0.784139734,2.3011304225,11.893603186499998,0.04794419455228423,-0.05993984250124126,-0.1172075859176792,12.13951700446585,0.1401037069709115,-0.05864376700000007,0.028733484500000017,0.45493049349999914
59152.0,-0.8726937834999999,2.3825256175,12.186920087999999,0.006375687757535286,-0.1364131890066248,-0.10761525634871837,12.448254656340431,0.17386848745054148,-0.0885540494999999,0.08139519499999981,0.2933169015000008
59162.0,-0.9218251,2.3381995595,12.409531043,-0.038655552273170406,-0.17105448400020828,-0.09562484438751732,12.66149277937703,0.19974483493261652,-0.04913131650000002,-0.04432605799999978,0.2226109550000004
59172.0,-0.8966220094999999,2.1191189985,12.640575716999999,-0.0759602197052972,-0.18943978234071654,-0.10175269539126941,12.84829758430795,0.2280591965485355,0.025203090500000025,-0.21908056100000017,0.23104467399999962
59182.0,-0.8105196225,1.9563286084999998,12.778261083,-0.09594598496988428,-0.22434636738060312,-0.1297320686299905,12.952533342485763,0.27634640258148896,0.08610238699999995,-0.16279039000000006,0.13768536600000125
59192.0,-0.713531854,1.866597761,12.9925363855,-0.08981638863688018,-0.24566381886446184,-0.17023417925177092,13.145315387490111,0.3120855192929757,0.09698776850000002,-0.08973084749999982,0.21427530249999904
59202.0,-0.6500828285,1.870128155,13.172096147,-0.05197939578289513,-0.29655761985261647,-0.1947490739252833,13.32006396027611,0.3585742339786272,0.06344902549999998,0.0035303939999999923,0.1795597615000002
59212.0,-0.57466969,2.0437058599999998,13.400787225,0.0029129545215785357,-0.34025717366405056,-0.20087692492903536,13.567906144447132,0.3951391761175269,0.07541313849999998,0.1735777049999998,0.22869107800000066
59222.0,-0.42864867149999997,2.0689089505,13.5324905345,0.04181634354853214,-0.3775618410961773,-0.18675546595114925,13.696438368983735,0.4232955876244575,0.14602101850000004,0.025203090500000247,0.13170330950000064
59232.0,-0.3256788465,2.0724393445,13.7215627465,0.04208163359483528,-0.3855554490703113,-0.16170650052652663,13.881007015120545,0.4202057359274799,0.10296982499999996,0.00353039399999977,0.18907221199999924
59242.0,-0.25742456249999995,2.088031918,13.817373716999999,0.010107201698299161,-0.35358101717377527,-0.13932439819895134,13.976621949927937,0.3801749323210456,0.06825428400000005,0.015592573500000206,0.09581097049999876
59252.0,-0.2119217065,2.1167654024999996,13.835319886499999,-0.041852995462824026,-0.29389250208482115,-0.12919974320813224,13.997917092935262,0.32375461333537026,0.04550285599999995,0.028733484499999573,0.017946169500000053
59262.0,-0.08620045349999998,2.0365470054999997,13.8329662905,-0.09674534576729768,-0.22461340275615826,-0.13239718639778586,13.982342815776759,0.2781004451477635,0.12572125300000003,-0.08021839699999989,-0.0023535959999989586
59272.0,0.004707192,2.0485111185,13.874840686,-0.12365657750379824,-0.16172744447755055,-0.140656084418223,14.025249517286872,0.247448680620969,0.09090764549999998,0.011964113000000332,0.041874395500000716
59282.0,-0.0036284604999999998,2.1406936285,13.9502538245,-0.10287319677104977,-0.134814467411798,-0.13639399038485286,14.113545413708172,0.21762618374296142,-0.008335652499999999,0.09218250999999977,0.07541313850000009
59292.0,0.062174161,2.2903431075,13.993305018,-0.05943893300591889,-0.1510687187356212,-0.1094810133191003,14.179637601263044,0.19580816329939196,0.06580262149999999,0.14964947900000025,0.04305119349999842
59302.0,0.11248227549999999,2.4280284735,14.0100743895,-0.031194269720894653,-0.17531657803357842,-0.07164227513586324,14.219358597691818,0.1919416593224786,0.050308114499999994,0.13768536599999992,0.016769371500000574
59312.0,0.153179873,2.527369838,14.029197357,-0.03012961887717811,-0.2070257198838114,-0.03620336467411838,14.255856370389687,0.21231609981539684,0.0406975975,0.09934136449999986,0.019122967499999532
59322.0,0.19152387449999997,2.736839882,14.123831529499999,-0.056508525191820404,-0.24379806189407993,-0.011688470000606025,14.387827876643072,0.2505340869694567,0.038344001499999975,0.20947004400000013,0.09463417249999928
59332.0,0.2980240935,2.9655309599999997,14.135795642499998,-0.12605465989603845,-0.3018878553882072,0.010161306905110988,14.446588202117029,0.32730613601094755,0.10650021900000001,0.22869107799999977,0.011964112999999443
59342.0,0.512299396,3.069677583,13.987322961499999,-0.22651232098232807,-0.357045495738984,0.04613254278871412,14.329360584618554,0.42534401263971094,0.2142753025,0.1041466230000001,-0.14847268099999944
59352.0,0.6536132225,3.1582316324999997,13.644972809999999,-0.34748632742581104,-0.3669031153542479,0.10795210489435327,14.020945769625873,0.5167381355731856,0.14131382650000002,0.0885540494999999,-0.3423501514999998
59362.0,0.6966644160000001,3.1726474079999996,13.192493978999998,-0.4769862672652863,-0.33626036967698353,0.18176207896119345,13.586498087070154,0.6112482218569375,0.043051193500000084,0.014415775499999839,-0.4524788310000005
59372.0,0.544661341,3.1690189474999997,12.660973549,-0.5944957951435605,-0.263782081829415,0.24917716664872644,13.062908874920302,0.6964879737057358,-0.1520030750000001,-0.003628460499999875,-0.5315204299999987
59382.0,0.37108363599999994,3.0181926704999995,12.232422944,-0.6677734437885424,-0.16865640160796805,0.28967927727050685,12.604735663315772,0.7471816631265258,-0.17357770500000003,-0.15082627700000018,-0.42855060499999986
59392.0,0.24653918099999997,2.8122530205,11.9414596385,-0.7013483426091573,-0.0804561878584346,0.30433480699950327,12.270615588347802,0.7687537776146199,-0.12454445499999997,-0.20593964999999947,-0.29096330550000005
59402.0,0.11248227549999999,2.736839882,11.8229953065,-0.7141381153677718,-0.029030061448421685,0.30033800301243624,12.136151071057432,0.7752669916501219,-0.1340569055,-0.07541313850000009,-0.11846433200000028
59412.0,-0.10542148749999998,2.6710372605,11.857710847499998,-0.7184019547303939,-0.050080477556725296,0.2974075951983377,12.155281168279291,0.7791410016642809,-0.21790376299999997,-0.06580262150000005,0.03471554099999885
59422.0,-0.17485256949999997,2.583660009,11.8122079915,-0.7327904490838352,-0.1473389501241093,0.29527654818165266,12.092730464937317,0.8036658810713787,-0.06943108199999999,-0.08737725149999997,-0.045502855999998815
59432.0,-0.24546044949999998,2.5597317829999997,11.547624574499999,-0.7613021477444145,-0.2656478387997969,0.2915450342408888,11.830473825961722,0.8574078617611237,-0.07060788000000001,-0.02392822600000022,-0.26458341700000076
59442.0,-0.21074490849999997,2.503441612,11.172912478,-0.7943429758139193,-0.3634403821182912,0.27848822610671925,11.451882227922184,0.9168562409992471,0.034715541000000016,-0.05629017099999967,-0.3747120964999979
59452.0,-0.111403544,2.389684472,10.755149187999999,-0.8332463648408729,-0.4231271518779933,0.2707616535081403,11.017996037459385,0.9729583568618823,0.09934136449999997,-0.11375714000000015,-0.4177632900000017
59462.0,0.014317708999999998,2.2305225425,10.346996415,-0.8828084796097558,-0.43138779522768245,0.2699622927107269,10.584695112350403,1.0189827677777097,0.12572125299999998,-0.15916192949999974,-0.4081527729999994
59472.0,0.028733484499999996,2.085678322,10.026122827,-0.9499582772509857,-0.4015444103478314,0.26916293191331353,10.240801658956329,1.0658833547416993,0.014415775499999998,-0.1448442205,-0.32087358799999954
59482.0,0.0214765635,1.9036668979999998,9.639446617499999,-1.0320271493382631,-0.3637056721645943,0.2659654887236599,9.825647052126026,1.1260992381348884,-0.007256920999999996,-0.18201142400000037,-0.3866762095000009
59492.0,-0.016769371499999998,1.671445426,9.125872356999999,-1.1167628845225877,-0.31254483580088455,0.25850420617138414,9.277691377717494,1.1881363723248732,-0.038245934999999995,-0.23222147199999976,-0.5135742605000004
59502.0,0.025105024,1.5493526334999999,8.5393366205,-1.1799141328474987,-0.23180764993287886,0.23985187245532072,8.678789878973669,1.226157032431406,0.041874395499999995,-0.12209279250000016,-0.5865357364999984
59512.0,0.034715541,1.382933783,8.135891039499999,-1.202297980504326,-0.12682085943766397,0.22679506432115118,8.2526622385486,1.2300568952344129,0.009610517000000002,-0.16641885049999994,-0.4034455810000015
59522.0,-0.009610516999999999,1.2500536755,7.872582487,-1.1804482035986088,-0.06153856409606807,0.22599570352373777,7.971215814936086,1.20346126413,-0.044326058,-0.1328801074999999,-0.26330855249999896
59532.0,-0.049131316499999994,1.0633350595,7.616334722499999,-1.129552657281202,-0.05860641095271759,0.22306529570963926,7.690360845901967,1.1528582059931796,-0.039520799499999995,-0.18671861600000006,-0.2562477645000012
59542.0,-0.027556686499999997,0.829838723,7.467960107999999,-1.0592071617795706,-0.06366961111275314,0.2054776128372924,7.513974970136678,1.0808305511604004,0.021574629999999997,-0.2334963365,-0.14837461449999978
59552.0,-0.089828914,0.63350959,7.2884003465,-0.9853971877127305,-0.07086385828947377,0.1825614397586069,7.316432412403855,1.004668096064847,-0.0622722275,-0.196329133,-0.1795597614999993
59562.0,-0.068254284,0.45041943449999994,7.0453915595,-0.9331699551760523,-0.09404706674371444,0.1516534040350393,7.060104711754175,0.950078823551913,0.021574629999999997,-0.18309015550000002,-0.24300878699999995
59572.0,-0.05511337299999999,0.2780185275,6.858574877,-0.8905367975375867,-0.10896788651901397,0.11141658345956201,6.864428681902979,0.9040704857093406,0.013140911000000005,-0.17240090699999994,-0.18681668249999994
59582.0,-0.10061622899999999,0.263602752,6.634787124,-0.8428386944098337,-0.13188405959769953,0.07144679825963988,6.640783855630022,0.8560812548771269,-0.045502855999999994,-0.014415775500000005,-0.22378775299999987
59592.0,-0.10542148749999998,0.3258749795,6.4097245065,-0.8007378621932265,-0.178515766552484,0.04933173130761972,6.418868782076598,0.821877498518731,-0.0048052584999999925,0.0622722275,-0.2250626174999999
59602.0,0.0442279915,0.274390067,6.21937743,-0.7692957557185486,-0.20436234744526802,0.045333181991300715,6.225584441712584,0.7972672238398927,0.14964947899999997,-0.05148491249999998,-0.19034707650000016
59612.0,0.213000438,0.20741064749999996,5.9931380144999995,-0.7770223283171275,-0.16572424846461759,0.05492725688951355,6.000507613871476,0.7963951461315788,0.16877244649999998,-0.06697941950000005,-0.22623941550000026
59622.0,0.26330855249999996,0.20741064749999996,5.766898599,-0.8204565920822583,-0.05780705015530419,0.0754436022467069,5.77663137318491,0.8259433465189064,0.05030811449999997,0.0,-0.22623941549999937
59632.0,0.2501676415,0.060114764499999994,5.6255847725,-0.8545638163247316,0.06343224633448191,0.0988938460765027,5.631465321419323,0.862602433823561,-0.013140910999999977,-0.14729588299999996,-0.14131382650000024
59642.0,0.16632078399999997,-0.040403398,5.621956312,-0.8487012553672827,0.1769467155549411,0.1090185010673218,5.624561121705138,0.8737785729706631,-0.08384685750000001,-0.1005181625,-0.003628460499999875
59652.0,0.023928225999999997,-0.10149882749999999,5.6603003135,-0.8073997839480888,0.25768390142294684,0.09329657516535689,5.6612608322697495,0.8526427476437928,-0.14239255799999997,-0.061095429499999986,0.038344001499999614
59662.0,-0.024026292499999997,-0.271448072,5.752482823499999,-0.7538408651921388,0.2768685605608685,0.06585127267774606,5.758933925058208,0.8057720769386083,-0.047954518499999994,-0.16994924449999999,0.09218250999999977
59672.0,-0.12336765699999998,-0.31812772599999994,5.875752414,-0.6938870600568816,0.26354646238039575,0.04826533513465119,5.885651302912059,0.7438182120137042,-0.09934136449999997,-0.04667965399999996,0.12326959050000053
59682.0,-0.15092434349999997,-0.422274349,5.967934924,-0.6256726115719352,0.2195798731934066,0.021352358068898628,5.9847590628514995,0.6634285649397234,-0.027556686499999997,-0.10414662300000005,0.09218250999999977
59692.0,-0.06707748599999999,-0.5682953675,6.0853205245,-0.5462671119232012,0.1534964717251453,-0.021814870320677124,6.112166956141741,0.5678422430288993,0.08384685749999998,-0.1460210185,0.11738560050000046
59702.0,0.008335652499999999,-0.5348546909999999,6.183485091,-0.46339713370925845,0.09940522754733704,-0.06871186732176476,6.206579323122083,0.47889416733192525,0.07541313849999999,0.033440676500000044,0.0981645664999995
59712.0,0.12444638849999999,-0.5096516005,6.269587478,-0.3826582025120008,0.059170152301111764,-0.11614293507396266,6.291498931240258,0.4042494134079193,0.11611073599999999,0.025203090499999914,0.08610238700000039
59722.0,0.2370267305,-0.4294332035,6.4575809584999995,-0.3219050365793301,0.04851142655918239,-0.14865143772160902,6.47618301029407,0.3578735265686025,0.11258034200000001,0.080218397,0.18799348049999942
59732.0,0.313616667,-0.34931287299999997,6.6635206085,-0.2688784432452384,0.04984311277845406,-0.16730377143767244,6.680036062549956,0.32057839145940187,0.07658993650000001,0.08012033050000006,0.20593965000000036
59742.0,0.3925601995,-0.26311241949999997,6.8837779674999995,-0.22304784241711934,0.041317179382461766,-0.17023417925177092,6.8999804899264054,0.2836143950940761,0.07894353249999997,0.0862004535,0.22025735899999965
59752.0,0.46199128149999996,-0.16612465099999998,7.0812838985,-0.18894061817464614,0.022397810290843232,-0.1630399320750503,7.098282538403725,0.2505638412721976,0.06943108199999998,0.09698776849999999,0.19750593100000025
59762.0,0.49553002449999994,-0.143373223,7.181802060999999,-0.16868956286375594,-0.010110692356803152,-0.14252184138860496,7.200304627558352,0.2210675688378955,0.03353874299999998,0.02275142799999999,0.10051816249999934
59772.0,0.508769002,-0.21996315949999998,7.259666862,-0.1646927588766889,-0.0431515204263078,-0.12173846065585649,7.280796154003642,0.20929885652906652,0.013238977500000026,-0.07658993649999998,0.07786480100000137
59782.0,0.5194582505,-0.2762533305,7.3374335965,-0.1662914804715157,-0.0804561878584346,-0.11347781730616732,7.360983939642295,0.21680237467032526,0.010689248500000081,-0.05629017100000003,0.07776673449999993
59792.0,0.5541737914999999,-0.3337202995,7.424810848,-0.14790443680175547,-0.11269940045977785,-0.10601653475389156,7.452938612256399,0.21404761837231673,0.03471554099999985,-0.05746696899999998,0.08737725149999953
