timestamp,ax,ay,az,gx,gy,gz,acc_mag,gyro_mag,dax,day,daz
42402.0,-2.517170922,-0.12650578499999998,11.5603732195,0.07056191632887876,0.04201705641251149,0.12253433079476589,11.831922165833141,0.14750959049803158,0.0,0.0,0.0
42412.0,-2.6224943429999996,-0.23663446449999997,11.648927268999998,0.02153387231110604,0.05320810757629913,0.08656134958191077,11.942821231489148,0.10386374540716219,-0.10532342099999958,-0.11012867949999999,0.08855404949999723
42422.0,-2.5039319444999997,-0.37069136999999996,11.7135530925,0.03378957431861022,0.057738982314476404,0.0471238898038469,11.983923119133248,0.08183022914296041,0.11856239849999994,-0.1340569055,0.0646258235000019
42432.0,-2.667997199,-0.12170052649999999,11.787789433,0.09214640318829263,0.09237853197880788,0.008220500776893291,12.086562778092402,0.1307376358365177,-0.16406525450000053,0.24899084349999998,0.07423634050000061
42442.0,-2.8714851865,0.106892485,11.838097547499999,0.15742869852988853,0.15126768627034853,-0.021355848727402617,12.181847426550863,0.2193667711967034,-0.20348798749999997,0.2285930115,0.05030811449999817
42452.0,-2.876290445,0.21584436649999997,12.2354630055,0.23070634717487046,0.2812999515316821,-0.0546637121724624,12.570846847905958,0.3678902047988943,-0.004805258499999798,0.10895188149999997,0.3973654580000012
42462.0,-2.876290445,0.230260142,12.8663248,0.30611504283653745,0.4206610016449253,-0.0903696580097624,13.185915983202957,0.5280423968248463,0.0,0.014415775500000033,0.6308617944999995
42472.0,-2.8080361609999995,0.3319551025,13.5522999675,0.3207705725655338,0.47315352422790674,-0.10609158391172731,13.84413578670261,0.58139783443887,0.06825428400000044,0.10169496049999999,0.6859751675000005
42482.0,-2.787638329,0.559371316,14.070679486499998,0.28533166210378896,0.45583287673111506,-0.09410117195052628,14.355063390117277,0.5459421209893383,0.02039783199999956,0.22741621350000002,0.518379518999998
42492.0,-2.775674216,0.6659696015,14.460886089999999,0.25362252025355597,0.35644335714704595,-0.04667010419832837,14.739915514393044,0.43994811996405303,0.011964112999999887,0.10659828549999995,0.39020660350000114
42502.0,-2.834317983,0.7257901665000001,14.496778428999999,0.23363675498896894,0.19176979689212897,0.02314306588144481,14.789074163518992,0.3031458226336243,-0.05864376699999996,0.0598205650000001,0.035892339000000106
42512.0,-2.8367696455,0.4923918964999999,14.3005473625,0.23070634717487046,0.024963444291274894,0.10174920473276541,14.58750721228527,0.2533801350568068,-0.0024516624999999515,-0.23339827000000013,-0.19623106649999933
42522.0,-2.9050239294999995,0.22300322099999997,13.820413778499999,0.2386999551490045,-0.1072016133159957,0.16223708061913292,14.124189586538996,0.30788102379573196,-0.06825428399999955,-0.26938867549999995,-0.4801335840000007
42532.0,-3.0474164875,-0.091790244,13.330865810499999,0.2816001481630251,-0.12398819006167718,0.1808894143351963,13.675055976292683,0.35692113265921727,-0.1423925580000005,-0.31479346499999994,-0.4895479680000001
42542.0,-3.2568865315,-0.324011716,12.9860639965,0.3367577885138019,-0.04031885105032101,0.14624811934161286,13.392167546456584,0.36935068740383187,-0.20947004400000013,-0.232221472,-0.34480181399999843
42552.0,-3.3299460739999995,-0.40668177549999995,12.834060921499999,0.3849882170634132,0.10730109708335939,0.07323750607218606,13.265257278283194,0.4063166068580409,-0.07305954249999935,-0.08267005949999995,-0.15200307500000143
42562.0,-3.2988589935,-0.33597582899999995,12.9166329145,0.4105677625806421,0.23120551134094083,0.00449073216538141,13.335469855412398,0.4712133729217387,0.03108708049999942,0.0707059465,0.08257199300000018
42572.0,-3.1420506599999998,-0.069038816,13.048336223999998,0.4420116143845719,0.29195867727361147,-0.031482249047473716,13.42148750782385,0.5306649305270695,0.15680833350000034,0.26693701299999995,0.13170330949999887
42582.0,-2.972003349,0.466012008,13.140518734,0.4795815718630019,0.32233613290457275,-0.01362927612882372,13.480474906199424,0.5780007126416522,0.1700473109999998,0.535050824,0.09218251000000244
42592.0,-2.946898325,1.1005022629999999,13.3918631735,0.49343774079458486,0.3519124824088687,0.05112243912016591,13.756355412190448,0.6082242210708411,0.025105024000000142,0.6344902549999999,0.2513444395000004
42602.0,-3.086937287,1.4404988184999998,13.8504221275,0.4497381869831508,0.3631052789019083,0.14065259375971903,14.263183787987606,0.5948890926287527,-0.1400389620000002,0.33999655549999996,0.458558953999999
42612.0,-3.3490690414999995,1.45726819,14.1053950275,0.3183724901732936,0.2703759357434496,0.22405664272477205,14.57058896902048,0.4739889959454608,-0.2621317544999995,0.01676937150000013,0.2549729000000003
42622.0,-3.340733389,1.0729455764999998,14.284954789,0.1497021259313096,0.08998044958656766,0.2744163729618164,14.709576646194966,0.3252868788710563,0.008335652499999568,-0.3843226135000002,0.1795597615000002
42632.0,-3.5239216109999996,0.8443525649999999,13.790503495999998,0.005544911033585984,-0.18127862275839104,0.279479573121852,14.258644446358955,0.3331689014597882,-0.18318822199999962,-0.2285930114999999,-0.4944512930000027
42642.0,-3.362308019,0.85513988,13.1357134755,-0.04614825075198207,-0.453070020525208,0.2608272394057886,13.586145440831642,0.5248170665691283,0.1616135919999997,0.010787315000000075,-0.6547900204999983
42652.0,-2.9959315749999997,1.021460664,12.32892038,-0.029094638630745476,-0.6513184796007399,0.2648240433928556,12.728757426652479,0.7037002442982482,0.36637644400000013,0.16632078399999994,-0.8067930954999998
42662.0,-2.369875039,1.3614572195,11.440634023,-0.016837191293989296,-0.732855026266159,0.31465319353729376,11.762566909872568,0.7977259007563064,0.6260565359999997,0.3399965555000002,-0.8882863570000001
42672.0,-1.8408062714999998,1.748133429,10.593045263499999,-0.04481656453271039,-0.657713365980047,0.4313633606181545,10.892986099749727,0.7878259611926393,0.5290687675000003,0.3866762094999998,-0.8475887595000007
42682.0,-1.652812791,1.9432857639999999,9.78507537,-0.07599163563183312,-0.4877095701895395,0.5896420344937643,10.112163451964118,0.7689688435706691,0.18799348049999987,0.19515233499999995,-0.8079698934999993
42692.0,-1.8263904959999997,1.819918107,9.1457798565,-0.04614825075198207,-0.26441389101863694,0.7369966925811415,9.502267800037355,0.784352275247943,-0.1735777049999998,-0.12336765699999996,-0.6392955134999987
42702.0,-2.2107131095,1.4285347055,8.943468667,0.05750510819470917,-0.05284333376263231,0.8169345176517339,9.322746143435628,0.8206590409679925,-0.3843226135000002,-0.39138340149999995,-0.20231118950000138
42712.0,-2.508737203,0.9317298164999999,9.150585115,0.18913784038012152,0.10356958314259551,0.7942853799486034,9.533891689731478,0.8230364791527072,-0.29802409350000003,-0.4968048890000001,0.20711644800000073
42722.0,-2.703889538,0.6036973739999999,9.567171606999999,0.30424928586615557,0.16698786684306147,0.6908973110482154,9.96023301488812,0.7731698843310674,-0.19515233499999995,-0.32803244249999997,0.41658649199999864
42732.0,-2.6512278274999996,0.5367179544999999,10.032791349,0.3628714047821411,0.2048266050262985,0.5531367278590509,10.3910527574718,0.6925242481254945,0.052661710500000236,-0.06697941949999997,0.4656197420000012
42742.0,-2.4836321789999998,0.7497183924999999,10.3500364765,0.33249569448043176,0.2418642370828702,0.42097167025178034,10.670227810759132,0.5884461259811956,0.16759564849999986,0.21300043800000001,0.31724512749999967
42752.0,-2.300443957,1.0250891245,10.464970414499998,0.2224457038251813,0.2828986731265089,0.3306404094855617,10.763756588144599,0.4887093520609152,0.18318822199999962,0.27537073200000006,0.11493393799999829
42762.0,-2.1579533325,1.2777084284999998,10.47938619,0.07535808111335918,0.3521795177844238,0.29786661679161225,10.775288225039297,0.46736899184139086,0.14249062450000016,0.25261930399999977,0.014415775500001615
42772.0,-2.1004863635,1.4667806405,10.453006301499999,-0.057339301915769705,0.38788546362172377,0.3194493583217741,10.762380273424355,0.5057576701992967,0.057466969000000034,0.18907221200000013,-0.02637988850000106
42782.0,-2.0969559694999997,1.5278760699999998,10.2578539665,-0.16205905703542947,0.35937376496114437,0.3937916578104726,10.580888319103464,0.5572113698325625,0.0035303940000002143,0.06109542949999991,-0.19515233499999773
42792.0,-2.1065664865,1.3375289935,10.066330092,-0.2289418193011042,0.28503146547244596,0.493715248145652,10.370998394156793,0.614338700706534,-0.00961051700000004,-0.1903470764999997,-0.1915238745000014
42802.0,-2.1843332209999997,1.099325465,9.811357192,-0.2470618275953093,0.189904039921747,0.5768522617351499,10.11150622050799,0.6556383323924042,-0.07776673449999993,-0.23820352850000015,-0.2549729000000003
42812.0,-2.3770338934999997,0.9448707275,9.545596976999999,-0.2377347880726516,0.1262187208457259,0.6256150157066195,9.882382934790863,0.681060307777126,-0.1927006725,-0.15445473749999994,-0.26576021500000024
42822.0,-2.5459044065,0.764134168,9.322986021999998,-0.24572839604678565,0.10703406170780426,0.6296118196936865,9.694513842382635,0.6842877892286192,-0.16887051300000033,-0.1807365595,-0.2226109550000004
42832.0,-2.705066336,0.7533468529999999,9.138621002,-0.28090201646222734,0.13794384276062382,0.6008330856575519,9.560298592684276,0.6774472993738245,-0.15916192949999974,-0.010787315000000075,-0.18436501999999777
42842.0,-2.9636676964999995,0.8359188459999999,8.918363643,-0.3485823941960635,0.17311746317606558,0.5579328926435313,9.435003794443318,0.6802708683264002,-0.2586013604999997,0.08257199299999995,-0.22025735900000143
42852.0,-2.9624908985,0.7629573699999999,8.859719876,-0.4202613212462186,0.20775701284039702,0.5025099622464514,9.372998055762206,0.6872399993284095,0.0011767979999994793,-0.07296147600000003,-0.058643766999999514
42862.0,-3.064185859,0.7377542795,8.767537365999999,-0.4988674600975392,0.2447946448969687,0.43216272141556794,9.31682498599294,0.7039586484273864,-0.10169496050000015,-0.025203090499999803,-0.09218251000000066
42872.0,-3.1324401429999997,0.786885596,8.616711088999999,-0.5841355207037222,0.24239656250472846,0.3514255355475623,9.202123677823815,0.7235124788811927,-0.06825428399999955,0.04913131649999991,-0.15082627700000018
42882.0,-3.1719609425,0.7736466184999999,8.377232696,-0.6414259534004361,0.19496724008178257,0.26349235717358394,8.990989542536093,0.7203247189217217,-0.039520799500000425,-0.013238977500000026,-0.23947839299999885
42892.0,-3.1085119169999995,0.709020795,8.020466769,-0.671002302904732,0.11369598346266661,0.1736951671584757,8.63095846464961,0.7023822878270831,0.06344902550000064,-0.0646258234999999,-0.35676592699999965
42902.0,-2.9073775255,0.7006851424999999,7.676939819499999,-0.6773971892840391,0.07878939842278003,0.07963239245149327,8.238883949718398,0.686597436116163,0.20113439149999968,-0.008335652500000124,-0.34352694950000107
42912.0,-2.683491706,0.7377542795,7.3656767485,-0.6816610286466613,0.11396127350896974,-0.0074996797958196346,7.8739191687802395,0.6911621915530757,0.22388581949999997,0.03706913700000014,-0.31126307099999906
42922.0,-2.5602221155000002,0.8622987344999999,7.108350252499999,-0.700847433113835,0.16992001998641193,-0.07145028891814387,7.60440265243973,0.7246827454003029,0.12326959049999964,0.12454445499999989,-0.257326496000001
42932.0,-2.4656860094999997,0.9772326725,6.965859627999999,-0.7115044135265123,0.23307126831132274,-0.11435222726141647,7.453709918600656,0.7573883934016955,0.09453610600000051,0.11493393800000007,-0.1424906245000006
42942.0,-2.428518806,0.9149604449999998,6.8102280925,-0.7069752841175871,0.25278825287110274,-0.12900775699041286,7.287939549618017,0.7618129393141502,0.03716720349999969,-0.062272227500000166,-0.15563153549999864
42952.0,-2.2908334399999997,0.7664877639999998,6.769530495,-0.6694035813099052,0.24346295867769702,-0.12127943906258197,7.187625787763222,0.7225538521507995,0.13768536600000036,-0.148472681,-0.04069759750000035
42962.0,-2.2896566419999997,0.6995083445,6.744425471,-0.6081180899553762,0.23120551134094083,-0.10395879156579026,7.156753062398717,0.6588406712925519,0.0011767979999999234,-0.06697941949999986,-0.025105024000000142
42972.0,-2.343593217,0.636059319,6.781494608,-0.5476302140690088,0.21814870320677127,-0.07784692062670308,7.203170811690378,0.5945988993625237,-0.053936575000000264,-0.06344902549999998,0.037069137000000474
42982.0,-2.3542824655,0.566628237,6.853377352499999,-0.4959370522834407,0.2162829462363893,-0.05439667679690727,7.268596468513463,0.5437746510337056,-0.01068924849999986,-0.06943108200000003,0.07188274449999899
42992.0,-2.4680396055,0.5115148639999999,7.0400959685,-0.44877301990679797,0.1992293341151527,-0.031215213671918582,7.477688024790784,0.4919999395658682,-0.11375714000000015,-0.05511337300000008,0.18671861600000117
43002.0,-2.5123656635,0.41815555599999993,7.287910014,-0.3973451481675331,0.16512210987267956,-0.010697122985473246,7.720133915179772,0.430421777308317,-0.04432605799999978,-0.09335930799999997,0.2478140455000002
43012.0,-2.614060624,0.37863475649999995,7.530918800999999,-0.33845773920524436,0.0801210846420517,0.011684979342102036,7.980690146349021,0.348008000158573,-0.10169496050000015,-0.03952079949999998,0.24300878699999906
43022.0,-2.5470812045,0.36304218299999996,7.7463709015,-0.28782922826339286,-0.02193355270981274,0.03806563098599633,8.162455784416874,0.29116273394707726,0.06697941949999997,-0.015592573499999984,0.2154521005000003
43032.0,-2.5218781139999997,0.463658412,7.843358669999999,-0.2547884001938882,-0.10267248390707043,0.0681760512414025,8.251855765290296,0.2830313441791896,0.025203090500000247,0.10061622900000006,0.09698776849999913
43042.0,-2.5147192594999996,0.5498588655,7.911612954,-0.23213926249075778,-0.15356628489522509,0.10841112648762778,8.319842381918649,0.29870422392827123,0.007158854500000089,0.08620045349999994,0.06825428400000089
43052.0,-2.5518864629999998,0.626448802,7.876897413,-0.2033605284546233,-0.1636909398860442,0.14464939774678606,8.303618215964411,0.29845213452516656,-0.037167203500000134,0.07658993650000001,-0.03471554099999974
43062.0,-2.5459044065,0.624095206,7.8960203805,-0.16632289639805165,-0.13971011596364208,0.17209644556364886,8.319751313738871,0.27712706281497174,0.005982056499999722,-0.002353595999999958,0.01912296750000042
43072.0,-2.5351170915,0.602520576,7.9427000345,-0.1335473583748501,-0.10133905235854676,0.19394622246936588,8.359206514386702,0.25635841642506235,0.010787314999999964,-0.02157463000000004,0.04667965399999918
43082.0,-2.497949888,0.5414251465,8.073226545999999,-0.0999742048834872,-0.05444205535745912,0.21153216001246072,8.46816873327763,0.24021788807906752,0.037167203500000134,-0.06109542950000002,0.1305265114999994
43092.0,-2.5015783485,0.442083782,8.2072834515,-0.060004419683565055,-0.026197392072434884,0.22192385037883497,8.591439574207408,0.23138070165838337,-0.003628460499999875,-0.09934136449999997,0.13405690550000138
43102.0,-2.6547582215,0.41933235399999996,8.2790681295,-0.010709340290237207,-0.04698077280518337,0.23151617994779583,8.704398309512017,0.2364775350016245,-0.15317987300000002,-0.022751428000000018,0.07178467800000021
