timestamp,ax,ay,az,gx,gy,gz,acc_mag,gyro_mag,dax,day,daz
61892.0,0.023928225999999997,1.6056428044999997,9.919622608,0.02742784919509089,0.14230542056135764,-0.0007644542123735164,10.048759827002874,0.1449265469914202,0.0,0.0,0.0
61902.0,-0.12572125299999998,1.6079964005,9.804688669999999,0.03781953956146513,0.16069246423111794,-0.02714336052701581,9.93646708710411,0.16729957457809003,-0.14964947899999997,0.002353596000000291,-0.11493393800000007
61912.0,-0.2789991925,2.067634086,9.881278606499999,0.040482912000008475,0.11379372190077829,-0.06498209871025287,10.099139476325657,0.13715156018369296,-0.15327793950000002,0.45963768549999995,0.07658993649999957
61922.0,-0.2227090215,2.0820498615,9.992584084,0.039418261156291934,0.061034163942241704,-0.04739441583790602,10.209616428144585,0.08674790564232908,0.056290171,0.014415775499999839,0.11130547750000197
61932.0,-0.1305265115,2.042529062,10.072802480999998,0.039950586578150205,0.026661649653465378,-0.02714336052701581,10.278633759433141,0.05516932980272613,0.09218251,-0.03952079949999998,0.08021839699999767
61942.0,-0.11375713999999998,1.9779032385,10.1207569995,0.04181634354853214,0.004012511950334963,-0.014620623143956499,10.312844619730194,0.04447998944512063,0.01676937150000002,-0.0646258234999999,0.04795451850000099
61952.0,-0.102969825,2.0030082625,10.2068593865,0.031956978604016174,-0.005581562947877866,-0.009025097562062679,10.402049001052003,0.03367275920448784,0.010787314999999978,0.02510502399999992,0.08610238700000039
61962.0,-0.0934573745,2.0832266594999997,10.388870810499998,0.027160813819535758,-0.008511970761976346,-0.01328719159543283,10.596093823336922,0.03141198678985405,0.009512450500000005,0.08021839699999989,0.1820114239999988
61972.0,-0.0383440015,2.1443220889999997,10.5959872585,0.04234866897039041,-0.01543918256314184,-0.009025097562062679,10.81085257813271,0.04596988696730154,0.05511337299999999,0.06109542949999991,0.20711644800000073
61982.0,0.0095124505,2.1634450565,10.6809128475,0.05353972013417806,-0.008779006137531478,0.008028514559173916,10.897820160706424,0.054845506897427745,0.047856452,0.01912296750000042,0.08492558900000091
61992.0,0.026281822,2.1430472245,10.7503439295,0.03435506099625638,0.021331414117874696,0.032011083810828,10.961899321884975,0.05157527441583432,0.016769371499999998,-0.020397832000000005,0.06943108199999948
62002.0,-0.052759777,2.0341934095,10.730044163999999,-0.008545132017764237,0.07755545064162003,0.05093045290244653,10.921289950491781,0.09317606043546864,-0.079041599,-0.10885381500000024,-0.020299765500000788
62012.0,-0.1891702785,1.9216130675,10.862924271499999,-0.04584979944989103,0.1420401305150545,0.055726617686926945,11.033200166035162,0.15932061607072034,-0.1364105015,-0.11258034199999978,0.13288010750000012
62022.0,-0.308909475,1.8114843879999998,11.154966308499999,-0.04078659928985549,0.1753479939601143,0.04853237051020632,11.305316187328977,0.18645604483311198,-0.11973919649999998,-0.11012867950000027,0.29204203699999987
62032.0,-0.42266661499999997,1.719301878,11.56204035,0.0029129545215785357,0.1332454164142551,0.03733957401716669,11.696812517526217,0.1384090679371713,-0.11375713999999998,-0.09218250999999977,0.40707404150000137
62042.0,-0.561528779,1.7133198214999998,12.0528631825,0.06046867726459554,0.03412293220574114,0.030679397591556325,12.186972153757225,0.07590823979666642,-0.138862164,-0.005982056500000166,0.49082283249999925
62052.0,-0.62370294,1.7827509035,12.696865888,0.12575097260619145,-0.09164898435147424,0.01975363647407182,12.836573122105165,0.1568535928756803,-0.06217416100000006,0.06943108200000014,0.6440027055000002
62062.0,-0.6668522,1.843846333,13.369602078,0.17984396211325168,-0.2382025363121861,-0.0028955012290585924,13.512613399354853,0.29848397434622603,-0.04314925999999997,0.06109542949999991,0.6727361900000002
62072.0,-0.6273314004999999,2.0641036919999998,13.716757487999999,0.16625482855722387,-0.37516375870393714,-0.03647040004967351,13.885370168705816,0.4119691783898901,0.03952079950000009,0.22025735899999987,0.34715540999999916
62082.0,-0.530343632,2.170603911,13.921520339999999,0.07192676380393832,-0.48654543557845925,-0.07644018524959564,14.099699084855859,0.4977379050811106,0.0969877684999999,0.1065002190000004,0.204762852
62092.0,-0.3029274185,2.2424866555,13.984969365499998,-0.0626381215248245,-0.5696824491679572,-0.10441781315906476,14.166858493503351,0.5825501754038721,0.22741621350000002,0.07188274449999987,0.06344902549999887
62102.0,-0.09698776849999999,2.3740918984999997,14.008897591499998,-0.19693422614878017,-0.6109839205871509,-0.11560886432285239,14.20897359765639,0.6522651685893434,0.20593965,0.13160524299999965,0.023928226000000663
62112.0,0.196329133,2.4782385215,13.768242400499998,-0.33123207610198785,-0.6219079363753834,-0.10095333459385601,13.990879532639719,0.7118115939847708,0.2933169015,0.1041466230000001,-0.2406551910000001
62122.0,0.548191735,2.4830437799999996,13.2978174,-0.4639294591311167,-0.5656856451808902,-0.0636486671617292,13.538758000476326,0.7343581857955115,0.35186260199999997,0.004805258499999798,-0.4704250004999988
62132.0,0.72176944,2.3729151004999998,12.818958680499998,-0.5475987981424729,-0.41806395171795774,-0.0007644542123735164,13.056698619906378,0.6889430280098338,0.17357770500000003,-0.11012867949999983,-0.4788587195000016
62142.0,0.8295445235,2.0473343205,12.443069785999999,-0.5475987981424729,-0.2483289366322572,0.0631861549099507,12.63763061794544,0.6045859696257371,0.10777508349999998,-0.3255807799999997,-0.3758888944999992
62152.0,0.92770909,1.5888734329999998,12.056393576499998,-0.4599326551440497,-0.10150660396673822,0.09729337915242389,12.195974295366165,0.48094452855148784,0.09816456650000005,-0.45846088750000025,-0.3866762095000009
62162.0,0.9313375504999999,1.2236737869999998,11.7631747415,-0.2981895027032312,0.04105014400690663,0.09596169293315222,11.86326460840463,0.3159283785227036,0.003628460499999875,-0.365199646,-0.29321883499999757
62172.0,0.860631604,1.174640537,11.6864867385,-0.07569318432974208,0.18707137054576023,0.06638534342885631,11.77686033873645,0.21244333280668667,-0.07070594649999984,-0.04903324999999992,-0.076688003000001
62182.0,0.7373620135,1.4870804059999998,12.189273684,0.16678715397908214,0.36320301734002,0.043734460396473905,12.301768320705639,0.4020535904124071,-0.12326959050000008,0.31243986899999987,0.5027869455000005
62192.0,0.4680714045,1.7827509035,13.148167920999999,0.3383879260351646,0.44634003092951785,0.05359382534098988,13.276731951141219,0.5626705162092852,-0.26929060899999996,0.2956704975000002,0.9588942369999991
62202.0,0.45728408949999994,1.9168078089999998,14.025666962999999,0.34531688316558207,0.3546770839440277,0.07278022980816354,14.1634245390069,0.5003364323384418,-0.010787315000000075,0.13405690549999982,0.8774990420000002
62212.0,0.42855060500000003,2.1036244914999997,14.454217567999999,0.21208542938534294,0.20305858649402828,0.0826395947526795,14.61277855595452,0.3050283946248368,-0.028733484499999906,0.18681668249999994,0.42855060499999986
62222.0,0.4129580315,2.3167229959999998,14.359681462,0.03568674721552806,0.045579273415831914,0.09995849692021924,14.551226459171131,0.11551067136195531,-0.01559257350000004,0.2130985045,-0.09453610599999962
62232.0,0.4716017985,2.4627440145,13.753924691499998,-0.12898681303938891,-0.030628783043248488,0.13886188594717286,13.980628053015263,0.19198526937651833,0.05864376700000001,0.14602101850000038,-0.6057567705000011
62242.0,0.4345326615,2.5345286925,13.160132034,-0.2547569842673523,0.023197171088256634,0.186825279121229,13.40901672306098,0.3167694977396324,-0.03706913700000003,0.07178467799999977,-0.5937926574999981
62252.0,0.39618865999999997,2.436364126,12.647832637999999,-0.34482120965801566,0.1441711775317396,0.2294601820889465,12.88644660283161,0.4385646705164451,-0.0383440015,-0.09816456649999994,-0.5122993960000013
62262.0,0.26576021499999997,2.3154481314999997,12.283907856499999,-0.3965143714435837,0.28699496088093956,0.254240366808762,12.50305245804104,0.5515685981339095,-0.130428445,-0.12091599450000023,-0.36392478149999974
62272.0,0.09453610599999998,2.1323579759999998,12.129453119,-0.40823949335848164,0.3775915116934612,0.2670301395673764,12.315823991076167,0.6168791851553395,-0.17122410899999999,-0.18309015549999996,-0.15445473749999827
62282.0,-0.033538742999999996,2.1443220889999997,12.086303859000001,-0.39038652043983163,0.36586813510781535,0.26916293191331353,12.27509605016326,0.5989238779215275,-0.128074849,0.011964112999999887,-0.043149259999999856
62292.0,-0.053936574999999994,2.1059780875,12.116312207999998,-0.3538812138051183,0.2896600786487349,0.27129397892999857,12.298092306568636,0.5317285939750144,-0.020397831999999998,-0.038344001499999614,0.03000834899999738
62302.0,-0.034715541,2.0808730635,12.208494717999999,-0.33043271530457446,0.16388990742077153,0.2923443950383022,12.384610658176568,0.47064947297139714,0.01922103399999999,-0.025105024000000142,0.09218251000000066
62312.0,-0.039520799499999995,2.147852483,12.081596667,-0.36533930034446105,-0.012775810124598492,0.3352445880523228,12.271096536430143,0.4960090316908471,-0.0048052584999999925,0.06697941949999997,-0.1268980509999995
62322.0,0.06099736299999999,2.0245828925,11.736794853,-0.4503403255750889,-0.15932936208531034,0.3845414127749026,11.910290088335543,0.6132408601850557,0.10051816249999998,-0.12326959050000008,-0.3448018140000002
62332.0,0.005982056499999999,1.995849408,11.286669618,-0.5342766999620001,-0.22861020674322527,0.4215790448314743,11.461778296158855,0.7179436675606823,-0.05501530649999999,-0.028733484499999795,-0.4501252349999998
62342.0,-0.050308114499999994,1.8953312454999998,10.822226674,-0.5912983519539069,-0.236071489295501,0.4463592295512898,10.987056094331649,0.7775603197741146,-0.05629017099999999,-0.10051816250000023,-0.46444294399999997
62352.0,-0.2023111895,1.8510051875,10.403188519499999,-0.6515191924647193,-0.1846436175562361,0.45488690827653405,10.568513679501267,0.8157773121235461,-0.152003075,-0.04432605799999978,-0.4190381545000008
62362.0,-0.3711817025,1.9455412935,9.9938589485,-0.7250638764852564,-0.09777683535522633,0.44369585711274645,10.18823456068312,0.855654105427494,-0.168870513,0.09453610600000006,-0.4093295709999989
62372.0,-0.458558954,1.962310665,9.541282051,-0.8081991447455021,-0.03729070479811085,0.41651584467143876,9.75176920548272,0.9099790673933456,-0.08737725150000003,0.016769371499999908,-0.4525768975000002
62382.0,-0.356765927,1.764804734,9.263557723,-0.8726838246189367,0.013604841519295799,0.3821433303826624,9.436912596986893,0.9527831203480952,0.10179302700000004,-0.19750593100000002,-0.2777243279999997
62392.0,-0.23947839299999998,1.5553346899999998,9.0851747595,-0.8958652877439255,0.06396631708559218,0.3509665139542877,9.220456404608566,0.9642840854350061,0.117287534,-0.20947004400000013,-0.1783829635000007
62402.0,-0.262229821,1.476293091,8.881686772,-0.9073233742832681,0.069561842667486,0.32405353688853517,9.007361749451157,0.9659633793503979,-0.02275142799999999,-0.07904159899999974,-0.20348798749999908
62412.0,-0.30175062049999996,1.430790235,8.7140911235,-0.9203801824174377,0.04851142655918239,0.2947424774305424,8.835926563875741,0.9676394817779277,-0.03952079949999998,-0.04550285600000015,-0.16759564850000075
62422.0,-0.42266661499999997,1.4667806405,8.481869651499998,-0.9251763472019181,0.005344198169606637,0.2603699631417661,8.618132355668358,0.9611307671604342,-0.12091599450000001,0.03599040549999999,-0.23222147200000087
62432.0,-0.5279900359999999,1.476293091,8.1586424675,-0.9238446609826465,-0.06846577589723356,0.23505570767084033,8.30792764058186,0.955734118781992,-0.10532342099999997,0.009512450500000158,-0.3232271839999985
62442.0,-0.573492892,1.37096967,7.8018765404999995,-0.9083897704562367,-0.14334214613704227,0.2164033739547769,7.942148921194986,0.9447483083804483,-0.045502856000000036,-0.10532342100000003,-0.35676592700000054
62452.0,-0.508769002,1.160322828,7.511011301499999,-0.8788116756226889,-0.19610170409557887,0.20014912263095375,7.617117941441809,0.92240203319913,0.06472389,-0.21064684200000006,-0.2908652390000004
62462.0,-0.4165864919999999,0.9065267259999998,7.207005151499999,-0.8513663731350779,-0.22221532036391803,0.18176207896119345,7.275730771820564,0.8984663617842966,0.09218251000000005,-0.25379610200000013,-0.3040061500000002
62472.0,-0.3951099285,0.746089932,6.859849741499999,-0.8412399728150068,-0.23154061455732372,0.15271805487875584,6.91160621839733,0.8857869678073432,0.021476563499999934,-0.16043679399999988,-0.34715541000000005
62482.0,-0.3592175895,0.713727987,6.578496952999999,-0.8300489216512192,-0.2203495633935361,0.10369001086098312,6.6268444282828565,0.8650356991329461,0.035892338999999995,-0.032361945,-0.28135278849999956
62492.0,-0.3160683295,0.643120107,6.392955135,-0.8119289133570141,-0.1806468135691691,0.06052278247140736,6.432991374085891,0.8339813180137053,0.04314925999999997,-0.07060787999999996,-0.18554181799999903
62502.0,-0.159259996,0.607227768,6.2481109145,-0.8047346661802934,-0.14227574996407374,0.03520852700048161,6.279568401446887,0.8179730511170228,0.15680833350000004,-0.035892338999999995,-0.14484422050000045
62512.0,0.07776673449999999,0.5078864035,6.066099490499999,-0.8209889175041167,-0.08258898020437168,0.017622589457386748,6.0878205699987005,0.8253207243096244,0.23702673049999998,-0.09934136449999997,-0.1820114240000006
62522.0,0.196329133,0.4527730305,5.9428298999999996,-0.8463031729750424,0.026661649653465378,0.014425146267733134,5.9632856518824156,0.8468459062868016,0.1185623985,-0.05511337300000002,-0.12326959049999964
62532.0,0.198682729,0.3498032055,5.8087729945,-0.8649555066911059,0.13431181258722363,0.030679397591556325,5.822686734748269,0.8758589595319066,0.0023535960000000133,-0.10296982500000001,-0.1340569054999996
62542.0,0.1364105015,0.31391086649999994,5.7596416779999995,-0.8540314909028733,0.21771411622302467,0.04906469593206459,5.769802433011108,0.8827097871007568,-0.0622722275,-0.03589233900000005,-0.049131316500000466
62552.0,0.015494507,0.2444797845,5.781216308,-0.8071327485725337,0.25342006206032464,0.06265382948809244,5.78640410312497,0.8482985936699616,-0.1209159945,-0.06943108199999995,0.021574630000000816
62562.0,-0.11493393799999999,0.1762255005,5.8111265905,-0.7271949235019414,0.22863987734050917,0.07677703379523056,5.814934005467888,0.7661483950225775,-0.13042844499999998,-0.068254284,0.029910282499999497
62572.0,-0.203586054,0.088848249,5.8458421314999995,-0.6302017409808606,0.16948543300266536,0.08157319857971097,5.8500608132868255,0.6576729681703009,-0.088652116,-0.08737725149999999,0.03471554099999974
62582.0,-0.148472681,-0.1373911665,5.9152732135,-0.5326779783671733,0.10953162786740814,0.07677703379523056,5.918731085290679,0.5492155488139581,0.05511337299999999,-0.22623941549999999,0.06943108200000037
62592.0,-0.06344902549999999,-0.3109688715,5.946458360499999,-0.4490086393558172,0.0796864976583051,0.06265382948809244,5.954921867752693,0.4603088077309974,0.0850236555,-0.17357770500000003,0.031185146999999525
62602.0,-0.040697597499999995,-0.354020065,5.9966684085,-0.3869220418746229,0.08421737239648239,0.04160341337978884,6.0072471650804244,0.3981608673722781,0.022751427999999997,-0.04305119349999997,0.050210048000000285
62612.0,0.0106892485,-0.330091839,6.1331769765,-0.34482120965801566,0.1068665100996128,0.01708851870627648,6.142062740421785,0.3614057762162395,0.05138684599999999,0.023928225999999997,0.136508568
62622.0,0.062174161,-0.29655309599999996,6.3079314795,-0.31231270701036934,0.12898332238088495,0.003766420525803763,6.315204582205575,0.3379202721591785,0.0514849125,0.03353874300000004,0.17475450299999995
62632.0,0.008335652499999999,-0.22359162,6.47435033,-0.27767315734603787,0.1287162870053298,0.010693632326969257,6.478215409447878,0.3062427446051585,-0.0538385085,0.07296147599999997,0.16641885050000038
62642.0,-0.15808319799999998,-0.119444997,6.600071582999999,-0.2475627370906317,0.11113034946223495,0.03787364476827695,6.603044926813867,0.27399210998756396,-0.1664188505,0.104146623,0.12572125299999914
62652.0,-0.1987807955,-0.236732531,6.761685174999999,-0.20865934806367806,0.08101992920682878,0.05705830390619862,6.768747483966886,0.23099481056441684,-0.040697597500000016,-0.117287534,0.16161359200000014
62662.0,-0.1976039975,-0.3576485255,6.9532090495,-0.14950490372583428,0.03492229300315454,0.0514627783243048,6.965204655548105,0.16192498367925096,0.0011767980000000067,-0.12091599449999998,0.19152387450000052
62672.0,-0.21309850449999998,-0.4055049775,7.1279635525,-0.08555254927425804,-0.01757197490907891,0.02641555822893418,7.142668245492425,0.09124579281301609,-0.01549450699999999,-0.047856451999999994,0.17475450299999995
62682.0,-0.159259996,-0.4019745835,7.375777598,-0.025598744139000828,-0.05221152457341036,-0.006092944418712205,7.388439787077146,0.058467623275308356,0.05383850849999999,0.0035303939999999923,0.2478140455000002
62692.0,-0.112580342,-0.36725904249999997,7.6139811265,0.0306252923847445,-0.06580065812943821,-0.03620336467411838,7.623664613058542,0.08110683545574623,0.04667965399999999,0.034715541000000016,0.2382035284999997
62702.0,-0.022751427999999997,-0.36725904249999997,7.880918139499999,0.06153507343756408,-0.05647536393603251,-0.07031058891659157,7.889503631615502,0.10917697059577929,0.08982891400000001,0.0,0.2669370129999997
62712.0,0.05619210449999999,-0.307340411,8.103627160999999,0.06073396731089868,-0.02316750049097273,-0.09535780901196218,8.109647886643334,0.11540563072867106,0.0789435325,0.059918631499999986,0.22270902149999916
62722.0,0.138862164,-0.279881791,8.3788998265,0.06073396731089868,0.014936527738567473,-0.10255205618868281,8.384722942354497,0.12011926937312373,0.08267005950000002,0.02745861999999999,0.27527266550000107
62732.0,0.15082627699999998,-0.237909329,8.727330101,0.0756565324154502,0.029325022092008723,-0.08310036167520601,8.731874947940996,0.11614447007230656,0.01196411299999997,0.04197246199999999,0.3484302745000001
62742.0,0.11012867949999999,-0.22359162,9.063698195999999,0.1084320704386517,-0.02023709267687425,-0.03567103925226011,9.067124490529304,0.11592875769610146,-0.04069759749999999,0.014317709000000012,0.3363680949999992
62752.0,0.083748791,-0.295376298,9.2887608135,0.14760074951190844,-0.12762022023507738,0.01842195025480015,9.293833357007609,0.19599048477035083,-0.02637988849999999,-0.07178467799999999,0.22506261750000078
62762.0,0.046679654,-0.42109755099999996,9.5005844535,0.18783757008738572,-0.24646317966187525,0.05812470007916715,9.510026661142525,0.31528642917935507,-0.037069137,-0.12572125299999998,0.21182364000000042
