timestamp,ax,ay,az,gx,gy,gz,acc_mag,gyro_mag,dax,day,daz
75222.0,-0.36931843899999994,0.8351343139999999,9.732119459999998,0.21907896369808424,0.2087204345874979,0.0761172993379767,9.77486545255311,0.3120154730264633,0.0,0.0,0.0
75232.0,-0.5488782004999999,0.849452023,9.696227121,0.21774727747881256,0.21245020319900976,0.11208853522157984,9.748828462968197,0.3242110507321656,-0.17955976149999997,0.014317709000000067,-0.03589233899999833
75242.0,-0.3968751255,0.7812958055,9.7357479205,0.2150821597110172,0.2220425327679706,0.1344723828784071,9.775107189819076,0.33711428854465325,0.15200307499999993,-0.0681562175,0.03952079949999998
75252.0,-0.3968751255,0.708236263,9.898538310500001,0.23186873645669867,0.26520976115754635,0.14646279483960817,9.931775730145393,0.38151104653928164,0.0,-0.07305954250000002,0.1627903900000014
75262.0,-0.437572723,0.7070594649999999,10.044559328999998,0.2451925799664234,0.3174369936942247,0.1390015122873324,10.078917356976424,0.42450802896339146,-0.040697597500000016,-0.0011767980000000344,0.14602101849999727
75272.0,-0.5045521425,0.7010774084999999,10.240888462000001,0.2390629836334193,0.3614035828812138,0.13473941825396224,10.277250551014856,0.4537822943819063,-0.06697941950000003,-0.005982056500000055,0.19632913300000254
75282.0,-0.6889171625,0.7908082559999999,10.505471879,0.21748024210325742,0.40030697190816744,0.14006790846030093,10.557695011459868,0.47661551217309434,-0.18436502,0.08973084750000004,0.264583416999999
75292.0,-0.8553360130000001,0.9763500739999998,10.643157245,0.19882790838719402,0.4080335445067463,0.13580406909767878,10.722017315035941,0.47377912130005523,-0.16641885050000005,0.18554181799999991,0.13768536599999948
75302.0,-0.9750752095,1.181112926,10.853804087,0.20042662998202082,0.36886486543348956,0.09903347241666224,10.961334889835438,0.43132325652127557,-0.11973919649999998,0.2047628520000001,0.21064684200000094
75312.0,-0.972623547,1.3618494854999998,11.1830133275,0.2374642620385925,0.2961195422103659,0.04360879669033032,11.307538090511926,0.38207039426418343,0.0024516625000000625,0.1807365594999999,0.3292092404999991
75322.0,-0.852982417,1.5593554165,11.585184043999998,0.29955085951978677,0.2223095681435257,0.0012409290981679683,11.720736224829531,0.37303324440621993,0.11964112999999998,0.19750593100000025,0.4021707164999988
75332.0,-0.785904931,1.7975589449999998,12.1322970475,0.37096275119438676,0.20232554820819065,0.003639011490408177,12.289894074811908,0.4225662464467325,0.06707748599999996,0.2382035284999997,0.5471130035000016
75342.0,-0.7595250425,2.0106574494999996,12.817095416999999,0.4279861485155455,0.24122893723514427,0.05107007924260608,12.99605927186764,0.4939349111721238,0.02637988850000006,0.21309850449999979,0.6847983694999993
75352.0,-0.7656051654999999,2.1567765344999996,13.469433774999999,0.42985016015667543,0.2859948872195468,0.11315493139454837,13.662484492518951,0.5285530003711508,-0.006080122999999937,0.14611908500000004,0.6523383579999997
75362.0,-0.8553360130000001,2.150794478,14.023705633,0.34964529971052805,0.26361103956271953,0.16538216393122668,14.213438579835845,0.46807464782401725,-0.08973084750000015,-0.005982056499999722,0.5542718580000017
75372.0,-0.9858625244999999,2.1004863635,14.323004590999998,0.1924330220078868,0.1405059861025515,0.20721596077227877,14.509735641777558,0.31577025586415963,-0.13052651149999983,-0.050308114499999945,0.29929895799999784
75382.0,-1.1737579384999999,2.0382141359999997,14.386453616499999,-0.0015515977050229591,-0.04415333941695255,0.2391921379980669,14.57745081357121,0.24323816254279082,-0.18789541399999998,-0.06227222750000028,0.06344902550000064
75392.0,-1.3018327875,1.9161213435,14.253573508999999,-0.18274644465931825,-0.20483009568480254,0.267169765907536,14.440590271387553,0.38305523746446046,-0.1280748490000001,-0.12209279249999971,-0.13288010750000012
75402.0,-1.3257610135,1.7329331215,13.917205414,-0.3309004635441089,-0.31221322324300566,0.281025934839119,14.08720362612748,0.5347408620946166,-0.023928225999999997,-0.18318822200000007,-0.3363680949999992
75412.0,-1.3485124414999998,1.5330735944999998,13.433541435999999,-0.44840999142238314,-0.3820263933227788,0.27702913085205194,13.587819396936448,0.6509691428503163,-0.02275142799999985,-0.1998595270000001,-0.48366397800000094
75422.0,-1.306638046,1.3175234274999998,12.882898038499999,-0.5408722992052867,-0.41879873533304735,0.25891086788709883,13.015845452203754,0.7314164766220568,0.04187439549999983,-0.21555016699999996,-0.5506433975
75432.0,-1.224066053,1.091284012,12.347749148,-0.600826104340544,-0.41480193134598037,0.231463820070236,12.456169054684853,0.7659165423901589,0.08257199299999995,-0.22623941549999982,-0.5351488904999986
75442.0,-1.1378655994999998,0.9572271065,11.872518889,-0.6096190731120914,-0.37909598550868034,0.19842299200073135,11.965271690421647,0.7447958541005483,0.08620045350000027,-0.13405690550000005,-0.47523025899999993
75452.0,-1.0840270909999998,0.9213347675,11.497806792499999,-0.5576588759509682,-0.3345970708998329,0.16324937158528963,11.585488057284651,0.6705139663755239,0.05383850849999994,-0.035892338999999995,-0.3747120965000015
75462.0,-0.9990034354999999,0.9512450499999999,11.2045879575,-0.4649312781217615,-0.3084834546314938,0.1304755788913401,11.289183597880067,0.5730157169261119,0.0850236554999999,0.02991028249999994,-0.29321883499999934
75472.0,-0.86494653,0.9691912195,11.214100408,-0.3535496012472394,-0.2639845400226463,0.10462899799855606,11.289088186404635,0.4534670717210148,0.13405690549999993,0.017946169500000053,0.009512450500000824
75482.0,-0.7583482444999999,0.9332988805,11.290788411,-0.2586892110720955,-0.18431200499835718,0.08331154651469733,11.35464846669639,0.32837758281327334,0.10659828550000006,-0.035892338999999995,0.07668800299999923
75492.0,-0.7176506469999999,0.9931194455,11.396111831999999,-0.2085930255521023,-0.11609755651341082,0.06785665598828754,11.461791900554648,0.24818182588432502,0.040697597500000016,0.05982056499999999,0.10532342099999958
75502.0,-0.741578873,0.9776249385,11.393660169499999,-0.19926773135869658,-0.09291609338842212,0.06492624817418906,11.459545444881654,0.22925192883241796,-0.023928226000000108,-0.01549450699999999,-0.0024516625000003955
75512.0,-0.7404020749999999,0.9381041389999999,11.2153752725,-0.21418855113399612,-0.08945161482321339,0.07664962475983497,11.278868609540483,0.2444452736446023,0.0011767980000001454,-0.03952079950000009,-0.17828489699999928
75522.0,-0.753542986,0.9213347675,10.8358579175,-0.22218390443738215,-0.058009508348535535,0.09343620150551644,10.901032134334873,0.24791352161924943,-0.013140911000000144,-0.016769371499999908,-0.37951735499999906
75532.0,-0.6961740835,0.8902476869999999,10.432412336499999,-0.1915394134308657,0.036585591780305134,0.10995748820489475,10.493446833977064,0.22386715175676128,0.05736890250000004,-0.031087080500000086,-0.4034455810000015
75542.0,-0.6410607104999999,0.9321220825,10.33424777,-0.09721134867758016,0.2289714898983881,0.12328133171461947,10.395984195013998,0.2776261447474494,0.05511337300000008,0.04187439550000005,-0.0981645664999995
75552.0,-0.6387071145,0.973996478,10.504295080999999,0.023495622390347665,0.45546461225894425,0.1304755788913401,10.568672152450851,0.4743668769831327,0.002353595999999958,0.04187439550000005,0.17004731099999937
75562.0,-0.8732821825,1.057745269,11.054938478499999,0.12821537751000744,0.6182724155434792,0.14806151643443496,11.139708774819193,0.6485539110211785,-0.23457506800000005,0.08374879099999999,0.5506433975
75572.0,-1.180916793,1.09246081,11.6929591275,0.18390534328264252,0.6486498711744406,0.16591448935308495,11.80310672029872,0.6943309358222634,-0.30763461049999996,0.03471554099999996,0.6380206490000013
75582.0,-1.3724406674999998,1.1571847,12.217320702999999,0.16845045275623272,0.5100899271878627,0.16271704616343136,12.34850577906794,0.5612879171730416,-0.19152387449999986,0.06472389,0.5243615754999986
75592.0,-1.5328774615,1.2133768045,12.620766284,0.09650623565977445,0.2414959726106994,0.14832855180999008,12.771285690055816,0.29939124501303727,-0.16043679400000022,0.056192104500000006,0.4034455810000015
75602.0,-1.55925735,1.1547330374999998,12.608802171,-0.008745844881743585,-0.08465545003873295,0.1475291910125767,12.757216940180854,0.17031704913126364,-0.02637988849999995,-0.05864376700000018,-0.011964112999999443
75612.0,-1.420395186,0.9836069949999999,12.41718023,-0.11666478852030897,-0.40600896257443286,0.15445640281374218,12.536800631314504,0.44978965188342945,0.13886216400000007,-0.17112604249999985,-0.19162194100000107
75622.0,-1.2910454724999998,0.88063717,11.998240141999998,-0.19766900976386978,-0.6439601714743318,0.15312471659447052,12.09959035431979,0.690800201721465,0.12934971350000013,-0.10296982499999996,-0.41894008800000115
75632.0,-1.1390423975,0.8231702009999999,11.4583840595,-0.243766645967544,-0.765466503339673,0.13873622224102924,11.544244973930544,0.815235478118466,0.15200307499999988,-0.057466969000000034,-0.5398560824999983
75642.0,-0.934377612,0.693918554,10.9064657975,-0.2746764270203636,-0.7505439382351216,0.12034917857126899,10.968390067527212,0.8082371357249915,0.2046647854999999,-0.12925164699999991,-0.5519182620000009
75652.0,-0.7344200184999999,0.6185054154999999,10.432412336499999,-0.30771725508986825,-0.6063884686666499,0.09903347241666224,10.476504611335487,0.6871713852241152,0.19995759350000009,-0.07541313850000009,-0.47405346100000045
75662.0,-0.6015399109999999,0.6459640354999999,10.185775088999998,-0.3495527972601723,-0.3703030167371329,0.07238578539721283,10.223949039553075,0.5143453938790584,0.1328801075,0.02745861999999999,-0.2466372475000007
75672.0,-0.5273035705,0.6999006105,10.136741838999999,-0.3833929861270904,-0.11236778790189893,0.03561518871619629,10.174548885851078,0.4011049030324907,0.07423634049999994,0.05393657500000004,-0.04903324999999903
75682.0,-0.5165162555,0.720200376,10.219313832,-0.39405171186901977,0.0821509025621211,-0.0072850042978243315,10.257672875496311,0.40258985792776175,0.010787314999999964,0.02029976550000001,0.08257199300000018
75692.0,-0.5021985465,0.7165719154999999,10.494684564,-0.3732665858070193,0.20152618741077724,-0.03926118152361244,10.531100739621188,0.42600726363171637,0.014317709000000067,-0.003628460500000097,0.27537073200000073
75702.0,-0.46150094899999994,0.8040472334999998,10.796337117999999,-0.3458212833194084,0.23589870169955357,-0.0544490366744671,10.836068025124769,0.4221436426798288,0.040697597500000016,0.08747531799999997,0.3016525539999986
75712.0,-0.42443181199999996,0.936927341,10.9160763145,-0.35701233448319614,0.2020585128326355,-0.03926118152361244,10.964428726994344,0.4121005823290085,0.037069136999999974,0.13288010750000012,0.1197391965000012
75722.0,-0.552506661,1.0434275599999998,10.6765979215,-0.4276248653603827,0.12718214259282679,0.012166690215652472,10.741682729479356,0.44630298141485814,-0.12807484900000005,0.10650021899999984,-0.23947839299999885
75732.0,-0.528578435,0.8303290554999999,10.299532228999999,-0.5232863616621919,0.07682066702653043,0.10516132342041433,10.34645860372351,0.5392484910758567,0.023928225999999997,-0.2130985044999999,-0.3770656925000022
75742.0,-0.46865980349999997,0.5095535339999999,9.942766301999999,-0.5795086528566853,0.13997366068069322,0.19415915263810918,9.966839446465228,0.6269933659722985,0.05991863150000004,-0.3207755215,-0.35676592699999965
75752.0,-0.5883989999999999,0.1803442935,9.6782809515,-0.6165480302425089,0.3009157069948463,0.23759341640324005,9.697827572377577,0.7260388197818965,-0.11973919649999992,-0.3292092404999999,-0.2644853504999993
75762.0,-0.8277793265,-0.332053169,9.226978918499999,-0.4915772198119589,0.47838078533762973,0.1936268272162509,9.269984783313678,0.712732549443432,-0.23938032650000007,-0.5123974625,-0.45130203300000105
75772.0,-1.099521598,-0.196721399,9.352602104999999,-0.3439572716782785,0.540200347443269,0.12408069251203287,9.419066471139452,0.6523182033122019,-0.27174227149999997,0.13533177,0.12562318650000037
75782.0,-1.2431890204999998,-0.065116156,9.490287471,-0.2557570579287451,0.4416084433273612,0.04680623987998393,9.571588966137416,0.5124651344141231,-0.14366742249999986,0.13160524299999998,0.13768536600000125
75792.0,-1.249171077,0.070215614,9.9440411665,-0.21818535512106313,0.258549584731936,-0.012615239833415014,10.022440487880655,0.3385437656055943,-0.005982056500000166,0.13533177,0.45375369549999967
75802.0,-1.0707881135,0.0342252085,10.331894174,-0.25042856772240635,0.0674953728331247,-0.04805415029515987,10.387290107224546,0.2637788737673436,0.17838296350000005,-0.035990405499999996,0.3878530075000004
75812.0,-0.7918869875,0.0414821295,10.543717813999999,-0.31624493381511254,-0.1043724345985129,-0.06510776241639647,10.57349474437381,0.33932798881703774,0.27890112599999994,0.0072569209999999995,0.21182363999999865
75822.0,-0.6422375085,0.11209000949999999,10.5689209045,-0.4436138266379028,-0.24799557874512626,-0.06430840161898307,10.589009503873868,0.5122798110215177,0.14964947899999992,0.07060787999999998,0.02520309050000158
75832.0,-0.578788483,0.15043401099999998,10.428783875999999,-0.6144152378965718,-0.36204237338744377,-0.022207569402375848,10.44591593073755,0.7134941771495235,0.06344902550000009,0.03834400149999999,-0.14013702850000165
75842.0,-0.599186315,0.118072066,10.044559328999998,-0.7673654215658429,-0.4435806653821148,0.04467519286329885,10.06310773899662,0.8874735882115796,-0.020397832000000005,-0.032361944999999975,-0.3842245470000005
75852.0,-0.6913688249999999,-0.067469752,9.663865176,-0.8691547688714042,-0.483548705252785,0.08917410747214628,9.68879936625392,0.9985997116197274,-0.09218250999999988,-0.185541818,-0.38069415299999854
75862.0,-0.7679587615,-0.275762998,9.31435617,-0.9085904833202161,-0.4899435916320922,0.09849940166555199,9.350028703273997,1.0369587848559314,-0.07658993650000012,-0.208293246,-0.3495090059999999
75872.0,-0.7607999069999999,-0.38952013799999996,9.1587246345,-0.9109885657124562,-0.45530404196776075,0.07025473838052775,9.198520498808268,1.0208514415701901,0.007158854500000089,-0.11375713999999998,-0.15563153549999953
75882.0,-0.667440599,-0.5559389884999999,9.1479373195,-0.8894058241822944,-0.3841591856687159,0.003639011490408177,9.18908604343374,0.9688313797703213,0.09335930799999992,-0.16641885049999994,-0.010787314999999964
75892.0,-0.48180071449999995,-0.6744033205,9.2197219975,-0.8758149452970145,-0.31221322324300566,-0.09042201788732222,9.256901505275916,0.934186842388724,0.18563988450000002,-0.11846433200000006,0.07178467800000021
75902.0,-0.44355477949999994,-0.493666761,9.345443250499999,-0.8347805092533759,-0.2861013523039185,-0.19487473763142685,9.368978453473437,0.9037082747139,0.03824593500000001,0.18073655949999995,0.12572125299999826
75912.0,-0.4004055195,-0.24820631149999997,9.4807750205,-0.7918803162393553,-0.32527003137717525,-0.29693112031254326,9.492472066982934,0.9061142967471112,0.04314925999999997,0.24546044950000004,0.13533177000000052
75922.0,-0.1813249585,-0.0638412915,9.602867813,-0.7772247865103589,-0.3796283109305386,-0.37580254921016704,9.604791756463376,0.9430925613209483,0.21908056099999998,0.18436502,0.12209279250000016
75932.0,0.1226811915,0.070215614,9.5668774075,-0.7948107240534537,-0.41080512735891334,-0.41550704436378605,9.567921625793721,0.9864740461110356,0.30400615,0.1340569055,-0.03599040549999977
75942.0,0.5261267725,0.10610795299999999,9.3766283975,-0.8329147522829938,-0.41213681357818505,-0.41550704436378605,9.391976809129934,1.017963575769266,0.40344558099999994,0.035892338999999995,-0.1902490100000005
75952.0,0.9091745215,-0.0124544455,9.2424734255,-0.8539651683912975,-0.3695036559397195,-0.39365552212881705,9.287091495448463,1.0103237751735368,0.38304774900000005,-0.11856239849999999,-0.13415497199999926
75962.0,1.124626622,-0.059134099499999995,9.0916471485,-0.8592954039268882,-0.3044866506444267,-0.35981533326189896,9.161131466880223,0.9800856012006841,0.21545210050000008,-0.046679653999999994,-0.15082627700000018
75972.0,1.201314625,-0.004020726499999999,8.99465938,-0.8600947647243017,-0.22294835864975565,-0.3238423520490439,9.074528657550344,0.945697014858051,0.0766880029999999,0.05511337299999999,-0.09698776850000002
75982.0,1.1402191954999998,0.0414821295,8.981518469,-0.8595606939731913,-0.13794733341912782,-0.28973687313582264,9.053700601955127,0.9175083155348763,-0.06109542950000013,0.045502856,-0.013140911000000699
75992.0,1.00616229,0.13121297699999998,9.035455043999999,-0.8539651683912975,-0.07426375967235872,-0.2534968565474124,9.092250945244322,0.8938860504033332,-0.13405690549999982,0.08973084749999999,0.05393657499999982
76002.0,0.947518523,0.0438357255,9.0928239465,-0.8502353997797857,-0.03455926451873972,-0.21112898895525006,9.142163871004612,0.8767382892175032,-0.05864376700000007,-0.08737725149999997,0.057368902500000374
76012.0,0.9176082405,-0.13209557549999998,9.20059903,-0.8600947647243017,-0.0012514010736799342,-0.1618339095619222,9.247187498636388,0.8751884280512943,-0.02991028249999994,-0.17593130099999998,0.10777508349999998
76022.0,0.858866407,-0.413448364,9.2054042885,-0.8798117492840816,0.02672622683578917,-0.11573627335824797,9.254623664390765,0.8877938332462378,-0.05874183349999995,-0.2813527885,0.0048052585000011305
76032.0,0.8050278984999999,-0.7414808064999999,9.2401198295,-0.8920691966208377,0.041648791940340685,-0.08535881772728668,9.304712685907626,0.897111030582969,-0.05383850850000016,-0.3280324424999999,0.03471554099999885
76042.0,0.6829351059999998,-1.0215587305,9.220996862,-0.8939349535912197,0.05550496087192367,-0.06937160177901862,9.302513946664195,0.8983389789310695,-0.12209279250000005,-0.2800779240000001,-0.019122967499999532
76052.0,0.472288264,-1.2095522109999999,9.083311495999999,-0.8934026281693614,0.050708796087443254,-0.07043799795198716,9.175653681826319,0.8976085725838654,-0.21064684199999983,-0.18799348049999987,-0.13768536600000125
76062.0,0.30704621149999994,-1.2873189454999998,8.9875005255,-0.8878071025874676,0.03605326635844687,-0.08162904911577479,9.084417050053487,0.8922805562598644,-0.16524205250000007,-0.07776673449999993,-0.09581097049999876
76072.0,0.26870221,-1.3304682055000001,8.8451079675,-0.8742162237021878,0.025926866038375768,-0.09868266123701139,8.948646907786522,0.8801502575103324,-0.03834400149999995,-0.0431492600000003,-0.14239255799999917
76082.0,0.2819411875,-1.3220344865,8.738509682,-0.8598277293487464,0.01899965423721027,-0.11653563415566137,8.842444089679729,0.8678970359704062,0.013238977500000026,0.008433719000000117,-0.1065982855000005
76092.0,0.302240953,-1.351944769,8.6272042045,-0.8422417918056516,-0.0012514010736799342,-0.12932540691427583,8.737720334174085,0.8521137616199992,0.020299765499999955,-0.02991028249999994,-0.1113054775000002
76102.0,0.37530049549999994,-1.475312426,8.588860203,-0.8105326499554186,-0.021237166338267003,-0.13971709728065007,8.722724161803452,0.8227606341764068,0.07305954249999996,-0.12336765699999996,-0.0383440015000005
76112.0,0.40158231749999995,-1.6321207594999998,8.530216435999998,-0.7769577511348037,-0.01910437399232993,-0.15197454461740623,8.69423251220739,0.7919119814510691,0.02628182200000001,-0.1568083334999999,-0.05864376700000129
76122.0,0.345390213,-1.6836056719999999,8.4404855885,-0.757773091996882,-0.00924675437706596,-0.15757007019930008,8.613687910976514,0.7740373947320873,-0.05619210449999995,-0.05148491250000009,-0.08973084749999849
76132.0,0.26399501799999997,-1.7170463484999998,8.2704382775,-0.7559073350265001,-0.003384193419617005,-0.15037582302257943,8.450922484224026,0.7707270853302647,-0.08139519500000003,-0.03344067649999993,-0.17004731099999937
76142.0,0.245950782,-1.8822884009999998,8.0142885795,-0.7641679783761892,-0.02310292330864894,-0.14637901903551243,8.236038055230784,0.7784043046224476,-0.018044235999999964,-0.16524205250000001,-0.25614969799999976
76152.0,0.2819411875,-2.0307610819999997,7.8071721315,-0.7601711743891223,-0.04202054707101548,-0.15144221919554796,8.071890614734876,0.7762478254418219,0.03599040550000002,-0.14847268099999988,-0.20711644800000073
76162.0,0.2819411875,-2.14569502,7.602507346,-0.7385866875297085,-0.03775670770839333,-0.1525086153685165,7.904531352208408,0.7551124033776073,0.0,-0.11493393800000007,-0.20466478549999945
76172.0,0.3190103245,-2.239054328,7.3702858739999995,-0.714073538185448,-0.015107570005262918,-0.1445132620651305,7.709490627490059,0.7287066210216931,0.037069136999999974,-0.09335930800000014,-0.23222147200000087
76182.0,0.395600261,-2.323979917,7.161992627999999,-0.6999503338783098,0.0464449567248211,-0.12799372069500414,7.539994736380717,0.7130708214748929,0.07658993650000001,-0.08492558900000002,-0.2082932460000002
76192.0,0.392069867,-2.3108390059999997,6.966840293,-0.7066122556331723,0.14556918626258705,-0.10560987303817689,7.350548235365086,0.7291397075206447,-0.0035303939999999923,0.013140911000000255,-0.1951523349999995
76202.0,0.348920607,-2.3646775145,6.774041554,-0.7287290679144445,0.24122893723514427,-0.06430840161898307,7.183389472448914,0.770307097917344,-0.04314926000000002,-0.05383850850000016,-0.19279873899999966
76212.0,0.188483813,-2.566988704,6.6711697955,-0.7340575581207831,0.2990516953537164,-0.0011571532940722405,7.150486948076902,0.7926372147028707,-0.160436794,-0.20231118950000004,-0.10287175850000008
76222.0,-0.0640374245,-2.9548417115,6.723831506,-0.6775682315507346,0.31264082890974426,0.06359281662566539,7.3447328374036225,0.7489239231287431,-0.2525212375,-0.38785300749999996,0.05266171049999979
76232.0,-0.3046926155,-3.4062418109999997,6.806403499,-0.5589923074994919,0.25748318855896746,0.10969045282933962,7.617246842274723,0.625141574106222,-0.240655191,-0.4514000994999998,0.08257199300000018
76242.0,-0.46865980349999997,-3.7640864695,6.885445097999999,-0.40790788080060275,0.14157238227552002,0.10542835879596948,7.861128618643881,0.44446227903030916,-0.16396718799999999,-0.35784465850000036,0.07904159899999907
76252.0,-0.392069867,-3.9663976589999996,6.985963260499999,-0.26055322271322545,0.010739010887521109,0.029752627758747336,8.04299147376061,0.26246623988551465,0.07658993649999996,-0.2023111894999996,0.10051816250000023
76262.0,-0.1766177665,-3.9484514894999996,7.0482354879999995,-0.15743218918839252,-0.08918457944765824,-0.10214713980222012,8.080785017229502,0.20778070548941685,0.21545210050000002,0.017946169500000053,0.06227222750000028
76272.0,0.0508965135,-3.536670256,7.11766657,-0.12252560414850593,-0.12169308209530463,-0.2364432444261758,7.94806922192158,0.2927919700684895,0.22751427999999999,0.41178123349999973,0.06943108200000037
76282.0,0.2172172975,-2.9979909714999997,7.189451247999999,-0.1558334675935657,-0.07186393195086652,-0.320112583437532,7.79251836487393,0.36320870090448626,0.166320784,0.5386792845000001,0.07178467799999932
76292.0,0.29508209849999995,-2.509521735,7.263687588499999,-0.2373717595882368,0.032855823168793256,-0.3342357877446701,7.690639126016869,0.4112644151581983,0.07786480099999996,0.48846923649999985,0.07423634049999972
76302.0,0.278312727,-2.218656496,7.325959816,-0.3285023811518687,0.14796726865482726,-0.2977304811099567,7.659607160089865,0.46738802551796693,-0.016769371499999963,0.29086523899999994,0.062272227500001165
76312.0,0.2519328385,-2.241407924,7.4600167215,-0.37912914676446824,0.2244423604894628,-0.23484452283134902,7.793537651281622,0.4992646923349574,-0.026379888500000004,-0.022751428000000296,0.1340569054999996
76322.0,0.1693608455,-2.356341862,7.588091570499999,-0.37566466819925953,0.24282765882997107,-0.1756900784935052,7.947336896652566,0.48057904501461424,-0.08257199299999998,-0.11493393799999962,0.128074848999999
76332.0,0.067665885,-2.4641169455,7.7246001385,-0.3253049379622151,0.2236429996920494,-0.1330569208550397,8.108384444068207,0.4165856912584528,-0.1016949605,-0.10777508349999998,0.13650856800000088
76342.0,-0.079629998,-2.4988324864999996,7.917300810999999,-0.25362601091206,0.165286170822367,-0.10374586139704695,8.30265962592894,0.3200138675640484,-0.147295883,-0.03471554099999974,0.19270067249999911
76352.0,-0.158671597,-2.4892219695,8.043022063999999,-0.18381284083228683,0.054705600074510266,-0.0824284099131882,8.42090295699498,0.20874459488850114,-0.079041599,0.009610516999999597,0.12572125300000003
76362.0,-0.0879656505,-2.5143269935,8.179432565499999,-0.12892049052781315,-0.074796085094217,-0.06750584480863668,8.557610372029831,0.16362147263327345,0.07070594649999999,-0.025105024000000142,0.13641050150000034
76372.0,0.018534568499999998,-2.540706882,8.2202282295,-0.09694605863127702,-0.1709881614886325,-0.04698949945144333,8.60393439860744,0.2020977553366164,0.10650021900000001,-0.026379888499999726,0.0407956640000009
76382.0,0.125132854,-2.586209738,8.160309598,-0.10733774899765128,-0.22374771944716906,-0.015013322225655223,8.561237747854403,0.24861583650673424,0.10659828549999999,-0.04550285600000015,-0.05991863150000043
76392.0,0.21251010549999996,-2.7286022959999996,7.984378296999999,-0.15290305977946722,-0.24133540231951592,0.02468942759871179,8.440422253908906,0.2867606840865706,0.08737725149999997,-0.1423925579999996,-0.17593130100000032
76402.0,0.2244742185,-2.9309134855,7.791579558,-0.19393749582310593,-0.20642881727962933,0.05852961646562984,8.327625984811062,0.2892236589444535,0.011964113000000026,-0.2023111895000005,-0.19279873899999966
76412.0,0.13582210249999999,-3.0434938275,7.6335944265,-0.21205750411731106,-0.1355492510268876,0.0777160209328035,8.21906723356428,0.26340418450746284,-0.088652116,-0.11258034199999978,-0.15798513149999938
76422.0,-0.0412859965,-3.0841914249999998,7.612019796499999,-0.19500389199607446,-0.05294630818849998,0.0923715506617999,8.213208061522515,0.2221763552137665,-0.177108099,-0.040697597499999905,-0.021574630000000816
76432.0,-0.2495792425,-3.0925270775,7.730582194999999,-0.15476881674984916,-0.002584832622203602,0.11022452358044989,8.329940851951385,0.1900250341306912,-0.208293246,-0.008335652500000457,0.11856239849999994
76442.0,-0.44237798149999996,-3.083014627,7.893372584999999,-0.11106751760916314,-0.0009861110273767962,0.1352717436758205,8.485635405462665,0.17502974181526113,-0.19279873899999997,0.00951245050000038,0.16279038999999962
76452.0,-0.5465246045,-3.1715686764999997,8.054986177,-0.07349756013073322,-0.06413735935228762,0.16857960712088027,8.674118936511126,0.19476800596321145,-0.104146623,-0.0885540494999999,0.16161359200000103
76462.0,-0.5776116849999999,-3.34995164,8.126770855,-0.05511051646097295,-0.18484433042021545,0.19762363120331794,8.809098465715131,0.2761515799757046,-0.031087080499999975,-0.17838296350000027,0.07178467800000021
76472.0,-0.5692760324999999,-3.4816549494999998,8.0370400075,-0.0663033129540126,-0.33433003552427776,0.2122791609323143,8.777243785534978,0.4015409619559005,0.008335652500000013,-0.13170330949999975,-0.08973084750000027
76482.0,-0.471111466,-3.6085530005,7.819136244499999,-0.09268221926865487,-0.45450468117034737,0.20401851758262515,8.624528530932446,0.5067425919448,0.09816456649999994,-0.1268980510000004,-0.2179037630000007
