timestamp,ax,ay,az,gx,gy,gz,acc_mag,gyro_mag,dax,day,daz
73672.0,0.608796832,3.6099259315,10.985017063999999,-0.1112979010704264,0.41843221619012855,0.0068207467167938395,11.578980901182131,0.43303494652769026,0.0,0.0,0.0
73682.0,0.759623109,3.9942485449999996,11.1741873425,-0.10037213995294189,0.36300754046379663,-0.07711562767011745,11.890900364238556,0.3844422725758239,0.15082627699999995,0.38432261349999974,0.18917027850000068
73692.0,0.8230721345,4.0480870535,11.425531781999998,-0.007909832170038301,0.26788011491309766,-0.10056412617066127,12.149371713500116,0.2862437158843513,0.06344902550000009,0.05383850850000016,0.25134443949999863
73702.0,0.9918445809999998,4.1630209915,11.690115199,0.1407765121366106,0.18074804266578476,-0.09630028680803912,12.448826965397965,0.24851886555384928,0.16877244649999978,0.11493393800000007,0.26458341700000076
73712.0,1.036170639,4.286290582,11.923513469,0.2772054091065034,0.129587206302075,-0.08910603963131851,12.712832492874748,0.31870922354688536,0.044326058000000224,0.12326959050000053,0.23339827000000035
73722.0,1.02773692,4.4395685215,12.129453119,0.35021602237593014,0.1181291197627322,-0.08404458480053495,12.957223653230797,0.37903725872139565,-0.008433719000000117,0.15327793949999968,0.20593965000000125
73732.0,1.0241084594999998,4.6442333069999995,12.364028186999999,0.34462049679403634,0.15489971644374873,-0.08244411787645614,13.247146642035714,0.38672243474790696,-0.003628460500000097,0.20466478549999945,0.23457506799999805
73742.0,0.9642878945,4.6849309045,12.7471740025,0.298255825214807,0.2175186393468013,-0.08457691022239322,13.615023825665173,0.37871380946648364,-0.05982056499999988,0.04069759750000035,0.3831458155000007
73752.0,0.8661233279999999,4.8106521575,13.249960948,0.24363051028588845,0.2758737228872317,-0.08937307500687364,14.1228187315171,0.3787475188803324,-0.09816456650000005,0.12572125300000003,0.5027869455000005
73762.0,0.9499701854999999,4.884888498,13.832868224,0.18847286993511167,0.2945260566032951,-0.1077583733473819,14.700776248000665,0.365895460133545,0.08384685749999998,0.07423634049999972,0.5829072760000003
73772.0,1.2061198835,5.054837742499999,14.420678824999998,0.10613521714302718,0.24709673418034922,-0.10669372250366536,15.328473099111335,0.2893182171628341,0.2561496980000001,0.1699492444999997,0.5878106009999975
73782.0,1.468251638,5.329031676499999,14.784603606499997,0.00035081117965086024,0.18234676426061155,-0.06352649411408962,15.78413270607425,0.19309604076527895,0.2621317544999999,0.2741939339999995,0.36392478149999974
73792.0,1.6083886664999998,5.653435658499999,14.9450404005,-0.13101488563020633,0.10880208024007451,0.05824687312680676,16.059342496500353,0.17998747498177192,0.14013702849999987,0.32440398200000065,0.16043679400000244
73802.0,1.7077300309999999,5.809067194,15.004860965499999,-0.23307126831132274,0.06403613025567195,0.22825066891731444,16.180465262691673,0.33244730402211337,0.09934136450000008,0.15563153550000042,0.05982056499999899
73812.0,1.7472508304999999,5.728848797,15.044381764999999,-0.30448315998592274,0.06323676945825855,0.3974533585811567,16.192776682664274,0.5046563741537121,0.03952079949999998,-0.08021839699999944,0.03952079949999998
73822.0,1.525718607,5.532519664,15.085079362499998,-0.3718982476734557,0.08215613854987709,0.5205601573705767,16.139894995730796,0.6450122597018549,-0.2215322234999999,-0.19632913300000077,0.04069759749999946
73832.0,1.259958392,5.308633844499999,15.0144714825,-0.4451741509891856,0.11040080183490131,0.5701222721394597,15.975088179517126,0.7317156325678654,-0.265760215,-0.22388581950000042,-0.07060787999999896
73842.0,1.118742632,5.09553534,14.991720054499998,-0.49127353252211187,0.13944482591733895,0.5501365068748726,15.873491602994617,0.7506295487311688,-0.1412157599999999,-0.21309850449999956,-0.022751428000001184
73852.0,1.110308913,5.028555920499999,15.0707616535,-0.531241572392782,0.16662483835864667,0.5189614357757499,15.926299549628247,0.7611191869995318,-0.008433719000000117,-0.06697941950000086,0.07904159900000174
73862.0,1.1690507465,4.9818762665,15.085079362499998,-0.6189077153912051,0.17701652872502088,0.507236313860852,15.929387626507541,0.8195549339194792,0.05874183350000006,-0.04667965399999918,0.014317708999998402
73872.0,1.1737579384999999,4.959124838499999,14.936606681499999,-0.7452119573702788,0.17115396776757194,0.5264209729987737,15.782041883731326,0.9283068366134124,0.004707191999999916,-0.022751428000000296,-0.14847268099999944
73882.0,1.1462993184999999,4.7663260995,14.619361554,-0.8624544498729979,0.1453073868747879,0.5663907581986958,15.419390353089247,1.041988678325733,-0.02745861999999999,-0.19279873899999966,-0.31724512749999967
73892.0,1.002631896,4.4754608605,14.1967930055,-0.9351997730961216,0.10134079768779874,0.6228818300979962,14.919247711388055,1.1282066952209004,-0.14366742249999986,-0.2908652389999995,-0.42256854849999925
73902.0,0.7787460764999999,4.263539153999999,13.660565383499998,-0.939995937880602,0.03206169835913583,0.6628498699686663,14.331617430221671,1.1506477592431068,-0.22388581950000008,-0.21192170650000097,-0.536227622000002
73912.0,0.6997044775,4.0576975705,13.112275582,-0.8941635917232309,-0.035620424703952276,0.673775631086151,13.743590028365537,1.1201655879668058,-0.07904159899999996,-0.20584158349999893,-0.5482898014999975
73922.0,0.712943455,3.8158655814999998,12.601054917499999,-0.8360755435583556,-0.0436140326780863,0.6684453955505603,13.185435280640325,1.0713280287641083,0.013238977500000026,-0.24183198900000047,-0.5112206645000015
73932.0,0.6267430015,3.5871745035,12.215653572499999,-0.7867804641650278,0.010744246875277093,0.665782023112017,12.746874907671357,1.0307301489389857,-0.08620045350000005,-0.22869107799999977,-0.385401345
73942.0,0.5237731765,3.3753508634999996,11.970193123,-0.7601327771455784,0.08375486014470389,0.6513935287585757,12.448006073025011,1.0045547495271014,-0.10296982499999996,-0.21182364000000042,-0.24546044949999946
73952.0,0.483075579,3.049672017,11.949893357499999,-0.7646636518837556,0.15010355165926834,0.6212831085031695,12.342358473238477,0.9966113975087226,-0.040697597500000016,-0.3256788464999998,-0.020299765500000788
73962.0,0.44836003799999996,2.895315346,11.963034268499998,-0.8166238490448788,0.17381908553536726,0.5829120448980742,12.31657690211707,1.018270120062687,-0.034715541000000016,-0.15435667099999995,0.013140910999998923
73972.0,0.44355477949999994,2.7624352384999997,11.881639073499999,-0.9122836000174361,0.15889652043081576,0.5525345892671129,12.206602162856203,1.0783338738082797,-0.00480525850000002,-0.13288010750000012,-0.08139519499999892
73982.0,0.5046502089999999,2.6367139854999997,11.657753254,-1.0479131361899154,0.13251761411617347,0.5320182439099195,11.962865183806203,1.1826775853559675,0.061095429499999965,-0.12572125300000003,-0.22388581949999953
73992.0,0.562117178,2.5074623384999994,11.371693273499998,-1.2035266922977297,0.1290531355509647,0.507236313860852,11.658419747434198,1.3124099546131895,0.057466969000000145,-0.12925164700000025,-0.28605998050000103
74002.0,0.4651294095,2.293187036,10.951478321,-1.3724640919152689,0.16022995197933942,0.47979101137324115,11.1986574894044,1.4627134838042146,-0.09698776850000007,-0.2142753024999995,-0.4202149524999985
74012.0,0.238889994,2.1219629269999998,10.364942584499998,-1.5320761973394024,0.22471288652352192,0.42889721038508655,10.582619234989853,1.6067688610686373,-0.22623941549999999,-0.17122410900000018,-0.5865357365000019
74022.0,0.10954028049999999,1.9053340284999998,9.7628142745,-1.6591780547866375,0.31957502202791777,0.3273748984550804,9.947604706239238,1.7210968410662395,-0.12934971350000002,-0.2166288985,-0.6021283099999977
74032.0,0.126309652,1.7125352895,9.241983093,-1.7436467545954069,0.44694391485070795,0.18508344052773867,9.400158654898812,1.8095078744760291,0.016769371500000005,-0.19279873899999989,-0.5208311815000002
74042.0,0.30586941349999996,1.6407506114999997,8.711737527499999,-1.8001360811654554,0.606021949523731,0.024406684259888706,8.870174147969376,1.8995652661213904,0.17955976149999997,-0.07178467800000021,-0.5302455655000013
74052.0,0.5980095169999999,1.5976013514999998,8.407633311,-1.8419716233357595,0.8002718592829441,-0.1162860520726262,8.578941855087608,2.011670190622954,0.29214010349999997,-0.043149259999999856,-0.30410421649999897
74062.0,0.8625929339999999,1.603583408,8.329866576499999,-1.8712826827937523,0.994790549746964,-0.22233749341155765,8.52655988652466,2.1309014706846923,0.264583417,0.005982056500000166,-0.07776673450000082
74072.0,0.9367312079999999,1.5366039884999998,8.404102917,-1.8920660635265008,1.1440092194754712,-0.2878868241287087,8.594624076307419,2.2296972679044256,0.07413827399999995,-0.06697941950000019,0.07423634050000061
74082.0,0.8913264184999999,1.383326049,8.6003339835,-1.9131164796348044,1.1927719734469409,-0.31693259354039827,8.756357597192052,2.276656740516457,-0.04540478949999993,-0.1532779394999999,0.1962310665000011
74092.0,0.6997044775,1.1007964625,8.654270558499999,-1.9456249822824507,1.1341498545309552,-0.33451853108349316,8.752013374498803,2.276764175722297,-0.19162194099999996,-0.28252958649999993,0.053936574999998044
74102.0,0.6075219675,0.8003207065,8.4950105625,-1.9842613359338495,1.0155739304797125,-0.37288959468858845,8.554227062174249,2.260028784635058,-0.09218251,-0.300475756,-0.1592599959999994
74112.0,0.5093574009999999,0.5884970665,8.0976451045,-2.0143717561892553,0.9023282419640604,-0.4240504310522983,8.134963429399384,2.2476006309962133,-0.09816456650000005,-0.21182363999999998,-0.39736545799999945
74122.0,0.4208033514999999,0.43649399149999996,7.4726672999999995,-2.04315049022539,0.8354454796983857,-0.4525621297128777,7.497223422156933,2.253274407724672,-0.08855404950000001,-0.15200307500000004,-0.6249778045000003
74132.0,0.3046926155,0.3227368515,6.880149507,-2.052475784418796,0.851966766397764,-0.4557595729025313,6.894450950143072,2.2685283786993082,-0.11611073599999994,-0.11375713999999998,-0.5925177929999998
74142.0,0.29508209849999995,0.0689407495,6.4564041605,-2.0023813442280542,0.9159173755200882,-0.45655893369994466,6.46351150347228,2.248751152625249,-0.00961051700000004,-0.25379610199999997,-0.4237453464999996
74152.0,0.32626724549999997,-0.2219244895,6.477880724,-1.8630220394440633,0.9995867145314444,-0.48507063236052406,6.489887477367906,2.1691745521512837,0.031185147000000024,-0.290865239,0.021476563500000267
74162.0,0.19819239649999998,-0.16808598099999997,6.728146432,-1.655980611596984,1.0368913819635712,-0.5362314687242339,6.733163263539172,2.026070016565468,-0.128074849,0.05383850850000002,0.2502657079999997
74172.0,0.20535125099999998,0.0557998385,7.203376690999999,-1.437748132586117,0.9708079804953098,-0.5857918381638648,7.206519167441796,1.831048853910689,0.007158854500000006,0.22388581949999997,0.47523025899999904
74182.0,0.43041386849999996,0.338329425,7.6714480955,-1.2640145681840975,0.8365118758713543,-0.6116401643859009,7.690958248486891,1.634499506804898,0.22506261749999998,0.28252958650000004,0.46807140450000073
74192.0,0.6817583079999999,0.7034310045,7.851007856999999,-1.1899375587417018,0.6995489081503513,-0.598049285500621,7.911885612121464,1.504321447193489,0.25134443949999996,0.36510157949999994,0.1795597614999993
74202.0,1.0086139525,0.9152546444999999,7.6953763214999995,-1.220315014372663,0.6257389340835111,-0.528770186171958,7.8149734419868215,1.4698012987188604,0.32685564450000004,0.21182363999999998,-0.15563153549999953
74212.0,1.0337189764999999,0.8710266529999999,7.411669936999999,-1.3045166788058777,0.6499885387107202,-0.4064627481799514,7.533930820470956,1.5130964382338667,0.02510502399999992,-0.04422799150000001,-0.2837063845000003
74222.0,0.724907568,0.5848686059999999,6.967526758499999,-1.3817911314379268,0.7086089122974537,-0.2772298437160313,7.029508617168171,1.5774440426698824,-0.3088114084999999,-0.286158047,-0.44414317850000007
74232.0,0.358531124,0.0557998385,6.570063234,-1.390851135585029,0.7435154973373403,-0.18796497912278132,6.580075158203884,1.5882735940371184,-0.366376444,-0.5290687674999999,-0.3974635244999991
74242.0,-0.1442558215,-0.468561737,6.266057083999999,-1.312777322155567,0.7533748622818564,-0.1722430532208164,6.28520733336329,1.5233599870243988,-0.5027869455,-0.5243615755,-0.3040061500000011
74252.0,-0.485429175,-1.0886362164999999,6.1486714835,-1.1750149936371506,0.7499103837166476,-0.23406261532645556,6.263140690406268,1.4134394669640518,-0.3411733535,-0.6200744794999999,-0.11738560049999869
74262.0,-0.651749959,-1.61417459,6.2037848565,-1.0377867358698443,0.7850840041320893,-0.3707568023426514,6.443390734838054,1.3530775325807491,-0.166320784,-0.5255383735000001,0.0551133729999993
74272.0,-0.8146384155,-1.8021680704999998,6.220554227999999,-0.9176138355530268,0.8026699416751842,-0.5436910059472576,6.527383886813055,1.3348760603198793,-0.16288845650000006,-0.18799348049999987,0.016769371499999686
74282.0,-0.718827445,-1.5819107115,6.354611133499999,-0.8280819355842216,0.7611031802096871,-0.6987722366332138,6.587885628397461,1.3241149427657686,0.09581097050000009,0.22025735899999987,0.1340569054999996
74292.0,-0.05207331149999999,-1.4597198525,6.510242668999999,-0.8120929743067016,0.7062108299052136,-0.7907022189942591,6.672087625835068,1.3354545047721247,0.6667541335,0.12219085900000004,0.15563153550000042
74302.0,0.1203275955,-1.047938619,6.285180051499999,-0.7838483110216774,0.6595808682796811,-0.7808428540497431,6.373079503599808,1.2880918675361097,0.172400907,0.41178123349999995,-0.2250626174999999
74312.0,0.1083634825,-1.265842382,6.1486714835,-0.7582687655044484,0.6041561925533492,-0.7557956339543724,6.278555613547837,1.2293100772566259,-0.011964112999999998,-0.21790376300000003,-0.1365085679999991
74322.0,0.022163028999999997,-1.440596885,5.952440416999999,-0.6964492033988092,0.5612559995393286,-0.6590694868088467,6.124325065087685,1.1110456238949882,-0.0862004535,-0.17475450299999995,-0.1962310665000011
74332.0,-0.070019481,-1.5507255644999998,5.8338780185,-0.5778732793475665,0.5140919671626858,-0.5767335793460143,6.036868827368278,0.9648055240463624,-0.09218251,-0.11012867949999983,-0.11856239849999906
74342.0,-0.12150439349999999,-1.7554884165,5.8913449875,-0.40547140116481867,0.43148902432429814,-0.5095837817047844,6.1485322362208406,0.7811948962016108,-0.051484912499999994,-0.20476285200000022,0.057466969000000034
74352.0,-0.15739673249999997,-1.846396062,6.113955942499999,-0.2805005907342687,0.34781968531294194,-0.46561719251779526,6.388615610286929,0.6453359472876289,-0.03589233899999998,-0.09090764549999997,0.2226109549999986
74362.0,-0.0914960445,-1.9744709109999998,6.218200631999999,-0.24852615883773255,0.29426076655699196,-0.4421686940172514,6.524793177132093,0.5864024252424849,0.06590068799999997,-0.12807484899999988,0.10424468950000065
74372.0,-0.070019481,-1.788929093,6.584479009499999,-0.32873101928388,0.2836020408150626,-0.4437674156120782,6.823527962428776,0.620825031512833,0.021476563500000004,0.18554181799999991,0.3662783774999996
74382.0,-0.050798447,-1.8368836115,7.1422812615,-0.6055856172107325,0.34062543813622137,-0.4536267805565942,7.3748832874011585,0.8297812271413093,0.019221033999999998,-0.0479545185000001,0.557802252000001
74392.0,-0.150237878,-2.0894048489999997,6.991454984499999,-0.8355432181364973,0.4083058158700575,-0.4757435928378663,7.298535938344109,1.0445946940194024,-0.099439431,-0.25252123749999966,-0.15082627700000106
74402.0,-0.4027591155,-2.0259558235,6.7376588825,-0.8888351015168922,0.4162994238441915,-0.5231746605900642,7.0471809343043725,1.1122251451325305,-0.2525212375,0.06344902549999976,-0.253796101999999
74412.0,-0.49376482749999995,-1.914650346,6.4707218695,-0.7774534246423701,0.34435520674773323,-0.5370308295216473,6.766086842831653,1.0056920243091978,-0.09100571199999996,0.11130547749999997,-0.2669370129999997
74422.0,-0.429139004,-1.8631654334999999,6.327054446999999,-0.5600203064289164,0.2532245851841013,-0.528770186171958,6.609626592527435,0.8107671329911721,0.06462582349999996,0.05148491250000009,-0.14366742250000097
74432.0,-0.2603665575,-1.7709829234999999,6.3761857635,-0.31380845417932846,0.17568484250574923,-0.5015901737306504,6.622681945424609,0.617198195220817,0.1687724465,0.09218251,0.049131316500000466
74442.0,-0.049621649,-1.587892768,6.662245743999999,-0.12728511701869447,0.13304993953803174,-0.45416085130770445,6.849042568429714,0.49006720588718794,0.2107449085,0.18309015549999996,0.28605998049999926
74452.0,0.19221033999999998,-1.495710258,7.053727212,-0.04068537019323982,0.09601230748146007,-0.39047553223168335,7.2131242587382784,0.4041593792147991,0.24183198899999997,0.09218251,0.39148146800000116
74462.0,0.34656701100000004,-1.5063995065,7.427262510499999,-0.03215769146799552,0.0722967736053611,-0.3150668365700164,7.586407355670777,0.3248508151452495,0.15435667100000006,-0.010689248500000081,0.37353529849999934
74472.0,0.30949787399999995,-1.5256205405,7.689394265,-0.06440090406933877,0.05790827925191986,-0.23192982298051848,7.8453866144518924,0.2475727934136567,-0.037069137000000085,-0.01922103400000008,0.26213175450000037
74482.0,0.20652804899999996,-1.8847400634999998,7.97672911,-0.11556174043304855,0.04751658888554562,-0.17171072779895813,8.198969827747089,0.21236034496223896,-0.10296982499999999,-0.3591195229999997,0.28733484500000017
74492.0,0.079629998,-2.2211081585,8.337025430999999,-0.1408742505747223,0.014208725440485837,-0.1559888018969932,8.628189579829447,0.2106654899856456,-0.12689805099999996,-0.3363680950000001,0.360296320999999
74502.0,0.016180972499999998,-2.4617633494999995,8.7464530685,-0.1414083213258326,-0.035887460079507404,-0.16797921385819423,9.086307384866833,0.22248873998376886,-0.06344902549999999,-0.24065519099999966,0.40942763750000033
74512.0,-0.0328522775,-2.4797095189999996,8.952294651999999,-0.15526449025741557,-0.09530719446365435,-0.18663154757425762,9.289435833622187,0.2608100032617428,-0.04903325,-0.017946169500000053,0.20584158349999981
74522.0,-0.0293218835,-2.424596146,8.9798513385,-0.2082893382622553,-0.1296814540816827,-0.1948921909239468,9.301465277342611,0.31334436974294577,0.003530393999999999,0.055113372999999743,0.027556686500000538
74532.0,0.053348176000000004,-2.3983143239999998,8.8386355785,-0.30101868142071403,-0.11129615574117441,-0.20181940272511228,9.158397049381083,0.37911759674717044,0.0826700595,0.026281822000000066,-0.1412157599999997
74542.0,0.150237878,-2.444993978,8.6674114695,-0.40307331877257846,-0.03002489912205845,-0.21221283842073851,9.006918926806344,0.45651274206117937,0.096889702,-0.04667965400000007,-0.17122410900000062
74552.0,0.1419022255,-2.4808863169999995,8.535708159999999,-0.4760839320420052,0.054710836062266247,-0.19808963411360042,8.890064507762036,0.5185447802017382,-0.008335652499999985,-0.03589233899999966,-0.13170330950000064
74562.0,-0.000588399,-2.5514941970000002,8.405279714999999,-0.48114713220204075,0.07256380898091626,-0.16078496668147363,8.784011046835523,0.5124645106842323,-0.1424906245,-0.07060788000000073,-0.13042844499999973
74572.0,-0.116699135,-2.676038652,8.2161094365,-0.42279204866161035,0.022469368790175002,-0.12294797382748855,8.641716023316901,0.44087888723956287,-0.11611073599999999,-0.12454445499999967,-0.1891702784999989
74582.0,-0.314205066,-2.6903563609999996,8.053319046499999,-0.318871654339364,-0.08118573548576824,-0.100031800748803,8.49662814517576,0.34391367630342384,-0.19750593099999997,-0.014317708999999734,-0.1627903900000014
74592.0,-0.21486370149999998,-2.898649607,7.825902832999999,-0.1989640440688496,-0.19096869076546358,-0.09869836920027934,8.348238802642204,0.2929114196607927,0.0993413645,-0.2082932460000002,-0.22741621349999974
74602.0,-0.304594549,-2.956116576,7.617609587,-0.08198684161243362,-0.25438522913667755,-0.10882476952035043,8.176758457367857,0.28857670983927236,-0.08973084750000002,-0.057466969000000034,-0.20829324599999932
74612.0,-0.39324666499999994,-2.9165957765,7.3445924510000005,0.013672909360123577,-0.30581310087594243,-0.12774413861196898,7.912282359364929,0.33170343089489357,-0.08865211599999995,0.03952079949999998,-0.2730171359999991
74622.0,-0.30586941349999996,-2.9285598895,7.216517602,0.0643014203019751,-0.3276628777816595,-0.16185136285444215,7.794109662076799,0.371070744989214,0.08737725149999997,-0.011964112999999887,-0.12807484900000077
74632.0,-0.207704847,-2.8962960109999996,7.041763099,0.09254608358699933,-0.31300734805266306,-0.19036306151502153,7.6169612989196605,0.37785774136786543,0.09816456649999997,0.03226387850000023,-0.17475450299999995
