timestamp,ax,ay,az,gx,gy,gz,acc_mag,gyro_mag,dax,day,daz
146382.0,-0.3525490675,3.1526418419999995,13.671254631999998,-0.1448710545617893,0.08695230333435751,-0.17011200620413133,14.034480561884209,0.23976325856934266,0.0,0.0,0.0
146392.0,-0.3321512355,3.6052187394999997,12.783066341499998,-0.21814870320677127,-0.026827455932404837,-0.12241390307637828,13.285883925959773,0.25158245719643096,0.020397832000000005,0.4525768975000002,-0.8881882905000005
146402.0,0.034127142,3.7835036364999994,12.536429093999999,-0.2996869952014423,-0.04681147586773991,0.016146040910199545,13.094965401180694,0.30375039753531047,0.3662783775,0.17828489699999972,-0.24663724749999894
146412.0,0.1515127425,3.5285307365,12.2515459115,-0.34471823523214806,0.029663615966895623,0.2202570609431804,12.750445580102582,0.4101509048010572,0.11738560049999999,-0.2549728999999994,-0.2848831824999998
146422.0,0.023339827,3.093998075,12.1832916275,-0.3500484707677387,0.20366247041521832,0.388128064387751,12.57004231163681,0.5609418223914528,-0.12817291549999998,-0.43453266150000003,-0.068254284
146432.0,-0.46865980349999997,2.631908727,12.419141559999998,-0.3439188744347347,0.4250941379449909,0.4582065245138273,12.703608253012,0.7133992132142356,-0.49199963049999995,-0.4620893480000001,0.23584993249999897
146442.0,-1.0300905159999998,2.1136272744999998,12.921928505499999,-0.3580420787418727,0.615614279092692,0.4075797589012278,13.134106099309419,0.8205463610537794,-0.5614307124999998,-0.5182814525000001,0.5027869455000005
146452.0,-1.4777640884999999,1.6922355239999998,13.777852917499999,-0.40067523638033825,0.7160701948497296,0.2530308536371299,13.959823737648374,0.8586744330029306,-0.44767357250000006,-0.4213917505,0.8559244120000002
146462.0,-1.7447011015,1.4492267369999998,14.660059151499999,-0.45103671194663464,0.6742363980086774,0.040660935583711894,14.834472501383049,0.8122081922794734,-0.26693701300000017,-0.24300878699999995,0.8822062339999999
146472.0,-1.8094249915,1.555726956,15.302983125499999,-0.4848786461428047,0.5023668452477879,-0.1685115392800525,15.487917797458364,0.7182450052454431,-0.06472389,0.10650021900000017,0.6429239740000003
146482.0,-1.6310420279999998,1.7784359775,15.721923213499998,-0.5008658620910728,0.2668154640693811,-0.2972138636513664,15.906036657645387,0.6406193756212543,0.17838296350000027,0.22270902150000005,0.4189400879999994
146492.0,-1.482569347,2.1506964115,15.944632234999998,-0.49660202272845055,0.011543607672690496,-0.30254235385770506,16.15719047459997,0.5816173138188463,0.14847268099999966,0.37226043399999975,0.22270902150000005
146502.0,-1.3089916419999998,2.4775520559999995,16.120563536,-0.46462584550266245,-0.22667463660276357,-0.20128707730325401,16.362282604429872,0.5547747783356278,0.17357770500000025,0.3268556444999997,0.17593130100000032
146512.0,-1.1965093665,2.6918273585,16.130174052999998,-0.4441095001454691,-0.404137969616295,-0.04061032103540406,16.39695350277501,0.6018388029860141,0.1124822754999999,0.21427530250000038,0.009610516999998708
146522.0,-1.1629706235,2.667801066,16.2318690135,-0.4824805637505645,-0.4489039196006976,0.1136715488531387,16.49070146689631,0.6687476687425561,0.03353874300000004,-0.02402629249999988,0.10169496050000149
146532.0,-1.3664586109999999,2.445190111,16.341997693,-0.622372193956414,-0.37749202792609754,0.18987960531221912,16.580321239726494,0.7522643441446643,-0.20348798749999997,-0.22261095499999994,0.11012867950000071
146542.0,-1.6023085435,2.1399090965,16.5311679715,-0.8608557282781711,-0.24212952712917332,0.14990982011229695,16.74592840399731,0.9067371432687859,-0.23584993250000008,-0.3052810145000002,0.18917027850000068
146552.0,-1.65732385,1.9902596174999998,16.8208564125,-1.1584954522670243,-0.1080987125515208,0.0036215581978882336,17.019079473895538,1.1635334805077395,-0.05501530650000008,-0.14964947900000003,0.28968844099999913
146562.0,-1.5089492355,2.119609331,17.0985807405,-1.4923717021857834,-0.004977679026687828,-0.17517346103491488,17.295407912240055,1.502625640745005,0.1483746145,0.12934971350000013,0.27772432800000146
146572.0,-1.203668221,2.436756392,16.951382924,-1.8539620352969606,0.014741050862344108,-0.31080299720739424,17.167876453897172,1.8798912282299935,0.3052810145,0.317147061,-0.1471978165000003
146582.0,-0.7643303009999999,2.57326496,16.494098834499997,-2.178512991022314,-0.001780235837034216,-0.3462436529983911,16.711109769421203,2.205857359063431,0.43933792000000016,0.136508568,-0.45728408950000343
146592.0,-0.5392676835,2.6498548965,15.697994987499998,-2.428189321837111,-0.049476593635535256,-0.2942834558372679,15.929205480329129,2.4464574528041703,0.2250626174999999,0.07658993650000001,-0.7961038469999995
146602.0,-0.5057289405,2.57326496,14.6708464665,-2.594461603686855,-0.10063742999924503,-0.19835666948915556,14.903395262799636,2.603978547080035,0.03353874300000004,-0.07658993650000001,-1.0271485209999973
146612.0,-0.475818658,2.235720067,13.73715532,-2.656281165792494,-0.14380465838882078,-0.11655134211892934,13.92602900683076,2.6627229722349974,0.02991028249999994,-0.337544893,-0.9336911465000011
146622.0,-0.35607946149999997,1.6395738135,12.964979698999999,-2.62750243175636,-0.15339698795778162,-0.09869836920027934,13.073090432958045,2.6338263103103245,0.11973919650000003,-0.5961462535,-0.7721756210000006
146632.0,-0.3213639205,1.103248125,12.421495155999999,-2.5403703595090468,-0.1509989055655414,-0.1442636799820953,12.474532981448508,2.548939827127367,0.03471554099999996,-0.5363256885000001,-0.5434845429999999
146642.0,-0.35607946149999997,0.6926436895,11.977450044,-2.436182929811245,-0.17418036869053008,-0.23059813676124682,12.002743745495106,2.4532634528355546,-0.03471554099999996,-0.4106044354999999,-0.4440451119999995
146652.0,-0.29508209849999995,0.39216793349999995,11.5584118895,-2.3578420810062277,-0.2317360914335471,-0.3457095822472808,11.568826843732074,2.394292381956361,0.06099736300000003,-0.30047575600000004,-0.41903815449999904
146662.0,-0.071196279,0.292826569,11.154966308499999,-2.309613397785868,-0.29035821034953263,-0.46615126326890555,11.15903623318008,2.3740090433266174,0.22388581949999994,-0.09934136449999997,-0.4034455810000015
146672.0,0.28792324399999997,0.45797055499999995,10.713274792499998,-2.3162735742114786,-0.3066124616733558,-0.5655407828529746,10.726923771673702,2.403949011379769,0.35911952299999994,0.16514398599999996,-0.44169151600000056
146682.0,0.544072942,0.5106322655,10.084766594,-2.3975448308305944,-0.291157571146946,-0.5959182384839359,10.112332961895813,2.4875917056535806,0.25614969800000004,0.052661710500000014,-0.6285081984999987
146692.0,0.7559946485,0.38020382049999996,9.415560798,-2.4929392917568487,-0.24452760952141356,-0.5748678223756323,9.453510881916719,2.57002199940123,0.21192170649999997,-0.130428445,-0.669205796
146702.0,0.9714467489999999,-0.008825985,8.8996329415,-2.54782989673207,-0.14566867002995074,-0.5572818848325374,8.952499828404681,2.6121293312683718,0.21545210049999997,-0.38902980549999994,-0.5159278564999994
146712.0,1.0780450344999999,-0.4027591155,8.521390451,-2.553425422313964,-0.02869146757353478,-0.554349731689187,8.598749398599917,2.613064907853351,0.10659828549999995,-0.3939331305,-0.3782424904999999
146722.0,1.105601721,-0.570354764,8.354971600499999,-2.5086612176588137,0.0379225139873328,-0.5738014262026637,8.447082938355535,2.5737263449645793,0.027556686500000094,-0.16759564849999997,-0.16641885050000127
146732.0,1.2097483439999999,-0.8049298319999999,8.308291946499999,-2.428721647258969,0.03392571000026578,-0.6097744074155189,8.434400877272257,2.504329175967546,0.10414662299999988,-0.23457506799999994,-0.04667965400000007
146742.0,1.2192607944999998,-0.8420970354999999,8.078424070499999,-2.363439351917373,-0.013503612422680129,-0.6380190707005431,8.213200336351015,2.448080115583977,0.009512450499999936,-0.03716720350000002,-0.22986787600000014
146752.0,1.348610508,-0.8205224054999999,7.659483982499999,-2.3423871904798177,-0.05160764065222033,-0.6710598987700478,7.820466878543095,2.4371627944055954,0.12934971350000013,0.02157463000000004,-0.4189400879999994
146762.0,1.6298652299999998,-0.9844895934999999,7.3709723395,-2.339989108087577,-0.010573204608581648,-0.6878482208449812,7.612943823341063,2.4390153737817637,0.2812547219999999,-0.16396718799999999,-0.28851164299999965
146772.0,1.8166819124999998,-1.2012165584999999,7.2236764565,-2.3298644530967585,0.07549421679501472,-0.675590773508225,7.544849630033168,2.4270126987353797,0.18681668249999994,-0.216726965,-0.14729588299999996
146782.0,1.9112180185,-1.2801600909999997,7.0764786399999995,-2.3442529474501996,0.1583641950089575,-0.6484107610669174,7.440975347036464,2.4374243813823564,0.09453610600000029,-0.07894353249999986,-0.1471978165000003
146792.0,1.931517784,-1.4190222549999998,6.9974370409999995,-2.389285932810157,0.2161869531275296,-0.6028454502851014,7.396520144828403,2.473630268321544,0.0202997654999999,-0.13886216400000007,-0.07904159899999996
146802.0,1.8753256795,-1.63574922,6.922023902499999,-2.433784847419005,0.21298950993787602,-0.5586135710518091,7.355741758769408,2.5061369349325626,-0.056192104500000006,-0.2167269650000001,-0.07541313850000009
146812.0,1.7962840805,-1.7937343514999997,6.5485866705,-2.459898463687344,0.15276866942706366,-0.5290354762182612,7.023397098460198,2.5207771129370706,-0.07904159899999996,-0.15798513149999982,-0.3734372319999997
146822.0,1.8525742514999999,-1.9254376609999997,5.7991624775,-2.4593643929362337,0.07416253057574305,-0.5119818640970246,6.385109786382837,2.513184976747289,0.05629017099999989,-0.13170330949999998,-0.7494241929999994
146832.0,1.9231821315,-2.0451768575,5.0377741715,-2.3932827367972243,0.08268846397173535,-0.4994591267139653,5.767195721701056,2.446241823610964,0.07060788000000007,-0.11973919650000031,-0.7613883060000006
146842.0,2.018993102,-2.2521952389999997,4.39141787,-2.2829674560956708,0.17488548170833582,-0.4864023185797957,5.332285387097467,2.3407504251466227,0.09581097050000009,-0.20701838149999974,-0.6463563015
146852.0,1.954269212,-2.3779164919999998,3.9843438284999997,-2.1590612965088374,0.32117374362274453,-0.46961574183411425,5.034744356926449,2.2327644749622553,-0.06472389,-0.12572125300000003,-0.40707404150000004
146862.0,1.8513974535,-2.5802276815,3.895789779,-2.0260968781041533,0.44720920489701105,-0.46801702023928743,5.026174034130336,2.126994255667296,-0.10287175850000008,-0.20231118950000004,-0.0885540494999999
146872.0,1.8106998559999998,-2.722718306,3.9748313779999997,-1.9139158404322179,0.5172894103523393,-0.4861352832042406,5.146951857738647,2.041320575484434,-0.04069759750000013,-0.14249062450000016,0.07904159899999996
146882.0,1.7507812244999998,-2.7682211619999997,3.9544335459999997,-1.8161250424429753,0.5399385480554698,-0.5082520954855128,5.134766593287029,1.9616737746195627,-0.059918631499999986,-0.0455028559999997,-0.020397832000000005
146892.0,1.775984315,-2.8831550999999997,3.8406764059999996,-1.7436467545954069,0.5402055834310249,-0.5114495386751663,5.120302615411232,1.895707442563907,0.025203090500000247,-0.11493393800000007,-0.11375714000000015
146902.0,1.7196941439999998,-3.001619432,3.584526708,-1.6685033489800432,0.5476668659833007,-0.5063863385151308,4.981555869789398,1.8276404311265253,-0.05629017100000033,-0.11846433200000028,-0.25614969799999976
146912.0,1.5712214629999999,-3.072227312,3.3523052359999994,-1.5795055197623482,0.5545940777844661,-0.4943959265539297,4.81095291368598,1.745519868195847,-0.14847268099999988,-0.07060787999999985,-0.23222147200000043
146922.0,1.3904849035,-3.235017702,3.182257925,-1.4449423797628376,0.5202198181664378,-0.4813391184197602,4.746109280277907,1.609401903493632,-0.1807365594999999,-0.16279039000000006,-0.17004731099999937
146932.0,1.3079129104999998,-3.4492930045,3.1799043289999998,-1.247493281484719,0.43335303596542807,-0.4861352832042406,4.8703233931576,1.4072533015438384,-0.08257199300000018,-0.21427530249999993,-0.002353596000000291
146942.0,1.3006559894999998,-3.650427396,3.2098146114999997,-1.027662080879025,0.3286332808457683,-0.5002584875113787,5.031921702161954,1.189263528442386,-0.007256920999999972,-0.20113439150000012,0.02991028249999994
146952.0,1.28270982,-3.6097297984999996,3.3223949534999995,-0.8264832139893948,0.22098311791201006,-0.5231746605900642,5.070877826130851,1.0028059467772825,-0.01794616949999983,0.04069759750000035,0.11258034199999978
146962.0,1.2983023935,-3.5067599735,3.4396824875,-0.6575458143718557,0.10267422923632241,-0.544490366744671,5.080784411045576,0.8598710687219138,0.015592573499999984,0.10296982499999974,0.11728753400000036
146972.0,1.3653798794999998,-3.253061938,3.409772205,-0.5509603022818139,-0.015369369393062066,-0.5500858923265648,4.906446848565499,0.7787091633868971,0.06707748599999985,0.2536980354999998,-0.02991028249999994
146982.0,1.5137544939999998,-3.115376572,3.341517921,-0.5240473252160615,-0.0769218961231461,-0.5311682685641983,4.812771121696504,0.7501215279531557,0.1483746145,0.13768536599999992,-0.068254284
146992.0,1.686155401,-3.1344995395,3.297191863,-0.552826059252196,-0.055871480014842476,-0.48187144384161845,4.851770973663184,0.7354851204867217,0.1724009070000001,-0.019122967499999977,-0.04432605799999978
147002.0,1.6992963119999998,-3.164409822,3.2361945,-0.6039868956159057,0.019004890224966254,-0.4203189171115344,4.834671893663222,0.7360905841063414,0.01314091099999981,-0.02991028249999994,-0.06099736300000025
147012.0,1.650263062,-3.2745385014999995,3.25776913,-0.6399598768287609,0.11093487258601158,-0.3627631943685174,4.905000537817344,0.7439437647395185,-0.049033249999999695,-0.11012867949999938,0.021574629999999928
147022.0,1.4707033004999999,-3.509211636,3.513918828,-0.6197070761886186,0.20019973717926154,-0.3126687541777762,5.179301114447033,0.7224116173511985,-0.1795597615000002,-0.23467313450000038,0.2561496980000002
147032.0,1.2755509655,-3.8108641899999998,3.8550921815,-0.5357724471309594,0.22284887488239197,-0.2841570555171968,5.568792675982359,0.6461106471350305,-0.19515233499999995,-0.3016525539999999,0.3411733534999999
147042.0,1.129529947,-3.9233464654999994,4.174690905,-0.4190622800500985,0.15676547341413066,-0.27989321615457463,5.839223368035417,0.5277582975803367,-0.14602101849999993,-0.11248227549999967,0.3195987235000004
147052.0,1.0289137179999999,-4.0012112664999995,4.427310209,-0.2959554812606785,0.04298571414736834,-0.28175897312495657,6.055528938496681,0.410883849092939,-0.10061622900000011,-0.07786480100000004,0.25261930399999954
147062.0,1.082850293,-4.084960057499999,4.5625439125,-0.18537491051282173,-0.10596592020558372,-0.28575577711202355,6.219024873877848,0.35671977495724744,0.05393657500000004,-0.08374879099999966,0.13523370349999997
