timestamp,ax,ay,az,gx,gy,gz,acc_mag,gyro_mag,dax,day,daz
26532.0,0.4327674645,3.0162313405,10.564802111499999,0.2758719775579797,0.12852081012910643,-0.1093570949422087,10.99545282527732,0.32339128134844874,0.0,0.0,0.0
26542.0,1.1869969159999998,3.3681920089999995,10.871259923999999,0.25562092224708954,0.17595013255205236,-0.0805801062353262,11.442813090462213,0.3206145014755787,0.7542294514999999,0.3519606684999994,0.3064578124999997
26552.0,1.2934971349999997,3.486656341,11.2243973905,0.2457615573025735,0.3424894497773513,-0.05233544295030197,11.824424047637667,0.424778489150973,0.10650021899999995,0.11846433200000073,0.35313746650000155
26562.0,1.245640683,3.6530751914999997,11.809854395499999,0.2500253966651957,0.5268817399213002,-0.04913799976064835,12.424541838989803,0.5852620010393316,-0.04785645199999977,0.1664188504999995,0.5854570049999985
26572.0,1.179739995,3.8122371209999995,12.578303489499998,0.2553556322007864,0.695019778741426,-0.07018841586895196,13.196160691523152,0.7437643480704335,-0.06590068799999993,0.15916192949999974,0.7684490939999993
26582.0,1.0241084594999998,4.0792722005,13.443838418499999,0.22551050199168332,0.7741599883438568,-0.08564330639536175,14.086378216040066,0.8108720305889403,-0.1556315355000002,0.2670350795000007,0.8655349290000007
26592.0,0.8948568124999999,4.459868287,14.2087571185,0.16422501063715444,0.726728920591659,-0.06485818033336128,14.919114340495899,0.7478712199966289,-0.12925164699999991,0.38059608649999976,0.7649187000000008
26602.0,0.8362130455,4.712487591,14.667316072499998,0.08988096581920398,0.5796412978798368,-0.0009075712110370514,15.428446205739908,0.5865692166402168,-0.05864376699999996,0.25261930400000043,0.458558953999999
26612.0,0.8266025284999999,4.8322267875,14.774993089499999,0.023799309680194676,0.4144354122030615,0.09075537577445315,15.567084128401435,0.424923118059182,-0.00961051700000004,0.11973919649999942,0.10767701700000032
26622.0,0.8111080215,4.772308156,14.7379239525,-0.0052447144022429604,0.2881311702239879,0.18801384834183715,15.512550524914946,0.3440876130466093,-0.01549450699999988,-0.05991863149999954,-0.037069136999999586
26632.0,0.75118939,4.5699969665,14.5284539085,0.029661870637643632,0.18980630148363534,0.2687527795390949,15.24877472929798,0.33035483220714407,-0.0599186315000001,-0.2023111895000005,-0.2094700439999997
26642.0,0.613504024,4.364155383,14.3656635185,0.13598034735213022,0.1405112220903075,0.3164491373375959,15.02646091803369,0.3719867133662523,-0.13768536599999992,-0.20584158349999981,-0.16279038999999962
26652.0,0.4890576354999999,4.213329106,14.4709869395,0.2732086051194364,0.1623609989960245,0.31485041574276906,15.079813743196139,0.4473643036717276,-0.12444638850000012,-0.15082627700000018,0.10532342099999958
26662.0,0.274782333,4.28158339,15.0646815305,0.373664520876474,0.2292437612616992,0.2783451091080557,15.663718947665036,0.5192820774912527,-0.21427530249999993,0.068254284,0.5936945910000002
26672.0,0.1909354755,4.432409667,15.8368571515,0.332096014081725,0.2276450396668724,0.22611787657137736,16.44654237975071,0.4617784325399465,-0.08384685749999998,0.15082627700000018,0.7721756210000006
26682.0,0.331072504,4.653843824,16.3923058075,0.15010180633001632,0.16449379134196157,0.19201065232890419,17.043343598827256,0.2940354574900072,0.14013702849999998,0.22143415700000002,0.5554486560000012
26692.0,0.43639592499999996,5.047678887999999,16.529991173499997,-0.07665660607684295,0.05017996132408897,0.20746554285531396,17.289017084718996,0.2267955362125927,0.10532342099999997,0.39383506399999924,0.13768536599999592
26702.0,0.6697941949999999,5.3876754435,16.294141241,-0.3052825207833361,-0.06972764894642546,0.28340830926809124,17.1748277933086,0.42235012996993626,0.23339826999999996,0.33999655550000085,-0.23584993249999897
26712.0,0.9032905314999999,5.5288912035,15.802141610499998,-0.5339066901605773,-0.1616576313074708,0.4315605828236299,16.765806011126717,0.7052900681317128,0.2334963365,0.1412157599999997,-0.4919996305000005
26722.0,0.969093153,5.3888522415,15.19638484,-0.7103053723303923,-0.22267608728644453,0.6287426457261932,16.15267724636671,0.9743898995604331,0.06580262150000005,-0.14003896199999932,-0.6057567704999975
26732.0,0.9008388689999999,5.081217631,14.4709869395,-0.8214200138293593,-0.20935398910597183,0.8150006928405241,15.363585072653649,1.175919240936444,-0.06825428400000011,-0.30763461050000007,-0.7253979005000009
26742.0,0.7056865339999999,4.6023589115,13.873565821499998,-0.8768446895556912,-0.13421058349060797,0.9309114991239715,14.63405376640476,1.285871420292148,-0.19515233499999995,-0.4788587195000007,-0.5974211180000015
26752.0,0.4076624405,4.1379159675,13.462961386,-0.8603234028563129,-0.04414635809994457,0.9626206409742045,14.090417541734274,1.2917986518282725,-0.2980240934999999,-0.46444294399999997,-0.41060443549999803
26762.0,0.2329079375,3.6889675305,13.271437511499999,-0.7995702369236423,0.027797858996513686,0.9157236439731169,13.776566378095923,1.2159913967090077,-0.174754503,-0.44894843699999987,-0.1915238745000014
26772.0,-0.059232165999999996,3.2723810385,13.138557404,-0.7308234630168376,0.03206169835913583,0.8261917440043117,13.540076689916738,1.1035051809839778,-0.29214010349999997,-0.416586492,-0.13288010749999835
26782.0,-0.166909183,2.9240488305,13.079913636999999,-0.66793750473823,-0.050275954432948654,0.7121466946912463,13.40380770489851,0.9776610335846182,-0.10767701699999999,-0.348332208,-0.05864376700000129
26792.0,-0.12748644999999997,2.861776603,12.961449305,-0.5861339226972556,-0.19709654176921565,0.5858424527121726,13.27423015494672,0.8518282699662361,0.039422733000000015,-0.06227222749999983,-0.1184643319999985
26802.0,0.030596747999999997,2.9503306525,12.7722790265,-0.49127353252211187,-0.3950779654691924,0.5008414274815448,13.108642136042963,0.8051573871224075,0.15808319799999998,0.0885540494999999,-0.18917027850000068
26812.0,0.3046926155,3.234037037,12.518482924499999,-0.4305203665894413,-0.5978555539536496,0.4875175839718201,12.933067999420167,0.8834321955437513,0.2740958675,0.28370638449999985,-0.2537961020000008
26822.0,0.6913688249999999,3.256788465,12.1234710625,-0.4331837390279846,-0.7548025416099877,0.5554667424104633,12.572319299207042,1.032433208737134,0.38667620949999987,0.022751428000000296,-0.3950118619999987
26832.0,0.9523237815,3.0868392205,11.684133142499999,-0.5128562740522737,-0.8134246605259733,0.6809698782628716,12.122477644842014,1.178304379728738,0.2609549565000001,-0.16994924450000015,-0.4393379200000016
26842.0,0.8505307544999999,2.9240488305,11.047289291499998,-0.6434226100647176,-0.7886427304769057,0.802743245503768,11.459322179674908,1.2962818866583323,-0.10179302700000004,-0.16279039000000006,-0.6368438510000001
26852.0,0.770410424,2.5876807354999998,10.379260293499998,-0.7766540638449567,-0.701775948275896,0.8499072778804108,10.724675661786296,1.3483409796707615,-0.08012033049999989,-0.3363680950000001,-0.6680289980000005
26862.0,0.7810996724999999,2.0141878435,9.797529815499999,-0.8909661485335774,-0.5368353526454239,0.8200638930005596,10.032878941405315,1.324582070800419,0.01068924849999986,-0.573492892,-0.581730477999999
26872.0,0.704509736,1.589265699,9.483815082,-0.9972846252480639,-0.35031201548478985,0.7377262402084752,9.641828039314298,1.2890054838678227,-0.0765899364999999,-0.42492214449999977,-0.31371473349999945
26882.0,0.670970993,1.5210114149999998,9.329458411,-1.1094656629199995,-0.19336677315770376,0.6258122379120948,9.476416624472899,1.2883888090481388,-0.03353874300000004,-0.06825428400000022,-0.1543566710000004
26892.0,0.7931618519999999,1.4072542749999999,9.368881144,-1.2328377517557225,-0.08544957484839039,0.5309518477369509,9.507123866258006,1.3450280356227367,0.12219085899999993,-0.11375713999999992,0.03942273300000032
26902.0,0.7871797955,1.3845028469999998,9.352209838999999,-1.338890938423906,-0.0545397937955708,0.49204845870999736,9.48685032223461,1.4274856285860797,-0.005982056499999944,-0.022751428000000073,-0.016671305000000913
26912.0,0.692545623,1.4193164544999999,9.1091029855,-1.4113674809422225,-0.09397550824438268,0.4851195015795799,9.244989769512777,1.4953696844672908,-0.09463417249999995,0.034813607500000066,-0.24310685349999872
26922.0,0.7607999069999999,1.2276945135,8.732037293,-1.4566657563484835,-0.15819315274226206,0.47419548579134735,8.850679386539316,1.5400524530150679,0.06825428399999989,-0.19162194099999996,-0.37706569250000044
26932.0,0.9152546444999999,0.8949548789999999,8.2604354945,-1.5022310671302994,-0.15552803497446668,0.44728250872559483,8.359032830329127,1.5751027875431873,0.15445473750000005,-0.3327396345,-0.47160179850000006
26942.0,1.00616229,0.720200376,7.798346146499999,-1.5755087157752812,-0.07292509213607908,0.38599527204181394,7.895901073091023,1.6237420154031752,0.09090764550000008,-0.17475450299999995,-0.4620893480000001
26952.0,1.0803986305,0.6507692939999999,7.278789829499999,-1.670369105950425,0.07869165998466834,0.30206064298415464,7.3872554617281345,1.699283954936539,0.07423634049999994,-0.06943108200000003,-0.5195563170000002
26962.0,1.2061198835,0.4974913544999999,6.992631782499999,-1.7468441977850606,0.28520076240988945,0.21439449998573143,7.113305987148691,1.7829102971935087,0.12572125300000003,-0.15327793950000002,-0.2861580469999998
26972.0,1.291143539,0.37657535999999997,6.8442571679999995,-1.7852152613901562,0.4810511390931811,0.1269953923628634,6.975149949770252,1.8532489194937005,0.0850236554999999,-0.12091599449999996,-0.14837461449999978
26982.0,1.4132363314999998,0.2568361635,6.8263109984999994,-1.7964063125539438,0.6206774792527274,0.04785518276043252,6.9757955526086795,1.9012117955536179,0.12209279249999994,-0.11973919649999998,-0.017946169500000053
26992.0,1.4311825009999999,0.191033542,6.834646651,-1.7780210142134352,0.6963514649606977,-0.007569492965899407,6.985497262855608,1.9095343377277203,0.017946169500000053,-0.06580262149999999,0.008335652500000457
27002.0,1.4024490164999999,0.08688691899999999,7.004693962,-1.7241950600819302,0.7136721124574893,-0.03714584247019531,7.144238943502267,1.8664287564553026,-0.028733484500000017,-0.10414662300000001,0.17004731100000026
27012.0,1.30428445,-0.07825706699999999,7.232110175499999,-1.6429238034628142,0.6827623314046697,-0.06485818033336128,7.3491972136838095,1.7803285114624252,-0.09816456649999994,-0.16514398599999996,0.22741621349999885
27022.0,1.2624100545,-0.178873296,7.500223986499999,-1.5427331777520799,0.5857708942128408,-0.10349627931401174,7.607827196341577,1.653440255369327,-0.04187439549999983,-0.100616229,0.2681138110000001
27032.0,1.3090897085,-0.0914960445,7.6139811265,-1.43375132859905,0.4301555927757745,-0.13706943280537467,7.726240740862141,1.5031516010254606,0.04667965399999985,0.08737725149999999,0.11375714000000059
27042.0,1.46707484,0.0701175475,7.5900529005,-1.3175734869400473,0.27800651523316877,-0.14346431918468192,7.73085558583375,1.3542043888861717,0.15798513150000004,0.161613592,-0.023928225999999775
27052.0,1.6705628275,0.1754409685,7.500223986499999,-1.199796923686218,0.19566886244108428,-0.12268093845193341,7.6860210474421,1.2218222352189159,0.20348798749999997,0.10532342099999999,-0.08982891400000081
27062.0,1.826194363,0.21741343049999998,7.469136905999999,-1.1075999059496175,0.2105914275456358,-0.07338585905860558,7.692220782828974,1.1298282105369293,0.15563153549999997,0.04197246199999999,-0.031087080499999864
27072.0,1.8346280819999998,0.19221033999999998,7.459526389,-1.0585718619318447,0.2921279742110549,-0.008101818387757679,7.684226633972561,1.0981706514252216,0.008433718999999895,-0.025203090499999997,-0.009610516999999597
27082.0,1.791478822,0.059330232499999996,7.564849809999999,-1.0377867358698443,0.4165664592197466,0.04439070419522378,7.774308271095252,1.1191512224508404,-0.043149259999999856,-0.13288010749999998,0.10532342099999958
27092.0,1.742445572,-0.0914960445,7.7312686605,-1.0473808107680571,0.5615230349148836,0.07237007743394487,7.925717834894894,1.1906099737583964,-0.04903324999999992,-0.150826277,0.16641885050000038
27102.0,1.5077724375,-0.284196717,7.885723397999999,-1.090546293828381,0.6822300059828115,0.0795643246106655,8.033603114854687,1.288820965765562,-0.23467313450000016,-0.1927006725,0.15445473749999916
27112.0,1.2875150784999998,-0.6685193304999999,8.0629295635,-1.1611588247055675,0.7778897569553687,0.05584879073456655,8.192401742992057,1.3987570831256622,-0.2202573590000001,-0.3843226134999999,0.17720616550000035
27122.0,1.050488348,-1.162872557,8.0772472725,-1.2307067047390376,0.857829327355213,-0.013964379345206631,8.227862532530315,1.5002350322035594,-0.23702673049999978,-0.49435322650000013,0.014317709000000178
27132.0,0.8266025284999999,-1.52199208,8.0521422485,-1.293058592266535,0.9047263243563006,-0.11415325972668912,8.236305386627182,1.5822645833500175,-0.22388581950000008,-0.35911952299999994,-0.025105024000000142
27142.0,0.6757762515,-1.708710696,7.896510713,-1.3450187894276582,0.9241780188697775,-0.21247812846704167,8.107480942021384,1.645699702118332,-0.15082627699999995,-0.18671861600000006,-0.15563153549999953
27152.0,0.599186315,-1.7829470365,7.680960546,-1.3674008917552334,0.9135192931278481,-0.28708746333129526,7.907912447938205,1.6693477496590723,-0.07658993650000001,-0.07423634049999994,-0.21555016699999996
27162.0,0.5357372895,-1.853652983,7.418828791499999,-1.3396902992213195,0.8762146256957213,-0.3358502173027648,7.665641816725781,1.6356397942619016,-0.06344902549999998,-0.07070594649999995,-0.26213175450000037
27172.0,0.4148212949999999,-1.949365887,7.145909722,-1.2605500896188886,0.8157267498093537,-0.3723555239374782,7.418633959372769,1.5469470886230963,-0.12091599450000007,-0.09571290399999999,-0.27291906949999944
27182.0,0.3992287215,-1.9804529674999998,6.9579162414999995,-1.1510341697147484,0.7797555139257506,-0.4267138034908416,7.245286464473269,1.4542981095491228,-0.015592573499999929,-0.031087080499999864,-0.1879934805000003
27192.0,0.5129858615,-2.028407486,6.930457621499999,-1.0377867358698443,0.7893478434947115,-0.4965269735706148,7.239394606371942,1.3952097916300372,0.11375714000000003,-0.0479545185000001,-0.027458620000000877
27202.0,0.6327250579999999,-1.9337733135,7.053727212,-0.9423940202728421,0.8274518717242517,-0.5559484532840138,7.341313765827964,1.3718096705355538,0.11973919649999987,0.09463417249999995,0.12326959050000141
27212.0,0.7656051654999999,-1.7925575535,7.2799666274999995,-0.8755112580071676,0.8540978134144491,-0.5916543991213137,7.5364001983416395,1.3586971574917786,0.1328801075,0.1412157599999999,0.22623941549999937
27222.0,0.8122848195,-1.6764468174999998,7.495418728,-0.8331451357442572,0.8266525109268383,-0.5881899205561051,7.72344369228838,1.3128033263515753,0.04667965400000007,0.11611073600000021,0.2154521005000003
27232.0,0.8338594494999999,-1.567494936,7.665466039,-0.7907772681520948,0.7584380624418919,-0.5546167670647421,7.86840082551521,1.2280703321455362,0.021574629999999928,0.1089518814999999,0.17004731100000026
27242.0,0.7691355594999999,-1.5124796295,7.713322491,-0.7414804434295149,0.657448075933744,-0.512781224894438,7.897753350713497,1.1157848381931224,-0.06472389,0.05501530649999986,0.04785645199999955
27252.0,0.7056865339999999,-1.5208152819999998,7.70018158,-0.6951175171795376,0.5695166428890176,-0.47760934980824826,7.880588110744335,1.0176680501232607,-0.06344902549999998,-0.00833565249999979,-0.01314091099999981
27262.0,0.6997044775,-1.6153513879999999,7.72175621,-0.6439566808158278,0.4922421902569687,-0.4629538200792519,7.919877867064658,0.9334392428874458,-0.005982056499999944,-0.09453610600000006,0.021574629999999928
27272.0,0.647042767,-1.6764468174999998,7.7204813455,-0.6055856172107325,0.41550006304677806,-0.4576235845436612,7.926851233651757,0.8653286007609883,-0.052661710500000014,-0.06109542949999991,-0.001274864500000028
27282.0,0.6602817445,-1.785398699,7.6774301519999995,-0.5778732793475665,0.3368939241954575,-0.45336149051029107,7.909902289873724,0.8080666335281008,0.013238977500000026,-0.10895188150000013,-0.043051193500000196
27292.0,0.6003631129999999,-1.774611384,7.6031938115,-0.5509603022818139,0.2620175539556487,-0.4525621297128777,7.83059624593845,0.7596202567873138,-0.0599186315000001,0.010787314999999964,-0.07423634049999972
27302.0,0.5980095169999999,-1.8164857795,7.4774725585,-0.543233729683235,0.20472886658818684,-0.4448338117850468,7.718149508312782,0.7313644194156946,-0.002353595999999958,-0.04187439550000005,-0.12572125300000003
27312.0,0.703332938,-1.937401774,7.3266462815,-0.5464311728728887,0.1820797288850564,-0.4397706116250112,7.611041229016687,0.7246642292863177,0.10532342100000003,-0.12091599450000001,-0.1508262769999993
27322.0,0.6028147755,-1.992515147,7.181802060999999,-0.5221833135749315,0.18074804266578476,-0.4456331725824602,7.477418211386159,0.7098832244880255,-0.10051816250000001,-0.055113372999999966,-0.14484422050000134
27332.0,0.530932031,-2.017620171,7.009401153999999,-0.49180585794397014,0.17754885414687915,-0.4504293373669406,7.313301888590704,0.6901327303335898,-0.07188274449999998,-0.02510502399999992,-0.1724009070000001
27342.0,0.4770935225,-2.0606713645,6.963898297999999,-0.4654269516293279,0.17301972473795385,-0.44403445098763333,7.278039860193748,0.666126614177256,-0.05383850849999999,-0.043051193500000196,-0.0455028559999997
27352.0,0.48072198299999996,-2.1026438264999996,6.978314073499999,-0.4211933270667836,0.14424273603107138,-0.42218467408191634,7.30404490638346,0.6135549565385074,0.003628460499999986,-0.04197246199999949,0.014415775499999839
27362.0,0.5058270069999999,-2.1061742205,6.967526758499999,-0.3793595302257315,0.1173297589653188,-0.39420530084319527,7.296455299563129,0.5595335063468689,0.025105023999999976,-0.0035303940000002143,-0.010787314999999964
27372.0,0.5453478064999999,-1.9553479435,6.960367903999999,-0.3551099255985223,0.08242317392543222,-0.37262255931303334,7.250345589641737,0.5212909078120634,0.03952079949999998,0.15082627699999973,-0.007158854500000089
27382.0,0.5380908855,-1.8380604095,6.951934184999999,-0.3242001445457027,0.008079129107481752,-0.35610127261365504,7.210922048018623,0.4816421102931663,-0.007256920999999972,0.11728753400000014,-0.008433719000000117
27392.0,0.6051683715,-1.853652983,6.813072021,-0.2906269910543398,-0.07665486074759097,-0.33451853108349316,7.086621797625564,0.4497139793733233,0.06707748600000007,-0.015592573499999984,-0.13886216399999896
27402.0,0.6973508815,-1.9206324025,6.6407691805,-0.2754391359034851,-0.14140657599658057,-0.31693259354039827,6.948017154997561,0.44306749617928254,0.09218251,-0.06697941949999997,-0.17230284049999955
27412.0,0.807479561,-1.9445606284999999,6.414431698499999,-0.271175296540863,-0.15579507035002182,-0.31133706795850447,6.751168291049087,0.4412923240714613,0.11012867949999994,-0.023928225999999997,-0.2263374820000017
27422.0,0.9332008139999999,-1.9337733135,6.096009773,-0.271175296540863,-0.11742400674492649,-0.3094713109881226,6.463101278779912,0.42789827195113184,0.12572125299999992,0.010787314999999964,-0.31842192549999915
