timestamp,ax,ay,az,gx,gy,gz,acc_mag,gyro_mag,dax,day,daz
28752.0,-0.12150439349999999,3.0916444789999997,11.577534856999998,-0.14513808993734445,0.16049698735489457,0.009218829109034049,11.9838367089685,0.21658562951128463,0.0,0.0,0.0
28762.0,0.45551889249999994,2.7779297455000003,11.332172473999998,-0.18803828295136507,0.1607622774011977,0.025206045057302107,11.676580154858758,0.24867297882550088,0.577023286,-0.31371473349999945,-0.2453623829999998
28772.0,0.7021561399999999,2.6702527284999995,11.526049944499999,-0.20162741650739294,0.24389929099069557,0.06331007328684231,11.852134837324027,0.3227206913304368,0.2466372475,-0.10767701700000076,0.19387747050000037
28782.0,0.4566956905,2.8928636834999994,11.666186972999999,-0.18857235370247533,0.27853884065502704,0.09022305035259488,12.028181480757151,0.3482579749973644,-0.24546044949999996,0.22261095499999994,0.14013702849999987
28792.0,0.2795875915,2.8353967145,11.893603186499998,-0.15846193344706916,0.2673477894912394,0.10221346231379591,12.230103863330068,0.327158397073664,-0.17710809899999996,-0.05746696899999959,0.22741621349999974
28802.0,0.104735022,2.6594654134999995,12.198884201,-0.1120972618678398,0.2057952627611554,0.090488340398898,12.485852051816227,0.25120833195048864,-0.1748525695,-0.17593130100000032,0.305281014500002
28812.0,-0.0065704555,2.6737831224999997,12.4478750445,-0.04175002103695636,0.1258556923613111,0.04412541414892064,12.731800834152928,0.1397489596746432,-0.1113054775,0.014317709000000178,0.24899084349999967
28822.0,0.0173577705,2.782735004,12.677742920499998,0.03818780403363593,0.05311211446743944,-0.02568775593085254,12.979563973915742,0.0702784880662413,0.023928226,0.10895188150000035,0.22986787599999836
28832.0,0.19338713800000001,2.9180667739999997,12.976943812,0.1040041701263421,-0.005777039824101231,-0.08191179245459787,13.302390122924214,0.13251333267231444,0.1760293675,0.13533176999999963,0.29920089150000173
28842.0,0.32626724549999997,3.1335188744999996,13.391176708,0.1343816257573034,-0.06119997022118116,-0.09470156521321232,13.75678030925898,0.17542019310809606,0.13288010749999996,0.21545210049999985,0.4142328959999997
28852.0,0.3645131805,3.4004558874999997,13.796975885,0.12398819006167718,-0.1251523246727574,-0.07684859229456233,14.214517708063935,0.1922027101354758,0.03824593500000001,0.26693701300000017,0.40579917700000045
28862.0,0.5333836934999999,3.5369644554999997,14.004092333,0.04191931797439981,-0.217614632455661,-0.05153608215288856,14.453692185568068,0.22752873498070644,0.16887051299999994,0.136508568,0.20711644799999895
28872.0,0.728437962,3.6434646745,14.038807873999998,-0.06546555491305531,-0.25705034690447287,-0.02142566189748239,14.522175567796186,0.266119669907223,0.19505426850000007,0.1065002190000004,0.03471554099999885
28882.0,0.8433718999999998,3.7368239825,13.9502538245,-0.14886785854885634,-0.23679929159358268,0.014280283939817605,14.46667589344123,0.28007047384104367,0.11493393799999985,0.0933593079999997,-0.08855404949999723
28892.0,0.9787036699999999,3.7763447819999993,13.724014408999999,-0.2098880598570821,-0.18403973363504608,0.05345070834232634,14.267698212558663,0.28421928057280915,0.13533177000000007,0.03952079949999954,-0.22623941550000204
28902.0,1.060098865,3.809883525,13.462961386,-0.25545337063889806,-0.10703231637855226,0.11420387427499697,14.031762232826201,0.29959116512265854,0.08139519500000014,0.033538743000000704,-0.2610530229999988
28912.0,1.1151141715,3.7607522084999996,13.331356143,-0.2661120963808274,-0.012437216249711593,0.19440873472114437,13.896466939503782,0.329795525021364,0.05501530649999986,-0.049131316500000466,-0.1316052429999992
28922.0,1.013419211,3.5848209074999997,13.2978174,-0.26877721414862277,0.07336316977832966,0.27035150113392165,13.80977577804273,0.3882180826427119,-0.10169496049999993,-0.17593130099999987,-0.03353874300000115
28932.0,0.8038511005,3.4770458239999997,13.393530304,-0.27943593989055215,0.11706272358976368,0.32018065127835976,13.860832523991379,0.44079901906629093,-0.20956811050000002,-0.10777508349999998,0.09571290400000088
28942.0,0.6051683715,3.2627705215,13.555143895999999,-0.3210027013560491,0.13065185714579153,0.34389443982520673,13.955422826811782,0.4882376755190221,-0.19868272899999995,-0.21427530249999993,0.16161359199999836
28952.0,0.32381558299999996,3.117926301,13.792170626499999,-0.39854418936365316,0.08055741695505027,0.33989763583813964,14.143913586442423,0.5299597825782234,-0.28135278850000006,-0.1448442205,0.23702673050000023
28962.0,0.21496176799999997,3.0544772755,13.867583765,-0.49500330113362373,-0.07532317452831927,0.302860003781568,14.201616790617155,0.5851717958384358,-0.10885381499999999,-0.06344902549999976,0.07541313850000009
28972.0,0.296356963,2.921597168,13.780206513499998,-0.5994560208777284,-0.257317382280028,0.27354894432357524,14.089629129834893,0.7073816375412554,0.081395195,-0.13288010750000012,-0.08737725150000131
28982.0,0.413644497,2.9767105409999997,13.435502765999999,-0.6796626266531278,-0.43797815848321303,0.2628902185816459,13.767521272545487,0.8502219830157776,0.11728753400000003,0.055113372999999743,-0.34470374749999877
28992.0,0.6410607104999999,3.068893051,12.915946448999998,-0.7068408937651836,-0.5895949106039605,0.26475597555202784,13.291002071569267,0.9577796898553246,0.2274162134999999,0.09218251000000022,-0.519556317000001
29002.0,0.9380060724999999,2.932384483,12.344905219499998,-0.6871221638761515,-0.6847223361546593,0.2975297682459773,12.723027117263578,1.0146455088903927,0.296945362,-0.136508568,-0.5710412295000005
29012.0,1.1725811405,2.9551359109999997,11.679327884,-0.654348371182202,-0.7132340348152387,0.35881700492975827,12.104316362583969,1.0322907644236619,0.23457506800000005,0.02275142799999985,-0.6655773354999983
29022.0,1.3928384994999998,2.943171798,11.0388555725,-0.6311651627279614,-0.6559453474477769,0.44568378713076795,11.509065629700192,1.013542204148906,0.22025735899999987,-0.011964112999999887,-0.6404723115
29032.0,1.584362374,2.7552763839999996,10.567253774,-0.6122475389655948,-0.5061926069681594,0.5450733067148371,11.034881259374396,0.9634225002623179,0.19152387450000008,-0.1878954140000002,-0.47160179850000006
29042.0,1.6574219165,2.6235730745,10.338562696,-0.5813377579127753,-0.27943419456130014,0.6007650178167242,10.794260590964937,0.8814508860381864,0.07305954250000002,-0.13170330949999975,-0.22869107799999888
29052.0,1.676544884,2.4320492,10.4798765225,-0.5677468790274954,-0.01883384795827081,0.5994333315974525,10.88822657672653,0.8258399067037135,0.019122967499999977,-0.19152387450000008,0.14131382649999935
29062.0,1.596326487,2.1902172109999998,10.811439359,-0.632498594276485,0.1847448466528518,0.5810462879276922,11.145964771960868,0.8785214390332577,-0.08021839699999989,-0.24183198900000002,0.33156283649999985
29072.0,1.4730568965,2.1830583564999997,11.180169399,-0.8022353546914376,0.2865324486291611,0.5655913974012824,11.486158113074481,1.0225341252245106,-0.12326959050000008,-0.007158854500000089,0.36873004000000087
29082.0,1.1845452534999998,2.2571966305,11.365711216999998,-1.019134402153781,0.29106332336733837,0.5512029030478413,11.648067460079783,1.1946453148074336,-0.2885116430000001,0.0741382740000005,0.18554181799999725
29092.0,1.0445062914999999,2.2010045259999997,11.295103337,-1.1981982020913913,0.20446183121263173,0.5115001532234742,11.554859311560834,1.3187554658334133,-0.140038962,-0.05619210450000045,-0.07060787999999718
29102.0,1.191704108,1.950738818,10.998157974999998,-1.3210362201760042,0.09254782891625132,0.46007228148420926,11.233210558879957,1.4019159389364617,0.14719781650000008,-0.2502657079999997,-0.29694536200000243
29112.0,1.258781594,1.8969003094999999,10.722885309499999,-1.3945809041965411,-0.013503612422680129,0.421968253254669,10.961889948647782,1.4570845729239263,0.06707748600000007,-0.05383850850000016,-0.2752726654999993
29122.0,1.3353715305,2.0345856755,10.295511502499998,-1.4569327917240387,-0.12408592849978886,0.40731272352567266,10.579239721904854,1.5178781677059452,0.07658993650000001,0.13768536599999992,-0.4273738070000004
29132.0,1.5054188415,2.0334088775,9.8106707265,-1.541401491532808,-0.18856886304397136,0.43609145756180717,10.131648318770399,1.6129638971680806,0.17004731100000003,-0.0011767979999999234,-0.48484077599999864
29142.0,1.5891676325,2.052531845,9.2360010365,-1.626402516763436,-0.19816293794218418,0.49178142333444225,9.59385511070257,1.7106439328057625,0.08374879099999988,0.019122967499999977,-0.5746696900000003
29152.0,1.7112604249999999,1.8178587105,8.7105607295,-1.6863563218986932,-0.1296814540816827,0.5450733067148371,9.061285270634595,1.7769974208291568,0.12209279249999994,-0.23467313449999994,-0.5254403070000002
29162.0,1.6789965464999999,1.4120595335,8.4328364015,-1.698348479189146,0.004616395871525002,0.586641813509586,8.713533801149257,1.7968187124005426,-0.03226387850000001,-0.405799177,-0.2777243279999997
29172.0,1.492179864,1.091284012,8.450782571,-1.652516133031775,0.13225057874061832,0.580513962505834,8.650620070474211,1.7565011375378454,-0.18681668249999994,-0.3207755214999999,0.017946169500000053
29182.0,1.329389474,0.771587222,8.821866207,-1.5600538252488716,0.19620293319219456,0.507236313860852,8.954772280127743,1.6521356502315427,-0.16279038999999984,-0.31969679000000006,0.37108363599999983
29192.0,1.2516227395,0.571727695,9.1522522455,-1.4801160001782792,0.17142100314312705,0.40278359411674736,9.255114975219016,1.5434905759323407,-0.07776673450000016,-0.19985952699999998,0.33038603850000037
29202.0,1.3090897085,0.5573119194999999,9.364173952,-1.4654604704492826,0.10587167242597603,0.30499105079825306,9.47164538207764,1.5006007938618215,0.057466969000000034,-0.014415775500000061,0.21192170650000008
29212.0,1.4192183879999998,0.6136020904999999,9.3605454915,-1.521150436221918,0.018737854849411123,0.25089980662044487,9.487386376486638,1.5418172621243627,0.11012867949999983,0.056290171,-0.003628460499999875
29222.0,1.4958083245,0.608796832,9.060069735499999,-1.6077501830473726,-0.07852061771797289,0.24983341044747628,9.20287670994346,1.6289391859340512,0.07658993650000023,-0.004805258499999909,-0.30047575600000087
29232.0,1.5640626084999998,0.5333836934999999,8.554929194,-1.6695697451530118,-0.14806675242219092,0.27807807373250054,8.71307084340263,1.6990333464043386,0.06825428399999978,-0.07541313850000009,-0.5051405414999994
29242.0,1.6813501425,0.44482964399999997,8.0652831595,-1.6767639923297324,-0.1406072151991672,0.29033552106925675,8.250672951752497,1.7075135694143588,0.11728753400000014,-0.08855404949999995,-0.48964603449999977
29252.0,1.7866735634999997,0.2903749065,7.7204813455,-1.6557135762214286,-0.03935019331546415,0.2871380778796031,7.929839356194308,1.6808879082099168,0.1053234209999998,-0.1544547375,-0.3448018140000002
29262.0,1.787948428,0.15033594449999998,7.5900529005,-1.6410580464924323,0.1064039978478343,0.277013422888784,7.799247624597186,1.6676719579030284,0.00127486450000025,-0.140038962,-0.13042844499999973
29272.0,1.799912541,-0.099831697,7.552885696999999,-1.6514497368588066,0.22551224732093533,0.26555533634944123,7.7650327671505766,1.6877978681484418,0.01196411300000011,-0.2501676415,-0.03716720350000102
29282.0,1.7376403134999998,-0.3703971705,7.518170155999999,-1.6674386981363265,0.31264606489750024,0.2615585323623742,7.72524889033252,1.7165407771998948,-0.06227222750000028,-0.2705654735,-0.03471554099999974
29292.0,1.592796093,-0.5775136184999999,7.495418728,-1.662108462600736,0.3480849753592451,0.2530308536371299,7.684518415716249,1.7169135984120352,-0.1448442204999998,-0.20711644799999995,-0.022751427999999407
29302.0,1.5783803175,-0.7965941794999999,7.409316340999999,-1.640258685695019,0.33662863414915434,0.24583660646040928,7.617336500017201,1.6923956483053975,-0.014415775500000061,-0.21908056099999995,-0.08610238700000039
29312.0,1.5281702695,-0.9378099395,7.238092231999999,-1.6104153008151678,0.31211373947564197,0.2530308536371299,7.456860667475786,1.6597822267880238,-0.05021004800000006,-0.14121576000000013,-0.17122410900000062
29322.0,1.4107846689999999,-1.044408225,7.05490401,-1.5835023237494152,0.28919756639695643,0.26475597555202784,7.2699912319786995,1.6313217243450864,-0.11738560050000002,-0.10659828549999995,-0.18318822199999918
29332.0,1.337823193,-1.195234502,6.884954765499999,-1.5456653308954302,0.2830697153932043,0.263157253957201,7.114840724392995,1.593255007591429,-0.07296147599999991,-0.15082627699999995,-0.1699492445000006
29342.0,1.2875150784999998,-1.3221325529999999,6.726871567499999,-1.505428510319953,0.2977234997929487,0.23757596311072013,6.9754233312901555,1.5528672255737452,-0.05030811450000017,-0.12689805099999996,-0.15808319799999992
29352.0,1.2157304004999998,-1.4681535715,6.671856260999999,-1.4614619211329638,0.33076607319170537,0.19734088786449486,6.938814112199072,1.5113638106423817,-0.07178467799999999,-0.14602101850000015,-0.05501530649999964
29362.0,1.2300481095,-1.5711233964999998,6.667051002499999,-1.4137655633344626,0.3670043444508636,0.14111685134074953,6.959239624316041,1.4674260535538224,0.014317709000000178,-0.10296982499999974,-0.004805258500000242
29372.0,1.2336765699999999,-1.6429080745,6.732951690499999,-1.3682002525526469,0.39498371768958473,0.08995601497703973,7.039441972715668,1.426911403330831,0.003628460499999875,-0.07178467800000021,0.06590068800000015
29382.0,1.2815330219999999,-1.6525185914999998,6.7353052865,-1.3380898322972405,0.4045760472585455,0.054250069139739746,7.052480548295362,1.3989672073763104,0.047856451999999994,-0.009610516999999819,0.002353596000000735
29392.0,1.3509641039999998,-1.6321207594999998,6.6646974065,-1.3181058123619056,0.4032426157100219,0.04812221813598765,6.993362117329204,1.3792473627254929,0.06943108199999992,0.020397832000000005,-0.07060787999999985
29402.0,1.3426284515,-1.6955697849999998,6.558099121,-1.2866637058872277,0.3939173215166162,0.07237007743394487,6.905524754531201,1.3475577079836227,-0.00833565249999979,-0.06344902549999998,-0.1065982855000005
29412.0,1.249171077,-1.8835632654999999,6.4707218695,-1.2195156535752498,0.3672713798264187,0.10860834869310315,6.85408494747329,1.2782419446882947,-0.09345737450000002,-0.1879934805000001,-0.08737725149999953
29422.0,1.177386399,-2.1900210779999996,6.391778337,-1.1217231102567555,0.3163758335090121,0.1448483652815134,6.858371626266468,1.1744519798771418,-0.07178467799999999,-0.3064578124999997,-0.0789435325000003
29432.0,1.0109675485,-2.3983143239999998,6.278021196999999,-1.0202007983267496,0.26761482486679455,0.171759597018014,6.796139869867672,1.0686106505939443,-0.16641885049999994,-0.2082932460000002,-0.11375714000000059
29442.0,0.8828926994999999,-2.5910149965,6.115230807,-0.9351997730961216,0.23963545162807345,0.18561576594959694,6.699918361726518,0.9830956097171238,-0.1280748490000001,-0.1927006725,-0.16279038999999962
29452.0,0.771587222,-2.65564082,6.069727951,-0.8600563674807578,0.2508265027918611,0.18401704435477015,6.670035412586248,0.9145890674833463,-0.11130547749999997,-0.06462582350000012,-0.0455028559999997
29462.0,0.6458659689999999,-2.8783498415,6.0972846375,-0.7945070367636068,0.28839820559954304,0.171759597018014,6.773398010649373,0.8625058351267626,-0.12572125300000003,-0.22270902150000005,0.02755668649999965
29472.0,0.5776116849999999,-3.0889966834999996,6.252916172999999,-0.7500081221547592,0.32916735159687854,0.1488451692685804,6.998178079749578,0.8324771546835407,-0.068254284,-0.2106468419999996,0.15563153549999953
29482.0,0.401680384,-3.2625743884999996,6.485137645,-0.7084396153600103,0.3563456187089343,0.10274578773565418,7.270677344373266,0.7996409103353284,-0.17593130099999993,-0.17357770500000003,0.23222147200000087
29492.0,0.32979763949999996,-3.3763315284999997,6.6695026649999996,-0.6703355871304701,0.3403584027606662,0.043326053351507236,7.4826898152873484,0.753041027170739,-0.07188274450000004,-0.11375714000000015,0.18436501999999955
29502.0,0.34421341499999997,-3.3044487839999994,6.720889510999999,-0.6466200532543712,0.3110473433026734,-0.016095426361891707,7.497214179961437,0.7177234883965468,0.014415775500000005,0.07188274450000032,0.051386845999999764
29512.0,0.40403397999999996,-3.2625743884999996,6.667051002499999,-0.640225166875064,0.2931943703840234,-0.06379178416039274,7.433518962606272,0.7070506310381552,0.05982056499999999,0.04187439549999983,-0.05383850850000016
29522.0,0.5261267725,-3.2805205579999996,6.555745525,-0.638359409904682,0.28839820559954304,-0.09869836920027934,7.349586648292503,0.7074020280503052,0.12209279249999999,-0.017946169500000053,-0.1113054774999993
29532.0,0.6063451695,-3.2853258164999994,6.4109013045,-0.6234385901293824,0.29745820974664555,-0.12028285605969322,7.22915456475909,0.7011597732828577,0.080218397,-0.004805258499999798,-0.14484422049999957
29542.0,0.6602817445,-3.3165109635,6.273215938499999,-0.5818700833346336,0.31024798250526003,-0.13040751105051232,7.126601936700694,0.6721850366281796,0.05393657500000004,-0.031185147000000413,-0.13768536600000125
29552.0,0.6626353405000001,-3.324846616,6.267233881999999,-0.527244768405715,0.3174422296819806,-0.12774413861196898,7.125441119404115,0.6285500616071701,0.002353596000000069,-0.008335652500000013,-0.005982056499999722
29562.0,0.704509736,-3.3871188434999997,6.2971441645,-0.46702567322415467,0.3043854215478111,-0.12534605621972875,7.184910066006948,0.5713799944967911,0.04187439549999994,-0.06227222749999983,0.029910282500000385
29572.0,0.668617397,-3.4685140385,6.3785393594999995,-0.3972125031443815,0.25402394598151473,-0.1162860520726262,7.29132383175602,0.4856216466477605,-0.035892338999999995,-0.08139519500000025,0.08139519499999981
29582.0,0.6039915735,-3.553537694,6.2516413085,-0.336724627258014,0.18501013669915492,-0.10376156936031489,7.216332518231226,0.39796820043767805,-0.06462582350000001,-0.08502365550000013,-0.1268980509999995
29592.0,0.56682437,-3.7115228254999995,6.0385428039999995,-0.2855637908943042,0.13917953587103582,-0.11282157350741745,7.110604105585796,0.33711471241091284,-0.03716720350000002,-0.15798513149999938,-0.21309850450000045
29602.0,0.5465246045,-3.8384208764999994,5.92125527,-0.2261423111809053,0.1210595275768307,-0.13493838578868958,7.077671081717324,0.2898346461046782,-0.02029976550000001,-0.12689805099999996,-0.11728753399999992
29612.0,0.528578435,-3.8970646435,5.878204076499999,-0.15046832547293515,0.11013551178859818,-0.16797921385819423,7.072467119933895,0.2509732340628828,-0.017946169499999942,-0.0586437670000004,-0.043051193500000196
29622.0,0.5106322655,-3.9102055544999996,5.9140964154999995,-0.07479259443571301,0.08242317392543222,-0.20901539523108492,7.108233901669405,0.23680149329337796,-0.017946169500000053,-0.01314091099999981,0.035892339000000106
29632.0,0.563293976,-3.8372440785,6.0158894425,-0.013240067705628985,0.03445978075137604,-0.24205622330058957,7.1576999102899075,0.244855041036176,0.052661710500000014,0.07296147599999969,0.10179302700000026
29642.0,0.623114541,-3.7342742534999998,5.9619528675,0.01100953692158023,-0.02149722039681416,-0.2676357688178185,7.0624328616879675,0.268723361728603,0.05982056499999999,0.10296982500000018,-0.05393657499999982
29652.0,0.6817583079999999,-3.6002173479999997,5.7979856795,0.007278022980816354,-0.052941072200744003,-0.28016025153012974,6.858789782684278,0.2852113133830761,0.05864376699999996,0.13405690550000005,-0.16396718799999999
29662.0,0.7656051654999999,-3.5499092334999998,5.559782150999999,0.00035081117965086024,-0.04974362901109038,-0.28016025153012974,6.640721677807843,0.284542296035409,0.08384685749999998,0.050308114499999945,-0.2382035285000006
29672.0,0.829054191,-3.4793013535,5.3813991875,0.001949532774477666,-0.012437216249711593,-0.2828253692979251,6.461603978526327,0.28310541242545784,0.06344902550000009,0.07060787999999985,-0.17838296349999982
29682.0,0.8302309889999999,-3.3631906174999995,5.225767652,0.021401227287954468,0.027265533574655415,-0.2902849065209489,6.269687566173097,0.29234696647035247,0.0011767979999999234,0.11611073600000044,-0.15563153549999953
29692.0,0.9212367009999999,-3.2110894759999997,5.1191693664999995,0.05950525551749467,0.06270444403640027,-0.2937493850861576,6.11274632919274,0.3062048725520417,0.09100571199999996,0.15210114149999976,-0.1065982855000005
29702.0,1.0576472024999999,-3.0949787399999997,5.0342437774999995,0.10906737028637765,0.0885510249291843,-0.29215066349133084,6.003425806762796,0.3241743133803474,0.1364105015,0.11611073599999999,-0.08492558900000002
