timestamp,ax,ay,az,gx,gy,gz,acc_mag,gyro_mag,dax,day,daz
183932.0,-0.027556686499999997,2.0544931749999997,9.8477398635,-0.09008342401243534,0.07995353303386024,-0.05405633759276837,10.059805266318996,0.13202150718857947,0.0,0.0,0.0
183942.0,-0.241831989,2.8805073044999996,9.617970053999999,-0.09567894959432915,0.028260371248292185,-0.10228676614237968,10.04296534903025,0.1428834927709683,-0.2142753025,0.8260141294999999,-0.22976980950000048
183952.0,-0.250265708,2.991812782,9.485089946499999,-0.09594598496988428,-0.02316750049097273,-0.1086816525216869,9.948894809994458,0.14681303316015637,-0.008433718999999978,0.1113054775000002,-0.13288010750000012
183962.0,-0.024026292499999997,2.9152228454999998,9.3281835465,-0.0759602197052972,-0.04821472058634336,-0.07404035752810345,9.773132035271484,0.11651861997889251,0.22623941549999999,-0.07658993650000001,-0.15690639999999867
183972.0,0.05619210449999999,2.9009051365,9.190596247,-0.03678979530278847,-0.04475024202113461,-0.053256976795354974,9.637710700106675,0.07869166904286741,0.080218397,-0.014317708999999734,-0.13758729949999982
183982.0,0.07776673449999999,2.8314740544999997,9.149898649499999,0.017034413499464655,-0.014374531719425298,-0.03673569009597665,9.578305606025701,0.04296870177525899,0.021574629999999997,-0.06943108200000037,-0.04069759750000124
183992.0,-0.0838468575,2.8206867394999997,9.2456115535,0.07059333225541464,0.02532821810494171,-0.02074847414770859,9.666676625196295,0.07781668439835376,-0.16161359199999997,-0.010787314999999964,0.09571290400000088
184002.0,-0.216726965,2.7703786249999998,9.4897971385,0.10709863889012805,0.041317179382461766,-0.024745278134775603,9.888286910941542,0.11742894257468206,-0.1328801075,-0.050308114499999945,0.24418558500000032
184012.0,-0.27174227149999997,2.6255344045,9.76153941,0.12361992558950638,0.033323571408327736,-0.04153360020970906,10.112117801149088,0.1346008408611958,-0.05501530649999997,-0.14484422049999957,0.2717422714999991
184022.0,-0.28370638449999996,2.6123934935,9.987876892,0.11535928223981722,0.015203563114122605,-0.07004355354103643,10.327767129793097,0.1358124137290364,-0.011964112999999998,-0.013140911000000255,0.22633748199999992
184032.0,-0.22751427999999996,2.583660009,10.178125901999998,0.08524886198441103,0.015735888535980874,-0.09669124056048586,10.503395101902672,0.1298621679273056,0.056192104500000006,-0.028733484500000017,0.19024900999999872
184042.0,-0.1856398845,2.6674088,10.2859009855,0.052740359336764644,0.04451462257211537,-0.11134677028948224,10.627760392318999,0.1310007648054303,0.04187439549999997,0.0837487910000001,0.10777508350000176
184052.0,-0.18201142399999998,2.7188937125,10.424763149499999,0.038884190405181665,0.07222696043528135,-0.10761525634871837,10.775026584724126,0.1353135524483283,0.0036284605000000136,0.05148491249999987,0.13886216399999896
184062.0,-0.17720616549999998,2.7763606814999995,10.5971640565,0.049809951522666165,0.08581609399130918,-0.07670547529589879,10.956252402133035,0.1254159607027164,0.0048052584999999925,0.05746696899999959,0.17240090700000188
184072.0,-0.14964947899999997,2.7392915445,10.799475246,0.07485717161803679,0.07782248601717516,-0.04046720403674053,11.142476328056565,0.11531491696695977,0.02755668650000001,-0.037069136999999586,0.2023111894999996
184082.0,-0.07786480099999998,2.6985939469999995,11.0149273465,0.09830567011858062,0.058103756128143225,-0.01328719159543283,11.34094778520267,0.11496347556574511,0.07178467799999999,-0.04069759750000035,0.2154521005000003
184092.0,-0.039520799499999995,2.6937886884999998,11.2579361335,0.1121618390501636,0.045579273415831914,-0.005293583621298802,11.57580171641898,0.12118486015912074,0.03834400149999999,-0.004805258499999798,0.24300878699999906
184102.0,-0.0479545185,2.83019919,11.566845608499998,0.11615864303723061,0.05330759134366281,-0.01515294856581477,11.908158733481718,0.1287017540570133,-0.008433719000000006,0.13641050150000034,0.3089094749999983
184112.0,-0.0599186315,2.9463099259999996,11.8912495905,0.10656631346826978,0.09407673734099835,-0.03433760770373644,12.250965237319603,0.14623912943449996,-0.011964112999999998,0.11611073599999955,0.32440398200000153
184122.0,-0.1089518815,3.0325103794999997,12.347356882,0.08551589735996616,0.16895136225155508,-0.054323372968323506,12.714763532434663,0.19699888415570285,-0.04903325,0.08620045350000005,0.4561072915000004
184132.0,-0.25977815849999997,3.243255288,12.925556966,0.06819524986317445,0.23876453233132824,-0.0807022792829658,13.32877385343771,0.26109759072952876,-0.15082627699999995,0.21074490850000016,0.5782000840000006
184142.0,-0.3986403225,3.4287971059999998,13.4893412745,0.051408673117492976,0.24569348946174574,-0.11534357427654926,13.924004155442002,0.2762467783748438,-0.138862164,0.18554181799999991,0.5637843084999989
184152.0,-0.381870951,3.4982281879999997,14.078328673499998,0.02822720999250429,0.1862720097483468,-0.15397992792794774,14.511470088093336,0.24331842347908042,0.016769371499999963,0.06943108199999992,0.5889873989999987
184162.0,-0.2586013605,3.532943729,14.567974708,-0.006679375047382299,0.07062823884045454,-0.19101755998451939,14.99247988655848,0.2037662150484406,0.12326959050000003,0.03471554100000018,0.48964603450000155
184172.0,-0.06227222749999999,3.6681774325,14.876786116499998,-0.06077236455444256,-0.081255548655848,-0.1971471563175235,15.3224726680359,0.2217267366038363,0.196329133,0.13523370349999997,0.30881140849999866
184182.0,0.1375872995,3.8465603959999997,14.964163367999998,-0.14257594659541678,-0.2326070107302923,-0.16357225749690857,15.45125051409278,0.318103450800359,0.199859527,0.17838296349999982,0.08737725149999953
184192.0,0.3794192885,3.9028505669999998,14.925917432999999,-0.24196721150873787,-0.3394578128666371,-0.10228676614237968,15.432407873094572,0.4292345753657095,0.241831989,0.05629017100000011,-0.038245934999999065
184202.0,0.5386792844999999,3.8837275995,14.772639493499998,-0.32643591131750743,-0.39754760636076436,-0.031939525311496235,15.284122252965112,0.5153878508443797,0.1592599959999999,-0.019122967499999977,-0.15327793950000057
184212.0,0.708628529,3.7998807419999996,14.6696696685,-0.37972779469790224,-0.4329865168225092,0.03254340923268627,15.170380886070198,0.5768271797520531,0.16994924450000004,-0.0838468575000002,-0.10296982499999885
184222.0,0.8403318384999999,3.6550365214999996,14.5547357305,-0.3965143714435837,-0.4356516345903046,0.0770423238415337,15.030162399554735,0.5940972253305079,0.13170330949999998,-0.1448442205,-0.11493393800000007
184232.0,0.9384964049999999,3.5257848744999998,14.514038132999998,-0.3922505320809616,-0.416732265498686,0.1066204186750816,14.965601805795481,0.5821461798413818,0.09816456649999994,-0.1292516469999998,-0.04069759750000124
184242.0,1.009104285,3.4383095564999997,14.430289341999998,-0.38292523788755595,-0.3983469671581778,0.11621274824404243,14.868541103893257,0.5646392183596468,0.07060788000000018,-0.08747531800000008,-0.08374879099999966
184252.0,1.1443379885,3.4228150495,14.394397002999998,-0.3938509990050404,-0.3450533384485309,0.1383295605253146,14.839940612245833,0.5415860809759344,0.13523370349999997,-0.015494506999999658,-0.035892339000000106
184262.0,1.2640771849999999,3.4108509364999997,14.26867575,-0.4649958553040852,-0.26991167816241907,0.1284701955807986,14.725043392102398,0.5527911455613229,0.11973919649999987,-0.011964113000000332,-0.12572125299999826
184272.0,1.2102386765,3.4359559605,14.1585470705,-0.535875421556827,-0.21235595541940205,0.1236740307963182,14.619675993815871,0.5895360761855061,-0.05383850849999994,0.025105024000000142,-0.11012867950000071
184282.0,1.126391819,3.5580487529999996,14.093921246999999,-0.5785085791952924,-0.17824873117692888,0.14419212148276353,14.57968057178459,0.6222830178194171,-0.08384685749999998,0.12209279249999971,-0.06462582350000012
184292.0,0.9815475985,3.7244676035,13.9957566805,-0.6243409253526636,-0.17478425261172015,0.17749998492782332,14.516070393787793,0.6722033700307039,-0.1448442205,0.16641885050000038,-0.0981645664999995
184302.0,0.986352857,3.686123602,13.8963172495,-0.7008142718580471,-0.16732297005944438,0.20974145219991458,14.410691595703682,0.7504192806160884,0.00480525850000002,-0.03834400150000006,-0.09943943100000041
184312.0,0.9791940024999999,3.534120527,13.889158394999997,-0.8002055367713682,-0.1473389501241093,0.23318995070045836,14.365150528807334,0.8464131499515533,-0.007158854500000089,-0.1520030750000001,-0.0071588545000018655
184322.0,0.951637316,3.3688784744999998,13.811391660499998,-0.9105208174729217,-0.16199447985310567,0.26330037095586456,14.24814006657999,0.9615703073098357,-0.027556686499999872,-0.16524205250000001,-0.07776673449999905
184332.0,0.8750473795,3.3366145959999995,13.587505840999999,-1.0256322629589558,-0.22327997120763457,0.31153079950547585,14.018524168321683,1.094909550330671,-0.07658993650000001,-0.03226387850000023,-0.22388581949999953
184342.0,1.0235200604999999,3.2827760875,13.2559430045,-1.1703218032785379,-0.29815634144744335,0.35576267873876816,13.694679152629325,1.2590144601067286,0.14847268099999988,-0.053838508499999715,-0.33156283649999807
184352.0,0.612915625,3.3329861354999997,12.680096516499999,-1.33526239890901,-0.3383931620229206,0.43197073519784857,13.12514037298496,1.443618482186857,-0.4106044354999999,0.05021004799999984,-0.5758464880000016
184362.0,0.442868314,3.3653480804999996,11.886444332,-1.4868791510297572,-0.3407912444151608,0.5145736780362362,12.361604220496835,1.6098864407667843,-0.17004731099999998,0.03236194499999989,-0.7936521844999991
184372.0,0.40932957099999995,2.8697199894999996,11.1537895105,-1.587869137537905,-0.29922273762041185,0.5606730595691625,11.524316203591896,1.7103265548956053,-0.03353874300000004,-0.49562809099999994,-0.7326548215000006
184382.0,0.4009939185,2.310642873,10.556466459,-1.6278371774085751,-0.255788473855281,0.5987770877987026,10.813826829999252,1.7532300534680056,-0.008335652499999957,-0.5590771164999997,-0.5973230515000001
184392.0,0.33391643249999997,1.882092268,9.943550834,-1.6281042127841305,-0.25418975226045415,0.6206268647044196,10.125609842251528,1.760827493831381,-0.06707748600000002,-0.42855060499999986,-0.6129156249999994
184402.0,0.22378775299999998,1.51218543,9.370156008499999,-1.595862745512039,-0.2645831879560804,0.6291527981004119,9.49403019569275,1.7356887420329152,-0.11012867949999999,-0.3699068380000001,-0.5733948255000012
184412.0,0.014317708999999998,1.2380895625,8.9894618555,-1.5265819008541244,-0.2523257406193242,0.6342159982604474,9.074331667569352,1.6722292043389202,-0.20947004399999997,-0.27409586750000003,-0.38069415299999854
184422.0,-0.1089518815,0.9459494589999999,8.754788720999999,-1.4407815148260832,-0.26964464278686395,0.6203598293288645,8.806419047536494,1.5916676552261582,-0.1232695905,-0.29214010349999997,-0.23467313450000127
184432.0,-0.1089518815,0.6000689135,8.565716509,-1.3776302665011722,-0.3341293226602985,0.5814564403019109,8.587400801522344,1.5321876997972834,0.0,-0.3458805454999999,-0.18907221199999924
184442.0,-0.1413138265,0.284000584,8.293974237499999,-1.3488515324650376,-0.42845738741358397,0.5342924079252681,8.300038227718359,1.5127605780919646,-0.03236194499999999,-0.3160683295,-0.27174227150000085
184452.0,-0.027556686499999997,0.1020872265,8.085680991499999,-1.3264694301374622,-0.49986927908818396,0.47353924199259745,8.08637238006572,1.4945333248115507,0.11375713999999999,-0.18191335749999998,-0.2082932460000002
184462.0,0.083748791,0.032558078,7.827079630999999,-1.3094158180162259,-0.5371739465203107,0.41145264451140323,7.8275953803484315,1.4739127898104198,0.1113054775,-0.0695291485,-0.25860136049999927
184472.0,0.128074849,0.3223445855,7.398529025999999,-1.3333966419386278,-0.5672843667757169,0.3725492554844496,7.406655179452601,1.4961788346595981,0.04432605799999999,0.2897865075,-0.42855060499999986
184482.0,0.25497289999999995,0.49709908849999995,6.8765210465,-1.4053408590350862,-0.5339765033306572,0.3661543691051424,6.899178239941289,1.5473147249986003,0.12689805099999996,0.17475450299999995,-0.5220079794999997
184492.0,0.39618865999999997,0.409721837,6.4228654175,-1.4868791510297572,-0.38395672747548454,0.3975982209090722,6.4481034118060405,1.5862902393984255,0.14121576000000002,-0.08737725149999997,-0.453655629
184502.0,0.37706569249999994,0.3845187465,6.10562029,-1.5385723128153252,-0.19130553931109848,0.4346358529656439,6.129325601445082,1.6101897080208225,-0.019122967500000032,-0.02520309049999997,-0.31724512749999967
184512.0,0.33754489299999996,0.23486926749999998,5.9931380144999995,-1.5585580780799124,-0.0013177235852557187,0.45461987290097894,6.007229260520308,1.6235098545990103,-0.03952079949999998,-0.14964947900000003,-0.11248227550000056
184522.0,0.197505931,0.0026477955,5.966758125999999,-1.5513638309031919,0.10233563536143553,0.46128179465584135,5.970026644646421,1.6217222981079005,-0.14003896199999996,-0.23222147199999998,-0.02637988850000017
184532.0,-0.02157463,-0.10748088399999998,5.899778706499999,-1.5225850968670573,0.12578587919123133,0.44262946093977795,5.900797097914472,1.5905999824900716,-0.219080561,-0.11012867949999998,-0.06697941949999997
184542.0,-0.010787315,-0.49288222899999995,5.747677564999999,-1.4791525784311783,0.08048585845571851,0.3989299071283439,5.768782076750103,1.5341171384520762,0.010787315,-0.38540134499999995,-0.1521011415000002
184552.0,0.0299102825,-0.747855129,5.6459826044999994,-1.4293234282867402,0.023729496510114904,0.3544309925194965,5.695375447614269,1.4728034085078494,0.0406975975,-0.2549729,-0.10169496049999971
184562.0,0.107677017,-0.897504608,5.4257252455,-1.37096834474631,0.0005480333851262194,0.297939920620196,5.500509367415647,1.4029692437598897,0.0777667345,-0.14964947900000003,-0.22025735899999965
184572.0,0.0993413645,-0.9154507774999999,5.2341033045000005,-1.3136779120495958,-0.013308135546456762,0.25557205302803365,5.31448550989688,1.338373579150333,-0.008335652499999999,-0.017946169499999942,-0.1916219409999993
184582.0,0.0669794195,-0.7418730724999999,5.0809234315,-1.2254794436293144,-0.0005183627878423159,0.23665442926566713,5.1352356143708615,1.248120769136165,-0.032361945,0.17357770500000003,-0.1531798730000009
184592.0,0.0789435325,-0.7263785654999999,5.0377741715,-1.1111673589406939,0.02772630049718192,0.23612035851455687,5.090483916561757,1.1363161844396743,0.011964112999999998,0.01549450699999999,-0.043149259999999856
184602.0,0.117287534,-0.744324735,5.036597373499999,-1.0053812076480657,0.06902951724562773,0.24704611963204137,5.092650467046773,1.0375876985432588,0.0383440015,-0.017946169500000053,-0.0011767980000003675
184612.0,0.09571290399999999,-0.8089505584999999,5.054543542999999,-0.9345016413953239,0.11805756126340043,0.26303333558030945,5.119762923629625,0.9779659713755483,-0.02157463000000001,-0.0646258234999999,0.017946169500000053
184622.0,-0.009610516999999999,-0.9346718115,5.1993877635,-0.8900027267864765,0.17881072719607108,0.2808863084989594,5.282739523436986,0.9502500976847748,-0.10532342099999999,-0.12572125300000014,0.14484422050000045
184632.0,-0.17720616549999998,-1.195626768,5.241360225499999,-0.8484359653209795,0.22650883032382407,0.30513416779691666,5.378920189675875,0.9296540742781297,-0.16759564849999997,-0.2609549564999999,0.04197246199999949
184642.0,-0.0610954295,-1.6876263984999997,5.377770727,-0.7980744897546831,0.23956389312874168,0.2883475910512352,5.636686394026013,0.8817358353573066,0.11611073599999999,-0.49199963049999984,0.13641050150000034
184652.0,-0.068254284,-2.0216408974999998,5.535853925,-0.7357208568979337,0.2568845406255334,0.2425169902231161,5.893841637223286,0.8161429636000669,-0.007158854499999999,-0.334014499,0.15808319799999992
184662.0,-0.22035542549999998,-2.0239944934999996,5.634018491499999,-0.6853593813316373,0.246225814883604,0.1884240007160558,5.990598850351234,0.7522288465222693,-0.15210114149999998,-0.002353595999999847,0.0981645664999995
184672.0,-0.31371473349999995,-2.0144820429999997,5.6818749434999996,-0.6352649411408962,0.19879649246065811,0.14179403909052332,6.03657665479016,0.6805785335866916,-0.09335930799999997,0.009512450499999936,0.04785645200000044
184682.0,-0.3376429595,-2.0251712915,5.708156765499999,-0.5590568846818156,0.12525180844012107,0.11168361883511715,6.066166432561763,0.583700134096066,-0.023928226000000052,-0.010689248500000303,0.02628182199999962
184692.0,-0.35441233099999997,-2.0419406629999997,5.721395743,-0.4535377687647425,0.061034163942241704,0.09036616735125841,6.085186851658399,0.46646299002813196,-0.016769371499999963,-0.016769371499999686,0.013238977500001248
184702.0,-0.39628672649999996,-2.1053896885,5.805144534,-0.33922568407612186,0.045579273415831914,0.06851639044554139,6.187843887063756,0.3490645078802969,-0.041874395499999995,-0.0634490255000002,0.08374879099999966
184712.0,-0.42619700899999996,-2.1987489965,5.9715633845,-0.22784400720159978,0.06343224633448191,0.03733957401716669,6.377751194205635,0.23943847911416516,-0.029910282499999996,-0.09335930800000014,0.1664188504999995
184722.0,-0.3711817025,-2.2658264825,6.249287712499999,-0.12951913846124719,0.07862184681458856,-0.016219344738783305,6.657728022281519,0.1523800156452146,0.05501530649999997,-0.06707748600000007,0.2777243279999997
184732.0,-0.34480181399999993,-2.2526855715,6.609584033499999,-0.04531747402803276,0.08474969781834066,-0.08203571083148947,6.991429157967639,0.12635680663980567,0.02637988850000006,0.013140911000000255,0.36029632099999986
184742.0,-0.25742456249999995,-2.1975721985,6.981942534,0.01676912345316152,0.051708869748836,-0.14092311979377814,7.324145856076105,0.1510441538243073,0.08737725149999997,0.055113372999999743,0.37235850050000074
184752.0,-0.07305954249999999,-2.1293179144999996,7.3027180555,0.05407379088528832,-0.006380923745291268,-0.1739639478632828,7.607169215673241,0.18228589140338888,0.18436501999999996,0.06825428400000044,0.3207755214999999
184762.0,0.12209279249999999,-2.1317695769999996,7.544550044499999,0.07618885783730847,-0.0610044933449578,-0.17662906563107816,7.840891757534225,0.20180217316108445,0.19515233499999998,-0.0024516624999999515,0.24183198899999958
184772.0,0.2752726655,-2.1377516334999997,7.628298835499999,0.09191078373927339,-0.12735493018877422,-0.1521141709575658,7.926960338654031,0.21864489799001163,0.15317987300000002,-0.005982056500000166,0.08374879099999966
184782.0,0.44885037049999993,-2.1186286659999998,7.592406496499999,0.11162951362830532,-0.17878105659878715,-0.11800694671509261,7.895232136396644,0.2415563163829285,0.17357770499999992,0.019122967499999977,-0.035892339000000106
184792.0,0.5314223634999999,-2.1508925445,7.597211755,0.14440330632225484,-0.1947700178763072,-0.08549844406744622,7.913682765737062,0.2570946492603264,0.08257199300000001,-0.03226387850000023,0.0048052585000011305
184802.0,0.5518201954999999,-2.1138234075,7.6630143765,0.19636350348337803,-0.18277786058585418,-0.05885250237724879,7.9683463943720625,0.2746452054135892,0.020397832000000005,0.03706913700000003,0.0658026214999996
