timestamp,ax,ay,az,gx,gy,gz,acc_mag,gyro_mag,dax,day,daz
83902.0,-0.43992631899999995,2.2560198325,11.341782990999999,0.4354840829821131,0.01793849405199772,-0.10376156936031489,11.57234643733582,0.4480341944268774,0.0,0.0,0.0
83912.0,-0.5524085944999999,2.0477265865,12.196432538499998,0.36460451672937144,0.09388126046477498,-0.22420325038193958,12.379471155688272,0.43819772040454535,-0.11248227549999995,-0.20829324599999977,0.8546495474999993
83922.0,-0.1238579895,2.0920526445,12.833374456,0.2678783695838457,0.25668906374931005,-0.36143150814924574,13.003365910287833,0.5179583298127708,0.4285506049999999,0.04432605799999978,0.6369419175000015
83932.0,-0.0436395925,2.7001630109999994,13.321745626,0.1940683955170055,0.3512824185488987,-0.4642855062985236,13.592707280886184,0.6136961064557808,0.080218397,0.6081103664999996,0.48837117000000063
83942.0,0.104735022,3.3034681189999997,13.770694062999999,0.1327829041624766,0.36327457583935174,-0.49679400894617,14.161775524800065,0.629606229649842,0.1483746145,0.6033051080000003,0.44894843699999853
83952.0,0.20535125099999998,3.8075299289999998,14.117849472999998,0.08908160502179058,0.26708075411568427,-0.42191763870636123,14.623717962228495,0.5072298841982917,0.10061622899999999,0.50406181,0.34715540999999916
83962.0,0.29390530049999997,4.297077897,14.368017114499999,0.08641823258324723,0.07176444818350283,-0.2591098354218262,14.99970581648563,0.2824113201665626,0.08855404949999998,0.48954796800000056,0.2501676415000009
83972.0,0.4878808375,4.4910534339999995,14.533259167,0.10880033491082251,-0.1430052975914074,-0.047005207414711286,15.219172470073149,0.18573507353220653,0.19397553700000003,0.19397553699999914,0.1652420525000018
83982.0,0.6985276794999999,4.3952424635,14.566699843499999,0.13571331197657507,-0.29808652827736354,0.15577238106974592,15.23137687678314,0.3626826658281876,0.21064684199999995,-0.09581097049999965,0.033440676499997934
83992.0,0.716473849,4.177436767,14.560717787,0.14024244138550035,-0.3335254387391084,0.312719368726084,15.165052429557983,0.47822647796658097,0.017946169500000053,-0.21780569650000015,-0.0059820564999988335
84002.0,0.5943810565,3.8314581549999995,14.548753673999999,0.10000736613927509,-0.2591813939211579,0.38039974645992014,15.056546546289109,0.471041861562007,-0.12209279250000005,-0.34597861200000013,-0.01196411300000122
84012.0,0.36215958449999996,3.461551317,14.45304077,0.0192684349420174,-0.12568465009461566,0.3500240361582108,14.866199399448126,0.3724039872812927,-0.23222147199999998,-0.36990683799999946,-0.0957129039999991
84022.0,0.1874050815,3.1203779634999997,14.502074019999998,-0.05240874677888573,0.029928906013198763,0.25649533220233867,14.8351619533198,0.26350004097849455,-0.17475450299999998,-0.34117335350000033,0.04903324999999903
84032.0,0.0246146915,3.0006387669999994,14.6708464665,-0.0801210846420517,0.1506376224103786,0.15790342808643099,14.97458429929447,0.23247488916250136,-0.16279038999999998,-0.11973919650000031,0.168772446500002
84042.0,-0.068842683,3.1323420765,14.837265316999998,-0.07212747666791766,0.17435141095722553,0.09315345816669335,15.164456742206957,0.21042422427484492,-0.0934573745,0.13170330950000064,0.16641885049999772
84052.0,-0.1813249585,3.3082733774999995,15.185597524999999,-0.01590344014417233,0.08748462875621577,0.0888896188040712,15.542841557197203,0.12572924881731082,-0.11248227549999999,0.17593130099999943,0.3483322080000004
84062.0,-0.22800461249999998,3.4602764524999996,15.666907906999999,0.0744260752927942,-0.08171806090762651,0.16296662824646654,16.046105527431457,0.1969142048812458,-0.04667965399999999,0.1520030750000001,0.4813103820000002
84072.0,-0.1693608455,3.6266953029999995,16.1145814795,0.11786033905792509,-0.3359235211313486,0.28074319150029586,16.51851501123013,0.4533788825539898,0.058643766999999986,0.16641885049999994,0.44767357250000117
84082.0,-0.12748644999999997,3.7105421604999997,16.3456261535,0.03845483940919106,-0.6098477112441026,0.4350250613888386,16.761976920094025,0.7500932006224426,0.04187439550000002,0.0838468575000002,0.23104467399999962
84092.0,-0.16573238499999998,3.5381412534999996,16.204410393499998,-0.1595265842907857,-0.8318099588664815,0.5914379782940664,16.587007775790276,1.033032149031924,-0.03824593500000001,-0.1724009070000001,-0.14121576000000147
84102.0,-0.11189387649999999,3.2735578364999998,15.622581848999998,-0.41639716228230317,-0.9722356598234413,0.663916266141635,15.962260641187793,1.248764823109831,0.05383850849999999,-0.2645834169999999,-0.5818285445000004
84112.0,0.19936919449999999,2.7252680349999996,14.780975145999998,-0.6674051793163717,-0.9650414126467206,0.6303413673210201,15.031435733321617,1.3319402542372647,0.31126307099999995,-0.5482898015000002,-0.8416067030000001
84122.0,0.42198014949999996,2.2679839454999997,13.9837925675,-0.8528621203040371,-0.8214182685001072,0.556798428629735,14.172800464075053,1.308482425636567,0.22261095499999997,-0.4572840894999999,-0.7971825784999975
84132.0,0.5010217485,2.096857903,13.0248983305,-1.0098091079603753,-0.5850657811950352,0.4566078029190005,13.202113935946214,1.2531987426308735,0.07904159900000007,-0.17112604249999963,-0.9588942370000009
84142.0,0.5573119194999999,1.9435799635,12.294597105,-1.1078669413251727,-0.29568844588512333,0.3556195617401046,12.459743882777438,1.2005274213458754,0.05629017099999989,-0.15327793950000013,-0.7303012254999999
84152.0,0.5561351215,1.8525742514999999,11.7906333615,-1.1286520673871732,-0.03269001688985379,0.2634225440035042,11.948236384337372,1.1594462312288902,-0.0011767979999999234,-0.09100571200000007,-0.5039637435
84162.0,0.552506661,1.973490246,11.431513838499999,-1.100672694148452,0.15436739102189045,0.1890802445148057,11.613760631308168,1.1274134157090272,-0.003628460499999986,0.12091599450000001,-0.3591195230000004
84172.0,0.554860257,2.0812653295,11.273528707,-1.0700299484711875,0.27640779363834195,0.15976918505681292,11.477455501291649,1.1166429830088875,0.002353595999999958,0.10777508349999998,-0.1579851314999985
84182.0,0.552506661,2.0286036189999996,11.151435914499999,-1.0593712227292582,0.3014550137337126,0.18321768355735674,11.347908142414164,1.116562238489284,-0.002353595999999958,-0.052661710500000236,-0.12209279250000193
84192.0,0.599186315,1.92798739,11.041307234999998,-1.0377867358698443,0.21698631392494303,0.2319804375288263,11.224376377943925,1.0853106896065225,0.04667965399999996,-0.10061622899999967,-0.11012867950000071
84202.0,0.608796832,1.5473913035,10.86772953,-0.975434848342347,0.049647635902230695,0.2898031956473985,10.99420750059024,1.0187855138932738,0.00961051700000004,-0.3805960865,-0.1735777049999978
84212.0,0.6279197995,1.112858642,10.592358798,-0.8885680661413371,-0.14380465838882078,0.3196465805272495,10.669151912745745,0.9551999394803397,0.019122967499999977,-0.43453266150000003,-0.27537073200000073
84222.0,0.6159556865,0.7860029974999999,10.210487847,-0.811028323462985,-0.31274205800635996,0.3044587253763948,10.25920387718001,0.9210155545717198,-0.011964112999999998,-0.32685564450000004,-0.3818709509999998
84232.0,0.6722458575,0.5933023249999999,9.711329362,-0.7646636518837556,-0.3916134869039837,0.25436428518565357,9.752632471236659,0.8959758999076406,0.056290171,-0.1927006725,-0.4991584849999988
84242.0,0.8709285864999999,0.6052664379999999,9.271991442,-0.7643966165082006,-0.3383216035235888,0.1776221579754629,9.332453555430819,0.8545837148833447,0.19868272899999995,0.011964112999999998,-0.4393379200000016
84252.0,1.121096228,0.595655921,9.099590534999999,-0.8064974487248078,-0.15366227800408475,0.09022305035259488,9.187720644061821,0.8259482001287705,0.25016764150000015,-0.00961051699999993,-0.1724009070000001
84262.0,1.3677334755000001,0.7836494015,9.021725734,-0.8976280702884397,0.0954799820596018,0.01827708792688462,9.15840250611385,0.902876863967029,0.24663724750000005,0.18799348049999998,-0.0778648009999987
84272.0,1.5999549475,1.0050835585,9.100767332999999,-1.0537756971473644,0.3318307240354219,-0.02995159529347469,9.294838075135933,1.1051931719717192,0.23222147199999976,0.22143415700000002,0.07904159899999819
84282.0,1.803442935,0.964385961,9.3401476595,-1.269343058390436,0.5156906887575126,-0.033416073858683434,9.56142274992789,1.3705054981091145,0.2034879875000002,-0.040697597500000016,0.23938032650000096
84292.0,1.768727394,0.803949167,9.4084019435,-1.509692349682575,0.6148149182952786,0.018011797880581482,9.606911990221446,1.6301818301377964,-0.03471554100000018,-0.160436794,0.068254284
84302.0,1.604760206,0.558586784,9.139111334499999,-1.7447131507683755,0.6230755616449676,0.08222944237846085,9.295731843077606,1.8544564743280378,-0.16396718799999999,-0.24536238300000002,-0.26929060900000046
84312.0,1.3928384994999998,0.250854107,8.5752289595,-1.912584154212946,0.5692496075134625,0.10327985848676446,8.691229980649208,1.9981716622376886,-0.21192170650000008,-0.30773267699999995,-0.5638823749999986
84322.0,1.222889255,0.10483308849999999,7.7779483145,-1.9823973242927193,0.5226179005586781,0.08169537162735058,7.874193805684001,2.051756017437898,-0.16994924449999993,-0.1460210185,-0.7972806450000007
84332.0,1.1498297124999999,-0.017259704,7.017834873,-1.977601159508239,0.5527283208140842,0.04012861016185362,7.11142830729699,2.053783155075484,-0.07305954250000002,-0.12209279249999999,-0.7601134414999997
84342.0,1.1522813749999998,-0.200447926,6.531817298999999,-1.9155145620270446,0.6545176681196455,-0.020092230348958722,6.6357041047446685,2.024350047037032,0.0024516624999999515,-0.183188222,-0.4860175740000008
84352.0,1.202491423,-0.4768973895,6.473173532,-1.8110618422829399,0.8135957027926687,-0.10189755771918495,6.601165981694888,1.988030703094172,0.05021004800000006,-0.2764494635,-0.058643766999999514
84362.0,1.0840270909999998,-0.540346415,6.559373985499999,-1.7111382519477605,0.9540214037496284,-0.18050369657050555,6.670268065368844,1.9674177341294008,-0.11846433200000006,-0.06344902550000003,0.08620045349999916
84372.0,1.0109675485,-0.4565976239999999,6.717359117,-1.6461212466524677,1.0400888251532248,-0.2540466352617906,6.808336821948924,1.9636801205331604,-0.0730595424999998,0.0837487910000001,0.15798513150000115
84382.0,1.0936376079999999,-0.42551054349999995,7.030975784,-1.596559131883585,1.0923160576899031,-0.3251914915608355,7.128234207393584,1.9616077430698624,0.08267005949999984,0.031087080499999975,0.3136166669999998
84392.0,1.176209601,-0.4147232285,7.306346516,-1.5589874290759032,1.088052218327281,-0.3747536063297185,7.412028318456923,1.937715071748357,0.08257199300000018,0.010787314999999964,0.27537073199999984
84402.0,1.2072966815,-0.2805682565,7.469136905999999,-1.5248802048334298,1.0142422442604409,-0.37901744569234064,7.571280601343976,1.8701874754351353,0.031087080499999864,0.13415497199999998,0.16279038999999962
84412.0,1.328212676,-0.1369989005,7.4643316475,-1.4865108865575865,0.9124528969548795,-0.34810766463952103,7.582820356258966,1.778612900885506,0.12091599450000001,0.143569356,-0.004805258499999354
84422.0,1.338999991,-0.074726673,7.5026756489999995,-1.4278887676416008,0.8266525109268383,-0.28016025153012974,7.621590840871296,1.6735323340515778,0.010787314999999964,0.0622722275,0.038344001499999614
84432.0,1.3079129104999998,-0.0459931885,7.582894046,-1.332761342090902,0.726995955967214,-0.1863645121987025,7.695000563203568,1.529544914793837,-0.031087080500000086,0.028733484499999996,0.08021839700000033
84442.0,1.3713619359999998,0.0246146915,7.7540200885,-1.2347035087261047,0.603889157177794,-0.08750731803649169,7.874393117911301,1.3772553863853283,0.06344902549999998,0.07060788,0.17112604250000008
84452.0,1.4802157509999998,0.05099458,7.825902832999999,-1.1965994804965645,0.4695930525538383,0.03160093143660933,7.964822299854233,1.2858330259404374,0.10885381500000002,0.026379888499999997,0.07188274449999899
84462.0,1.3988205559999998,-0.029223817,7.619963183,-1.241365430480967,0.355813293287076,0.17868855414843143,7.747347409897383,1.3036567151887217,-0.08139519500000003,-0.080218397,-0.2059396499999986
84472.0,1.1617938255,-0.35725625949999995,7.159050633,-1.287196031309086,0.26601610327196773,0.31218529797497374,7.261501421454075,1.350961824216209,-0.23702673049999978,-0.32803244249999997,-0.46091255000000064
84482.0,0.829054191,-0.9976305044999999,6.631158663499999,-1.273339862377503,0.23110951823208115,0.3953223115644717,6.756838217364293,1.353176169076924,-0.3327396345,-0.640374245,-0.5278919695000006
84492.0,0.3143031325,-1.4442253455,6.24683605,-1.1707528996037804,0.2668154640693811,0.4086461550741963,6.419309460001403,1.2684023509337021,-0.5147510584999999,-0.44659484100000013,-0.3843226134999993
84502.0,-0.028047019,-1.9362249759999999,6.0745332095,-1.0260633592841983,0.3741985916275843,0.3135187295234974,6.375712313638325,1.1362766375331623,-0.34235015150000003,-0.49199963049999984,-0.17230284049999955
84512.0,-0.1442558215,-2.376739694,6.299595826999999,-0.8909661485335774,0.54233663044771,0.11100643108534335,6.734583053064804,1.0489385712711865,-0.11620880249999999,-0.44051471799999997,0.225062617499999
84522.0,-0.1944658695,-2.435383461,6.893290417999999,-0.8033000055351541,0.7104746692678358,-0.12454669542231536,7.313437110101059,1.079618929949192,-0.05021004800000001,-0.05864376699999996,0.5936945910000002
84532.0,-0.0532501095,-2.3408473549999997,7.5098345035,-0.8131593704796701,0.8066684909915032,-0.32385980534156383,7.8663852043700055,1.1903055866764962,0.14121576,0.09453610600000006,0.6165440855000002
84542.0,0.10954028049999999,-1.9230840649999998,7.8318848894999995,-0.9136152862367077,0.8234550677371847,-0.43284339982384573,8.0652757123664,1.3038882423729798,0.16279038999999998,0.4177632899999999,0.3220503859999999
84552.0,0.41246769899999997,-1.6836056719999999,7.837866945999999,-1.0575054657588763,0.794411043654747,-0.42005362706523125,8.027254569571609,1.387750613763575,0.3029274185,0.23947839299999996,0.005982056499999722
84562.0,0.6147788885,-1.6093693315,7.6498734655,-1.1627575463003943,0.7413844503206554,-0.30254235385770506,7.841465855634329,1.4118030636507115,0.2023111895,0.07423634049999994,-0.18799348049999942
84572.0,0.5166143219999999,-1.68478247,7.3829364525,-1.1691541780089536,0.6425272561584445,-0.1325403033964494,7.5903315468145465,1.3406452546765362,-0.09816456650000005,-0.07541313850000009,-0.2669370129999997
84582.0,0.2244742185,-2.0367431385,7.1028585285,-1.0620363404970536,0.5068977199859651,0.011082840750163993,7.392517200716086,1.176855690568065,-0.2921401034999999,-0.35196066849999985,-0.2800779240000004
84592.0,-0.11787593299999999,-2.4712758,6.895742080499999,-0.8888351015168922,0.3744656270031394,0.05318367296677121,7.326142071788174,0.9659610999236122,-0.3423501515,-0.43453266150000003,-0.20711644800000073
84602.0,-0.3525490675,-2.920224237,6.754428254,-0.7321551492361092,0.2881311702239879,-0.020626301100068987,7.36710943842908,0.7870807951568026,-0.2346731345,-0.44894843699999987,-0.14131382649999935
84612.0,-0.5165162555,-3.185984452,6.592814661999999,-0.6364953982635521,0.24896249115073113,-0.1791702650219819,7.3404694085639814,0.7065484398671494,-0.16396718800000004,-0.26576021500000024,-0.16161359200000014
84622.0,-0.35009740500000003,-3.1189069659999995,6.420413754999999,-0.5962585776880748,0.2518928989648296,-0.3776857594730689,7.146457978673369,0.749413675431841,0.1664188505,0.06707748600000052,-0.1724009070000001
84632.0,0.0042168595,-2.897472809,6.256446566999999,-0.5872003188702243,0.3403584027606662,-0.5492865315291514,6.894816176412862,0.8731344401238622,0.35431426450000003,0.22143415699999958,-0.16396718799999999
84642.0,0.194563936,-2.5059913409999997,6.207413316999999,-0.6077166642274175,0.4597336876093224,-0.6236305763471018,6.69700140469059,0.9846774615363064,0.1903470765,0.3914814680000003,-0.04903324999999992
84652.0,0.36814164099999996,-2.2330722714999998,6.5042606124999995,-0.5959932876417716,0.5242166221535048,-0.6108408035884875,6.886766015547444,1.0015675479890047,0.17357770499999997,0.2729190694999999,0.2968472955000001
84662.0,0.413644497,-2.1887462135,6.942421734499999,-0.5267124429838568,0.4381492007499085,-0.5261050684041627,7.291017164749165,0.8638213141109421,0.045502856000000036,0.04432605799999978,0.43816112199999946
84672.0,0.296356963,-2.2091440455,7.1171762375,-0.44064502158026037,0.2057952627611554,-0.40433170116326633,7.4580387810014335,0.6324585755478236,-0.11728753400000003,-0.020397832000000005,0.17475450300000084
84682.0,0.229279477,-2.3491830075,6.9232007005,-0.37269760847086914,-0.07559020990387443,-0.288420894879819,7.314501884660625,0.47728817269705376,-0.06707748599999996,-0.1400389620000002,-0.19397553700000003
84692.0,0.204174453,-2.6280841335,6.4240422155,-0.33485887028763206,-0.27676907679350476,-0.21274516384259679,6.9438340854702485,0.4837272884775589,-0.025105024000000004,-0.2789011259999996,-0.4991584849999997
84702.0,0.21731536399999998,-2.872367785,5.970386586499999,-0.29888763440402893,-0.37056307079568007,-0.19222707315615145,6.62896965236645,0.5134219074906534,0.013140910999999977,-0.24428365149999998,-0.4536556290000009
84712.0,0.32146198699999995,-3.0854662895000002,5.6603003135,-0.25092424122997276,-0.368432023778995,-0.2266013327741798,6.45464481375506,0.500053292157704,0.10414662299999997,-0.21309850450000045,-0.3100862729999996
84722.0,0.40050358599999997,-3.128517483,5.4376893585,-0.20082805570997952,-0.31300734805266306,-0.29268473424244107,6.286214307783315,0.4732545420318541,0.07904159900000002,-0.04305119349999975,-0.2226109549999995
84732.0,0.47827032049999996,-3.1069428529999996,5.371788670499999,-0.14806849775144296,-0.22827335819759037,-0.3632972651196277,6.223981837360316,0.45389195733409454,0.07776673449999999,0.021574630000000372,-0.06590068800000104
84742.0,0.48670403949999996,-2.97533761,5.492704665,-0.09397725357363468,-0.14353762301326567,-0.42911188588308186,6.265725756243955,0.46213827369703614,0.008433719000000006,0.13160524299999965,0.12091599450000068
