timestamp,ax,ay,az,gx,gy,gz,acc_mag,gyro_mag,dax,day,daz
75792.0,1.02773692,3.4675333735,10.8461549,0.13065011181653952,0.3952490077358879,0.03266732760957786,11.433245689123513,0.41756243141239335,0.0,0.0,0.0
75802.0,0.7644283675,3.384863314,11.147807453999999,0.041652282598844674,0.42589349874240434,0.0025569073541716926,11.675412687137003,0.42793308202563424,-0.26330855249999996,-0.08267005949999984,0.3016525539999986
75812.0,0.7428537374999999,3.3645635485,11.320208360999999,0.003014183618194207,0.4573356052170821,-0.04354072884950254,11.832972444980463,0.45941346973168395,-0.02157463000000004,-0.0202997654999999,0.1724009070000001
75822.0,0.667440599,3.5848209074999997,11.443477951499998,0.0464484473833251,0.4008445333177817,-0.0696543451178417,12.010395726973746,0.40949423188717454,-0.07541313849999998,0.22025735899999965,0.12326959049999964
75832.0,0.8003207065,3.8039014685,11.609896802,0.12985075101912613,0.314244786492327,-0.07871434926494426,12.243360787316485,0.34900852734287585,0.1328801075,0.21908056100000017,0.16641885050000127
75842.0,1.0074371545,3.8014498059999995,11.7188486835,0.20845688987044672,0.2558897029518966,-0.05366712916957364,12.361123117038119,0.33438596825311484,0.20711644800000006,-0.0024516625000003955,0.10895188149999946
75852.0,1.109132115,3.846952662,11.928318727499999,0.27773773452836165,0.25162586358927447,-0.006236061417375739,12.582289398079368,0.3748235756592642,0.10169496049999993,0.04550285600000059,0.2094700439999997
75862.0,1.0313653805,4.0098411185,12.25635117,0.3334277003009967,0.2814692484691255,0.027337092073987185,12.936795752660997,0.43720279706887427,-0.07776673449999993,0.16288845649999972,0.3280324425000014
75872.0,0.9642878945,4.119969798,12.755509655,0.36220643433713123,0.3193079866523626,0.03266732760957786,13.439011453180237,0.4839609960610002,-0.06707748600000007,0.11012867949999983,0.4991584849999988
75882.0,0.8925032164999999,4.388083609,13.1780782035,0.34275473982365445,0.34382288132587496,0.013747958517959333,13.918102776190405,0.48567889778970147,-0.0717846780000001,0.2681138110000001,0.42256854850000103
75892.0,0.8458235624999999,4.5880412024999995,13.6293802365,0.2857313425024957,0.3550139324896626,-0.004372049776245795,14.405746950637951,0.45573721284233437,-0.04667965399999996,0.19995759349999975,0.45130203299999927
75902.0,0.9295723534999999,4.7663260995,14.148936553499999,0.22044904716089977,0.36247521504193836,-0.0067701321684860045,14.959090040578499,0.4243016599112321,0.08374879099999999,0.17828489700000016,0.5195563169999993
75912.0,1.0768682365,5.033361179,14.6696696685,0.13864371979067355,0.35288288547297747,0.013747958517959333,15.546497294887867,0.37939085157728947,0.14729588300000007,0.26703507950000027,0.5207331150000005
75922.0,1.1737579384999999,5.218902997,15.172456614,0.022999948882781278,0.3155764727115987,0.09315345816669335,16.087824461188024,0.3298409837271876,0.09688970199999991,0.18554181799999991,0.5027869455000005
75932.0,1.1665990839999998,5.416408928,15.568743340499998,-0.1384761681824821,0.2492277811970343,0.22345450413283402,16.5252597044788,0.36224584399569115,-0.007158854500000089,0.19750593100000025,0.39628672649999785
75942.0,1.07088618,5.546837373,15.775761722,-0.3308620663005651,0.15863123038451263,0.3646795658872072,16.756755651448312,0.5173246175716614,-0.09571290399999977,0.13042844499999973,0.20701838150000285
75952.0,0.9499701854999999,5.46426538,15.830875095,-0.5197852311826913,0.0605733970197152,0.5064369530634386,16.774303138130556,0.7282336235098812,-0.12091599450000012,-0.08257199300000018,0.0551133729999993
75962.0,0.7943386499999999,5.1662412865,15.7231000115,-0.6538143004310918,-0.02123193035051102,0.6170192691405474,16.569154984272803,0.8992422992749741,-0.15563153549999997,-0.2980240934999996,-0.10777508349999998
75972.0,0.72373077,4.7172928495,15.429881176499999,-0.7580017301288934,-0.06413212336453164,0.6743079565080092,16.151095045732895,1.0165484603970665,-0.07060787999999996,-0.4489484370000003,-0.2932188350000011
75982.0,0.6028147755,4.202541791,15.172456614,-0.8203536176563907,-0.070794045119394,0.6921609294266592,15.75525889544107,1.0756758838288933,-0.12091599450000001,-0.5147510584999999,-0.2574245624999989
75992.0,0.45797055499999995,3.8733325505,14.958181311499999,-0.8256838531919815,-0.10463423398631205,0.6910962785829426,15.458319126726478,1.081811543021728,-0.1448442205,-0.3292092405,-0.21427530250000082
76002.0,0.289100042,3.7535933539999995,14.786957202499998,-0.7939747113417485,-0.17497972948794352,0.6767060389002494,15.258674425062091,1.0578018770383955,-0.16887051299999994,-0.11973919650000031,-0.17122410900000062
76012.0,0.18495341899999998,3.7273115319999994,14.552382134499998,-0.743346200399897,-0.2549192998877878,0.6532575403997056,15.02327809808148,1.021906471842368,-0.10414662300000002,-0.026281822000000066,-0.23457506799999983
76022.0,0.3046926155,3.5632462775,14.299762830499999,-0.7063085683433252,-0.30687949704891093,0.6367379990295793,14.740175664916858,0.9992407611944094,0.1197391965,-0.16406525449999965,-0.25261930399999954
76032.0,0.38726460849999994,3.4052611459999995,14.041161469999999,-0.6945834464284274,-0.3268635169842461,0.6410000930629494,14.453373058773042,1.0000835175596148,0.08257199299999995,-0.15798513150000026,-0.25860136050000015
76042.0,0.437572723,3.2268781824999997,13.7574550855,-0.7135028155200458,-0.3218003168242105,0.6585877759352963,14.137601745775623,1.022926962336312,0.050308114500000056,-0.17838296349999982,-0.2837063844999985
76052.0,0.30949787399999995,3.0617341965,13.448643677,-0.7611991733185469,-0.3268635169842461,0.6727092349131824,13.796232165882833,1.067146501157938,-0.12807484900000005,-0.1651439859999999,-0.30881140850000044
76062.0,0.2784107935,2.8342199165,13.0248983305,-0.8104942527118747,-0.3572409726152073,0.6511264933830205,13.33260258257495,1.09931240172178,-0.031087080499999975,-0.22751427999999985,-0.4237453465000005
76072.0,0.481898781,2.4488185715,12.475431731,-0.8515304340847654,-0.3636358589945146,0.5949024568592752,12.722630848456394,1.1005653325888787,0.20348798750000002,-0.385401345,-0.5494665994999988
76082.0,0.575258089,2.270435608,12.004908663999998,-0.8840389367324117,-0.31593950119601355,0.5402771419303567,12.231256343892742,1.0831629610392859,0.09335930799999997,-0.17838296349999982,-0.470523067000002
76092.0,0.5716296285,2.2177738975,11.517714291999999,-0.9213436041645385,-0.26397930403489034,0.49524590189965095,11.743211826615086,1.078808422863877,-0.003628460499999986,-0.052661710500000236,-0.4871943719999994
76102.0,0.5980095169999999,2.0920526445,11.1167203735,-0.9634444363811459,-0.19469845937697544,0.4691322856313118,11.327655163906254,1.0891362511179261,0.02637988849999995,-0.12572125300000003,-0.4009939184999993
76112.0,0.578788483,1.8166819124999998,10.917939578,-1.0098091079603753,-0.1166246459475131,0.45554315207528395,11.083173458360964,1.113927872873642,-0.01922103399999997,-0.27537073200000006,-0.19878079549999939
76122.0,0.5728064264999999,1.726951065,10.739556614499998,-1.0724280308634278,-0.055339154592984205,0.43049593197991337,10.892591218768608,1.1569317399327972,-0.005982056500000055,-0.08973084749999982,-0.1783829635000025
76132.0,0.7069613985,1.5173829545,10.506158344499998,-1.1568967306721973,8.552113334772214e-05,0.3851959112444005,10.638684533779688,1.2193383217111184,0.13415497200000004,-0.20956811050000002,-0.23339827000000035
76142.0,0.8302309889999999,1.287613145,10.197346936,-1.2581520072266483,0.0690993304157075,0.33883298499442316,10.311794976599433,1.3048099411303449,0.12326959049999997,-0.22976980950000003,-0.3088114084999969
76152.0,0.8925032164999999,1.1786612635,9.760362612,-1.3642034485655798,0.1639597205908513,0.2823419130951227,9.871701103825304,1.4027297654732591,0.062272227499999944,-0.1089518814999999,-0.43698432400000087
76162.0,0.9583058379999999,1.0517632124999998,9.3725096045,-1.4715883214530348,0.3009226883118543,0.21439449998573143,9.479899378197953,1.5172645299360048,0.06580262150000005,-0.12689805100000018,-0.3878530075000004
76172.0,0.9128029819999999,0.9607575005,9.078015904999999,-1.5517931818991821,0.4461445540532945,0.14538069070337167,9.174237681145396,1.6211855500619263,-0.045502856000000036,-0.09100571199999985,-0.29449369950000026
76182.0,0.9187850384999999,0.955952242,8.8996329415,-1.5978908181028566,0.5751121684709115,0.07636688142101189,8.997859586000896,1.6999532268502866,0.005982056500000055,-0.00480525850000002,-0.17838296349999894
76192.0,0.9642878945,0.9632091629999999,8.8733511195,-1.628001238358263,0.6587815074822676,0.017212437083168077,8.977415169473801,1.7563249627238657,0.045502856000000036,0.007256920999999972,-0.02628182199999962
76202.0,1.036170639,1.0804966969999998,8.801468374999999,-1.658911019411082,0.6715712802408821,-0.011032226201856158,8.927875909838727,1.7897249690337513,0.0718827445000001,0.11728753399999992,-0.07188274450000165
76212.0,1.2551531335,1.2935952014999998,8.5968035895,-1.6892884750420436,0.633734287386897,0.011082840750163993,8.783725285453706,1.8042831064660405,0.21898249449999985,0.2130985045,-0.20466478549999856
76222.0,1.4311825009999999,1.3642030815000001,8.297504631499999,-1.733787389650891,0.6241402124886841,0.10700962709827633,8.529825115939168,1.8458116853161328,0.17602936749999998,0.07060788000000029,-0.2992989580000014
76232.0,1.464721244,1.3043825164999998,8.0186035055,-1.767095253095951,0.6350659736061688,0.2466359672578227,8.254987840717433,1.8938753192044602,0.03353874300000004,-0.059820565000000325,-0.27890112599999917
76242.0,1.038524235,1.0541168085,7.652325127999999,-1.7327209934779226,0.5950961884062466,0.3942559153915031,7.794085879515619,1.8740062010345522,-0.426197009,-0.2502657079999999,-0.3662783775000005
76252.0,0.532108829,0.562117178,7.205730287,-1.6381276386783339,0.5452687835910605,0.4923137487563005,7.247183211199475,1.795314188150701,-0.5064154059999999,-0.49199963049999984,-0.4465948409999996
76262.0,0.08924051499999999,-0.056780503499999996,6.8442571679999995,-1.5435342838787451,0.5428689558695683,0.48325548993844997,6.845074439099589,1.7060892876141145,-0.44286831400000004,-0.6188976815,-0.36147311900000023
76272.0,-0.023339827,-0.7079420635,6.7017665435,-1.4883748981987166,0.6260059694590662,0.3191142551053912,6.739095007222629,1.645897086454039,-0.112580342,-0.65116156,-0.14249062449999972
76282.0,0.032950344,-1.0658847884999998,6.720889510999999,-1.4851774550090626,0.7890808081191563,0.03639709622108975,6.804965240660324,1.6821787488915987,0.056290171,-0.3579427249999998,0.019122967499999532
76292.0,0.204174453,-1.001258965,6.72932323,-1.533140848183119,0.9817337416127945,-0.2833576947197834,6.806467355101937,1.8424477151185648,0.171224109,0.0646258234999999,0.008433719000001005
76302.0,0.43041386849999996,-0.7462860649999999,6.662245743999999,-1.6160108263970616,1.1746519651527356,-0.5580812456299509,6.71771667625663,2.07430781394507,0.22623941549999996,0.25497289999999995,-0.06707748600000141
76312.0,0.763153503,-0.455420826,6.695784487,-1.6783627139245592,1.34625448253807,-0.7573943555491992,6.754505259028639,2.280997312813815,0.3327396345,0.29086523899999994,0.03353874300000115
76322.0,0.9858625244999999,-0.1393524965,6.8406287075,-1.6916865574342839,1.4579014494588953,-0.8693083578455796,6.912708958821239,2.396450931264478,0.22270902149999994,0.31606832949999997,0.14484422049999957
76332.0,1.118742632,0.15631800099999998,7.0944248094999995,-1.6373282778809204,1.456836798615179,-0.8733051618326467,7.1837931325825375,2.3592115744526536,0.13288010750000012,0.29567049749999996,0.2537961019999999
76342.0,1.1965093665,0.296356963,7.33145154,-1.529144044196052,1.3366621529691092,-0.7915015797916725,7.43435564100946,2.179775669625887,0.07776673449999993,0.140038962,0.23702673050000023
76352.0,1.1821916575,0.22457228499999998,7.482277816999999,-1.40044346515399,1.1562666668122275,-0.6542733220243663,7.578422735439281,1.9303543933139256,-0.014317708999999956,-0.07178467799999999,0.1508262769999993
76362.0,1.1318835429999998,-0.06393935799999999,7.436774960999999,-1.2855973097142592,0.9582852431122506,-0.5093184916584812,7.522690370935934,1.6824019661949152,-0.05030811450000017,-0.288511643,-0.0455028559999997
76372.0,1.094814406,-0.537992819,7.264374053999999,-1.213386057242246,0.8077331418352197,-0.39873617558137253,7.366083440561143,1.5112012076643326,-0.03706913699999981,-0.47405346099999995,-0.1724009070000001
76382.0,0.9092725879999999,-1.1185464989999998,7.098053269999999,-1.1803452291727412,0.7421838111180687,-0.35370319022141483,7.242947130379391,1.4384566786279656,-0.18554181800000014,-0.5805536799999998,-0.16632078399999983
76392.0,0.6817583079999999,-1.6536953895,6.8873083615,-1.1814098800164579,0.715003798676761,-0.3736889554860019,7.115793652022829,1.4305953907988513,-0.22751427999999996,-0.5351488905000001,-0.21074490849999972
76402.0,0.483075579,-2.0236022275,6.7017665435,-1.185940754754635,0.6840957629531934,-0.4371072391864679,7.017264623323328,1.4371865659084493,-0.19868272899999995,-0.3699068380000001,-0.18554181799999991
76412.0,0.3405849544999999,-2.2893624425,6.5162247255,-1.1627575463003943,0.6510531895544367,-0.5114495386751663,6.915082297238326,1.4273948289518774,-0.14249062450000005,-0.2657602149999998,-0.18554181799999991
76422.0,0.26997707449999997,-2.3935090655,6.295967366499999,-1.1097326982955544,0.619878118455314,-0.5889910266827704,6.740992385948763,1.400951809634741,-0.07060787999999996,-0.1041466230000001,-0.22025735900000054
76432.0,0.33577969599999996,-2.294167701,6.1594587985,-1.041251214435053,0.6084200319159714,-0.6614675692010868,6.58140457159234,1.3754702366477796,0.06580262149999999,0.09934136449999986,-0.1365085679999991
76442.0,0.44836003799999996,-2.1863926175,6.244482454,-0.9570495500018386,0.6233408516912707,-0.7059664838099344,6.631357366320091,1.3427160291025362,0.112580342,0.10777508349999998,0.08502365549999968
76452.0,0.5740812909999999,-2.051158914,6.4863144429999995,-0.8808414935427582,0.615614279092692,-0.7214213743363442,6.827085562128856,1.2943382389154665,0.12572125299999998,0.13523370349999997,0.24183198899999958
76462.0,0.635078654,-2.0403715989999998,6.656263687499999,-0.8318117041957336,0.5695166428890176,-0.7131624763159069,6.990871722203416,1.234852475152244,0.06099736300000003,0.010787315000000408,0.1699492444999997
76472.0,0.7763924805,-2.064299825,6.8023827725,-0.791042558198398,0.514624292584544,-0.6865147892964576,7.15098108198286,1.1670000202750501,0.14131382650000002,-0.02392822600000022,0.14611908500000048
76482.0,0.8003207065,-2.121766794,6.858574877,-0.7489417259817908,0.4661285739886296,-0.6532069258513978,7.223742582954438,1.097665178633945,0.023928225999999997,-0.057466969000000034,0.056192104500000006
76492.0,0.72373077,-2.168446448,6.918493508499999,-0.7025770544025614,0.4170987846416049,-0.6012467286902746,7.286391332645072,1.014437549720652,-0.07658993650000001,-0.04667965400000007,0.05991863149999954
76502.0,0.7260843659999999,-2.3946858635,7.051373615999999,-0.6663387831434032,0.38139283880430486,-0.5612786888196045,7.482218171359164,0.9510529101660392,0.002353595999999958,-0.22623941549999982,0.13288010750000012
76512.0,0.6578300819999999,-2.5036377450000002,7.181802060999999,-0.6492851710221665,0.3547468971141075,-0.5394289119138874,7.634082997869269,0.9156419307403805,-0.068254284,-0.10895188150000035,0.13042844499999973
76522.0,0.576434887,-2.6233769415,7.235640569499999,-0.652215578836265,0.3371609595710126,-0.5005237775576818,7.718087729945733,0.8885869264378032,-0.08139519499999992,-0.11973919649999987,0.05383850850000016
76532.0,0.44600644199999995,-2.6903563609999996,7.3937237675,-0.654348371182202,0.32010734744977604,-0.4488306157721138,7.880614839311274,0.8556222451610918,-0.13042844500000006,-0.06697941949999953,0.1580831980000008
76542.0,0.296356963,-2.7765568144999997,7.5588677534999995,-0.6287670803357212,0.2692135464616213,-0.40033489717619936,8.058137310108776,0.7925225579183401,-0.14964947899999997,-0.08620045350000005,0.16514398599999947
76552.0,0.16102519299999998,-2.875898179,7.60799907,-0.5794720009423934,0.17435141095722553,-0.35050574703176124,8.135008868948889,0.6993143020711428,-0.13533177,-0.0993413645000003,0.049131316500000466
76562.0,0.204174453,-2.9369936084999995,7.586424439999999,-0.519251160431581,0.05177868291891577,-0.3147998011944612,8.137656569766078,0.6094273660137305,0.04314926000000002,-0.061095429499999465,-0.021574630000000816
76572.0,0.357354326,-2.9381704065,7.507382840999999,-0.44437479019177223,-0.06759660192974039,-0.3020100284358468,8.069779710331908,0.5415240641248091,0.153179873,-0.0011767980000003675,-0.07904159899999996
76582.0,0.5380908855,-2.8962960109999996,7.460703187,-0.3660356867160068,-0.14007314444805694,-0.3057397970473587,8.0212321016727,0.4970708533436506,0.18073655949999995,0.04187439550000027,-0.04667965399999918
76592.0,0.6949972855,-2.7801852749999996,7.40205942,-0.3084799639729898,-0.15739379194484865,-0.31586619736742977,7.9374388216470635,0.4687260911821695,0.1569064,0.11611073599999999,-0.0586437670000004
76602.0,0.8302309889999999,-2.652110426,7.3733259355,-0.2964895520117887,-0.12648401089202907,-0.3177319543378117,7.879651550538942,0.45261225598829224,0.13523370349999997,0.12807484899999944,-0.028733484500000017
76612.0,1.0253833239999999,-2.5119733975,7.4200055895,-0.30794763855113155,-0.06999468432198058,-0.31186939338036274,7.900500253724204,0.4438395233076788,0.19515233499999995,0.14013702850000032,0.04667965400000007
76622.0,1.1462993184999999,-2.4150836955,7.429616106499999,-0.322868458326431,-0.04414635809994457,-0.28895322030167725,7.895937365115539,0.43553060264266674,0.12091599450000001,0.09688970199999991,0.009610516999999597
76632.0,1.234853368,-2.3348652985,7.318310629,-0.33485887028763206,-0.04308170725622803,-0.23592662696758548,7.780368195987566,0.41188332064156563,0.08855404950000012,0.08021839699999989,-0.1113054774999993
76642.0,1.2037662875,-2.261805756,7.185430521499999,-0.34098846662063614,-0.050542989808503795,-0.16398240987112725,7.6285798371715305,0.3817302174759258,-0.031087080500000086,0.07305954250000024,-0.132880107500001
76652.0,1.1007964625,-2.239054328,7.099230068,-0.3305967762542619,-0.08491550409728012,-0.09097179660170043,7.52490429799498,0.3532431727333833,-0.10296982499999996,0.02275142799999985,-0.08620045349999916
76662.0,0.9918445809999998,-2.2462131825,6.974685612999999,-0.30768060317557633,-0.14780146237588782,-0.028352873698647883,7.394286222096425,0.34251497966937,-0.10895188150000013,-0.007158854500000089,-0.12454445500000055
76672.0,0.9068209254999999,-2.2929909029999997,6.867008595999999,-0.27730314754461505,-0.2138831185148971,0.01534668011278614,7.296296219980608,0.3505403608919981,-0.0850236554999999,-0.04677772049999973,-0.10767701700000032
76682.0,0.9332008139999999,-2.470099002,6.731676826,-0.2602495354233785,-0.26531099025416205,0.04012861016185362,7.231025219748379,0.37380482553232297,0.02637988849999995,-0.17710809900000024,-0.13533176999999874
76692.0,0.8948568124999999,-2.6066075699999995,6.4444400475,-0.25012488043255937,-0.3023486223107337,0.05185198674749954,7.008992742518768,0.3958102749478134,-0.03834400149999995,-0.13650856799999955,-0.2872367785000005
76702.0,0.832584585,-2.7107541929999996,6.103266694,-0.22294486799125166,-0.310876301035978,0.0515849513719444,6.72987739294977,0.38601748136256026,-0.062272227499999944,-0.1041466230000001,-0.34117335349999944
76712.0,0.6494944294999999,-2.7861673314999997,5.814755051,-0.16752019226491974,-0.2778354729664733,0.031867966812164465,6.480428050383661,0.32599253390794214,-0.18309015550000007,-0.07541313850000009,-0.28851164300000054
76722.0,0.4088392385,-2.7742032184999994,5.629213233,-0.08358556320726045,-0.21574887548527905,-0.005171410573659199,6.288989954122627,0.23143220851290067,-0.24065519099999994,0.011964113000000332,-0.18554181799999991
76732.0,0.277135929,-2.7310539585,5.5573304885,0.01100953692158023,-0.14087250524547032,-0.05499881538884531,6.198337051644809,0.15162830320075138,-0.13170330949999998,0.04314925999999941,-0.07188274449999987
