timestamp,ax,ay,az,gx,gy,gz,acc_mag,gyro_mag,dax,day,daz
59952.0,-0.8026743025,-0.944968794,11.846237067,-0.046052257643122374,0.46585630262531846,0.12541237873130454,11.910943904875568,0.48463508939077554,0.0,0.0,0.0
59962.0,-1.042054629,-1.5063995065,12.2376204685,-0.018605209826259555,0.3395538059754968,0.023890066801298383,12.373943270197012,0.34090127057096015,-0.23938032649999985,-0.5614307125,0.39138340149999884
59972.0,-0.5500549985,-1.6535973229999998,12.645871307999998,0.007508406442079606,0.24415934504924275,-0.07336840576608564,12.7653831022224,0.25505506249990734,0.49199963049999995,-0.14719781649999986,0.4082508394999991
59982.0,-0.390893069,-1.445304077,13.124730027499998,0.010438814256178085,0.2244423604894628,-0.15730478015299693,13.209853881142864,0.2742774797247117,0.15916192949999997,0.20829324599999977,0.4788587194999998
59992.0,-0.564470774,-0.994002044,13.5879961735,0.004843288674284265,0.22417532511390767,-0.1903456082225016,13.635993081885418,0.2941249469268167,-0.17357770500000003,0.45130203300000005,0.46326614600000227
60002.0,-0.6985276794999999,-0.7702142909999999,14.0763673435,0.011238175053591488,0.16901768476313087,-0.15996815259154026,14.114718862316796,0.2329873047716861,-0.13405690549999993,0.2237877530000001,0.48837116999999886
60012.0,-0.6458659689999999,-0.94732239,14.5264925785,0.01976410844958379,0.07255857299316026,-0.10720859463300368,14.571669403116555,0.1309543785476239,0.052661710500000014,-0.17710809900000002,0.4501252349999998
60022.0,-0.48425237699999996,-1.290947406,14.776660219999998,0.005375614096142535,-0.009512044423369097,-0.06750584480863668,14.840846769204871,0.0683843205665636,0.16161359199999997,-0.34362501599999995,0.25016764149999915
60032.0,-0.334602898,-1.52199208,14.935920215999998,-0.015142476590302803,-0.05721014755112212,-0.06484247237009333,15.016994762256866,0.0877886200095169,0.14964947899999997,-0.23104467400000006,0.1592599959999994
60042.0,-0.11189387649999999,-1.6284922990000001,15.061641469,-0.023935445361850233,-0.08145800684907935,-0.09228777485770416,15.149836670677375,0.12540074087772,0.2227090215,-0.10650021900000017,0.1257212530000018
60052.0,-0.010198915999999999,-1.5422918454999999,15.201680431,-0.028731610146330654,-0.09451481498324893,-0.11626859878010624,15.279720418935412,0.15256782994854398,0.10169496049999999,0.08620045350000027,0.1400389620000002
60062.0,0.036480738,-1.31605243,15.328578482,-0.0516477832250162,-0.1059711561933397,-0.1152039479363897,15.38501358860587,0.16483121390422947,0.046679654,0.22623941549999982,0.1268980509999995
60072.0,0.137096967,-1.2035701545,15.500979389,-0.12226031410220278,-0.11636459188896595,-0.0917537041065939,15.548239087220345,0.19211206330456002,0.10061622899999999,0.11248227550000012,0.1724009070000001
60082.0,0.245950782,-1.2155342675,15.6385666885,-0.2490951361738827,-0.15739902793260463,-0.058712876037089246,15.687663414712052,0.3004497340191211,0.10885381500000002,-0.01196411300000011,0.13758729949999982
60092.0,0.31302826799999994,-1.1916060415,15.570410470999999,-0.41350340638249655,-0.2543922104536855,-0.008351400470792867,15.619077882196912,0.485561746556773,0.06707748599999994,0.023928225999999997,-0.06815621750000034
60102.0,0.38481294599999993,-1.178367064,15.3106323125,-0.5693839978658661,-0.3852238365124324,0.05906368721674011,15.360732135855317,0.6899884494618086,0.07178467799999999,0.013238977500000138,-0.25977815849999963
60112.0,0.41354643049999995,-1.1999416939999998,14.831773593,-0.6852948041493135,-0.5288487259882978,0.1352717436758205,14.885979599381123,0.8761326316320998,0.028733484500000017,-0.021574629999999928,-0.4788587194999998
60122.0,0.473465062,-1.2238699199999998,14.155408942499998,-0.7529769272124016,-0.6250408023827132,0.21201212555675916,14.216104567546779,1.0012988559568772,0.05991863150000004,-0.023928225999999997,-0.6763646505000018
60132.0,0.590752596,-1.293301002,13.5652447455,-0.77376030794515,-0.6274388847749535,0.26823616208050455,13.639555752177937,1.0316662284511835,0.11728753399999997,-0.06943108200000014,-0.5901641969999982
60142.0,0.5117109969999999,-1.3196808905,13.045688428499998,-0.7665660607684295,-0.5419037887932154,0.29861361771146583,13.122247992272525,0.9851158990256927,-0.07904159900000007,-0.02637988849999995,-0.519556317000001
60152.0,0.29027684,-1.2741780344999998,12.653030162499999,-0.7540415780561182,-0.41027280193705506,0.3095376334996983,12.720336575758418,0.9125327500968042,-0.2214341569999999,0.04550285600000015,-0.39265826599999976
60162.0,0.0760015375,-1.2896725414999999,12.360988125499999,-0.7428505268923304,-0.28050408139277266,0.29328338217587513,12.428316818328756,0.846477753542724,-0.2142753025,-0.015494507000000102,-0.29204203699999987
60172.0,-0.09394770699999999,-1.2957526645,12.1658357905,-0.7319265111040981,-0.19470369536473142,0.25384766772706324,12.235005583187126,0.7987894497651863,-0.16994924449999999,-0.006080123000000048,-0.1951523349999995
60182.0,-0.1562199345,-1.2861421474999999,11.9814707705,-0.7154052244047197,-0.16032943574670308,0.2021545059414952,12.051315617635153,0.7605107542598418,-0.0622722275,0.00961051700000004,-0.18436501999999955
60192.0,-0.1311149105,-1.2622139215,11.743267242,-0.694354808296416,-0.16326158889005357,0.14886087723184835,11.81163412150978,0.7286580178530206,0.025105024000000004,0.023928225999999997,-0.2382035284999997
60202.0,-0.114345539,-1.0934414749999999,11.363749886999999,-0.6717056705932857,-0.20776050349890102,0.1032955664500324,11.416807813738124,0.7106496385487898,0.01676937149999999,0.1687724465,-0.37951735500000083
60212.0,-0.036480738,-0.9054479944999999,10.9388277425,-0.6402635641186077,-0.27810599900053246,0.0769166601353901,10.976298068796998,0.7022795389475118,0.077864801,0.18799348049999998,-0.4249221445
60222.0,0.1442558215,-0.7091188614999999,10.558133589499999,-0.5843048176411657,-0.3290015453179391,0.08118049949801225,10.582903391579261,0.6754586665659229,0.1807365595,0.196329133,-0.3806941530000003
60232.0,0.315381864,-0.424235679,10.1870499535,-0.5246180478814635,-0.3369951532920731,0.10116451943334731,10.20075626542371,0.6316835358765379,0.17112604250000002,0.28488318249999994,-0.37108363599999805
60242.0,0.475818658,-0.22074769149999998,9.9595356735,-0.4923765806093723,-0.2948943210754659,0.14859558718554522,9.973338647129285,0.5928558056274347,0.160436794,0.2034879875,-0.22751428000000118
60252.0,0.5704528305,-0.0626644935,9.7967452835,-0.5160903691562193,-0.21442242525376337,0.2237372474716571,9.813539698821755,0.6019838880681957,0.09463417249999995,0.15808319799999998,-0.16279038999999962
60262.0,0.6445911044999999,-0.07943386499999999,9.643565410499999,-0.602958896686481,-0.11716395268637934,0.30420914329335963,9.665410558145028,0.6854414823788785,0.07413827399999995,-0.01676937149999999,-0.1531798730000009
60272.0,0.7332432205,-0.24467591749999998,9.513038899,-0.7391207582808187,-0.040421825476188666,0.3521725364674158,9.544392124116696,0.819731001450069,0.08865211600000011,-0.1652420525,-0.1305265114999994
60282.0,0.754719784,-0.378732823,9.359859025999999,-0.8771483768455383,0.02006430508092681,0.3575010266737545,9.39787217885901,0.9474169279751822,0.021476563499999934,-0.13405690550000002,-0.1531798730000009
60292.0,0.7440305355,-0.355981395,9.1455837235,-0.9733404532399538,0.06269920804864429,0.3436448577421715,9.182701445374922,1.0341250489452052,-0.01068924849999997,0.022751428000000018,-0.21427530249999904
60302.0,0.7559946485,-0.39305053199999995,8.8929644195,-1.011711516845049,0.050708796087443254,0.3396480537551045,8.93369088315457,1.0684064656006056,0.011964112999999998,-0.037069136999999974,-0.25261930399999954
60312.0,0.8289561244999999,-0.38353808149999996,8.679865914999999,-0.9911934261586037,0.008606218541584039,0.35856742284672305,8.727791359713265,1.0540915860514957,0.07296147599999991,0.009512450499999991,-0.21309850450000134
60322.0,0.8098331569999999,-0.23143693999999998,8.458431758,-0.9347040995885553,-0.0492147942477361,0.386279760709889,8.500262384427678,1.012573900164619,-0.019122967499999977,0.15210114149999998,-0.22143415699999913
60332.0,0.8576896089999999,-0.1787752295,8.126770855,-0.8779477376429516,-0.1059711561933397,0.4291799537239096,8.173860567549877,0.9829636558163214,0.047856451999999994,0.052661710499999986,-0.3316609029999995
60342.0,1.018126403,-0.2434991195,7.840710874499999,-0.835047544628931,-0.11769627810823761,0.4814071862605879,7.910285722474602,0.9710353725043566,0.160436794,-0.06472389,-0.28605998050000103
60352.0,1.1653242195,-0.38108641899999995,7.6312408304999995,-0.7950777594290088,-0.08865225402579997,0.5307022656539158,7.7291037001964105,0.9600274790091725,0.14719781650000008,-0.13758729949999995,-0.2094700439999997
60362.0,1.1772883324999999,-0.45895122,7.4851217455,-0.7575060566213269,-0.056943112175566996,0.5698726900564245,7.59102704415793,0.9496382609785569,0.011964112999999887,-0.07786480100000004,-0.1461190849999996
60372.0,1.1066804525,-0.565451439,7.396567696,-0.7212677853621686,-0.041488221649157206,0.6005154357336889,7.500246038319244,0.9394505198738672,-0.07060787999999985,-0.10650021899999995,-0.0885540494999999
60382.0,0.9427132644999999,-0.6265468685,7.1367895374999994,-0.6914244004823176,-0.057475437597425266,0.6167696870575121,7.225997106286499,0.9283188969219409,-0.1639671880000001,-0.06109542950000002,-0.2597781585000005
60392.0,0.811009955,-0.7258882329999999,6.8339601855,-0.6610469448513563,-0.07186393195086652,0.6335562638031936,6.9200912342913625,0.9184448962333085,-0.13170330949999998,-0.09934136449999997,-0.30282935199999983
60402.0,0.812186753,-0.9725254804999999,6.6507719634999996,-0.6042905829057527,-0.042554617822125745,0.6511422013462884,6.770392960711223,0.88936166460032,0.0011767980000000344,-0.24663724749999993,-0.18318822200000007
60412.0,0.777471212,-1.2717263719999998,6.596933454999999,-0.5360761344208064,0.01366941870161959,0.6466130719373632,6.763230031606736,0.8400434153681988,-0.03471554099999996,-0.29920089149999995,-0.05383850850000016
60422.0,0.7224559054999999,-1.512381563,6.7286367645,-0.497705070815711,0.061100486453817486,0.6109071261000633,6.9342478493399105,0.7903487354835229,-0.05501530650000008,-0.2406551910000001,0.13170330950000064
60432.0,0.5835937415,-1.7601956085,6.7800236105,-0.5107618789498806,0.07202450224205,0.5629437329260071,7.029053307113135,0.763525292542621,-0.13886216399999995,-0.24781404549999997,0.051386845999999764
60442.0,0.4698366015,-1.972117315,6.772864756,-0.5715150448825511,0.0464449567248211,0.5077860925752302,7.069772990648201,0.7659199020426973,-0.11375713999999998,-0.21192170650000008,-0.007158854500000089
60452.0,0.41001603649999996,-2.2126744394999998,6.662736076499999,-0.6429269365571513,0.01633453646941493,0.45182909142704003,7.032502637788229,0.7859843450681562,-0.05982056500000005,-0.24055712449999977,-0.11012867950000071
60462.0,0.3549026635,-2.4365602589999997,6.4544428305,-0.6999503338783098,-0.010845475971892763,0.3977378472492318,6.908155618433215,0.805135696252419,-0.055113372999999966,-0.22388581949999997,-0.20829324599999932
60472.0,0.257914895,-2.6579944159999997,6.1624007935,-0.7292613933363027,-0.019638444743440196,0.3495074186996205,6.716147552598846,0.8089272427411618,-0.09698776850000002,-0.22143415700000002,-0.29204203699999987
60482.0,0.2017227905,-2.8890390899999994,5.893012118,-0.7220671461595821,-0.006314601233715485,0.30980466887525343,6.566188450741417,0.7857479052524986,-0.05619210449999998,-0.23104467399999962,-0.2693886755000001
60492.0,0.14906107999999998,-3.1858863855,5.721788008999999,-0.6802316039892781,0.025394540616517497,0.2706342444727447,6.550644951973904,0.7325317822731539,-0.052661710500000014,-0.29684729550000055,-0.17122410900000062
60502.0,0.054426907499999996,-3.440957352,5.54467991,-0.6237422774192295,0.05550496087192367,0.22107212970386173,6.525842864404603,0.6640844192219253,-0.09463417249999999,-0.25507096649999994,-0.1771080989999989
60512.0,-0.046091255,-3.6336580245,5.447692141499999,-0.5699163232877243,0.06642897666015618,0.16138535994415967,6.548507059732131,0.5960391420823128,-0.1005181625,-0.1927006725,-0.0969877685000009
60522.0,-0.06648908699999999,-3.8191998424999998,5.404640948,-0.5067650749628135,0.06962641984980979,0.08251218571728391,6.6182212121113375,0.5181379549261099,-0.02039783199999999,-0.18554181799999991,-0.04305119349999931
60532.0,-0.0042168595,-3.9269749259999998,5.38188952,-0.45613656402096203,0.07708770240208555,-0.00062482787221397,6.662273234926842,0.46260509001561106,0.062272227499999985,-0.10777508349999998,-0.022751428000000296
60542.0,0.034127142,-3.984441895,5.2513630085,-0.42416213212442594,0.10613172648452318,-0.06750584480863668,6.591946247011913,0.44241891548424145,0.0383440015,-0.057466969000000034,-0.1305265114999994
60552.0,0.1442558215,-3.9904239514999995,5.2980426624999994,-0.4065744492520791,0.17408088492316642,-0.11546923798269285,6.634270804573144,0.4570996414356151,0.11012867949999999,-0.005982056499999722,0.04667965399999918
60562.0,0.2352615335,-3.9891490869999995,5.460833052499999,-0.38472467234636204,0.262546388719003,-0.14877710142775263,6.766783287111695,0.48895634329728177,0.09100571200000002,0.001274864500000028,0.16279038999999962
60572.0,0.22084575799999998,-3.9197180049999996,5.718257614999999,-0.35061744810388884,0.31317315433160253,-0.16769647051937117,6.936240497492373,0.4991313712175816,-0.014415775500000033,0.06943108199999992,0.2574245624999998
60582.0,0.20888164499999998,-3.7329993889999997,6.0594309685,-0.29945661174017907,0.31583827209939785,-0.1687628666923397,7.120085648495327,0.46680722103654104,-0.011964112999999998,0.18671861599999984,0.3411733535000012
60592.0,0.1681840475,-3.5654037405,6.4328682005,-0.2466970537816425,0.27373743988279065,-0.1469113444573707,7.356778030606128,0.3967046325270216,-0.04069759749999999,0.16759564849999986,0.3734372319999997
60602.0,0.1454326195,-3.5210776824999996,6.716574584999999,-0.21472262188510638,0.18900170469846594,-0.09974905740997993,7.5849530551534805,0.3029477235140082,-0.02275142799999999,0.044326058000000224,0.2837063844999994
60612.0,0.21251010549999996,-3.6049245399999994,6.890250356499999,-0.2008664529535234,0.0837496241569479,-0.04299095013512433,7.779215349846165,0.22183226379875587,0.06707748599999996,-0.08384685749999976,0.17367577150000013
60622.0,0.230456275,-3.6695503635,6.881816637499999,-0.19367220577680277,-0.01910437399232993,0.01456477260789268,7.802442578905765,0.1951564321184692,0.017946169500000025,-0.06462582350000057,-0.008433719000000117
60632.0,0.23163307299999997,-3.7401582435,6.81954441,-0.16356178552139658,-0.08598713625800464,0.07052177375608289,7.781299603979446,0.19778666754486798,0.001176797999999979,-0.07060787999999985,-0.06227222749999939
60642.0,0.22800461249999998,-3.834792416,6.842295838,-0.09374861544162343,-0.10623819156889483,0.10942516278303648,7.846950446628583,0.17902296639019424,-0.003628460499999986,-0.09463417250000017,0.022751428000000296
60652.0,0.21966896,-3.873038351,6.9440888649999994,-0.007681194038027044,-0.10144202678441441,0.12088324932237926,7.954184476445166,0.1579944477085071,-0.008335652499999985,-0.03824593499999995,0.10179302699999937
60662.0,0.15739673249999997,-3.8527385854999996,7.133259143499999,0.05493772886502551,-0.0873188224772763,0.12248197091720606,8.10874554711939,0.1601392019819896,-0.06227222750000003,0.020299765500000344,0.1891702784999998
60672.0,0.18730701499999997,-3.9125591504999995,7.305561983999999,0.07732157652185279,-0.06946584955862631,0.12434598255833601,8.289417285074716,0.16206805307994676,0.029910282499999996,-0.05982056499999988,0.17230284049999955
60682.0,0.2507560405,-4.02268783,7.467175576,0.07012558401588016,-0.03003013510981443,0.12701110032613133,8.485493919171015,0.1481594619129557,0.06344902550000003,-0.11012867950000027,0.16161359200000103
60692.0,0.229279477,-4.1040830249999996,7.674292024,0.05200732105092703,0.02992367002544278,0.13154197506430865,8.705792590241083,0.14458035369477065,-0.02147656349999999,-0.08139519499999981,0.20711644799999984
60702.0,0.139450563,-4.150762679,7.889744124499999,0.042947316903824466,0.0837496241569479,0.13580406909767878,8.916071984174563,0.16523079845826164,-0.08982891400000001,-0.04667965400000007,0.2154521004999994
60712.0,0.014906108,-4.205876052,8.100489032999999,0.04454603849865127,0.10213492249745616,0.13793686144361586,9.127296320959239,0.17732024612096606,-0.124544455,-0.05511337300000019,0.21074490849999972
60722.0,-0.060507030499999996,-4.2681482795,8.2441564555,0.05440540344316724,0.0805521809672943,0.14326535164995455,9.283688194855591,0.17312874621444777,-0.07541313849999999,-0.06227222750000028,0.14366742250000186
60732.0,-0.137096967,-4.3183583275,8.4296982735,0.07438942337850231,0.05150815688485665,0.14646279483960817,9.472424568467044,0.17215756390147435,-0.07658993649999998,-0.050210048000000285,0.18554181799999903
60742.0,-0.19574073399999997,-4.3877894095,8.588860203,0.0930417570945657,0.020598375832037077,0.1477962263881318,9.646736749997089,0.17585444601924036,-0.058643766999999986,-0.06943108199999948,0.15916192949999974
60752.0,-0.20888164499999998,-4.519492719,8.738509682,0.10663089065059356,-0.014575244583404645,0.14459703786922623,9.840274256397516,0.18025228973901927,-0.013140911000000005,-0.13170330949999975,0.1496494790000007
60762.0,-0.1874050815,-4.6307981965,8.824710135499998,0.11595793017325126,-0.04575206101177935,0.1272781357016865,9.967693894621569,0.1781550349683868,0.02147656349999999,-0.1113054775000002,0.08620045349999828
60772.0,-0.1766177665,-4.6392319155,8.795976650999998,0.11249345160804253,-0.0638703239767325,0.09290387608365817,9.945997780322212,0.15926495261340923,0.010787314999999992,-0.008433719000000117,-0.028733484500000017
60782.0,-0.140627361,-4.6284446005,8.797153449,0.10130240044425487,-0.06253863775746082,0.05266880083743288,9.94143773705856,0.13018164283024025,0.03599040549999999,0.010787314999999964,0.0011767980000012557
60792.0,-0.12866324799999998,-4.5698008334999995,8.78283574,0.08744623151267189,-0.045485025636224224,0.014297737232337548,9.901405835792438,0.09959998118905826,0.011964113000000026,0.0586437670000004,-0.014317709000000178
60802.0,-0.08198359399999999,-4.511157066499999,8.734979288,0.07225837636181724,-0.024966934949778887,-0.023273965575344384,9.831435426737391,0.07991431829675352,0.04667965399999999,0.0586437670000004,-0.04785645199999955
60812.0,-0.0377556025,-4.4070104435,8.667901802,0.053339007270198704,-0.008979719001510825,-0.058180550615230975,9.723974916861573,0.07943967220355241,0.044227991499999994,0.10414662299999922,-0.06707748600000052
60822.0,0.011375713999999999,-4.286094449,8.542180549,0.034419638178580174,0.01180366173123765,-0.07923096672353458,9.55717445505373,0.08718706332108968,0.049131316499999994,0.12091599449999979,-0.12572125300000003
60832.0,0.024516625,-4.224999019499999,8.448821241,0.022162190841823998,0.048043678319647905,-0.09441882187438924,9.446364281672082,0.10823248890023215,0.013140911000000002,0.0610954295000008,-0.09335930800000014
60842.0,0.0042168595,-4.1520375435,8.391354272,0.030956904942623424,0.08614770654918812,-0.1112053986200707,9.36238538315691,0.1440360996054825,-0.0202997655,0.07296147599999969,-0.057466969000000034
60852.0,-0.09277090899999998,-4.0371036055,8.3614439895,0.057335811257265716,0.09547300074259382,-0.12692732452203562,9.285502547123848,0.16885803159354387,-0.09698776849999999,0.11493393800000007,-0.029910282499999497
60862.0,-0.1801481605,-3.8862773284999994,8.332710505,0.09171007087529404,0.06030112565640409,-0.13572029329358307,9.196176879218992,0.17454787557308482,-0.0873772515,0.15082627700000018,-0.028733484500000017
60872.0,-0.2136869035,-3.7485919624999995,8.2453332535,0.12848066755631057,-0.004715879638888678,-0.13971709728065007,9.059973744736787,0.18986939913797143,-0.03353874300000001,0.13768536599999992,-0.08737725149999953
60882.0,-0.21251010549999996,-3.6216939115,8.122063662999999,0.16178853100137036,-0.06946584955862631,-0.14291454047030366,8.895490176452377,0.2267721298932502,0.0011767980000000344,0.1268980509999995,-0.12326959050000141
60892.0,-0.1777945645,-3.5486343689999997,7.972414184,0.19269831205418994,-0.1230247683145763,-0.14291454047030366,8.728333444206754,0.2696150940975434,0.03471554099999996,0.07305954250000024,-0.14964947899999892
60902.0,-0.11915079749999999,-3.4863621415,7.861010639999999,0.22200937151218272,-0.16139583191967163,-0.14291454047030366,8.60025616923255,0.30945329450195763,0.05864376700000001,0.06227222749999983,-0.11140354400000074
60912.0,-0.058055367999999996,-3.4037901484999997,7.7161664194999995,0.23933001900897444,-0.18724241281245566,-0.1447802974406856,8.433764403526975,0.3366005253734455,0.06109542949999999,0.08257199300000018,-0.14484422049999957
60922.0,0.016180972499999998,-3.3343590665,7.5629865464999995,0.23879769358711617,-0.1976358485080819,-0.1431815758458588,8.265408502352548,0.3414457947313733,0.0742363405,0.06943108199999992,-0.15317987300000002
60932.0,0.070019481,-3.226583983,7.311544040499999,0.22360809310700952,-0.20509538573110564,-0.13572029329358307,7.992147595186335,0.332392380422356,0.05383850849999999,0.10777508349999998,-0.25144250600000007
60942.0,0.05687856999999999,-3.0877218189999995,7.0650048595,0.2009589554038791,-0.2138900998319051,-0.1330569208550397,7.710483439318998,0.3222384532462644,-0.013140911000000005,0.1388621640000003,-0.24653918099999927
60952.0,0.059232165999999996,-2.9692574869999997,6.795616184,0.18310598248522908,-0.23200836279685824,-0.13572029329358307,7.416225306302211,0.3252317316026464,0.0023535960000000064,0.11846433199999984,-0.2693886755000001
60962.0,0.06521422249999999,-2.8495182905,6.516715058,0.18124022551484717,-0.2527934888588587,-0.14051645807806348,7.112776007289577,0.34131721659610254,0.005982056499999992,0.11973919649999987,-0.27890112600000005
60972.0,-0.0030400615,-2.725071902,6.295280900999999,0.20442343396908785,-0.26558326161747314,-0.1493094268496109,6.859780443683251,0.36690150470289506,-0.06825428399999998,0.1244463885,-0.2214341570000009
60982.0,-0.034127142,-2.6280841335,6.1778953005,0.2515874663457306,-0.2815704775657412,-0.16130158414006393,6.713745692124145,0.41060490511555975,-0.0310870805,0.09698776850000002,-0.11738560049999869
60992.0,-0.054524974,-2.484416711,6.0713950815,0.29368829856233786,-0.29915641510883606,-0.17782112551019028,6.560269628784182,0.45537647072605975,-0.020397831999999998,0.14366742249999964,-0.10650021899999995
61002.0,-0.115522337,-2.3252547814999995,5.836721947,0.30008318494164504,-0.3204738665926948,-0.20207073013739948,6.283906292731141,0.48330735255306806,-0.060997363000000006,0.15916192950000063,-0.23467313450000038
61012.0,-0.0030400615,-2.3060337475,5.669126298499999,0.28995852995082594,-0.3303332315372108,-0.23750964059914434,6.12019557489196,0.4996066676162311,0.1124822755,0.019221033999999637,-0.16759564850000075
61022.0,0.348920607,-2.5370784215,5.651180128999999,0.2792998042088966,-0.2948943210754659,-0.288403441587299,6.204381464516397,0.49814414214470754,0.3519606685,-0.23104467400000006,-0.017946169500000053
61032.0,0.6638121385,-2.7478233299999997,5.6559853874999995,0.26197915671210487,-0.1968364877106685,-0.34809195667625303,6.323080761126316,0.4780645267624028,0.3148915315,-0.21074490849999972,0.004805258500000242
61042.0,0.867300126,-2.821961604,5.763760471,0.22947065406445846,-0.04575206101177935,-0.41230960117413246,6.475848328217086,0.47407725043917487,0.20348798749999997,-0.0741382740000005,0.10777508350000087
61052.0,0.9630130299999999,-2.7908745235,5.938514973999999,0.17937621387371722,0.13677621749103963,-0.47119701013642107,6.631917882354496,0.5224080609411844,0.09571290399999999,0.031087080500000308,0.17475450299999906
61062.0,0.7727640199999999,-2.6664281349999994,6.225849819,0.13141282069966104,0.28919233040920045,-0.5093010383659613,6.816759435279233,0.6002408525686933,-0.19024901000000005,0.12444638850000045,0.28733484500000017
61072.0,0.3968751255,-2.3802700879999996,6.3718708375,0.10370048283649509,0.3504778217637293,-0.5319501760690918,6.81351110124957,0.6454141953108161,-0.3758888944999999,0.2861580469999998,0.14602101850000082
61082.0,-0.03530394,-2.0319378799999996,6.3599067245,0.10343344746093996,0.3059789071548819,-0.5306184898498201,6.676708130560953,0.6211904309049315,-0.43217906549999996,0.348332208,-0.011964113000000332
