timestamp,ax,ay,az,gx,gy,gz,acc_mag,gyro_mag,dax,day,daz
35372.0,-0.137096967,-0.390696936,14.780288680499998,0.3323246522137363,0.47198589895832255,-0.11786732037493307,14.786087148163194,0.5891545370247468,0.0,0.0,0.0
35382.0,-0.16102519299999998,-0.462481614,15.478227961,0.42452166995033674,0.187135947728084,-0.11706795957751964,15.485972981015786,0.4784803217992926,-0.023928225999999997,-0.07178467799999999,0.6979392805000018
35392.0,0.5728064264999999,-0.7582501779999999,15.937865646499999,0.48474251046114913,0.018465583486100008,-0.1423822150484454,15.966170859055767,0.5055580821070524,0.7338316194999999,-0.29576856399999996,0.45963768549999884
35402.0,0.9977285709999999,-0.5810440124999999,16.382008825,0.4599605804120816,-0.06520375552525616,-0.1903456082225016,16.422645572143047,0.5020425438518238,0.4249221445,0.1772061655,0.44414317850000096
35412.0,1.0719649115,-0.135724036,16.6896434355,0.2715714862810657,-0.09637882662437887,-0.20207073013739948,16.724584532644258,0.35195529596904895,0.07423634050000016,0.44531997649999994,0.3076346104999992
35422.0,0.8756357784999999,0.25693423,16.6321764665,-0.05884203040173683,-0.0849207400850361,-0.10161306905110987,16.657192057124494,0.14491077406588787,-0.1963291330000002,0.392658266,-0.057466969000000034
35432.0,0.6697941949999999,0.32754211,16.194113411,-0.4217640497321857,-0.07586248126718552,0.06412688737677566,16.211268218921337,0.43330392035514903,-0.20584158349999992,0.07060788000000001,-0.4380630554999989
35442.0,0.5691779659999999,-0.077080269,15.515297098,-0.729793718758161,-0.05880886914594893,0.2042855529581803,15.52592505984929,0.7601249516865767,-0.100616229,-0.404622379,-0.6788163130000004
35452.0,0.4243337455,-0.6265468685,14.734785824499998,-0.9285745032555511,-0.014575244583404645,0.26450639346899263,14.754203922946276,0.9656224303716919,-0.1448442204999999,-0.5494665995,-0.7805112735000019
35462.0,0.1550431365,-0.967720222,13.968690326499999,-1.0007857557275646,0.03178942699582472,0.249316792988886,14.003029323682005,1.0318631497452453,-0.269290609,-0.3411733535,-0.7660954979999985
35472.0,-0.070019481,-1.210729009,13.3114486435,-0.9576202726672408,0.0339204740125098,0.1936268272162509,13.36657893589424,0.9775881205284492,-0.2250626175,-0.24300878700000006,-0.6572416829999987
35482.0,-0.20289958849999998,-1.3974476249999999,12.876915982,-0.8307837052663088,-0.008180358204097423,0.1366034298950922,12.954111058467834,0.8419792041704283,-0.13288010749999998,-0.18671861599999984,-0.43453266150000047
35492.0,-0.279489525,-1.491983731,12.4459137145,-0.6807656747403883,-0.08545481083614637,0.08517730348507926,12.53813774198276,0.691375152597175,-0.07658993650000004,-0.09453610600000006,-0.43100226750000026
35502.0,-0.186130217,-1.5530791605,12.030602086999998,-0.5528627111664878,-0.1765836870705263,0.044408157487743724,12.131862425538321,0.5820747893434632,0.09335930800000003,-0.06109542950000013,-0.4153116275000013
35512.0,-0.0736479415,-1.4165705924999998,11.5278151415,-0.44201510504307595,-0.25465750049998864,0.024157102176853518,11.61475863715728,0.5106969367763293,0.11248227549999999,0.13650856800000022,-0.5027869454999987
35522.0,0.090417313,-1.2574086629999999,10.997471509499999,-0.3154455730176991,-0.29969048585994634,0.019093902016817967,11.069491019850089,0.43552826997298705,0.16406525449999998,0.15916192949999997,-0.530343632000001
35532.0,0.30704621149999994,-1.0778489015,10.579708219499999,-0.17342115046591255,-0.27650727740570563,0.024956462974266916,10.638903216037688,0.32734384816492657,0.21662889849999994,0.17955976149999997,-0.4177632899999999
35542.0,0.4231569475,-0.8013013715,10.184598291,-0.055644587212083214,-0.1968364877106685,0.043341761314775185,10.224831932077194,0.20909192058552198,0.11611073600000005,0.2765475299999999,-0.3951099284999984
35552.0,0.576434887,-0.5031792115,9.863822769499999,0.01390329282138683,-0.07372968892124845,0.07851538173021691,9.893455722139919,0.10860033953880151,0.15327793950000002,0.29812216,-0.32077552150000166
35562.0,0.8301329224999999,-0.36314024949999996,9.5741343285,0.04188092073085593,0.08588067117363299,0.11981685314941072,9.616914247823335,0.15325005546858822,0.2536980354999999,0.14003896200000004,-0.28968844099999913
35572.0,1.019303201,-0.3021428865,9.3885925105,0.03761708136823379,0.2827974440298932,0.16165064999046283,9.448594533984835,0.32790299145150237,0.18917027850000012,0.06099736299999997,-0.18554181799999903
35582.0,1.1378655994999998,-0.12375992299999998,9.277188966499999,-0.0034173546754048974,0.47758142454021635,0.21281148635417257,9.347528537598363,0.5228617638564825,0.11856239849999972,0.1783829635,-0.11140354400000163
35592.0,1.306638046,0.022261095499999998,9.2856226855,-0.06923372076811106,0.6486498711744406,0.2780955270250205,9.377131074966362,0.7091382697452868,0.16877244650000023,0.1460210185,0.008433719000001005
35602.0,1.3736174655,-0.010002783,9.502251584,-0.1473075341975734,0.8111923844126725,0.3527048618892741,9.601026516098417,0.8967348068190607,0.06697941949999997,-0.032263878499999996,0.21662889849999978
35612.0,1.228773245,-0.16808598099999997,9.8410713415,-0.2589545011183987,0.9446891282392148,0.4307786753187364,9.918912326113643,1.0700772167335457,-0.1448442205,-0.15808319799999998,0.3388197574999996
35622.0,0.9390848039999999,-0.23987065899999999,10.1450774915,-0.4116376494121146,0.9977157215733066,0.49206416667326536,10.191271535519634,1.1861742534770892,-0.289688441,-0.07178467800000002,0.3040061500000011
35632.0,0.6553784195,-0.3823612834999999,10.2923733745,-0.5805750490296537,0.960943379563038,0.5512203563403612,10.320303808705566,1.2507291663369062,-0.28370638449999996,-0.14249062449999994,0.14729588299999996
35642.0,0.44708517349999993,-0.5212234475,10.170280582,-0.7580383820431852,0.867948746358276,0.6071773574885513,10.193437406056583,1.3025442635098174,-0.20829324600000004,-0.13886216400000012,-0.12209279250000016
35652.0,0.2364383315,-0.7498164589999999,9.7932148895,-0.9339047387911418,0.7411121789573442,0.6508769112999853,9.824723185856907,1.3583320936350072,-0.21064684199999995,-0.2285930114999999,-0.37706569250000044
35662.0,0.0316754795,-0.9521276484999999,9.175494006,-1.076995557515897,0.631596259053204,0.6665970918726982,9.224816564527535,1.4153391636820194,-0.204762852,-0.20231118949999993,-0.6177208835000005
35672.0,-0.437572723,-1.0346996415,8.791171392499999,-1.1561340217890759,0.5870973444443566,0.656205401506324,8.86266143369723,1.4532497022734512,-0.4692482025,-0.08257199300000018,-0.3843226135000002
35682.0,-1.0133211444999999,-1.269372776,8.5122702665,-1.1649269905606232,0.5580533203619189,0.6141045692897168,8.665845144951572,1.4302457214500246,-0.5757484214999999,-0.23467313449999994,-0.27890112599999917
35692.0,-1.4132363314999998,-1.4585430545,8.4308750715,-1.1182970289350909,0.482642879371,0.4949963198166158,8.672037779077181,1.3147447473044243,-0.39991518699999995,-0.1891702785,-0.0813951950000007
35702.0,-1.479038953,-1.535132991,8.422539419,-1.0074476774824268,0.38991528154179317,0.31859763764680094,8.688116009190761,1.1262722603166049,-0.06580262150000027,-0.07658993650000001,-0.008335652499999568
35712.0,-1.2898686745,-1.4369684244999998,8.405770047499999,-0.8654232549306402,0.31823635449163806,0.14113430463326945,8.624709243905821,0.932818674469582,0.1891702785,0.09816456650000016,-0.016769371500000574
35722.0,-1.0360725725,-1.221516324,8.404495183,-0.7465820408330944,0.276402557650586,-0.004886921905584123,8.555763425104473,0.7961199655680072,0.25379610200000013,0.21545210049999985,-0.0012748644999991399
35732.0,-0.795515448,-1.014399876,8.448821241,-0.6503882191094269,0.23243596846359685,-0.0824284099131882,8.546603553389394,0.6955758461539321,0.2405571245,0.20711644800000006,0.044326057999999335
35742.0,-0.5716296285,-0.9258458264999999,8.574542494,-0.5875040061600711,0.20818810916563962,-0.10614394378928714,8.64330549662791,0.6322735032050928,0.22388581949999997,0.08855404950000001,0.12572125300000003
35752.0,-0.392069867,-1.107759184,8.6750606565,-0.5885686570037877,0.17967641050506025,-0.11573627335824797,8.754286183596008,0.6261721500275146,0.17955976149999997,-0.18191335750000015,0.10051816250000023
35762.0,-0.32381558299999996,-1.2574086629999999,8.8474615635,-0.632535246190777,0.09867044393224743,-0.12186412436200007,8.942231779326173,0.6516805651436374,0.06825428400000005,-0.1496494789999998,0.1724009070000001
35772.0,-0.378928956,-1.384306714,8.933662017,-0.6794322431918646,-0.028698448890542762,-0.11973307734531499,9.048215805677339,0.6904982142395673,-0.05511337300000002,-0.12689805100000018,0.08620045350000005
35782.0,-0.4183516889999999,-1.4608966504999998,8.865407733,-0.7191349930162316,-0.1765836870705263,-0.1034788260214918,8.99470352104323,0.7476929878998888,-0.03942273299999993,-0.07658993649999979,-0.068254284
35792.0,-0.4578724885,-1.5195404175,8.4991293555,-0.7591047782161536,-0.3020885682521865,-0.07017096257643202,8.646030886925114,0.8200131287779208,-0.03952079950000009,-0.05864376700000018,-0.3662783775000005
35802.0,-0.532108829,-1.5638664755,8.1531507435,-0.7878835122522883,-0.38149406790092055,-0.03259925976875008,8.318815132296614,0.8759913609505885,-0.0742363405,-0.044326058,-0.3459786119999997
35812.0,-0.554860257,-1.6668363005,7.844339335,-0.7889481630960048,-0.42119681772528755,-0.006485643500410928,8.038648689928605,0.8943645939358756,-0.022751427999999962,-0.10296982499999996,-0.30881140849999955
35822.0,-0.5010217485,-1.7864774305,7.6599743149999995,-0.7593718135917089,-0.46356468531744993,0.0100338978697154,7.881480248571051,0.8897406632595182,0.05383850849999994,-0.11964112999999998,-0.18436502000000043
35832.0,-0.5835937415,-1.9121986834999998,7.588091570499999,-0.7039471378653769,-0.5509637929403179,0.027087509990951997,7.84705162099691,0.8943357351898377,-0.08257199299999995,-0.1257212529999998,-0.07188274450000076
35842.0,-0.5824169435,-2.0942101075,7.7604924775,-0.6173473910399223,-0.6668745992237654,0.04067664354697984,8.05916676609717,0.9096670388905518,0.0011767980000000344,-0.18201142400000014,0.172400907000001
35852.0,-0.5776116849999999,-2.1216687275,7.786872365999999,-0.5163574045317744,-0.860593928890372,0.03108431397801901,8.091383978793395,1.00409815966032,0.00480525850000002,-0.02745861999999999,0.026379888499999282
35862.0,-0.2723306705,-2.0294862174999997,7.827569963499999,-0.41803253579142186,-0.9727749665623076,0.011100294042683936,8.09097211925766,1.0588510533018036,0.30528101449999995,0.09218251000000022,0.04069759750000035
35872.0,0.1454326195,-2.021150565,7.747351566499999,-0.3724672250096059,-0.9892945079324339,-0.04219158933771092,8.007974559660166,1.0579298593680373,0.41776329,0.008335652499999568,-0.08021839700000033
35882.0,0.3178335265,-1.8319802864999999,7.595250424999999,-0.3820612999078187,-0.9181496516333889,-0.0731013703905305,7.819526772072253,0.9971526613486719,0.17240090700000002,0.18917027850000023,-0.1521011415000002
35892.0,0.4004055195,-1.7110642919999999,7.409708607,-0.461999124978411,-0.775058832908634,-0.09042201788732222,7.615237831614546,0.9068271760756437,0.08257199299999995,0.12091599450000001,-0.18554181799999903
35902.0,0.4111928345,-1.720674809,7.310367242499999,-0.5763112096670316,-0.5784090954279287,-0.09468585724994437,7.521387542580715,0.8219836395116322,0.01078731500000002,-0.00961051700000004,-0.09934136450000075
35912.0,0.43629785849999997,-1.8678726255,7.3188009615,-0.6719709606395888,-0.3700359813615778,-0.0949511472962475,7.565986484291211,0.7729730395156039,0.025105023999999976,-0.14719781650000008,0.008433719000001005
35922.0,0.39324666499999994,-2.092935243,7.3439059855,-0.7281949971633341,-0.1883088089854242,-0.10374586139704695,7.646435509097544,0.7592702846761701,-0.04305119350000003,-0.2250626174999999,0.025105024000000142
35932.0,0.3429385505,-2.261805756,7.500714318999999,-0.7401854091245352,-0.05028119042070464,-0.11680266953121653,7.841816589448225,0.7510296276450066,-0.050308114499999945,-0.1688705129999999,0.156808333499999
35942.0,0.2842947835,-2.3096622079999998,7.712636025499999,-0.7124748165906213,0.0032777283352453507,-0.12612796372462223,8.056060917149843,0.7235602055200374,-0.05864376700000001,-0.047856451999999994,0.21192170650000008
35952.0,0.223199354,-2.2701414085,7.906513495999999,-0.6607799094758012,-0.040955896227298935,-0.11973307734531499,8.22899238234199,0.6727878447275994,-0.06109542949999999,0.03952079949999998,0.19387747049999948
35962.0,0.18730701499999997,-2.3036801515,7.977121376,-0.5904344139741697,-0.15207053772626591,-0.09468585724994437,8.305208703321032,0.617011877691616,-0.03589233900000002,-0.03353874300000026,0.07060788000000162
35972.0,0.22202255599999998,-2.345554547,7.9340701825,-0.5190225222995697,-0.2642498300689495,-0.06750584480863668,8.27649622782254,0.5863185059581556,0.034715541000000016,-0.04187439549999983,-0.043051193500000196
35982.0,0.2735074685,-2.4473475739999997,7.786872365999999,-0.47265785072034033,-0.31567770180821436,-0.04219158933771092,8.166988289918345,0.5699455986998492,0.051484912500000035,-0.10179302699999981,-0.1471978165000012
35992.0,0.34176175249999996,-2.5814044795,7.571322198999999,-0.4713261645010687,-0.31061450164817883,-0.019542451634580505,8.006582918032182,0.5648111448912148,0.06825428399999994,-0.1340569055000005,-0.21555016699999996
36002.0,0.402857182,-2.749000128,7.4241243825,-0.49290890603123055,-0.255456861297402,0.0004415683007545654,7.926974104894249,0.5551734797442948,0.06109542950000002,-0.16759564849999986,-0.1471978164999994
36012.0,0.4183516889999999,-2.8232364684999998,7.228972047499999,-0.48198489024299807,-0.17178752228604588,0.015896458827164353,7.771982961657458,0.5119307420335072,0.015494506999999935,-0.07423634049999972,-0.1951523350000004
36022.0,0.3190103245,-2.8651108639999996,7.2050438214999994,-0.44014934807269396,-0.11849563890565101,0.014030701856782414,7.76036624908153,0.45603675909192876,-0.09934136449999992,-0.04187439549999983,-0.023928225999999775
36032.0,0.3741236975,-2.9106137199999997,7.37263947,-0.38632339394118886,-0.10224138758182783,0.023090706003884978,7.935203432974179,0.4002902031584765,0.05511337300000002,-0.04550285600000015,0.16759564850000075
36042.0,0.36206151799999997,-2.9189493725,7.446875810499999,-0.31038237285766357,-0.12782267842830872,0.03534815334064116,8.006704273235313,0.33752828984536093,-0.012062179500000048,-0.008335652500000457,0.07423634049999883
36052.0,0.3860878105,-3.026724456,7.551022433499999,-0.24083623815344554,-0.18404496962280206,0.03854559653029477,8.14420435163469,0.30554935356376967,0.024026292500000046,-0.10777508349999998,0.1041466230000001
36062.0,0.43629785849999997,-3.060263199,7.6073126045,-0.21285686491472444,-0.2365392375350355,0.03561518871619629,8.21138062271321,0.3201988405698426,0.05021004799999995,-0.033538742999999815,0.056290171000000555
36072.0,0.546426538,-3.1344995395,7.568968602999999,-0.2187194258721734,-0.24986133571550823,0.032950070948400946,8.210539265953006,0.33369833909520097,0.11012867949999999,-0.07423634050000016,-0.0383440015000005
36082.0,0.6685193304999999,-3.2386461625,7.500714318999999,-0.2530919401609497,-0.21228963290782626,0.0278868707883654,8.197344835761136,0.331511833841479,0.12209279249999994,-0.10414662299999966,-0.068254284
36092.0,0.7583482444999999,-3.2913078729999996,7.522288948999999,-0.2930617253608719,-0.12782267842830872,0.027354545366507124,8.245764404047423,0.3208926349174848,0.08982891400000004,-0.05266171049999979,0.021574629999999928
36102.0,0.820620472,-3.2876794124999997,7.598878885499999,-0.31091469827952184,-0.03695734691097993,0.03614751413805456,8.320169120573183,0.3151831814600923,0.062272227500000055,0.003628460499999875,0.07658993649999957
36112.0,0.8062046965,-3.2697332429999997,7.759315679499999,-0.2986572509427657,0.019799015034623675,0.05906368721674011,8.458611074353312,0.30508469919789205,-0.01441577549999995,0.017946169500000053,0.16043679400000066
36122.0,0.670970993,-3.2876794124999997,7.851498189499999,-0.26668281904622954,0.022197097426863883,0.09929876246296539,8.53844610058209,0.28543419790785074,-0.13523370350000008,-0.017946169500000053,0.09218250999999977
36132.0,0.5739832244999999,-3.410949003,7.901708237499999,-0.22458198682962233,-0.016706291600089723,0.14273302622809628,8.625602756541102,0.2666249908834472,-0.09698776850000002,-0.12326959050000008,0.050210048000000285
36142.0,0.5117109969999999,-3.5690322009999997,8.044198862,-0.18061539764263318,-0.05907415919225207,0.16751321094791174,8.815269384858736,0.25332262826671764,-0.062272227500000055,-0.15808319799999992,0.1424906245000006
36152.0,0.43992631899999995,-3.6085530005,8.068127087999999,-0.14144497324012448,-0.08705353243097316,0.16751321094791174,8.849286108590103,0.23589335261022004,-0.07178467799999994,-0.039520799500000425,0.023928225999998887
36162.0,0.4327674645,-3.6288527659999996,8.1555043395,-0.12119391792923426,-0.09238202263731185,0.16005192839563598,8.936896055523917,0.22099552853567095,-0.007158854499999978,-0.020299765499999456,0.08737725150000131
36172.0,0.4447315775,-3.6587630484999996,8.173450508999998,-0.13158560829560847,-0.07746120286201234,0.15552279898671073,8.966026234858283,0.21795034127987956,0.011964112999999998,-0.02991028249999994,0.017946169499998277
36182.0,0.5129858615,-3.7509455584999998,8.093330178499999,-0.1627624247239832,-0.05560968062704333,0.14619575946405303,8.935028844673564,0.22573711162930943,0.06825428400000005,-0.09218251000000022,-0.08012033049999978
36192.0,0.5512317965,-3.8288103595,8.025075894499999,-0.1792819660941095,-0.01484227995895978,0.13633813984878906,8.9087310193412,0.2257219639697864,0.03824593499999995,-0.07786480100000004,-0.068254284
36202.0,0.5010217485,-3.850286923,7.973590982,-0.174220511263326,0.02672622683578917,0.12834278654540304,8.8687025731009,0.21803428309321368,-0.05021004799999995,-0.021476563500000267,-0.051484912499998536
36212.0,0.4566956905,-3.813217786,8.0119349835,-0.15103730280908528,0.06536258048718764,0.12940918271837157,8.884835564996077,0.20935918976635412,-0.04432605800000006,0.03706913700000003,0.038344001499999614
36222.0,0.429139004,-3.825181899,8.0597914355,-0.11719711394216724,0.09813811851038914,0.14699512026146644,8.931764373792587,0.21207031664477585,-0.027556686499999983,-0.011964112999999887,0.04785645199999955
36232.0,0.4148212949999999,-3.9005950374999996,8.102842629,-0.08415628587266258,0.1279815033902402,0.17390809732721899,9.002376187634836,0.23174462664295117,-0.014317709000000067,-0.07541313849999964,0.043051193500000196
36242.0,0.314205066,-3.9604156024999995,8.114806741999999,-0.06390523056177239,0.16128936683529996,0.1973565958277628,9.035137244559937,0.26276941272531734,-0.10061622899999995,-0.05982056499999988,0.011964112999999443
36252.0,0.29390530049999997,-4.0826064615,8.175902171499999,-0.06843435997069766,0.19299850868553295,0.2082823569452473,9.143272508411961,0.292084279265602,-0.02029976550000001,-0.1221908590000007,0.06109542949999991
36262.0,0.21966896,-4.217840164999999,8.206989252,-0.08468861129452085,0.23296829388545512,0.20321915678521174,9.230010980054043,0.3205376928278275,-0.07423634049999997,-0.13523370349999908,0.031087080500000752
36272.0,0.090417313,-4.3303224405,8.252492108,-0.09401390548792656,0.2590819101537943,0.17817193668984116,9.320058675877009,0.3281878876769225,-0.129251647,-0.11248227550000056,0.04550285600000059
36282.0,-0.10591182,-4.339932957499999,8.2812255925,-0.0796254111344853,0.2561497570104438,0.13793686144361586,9.350130090169195,0.30162805217645206,-0.196329133,-0.009610516999999597,0.028733484500000017
36292.0,-0.2711538725,-4.3040406185,8.290836109499999,-0.03192905333598426,0.22124317197055718,0.0931709114592133,9.345386747634294,0.24217519347089667,-0.16524205250000001,0.03589233899999922,0.009610516999998708
36302.0,-0.36215958449999996,-4.210681310499999,8.359090393499999,0.03042283419151316,0.1676842532146072,0.050803043867050944,9.366717080703525,0.1778328059794995,-0.09100571199999996,0.09335930800000103,0.068254284
36312.0,-0.4111928345,-4.031121549,8.3985131265,0.08771326688822702,0.1093291696741768,0.01829454121940456,9.324915185992262,0.14135478332295223,-0.04903325000000003,0.1795597614999993,0.03942273300000032
36322.0,-0.394423463,-3.9077538919999997,8.4308750715,0.12102113033328682,0.05923472948343555,0.00443837228782158,9.300847532340597,0.1348130791603229,0.01676937150000002,0.12336765700000019,0.03236194499999989
36332.0,-0.34656701100000004,-3.8060589315,8.4093004415,0.11595793017325126,0.025659830662820633,0.0012409290981679683,9.237019389314742,0.11876956000901884,0.04785645199999994,0.10169496049999971,-0.021574629999999928
36342.0,-0.345390213,-3.6911249935,8.3243748525,0.07652047039518739,0.00620813614934383,0.0100338978697154,9.112569056079135,0.07742481805215573,0.0011767980000000344,0.11493393800000007,-0.08492558899999914
36352.0,-0.36931843899999994,-3.5989424834999997,8.1447170245,0.022961551639237403,-0.007648032782239152,0.02122494903350304,8.912081604098264,0.03219042902159541,-0.02392822599999994,0.09218251000000022,-0.17965782799999985
36362.0,-0.378928956,-3.5451039749999995,7.9209292714999995,-0.021003292218499763,-0.02230356251123554,0.026555184569093726,8.686338116338872,0.040543371988611375,-0.00961051700000004,0.05383850850000016,-0.22378775300000076
36372.0,-0.3082230095,-3.5654037405,7.718618082,-0.044186500672740436,-0.0492147942477361,0.015896458827164353,8.507888712961282,0.06802382095849087,0.0707059465,-0.020299765500000344,-0.2023111894999996
36382.0,-0.2819411875,-3.5522628294999996,7.524642544999999,-0.034327135728224475,-0.09238202263731185,-0.012615239833415014,8.325761675251119,0.0993576098239049,0.026281821999999955,0.013140911000000255,-0.19397553700000092
36392.0,-0.25203090499999997,-3.547457571,7.2122026759999995,-0.0028850292535466267,-0.14993774538032886,-0.04858822104627014,8.041383104592262,0.157640306102124,0.02991028250000005,0.004805258499999798,-0.3124398689999994
