timestamp,ax,ay,az,gx,gy,gz,acc_mag,gyro_mag,dax,day,daz
24242.0,1.397643758,3.8242012339999993,10.9227448365,0.018469074144603997,0.44987432266480637,0.061179026270157234,11.65694119036769,0.45439067568364755,0.0,0.0,0.0
24252.0,1.3054612479999999,3.47351543,10.5875535395,-0.04068537019323982,0.5018345198259295,0.05851390850236189,11.21899409324458,0.5068698670515984,-0.09218251000000022,-0.3506858039999994,-0.3351912969999997
24262.0,1.3581229584999999,3.5057793084999997,11.023361065499998,-0.09344492815177641,0.574045772297943,0.04359134339781037,11.646865488649414,0.5832329796142004,0.052661710500000014,0.03226387849999979,0.43580752599999784
24272.0,1.1139373735,3.8027246705,11.365711216999998,-0.10543534011297745,0.6012257847392506,0.02094220569467996,12.036650815735621,0.6107598801160938,-0.24418558499999987,0.2969453620000002,0.3423501514999998
24282.0,1.016949605,4.016999973,11.710414964499998,-0.10383661851815064,0.5548611131600213,0.010283479952750588,12.421927947101334,0.5645871484566404,-0.09698776850000002,0.21427530249999993,0.34470374750000055
24292.0,0.9822340639999999,4.166649452,12.007360326499999,-0.10143853612591044,0.4733228211653502,0.016678366332057812,12.747645014775868,0.4843577578100716,-0.03471554100000007,0.1496494789999998,0.29694536200000066
24302.0,1.016949605,4.246867849,12.2766509355,-0.08518428480208724,0.34995073232962703,0.04758814738487739,13.030204573148211,0.36329947592421624,0.03471554100000007,0.08021839700000033,0.26929060900000046
24312.0,1.0564704045,4.3497396075,12.514854463999999,-0.05134409593516919,0.23723736923583325,0.08915665417962633,13.29127332589844,0.2585859519267132,0.03952079949999998,0.10287175850000008,0.2382035284999997
24322.0,1.038524235,4.434763263,12.826117535,-0.02336472269644809,0.16742419915606005,0.1245955646413712,13.610839386576098,0.21000197012893018,-0.017946169500000053,0.08502365549999968,0.31126307100000083
24332.0,0.9941981769999999,4.390437205,13.011659353,-0.02842792285648364,0.12452400614203943,0.15817046346198613,13.76835676414258,0.20330339499225375,-0.044326058,-0.044326058000000224,0.1855418180000008
24342.0,0.9523237815,4.297077897,13.1900423165,-0.060402354753019756,0.1173297589653188,0.17655576180249438,13.90499965295782,0.22042380503073755,-0.04187439549999994,-0.09335930799999925,0.17838296349999894
24352.0,0.7907101894999999,4.226470017,13.484536016,-0.08944812416470939,0.1141323157756652,0.171759597018014,14.153479535972073,0.22478547904322463,-0.16161359200000003,-0.07060788000000073,0.29449369950000026
24362.0,0.6949972855,4.177436767,13.820904110999999,-0.12275598760976918,0.06963165583756577,0.15097621628526547,14.455150971698373,0.20666740883009657,-0.09571290399999999,-0.04903324999999992,0.3363680949999992
24372.0,0.7488357939999999,4.095943505499999,14.043613132499999,-0.1733827532223687,-0.0055100044485460985,0.1237962038439578,14.647886470817204,0.21311367706031106,0.05383850849999994,-0.08149326150000036,0.22270902150000005
24382.0,0.8158152135,4.1079076185,14.063912898,-0.23600167612542125,-0.10170208084296158,0.1099417802416268,14.674266777840696,0.27951261049279097,0.06697941950000008,0.011964113000000332,0.020299765500000788
24392.0,0.8948568124999999,4.2552035015,13.934661251,-0.29888763440402893,-0.19016932996805014,0.13099219634993042,14.597339131984857,0.37769981144384,0.07904159899999996,0.14729588299999996,-0.12925164700000025
24402.0,1.0289137179999999,4.30904201,13.6497780685,-0.3399220704476676,-0.2317360914335471,0.18641512674701036,14.35071244929453,0.45166273870049356,0.13405690549999993,0.05383850850000016,-0.2848831824999998
24412.0,1.1462993184999999,4.2779549295,13.251137746,-0.3580420787418727,-0.20482311436779455,0.25169916741785825,13.971669623559414,0.48321745540487987,0.11738560050000002,-0.031087080499999864,-0.39864032250000037
24422.0,1.210925142,4.134287507,12.806994567499999,-0.3607071965096681,-0.06732956655418525,0.3063244823467768,13.512134647865173,0.4779933478943609,0.06462582350000012,-0.14366742250000009,-0.44414317850000096
24432.0,1.175032803,4.0098411185,12.4155130995,-0.37296289851717224,0.1623609989960245,0.3369672280240412,13.099789823031339,0.5282133379871468,-0.035892339000000106,-0.1244463885,-0.3914814679999985
24442.0,0.9966498395,3.8290064925,12.1605401995,-0.4057384365403738,0.4546704874492868,0.3505563615800691,12.788015466280841,0.7030211189486807,-0.17838296349999994,-0.18083462599999978,-0.2549729000000003
24452.0,0.7488357939999999,3.6052187394999997,12.263510024499999,-0.45343479433887485,0.7488457328729311,0.3476259537659706,12.804375632065373,0.9419218906527419,-0.24781404550000008,-0.2237877530000003,0.10296982499999885
24462.0,0.471111466,3.2783630949999996,12.707653203,-0.537104133350231,0.9406975602399038,0.334569145631801,13.132176534138232,1.1337236273060571,-0.2777243279999999,-0.32685564450000015,0.44414317850000096
24472.0,0.20535125099999998,3.105962188,13.146991122999998,-0.6666058185189583,0.9625490824748727,0.31485041574276906,13.510460607907259,1.2124334364203027,-0.265760215,-0.17240090699999966,0.43933791999999805
24482.0,-0.059232165999999996,3.1119442444999996,13.328904480499999,-0.7659953381030273,0.8322480365087321,0.2922012780396387,13.687490642212643,1.1682325278625865,-0.264583417,0.005982056499999722,0.18191335750000093
24492.0,-0.140627361,2.9551359109999997,13.338514997499999,-0.7667946989004407,0.598028341549597,0.2615585323623742,13.662671285135861,1.0069880204897863,-0.081395195,-0.1568083334999999,0.009610517000000485
24502.0,-0.177696498,2.979064137,13.054808613,-0.6908536778169154,0.32836799079946516,0.237310673064417,13.391580455637788,0.8008874434557721,-0.037069137,0.02392822600000022,-0.2837063844999985
24512.0,-0.129840046,2.932384483,12.614293895,-0.6247702763486542,0.05497612610856939,0.24530428103855104,12.951299072414269,0.6734496736553665,0.04785645200000002,-0.04667965400000007,-0.4405147180000011
24522.0,-0.0771783355,2.9167919095,11.9067440975,-0.5978572992829015,-0.16591972534084096,0.28687278783329995,12.2590450909582,0.6835632391829409,0.052661710499999986,-0.015592573499999762,-0.7075497974999987
24532.0,0.026968287499999997,2.8629534009999995,11.330995675999999,-0.5858668873217006,-0.2781007630127765,0.3263085022821119,11.687116516675909,0.7259871091898957,0.104146623,-0.053838508500000604,-0.5757484215000019
24542.0,0.1311149105,2.610334097,10.8641010695,-0.5698796713734324,-0.30821118326818264,0.3508233969556242,11.174064939225442,0.7367727120270864,0.104146623,-0.25261930399999954,-0.4668946064999986
24552.0,0.20289958849999998,2.400864053,10.4618322865,-0.5368388433039278,-0.2900911749739775,0.3572182833349314,10.735699848396232,0.7070740664360682,0.07178467799999999,-0.20947004400000013,-0.40226878300000024
24562.0,0.1874050815,2.2919121715,10.121933797499999,-0.4864773677376315,-0.23280248760651565,0.33003827089362375,10.379861553383774,0.6322835501665132,-0.01549450699999999,-0.1089518814999999,-0.3398984890000012
24572.0,0.162201991,2.1758014355,10.035733344,-0.4206610016449253,-0.16831780773308117,0.2639566147546144,10.2701686999037,0.5243659573024342,-0.025203090499999997,-0.11611073599999999,-0.08620045349999828
24582.0,0.1909354755,2.1458911529999996,10.0812362,-0.36390463969932174,-0.10356783781334351,0.17575640100508097,10.308861649887367,0.4171848467026134,0.028733484500000017,-0.029910282500000385,0.045502855999998815
24592.0,0.31547993049999995,2.283576519,10.2511854445,-0.34311951363732124,-0.06093468017487803,0.08622624636552786,10.507190505658738,0.3589972164920158,0.12454445499999994,0.13768536600000036,0.16994924450000148
24602.0,0.5692760324999999,2.178253098,10.4834069165,-0.3628382435263532,-0.0366868208769208,0.03746349239405829,10.722438264548114,0.3666074563531191,0.25379610199999997,-0.10532342100000003,0.2322214719999991
24612.0,0.735694883,2.246507382,10.586376741499999,-0.4206610016449253,-0.031888910763188394,0.034798374626262944,10.847092462555347,0.4233007297551047,0.16641885050000005,0.068254284,0.10296982499999885
24622.0,0.817090078,2.3686001744999996,10.5755894265,-0.5045956307025846,-0.044945718897357975,0.06144431631646038,10.868348296779327,0.5103060573606164,0.08139519500000003,0.12209279249999971,-0.010787314999998188
24632.0,0.8840694974999999,2.330256173,10.6114817655,-0.5733441499386412,-0.10516655940817032,0.10354514853306758,10.900239353690978,0.5920347264066107,0.06697941949999986,-0.038344001499999614,0.035892339000000106
24642.0,0.9642878945,2.157855266,10.487035377,-0.6114481781681814,-0.20082631038072754,0.15683877724271444,10.750074487692292,0.6624186618546569,0.08021839700000011,-0.1724009070000001,-0.12444638850000089
24652.0,0.9295723534999999,2.119609331,10.2284340165,-0.6500845318195799,-0.28982588492767436,0.20640089201159742,10.4870258370211,0.7410872217953668,-0.03471554100000007,-0.03824593499999995,-0.25860136050000015
24662.0,0.9870393224999999,2.131573444,9.932763519,-0.6972485641962226,-0.3300609601738997,0.21999002556762526,10.206744980438403,0.8021791626898912,0.057466969000000034,0.011964112999999887,-0.29567049749999974
24672.0,1.0923627435,2.0141878435,9.6957367885,-0.7382830002398614,-0.2759697159960914,0.21119705679607784,9.962806878794867,0.8159811697517659,0.10532342100000014,-0.11738560050000002,-0.23702673050000023
24682.0,1.130706745,1.9220053334999998,9.5915901655,-0.7699921420900944,-0.1648550744971244,0.1789538441947346,9.847395805394807,0.8075206330614828,0.038344001499999836,-0.09218251,-0.1041466230000001
24692.0,1.1665990839999998,1.774807517,9.7412396445,-0.7801185424101654,-0.06066764479932289,0.11926707443503251,9.970087509985447,0.7915113002237867,0.035892338999999884,-0.14719781649999986,0.1496494790000007
24702.0,1.1522813749999998,1.765197,9.9950357465,-0.779319181612752,-0.019366173380129078,0.04652349654116085,10.214911276648158,0.7809467787444765,-0.014317708999999956,-0.00961051700000004,0.253796101999999
24712.0,1.249171077,1.811876654,10.1590029345,-0.8003695977210556,-0.04468042885105484,-0.0331490384831283,10.394646026301386,0.8023008740060268,0.09688970200000013,0.04667965400000007,0.16396718800000087
24722.0,1.5376827199999998,1.8741488814999998,10.2392213315,-0.8579253204640728,-0.06359805261342137,-0.09496860058876745,10.522288517849097,0.865505403153204,0.2885116429999999,0.06227222749999983,0.08021839699999944
24732.0,1.7723558545,2.029780417,10.185382823000001,-0.949855302825118,-0.04521275427291311,-0.11735070291634274,10.535809274435476,0.9581442881575296,0.23467313450000016,0.1556315355000002,-0.05383850849999838
24742.0,1.985454359,2.0704780145,10.105164426,-1.0681641915008058,-0.0004468042885105484,-0.10136348696807466,10.504439837359053,1.0729629518902175,0.2130985045,0.040697597499999905,-0.08021839700000122
24752.0,2.1314753774999997,2.0369392715,10.051227850999998,-1.199796923686218,0.08242317392543222,-0.046472881992853016,10.474707165042169,1.2035223165556908,0.1460210184999997,-0.033538742999999815,-0.053936575000001596
24762.0,2.1410858944999998,1.9531904805,9.8824554045,-1.3399555892676225,0.16822355995347346,0.03959453941074336,10.298646837457527,1.3510543567466522,0.00961051700000004,-0.0837487910000001,-0.16877244649999845
24772.0,2.034487609,1.7005711765,9.749575297,-1.467858552841523,0.2548233067789281,0.12859411395769021,10.103727066255786,1.4953528329368695,-0.10659828549999961,-0.252619304,-0.13288010750000012
24782.0,1.8454153969999998,1.379795655,9.640623415499999,-1.5667157470037338,0.3107803079271183,0.20453513504121548,9.912164943973057,1.6102848360371127,-0.18907221200000035,-0.3207755215000001,-0.10895188150000124
24792.0,1.650263062,1.055391673,9.4982308575,-1.6232050735737822,0.30385309612595285,0.25249852821527163,9.698124003105164,1.6705917878559902,-0.19515233499999973,-0.324403982,-0.14239255799999917
24802.0,1.4658980419999998,0.7261824325,9.378491661,-1.6437231642602277,0.22338120030425024,0.2684857441635397,9.520099990559846,1.6804194703091466,-0.1843650200000002,-0.3292092404999999,-0.11973919649999942
24812.0,1.479038953,0.33950622299999994,9.103120929,-1.6479870036228499,0.11146719800786985,0.24850172422820463,9.228739423558608,1.670341045201828,0.013140911000000255,-0.3866762095000001,-0.27537073200000073
24822.0,1.6190779149999999,0.097674234,8.718896381999999,-1.659977415584051,0.0325940237809941,0.18561576594959694,8.868489593548661,1.6706407762306046,0.14003896199999977,-0.24183198899999994,-0.3842245470000005
24832.0,1.7532328869999998,0.052171378,8.205322121499998,-1.6711684667478386,0.01500808623789924,0.108341313317548,8.39070071724156,1.6747438989517822,0.13415497199999993,-0.045502856,-0.5135742605000004
24842.0,1.9434818969999998,0.06413549099999999,7.804328202999999,-1.6613091018033226,0.08029038157949514,0.034266049204404674,8.042933168024817,1.6636011058053617,0.19024901000000005,0.011964112999999992,-0.4009939184999993
24852.0,2.100388297,0.145530686,7.478747422999999,-1.6386599641001922,0.21938439631718326,-0.025155430508994273,7.769457715682048,1.6534717375801713,0.1569064,0.081395195,-0.3255807800000001
24862.0,2.301424622,0.040207265,7.3350800005,-1.608816579220341,0.42775751038353427,-0.05553288613995558,7.68775458301328,1.6656383685262515,0.20103632500000002,-0.105323421,-0.1436674224999992
24872.0,2.3876250755,-0.0352058735,7.4056878804999995,-1.5699131901933874,0.6960861749143945,-0.05819625857849892,7.781144256346225,1.7182986329979628,0.08620045350000005,-0.0754131385,0.07060787999999985
24882.0,2.147067951,-0.09031924649999999,7.687040669,-1.5254142755845401,0.9478935527458763,-0.035014795453510245,7.981770016691764,1.7962786352331193,-0.2405571245,-0.05511337299999999,0.28135278850000045
24892.0,1.9327926484999998,-0.33685842749999995,8.084406127,-1.4907729805909566,1.1112336814522696,0.004954989746411901,8.31906145238443,1.8593732617141177,-0.21427530250000015,-0.24653918099999994,0.39736545799999945
24902.0,1.7603917414999999,-0.5931061919999999,8.449507706499999,-1.4665251212929993,1.1626615531915345,0.033199653031436134,8.65129669591403,1.871785253605393,-0.17240090699999988,-0.2562477645,0.3651015794999992
24912.0,1.5328774615,-0.7858068645,8.5632648465,-1.4398791796028019,1.11363176384451,0.04892157893340106,8.734798828340162,1.8209396140955387,-0.22751427999999985,-0.19270067250000011,0.11375714000000059
24922.0,1.3449820474999998,-0.9354563435,8.396845996,-1.410035794722951,1.0267649816435003,0.06091199089460211,8.555178429421149,1.7453244800220118,-0.1878954140000002,-0.14964947899999992,-0.1664188504999995
24932.0,1.129529947,-1.0503902815,8.0197803035,-1.3729981626663792,0.9638807686941444,0.06144431631646038,8.16676397118504,1.6786796880141444,-0.21545210049999985,-0.11493393799999996,-0.37706569250000044
24942.0,0.9702699509999999,-1.10422879,7.680960546,-1.3335607028883152,0.947359481994766,0.05478239456159801,7.820351648595286,1.6367269922523033,-0.15925999600000007,-0.05383850850000016,-0.3388197574999996
24952.0,0.8625929339999999,-1.2442677519999998,7.4068646785,-1.2999858040677004,0.9537543683740732,0.03373197845329441,7.560020712542047,1.6126835809732007,-0.10767701699999999,-0.14003896199999977,-0.2740958674999998
24962.0,0.747658996,-1.404704546,7.239269029999999,-1.2538881678640261,0.9588175685341088,0.016146040910199545,7.41209855065149,1.5785522993794467,-0.11493393799999996,-0.16043679400000022,-0.16759564850000075
24972.0,0.5812401455,-1.4477557395,7.0764786399999995,-1.1907369195391153,0.9449613996025259,-0.020626301100068987,7.246405090137611,1.5202736275385877,-0.16641885049999994,-0.04305119349999997,-0.16279038999999962
24982.0,0.4315906665,-1.5148332254999999,6.858574877,-1.1233218318515823,0.9231116226968089,-0.07578394145084578,7.037118696448442,1.4559293292100943,-0.14964947900000003,-0.06707748599999985,-0.2179037629999998
24992.0,0.114345539,-1.591423162,6.5833022114999995,-1.0607029089485298,0.9167167363175016,-0.13973455057317,6.773888882376213,1.4088953049536261,-0.3172451275,-0.07658993650000001,-0.2752726655000002
25002.0,-0.15494507000000002,-1.6704647609999999,6.4001139895,-1.0060793393488634,0.9119205715330213,-0.21354452464001022,6.616337322949436,1.3745530291165509,-0.269290609,-0.07904159899999996,-0.18318822199999918
25012.0,-0.30341775099999996,-1.6560489854999998,6.3773625615,-0.9383972162857752,0.9025935320103635,-0.2860228124875787,6.595855806096682,1.333069191311216,-0.14847268099999994,0.014415775500000061,-0.022751428000000296
25022.0,-0.3549026635,-1.4837461449999998,6.3642216505,-0.8576582850885175,0.8722178217086543,-0.32679195848491427,6.544522575410272,1.2661495356463914,-0.051484912500000035,0.1723028405,-0.01314091099999981
25032.0,-0.3309744375,-1.4083330064999997,6.4109013045,-0.7849147071946458,0.8394422836854527,-0.33185341331569784,6.572107840831248,1.196194437848122,0.023928225999999997,0.07541313850000009,0.04667965400000007
25042.0,-0.29508209849999995,-1.3615552859999998,6.4707218695,-0.7089736861111207,0.8093318634300465,-0.3116023580048076,6.618998999404312,1.1201597128424579,0.03589233900000005,0.04677772049999995,0.05982056499999988
25052.0,-0.3525490675,-1.3077167774999998,6.534170895,-0.644489006237686,0.7872150511487744,-0.2830906593442282,6.6730655099598115,1.0560369014974607,-0.057466969000000034,0.05383850849999994,0.06344902549999976
25062.0,-0.5141626595,-1.4430485475,6.584479009499999,-0.6013217778481104,0.7549735838766831,-0.25591239223217255,6.76033402853824,0.9985309936922382,-0.16161359199999997,-0.13533177000000007,0.05030811449999906
25072.0,-0.663714072,-1.5626896774999999,6.662245743999999,-0.5730771145630861,0.7168695556471429,-0.2561776822784757,6.8751751796577505,0.9528621851806568,-0.14955141250000004,-0.11964112999999998,0.07776673449999993
25082.0,-0.7595250425,-1.6285903654999998,6.789143795,-0.5395022157424713,0.6547847034952006,-0.28548874173646843,7.022938013251367,0.895158907893233,-0.09581097049999998,-0.06590068799999993,0.1268980510000013
25092.0,-0.7487377275,-1.5734769925,6.9507573869999995,-0.5088594700652067,0.5689825721379074,-0.32679195848491427,7.165854190774731,0.8303445741390245,0.010787314999999964,0.055113372999999743,0.16161359199999925
25102.0,-0.663714072,-1.4764892239999998,7.021365266999999,-0.5000665012936594,0.476787299730559,-0.36382959054148595,7.205560839420684,0.78087425738977,0.08502365550000002,0.09698776850000024,0.07060787999999985
25112.0,-0.5728064264999999,-1.4394200869999998,6.9902781865,-0.505394991499998,0.3675366698727219,-0.3723555239374782,7.159890118832587,0.7274310533247581,0.09090764550000008,0.03706913700000003,-0.031087080499998976
25122.0,-0.432669398,-1.4944353934999999,6.9974370409999995,-0.4848786461428047,0.24336522023958532,-0.36143150814924574,7.16830977958333,0.6518946747677721,0.14013702849999993,-0.05501530650000008,0.007158854499999201
25132.0,-0.29978929049999997,-1.566318138,6.951934184999999,-0.449705025727363,0.11066783721045645,-0.3358502173027648,7.132504121323582,0.5720815927991414,0.1328801075,-0.0718827445000001,-0.04550285600000059
25142.0,-0.13464530449999998,-1.5543540249999999,6.7808081425,-0.4286546096190593,-0.007108726043372904,-0.2908189772720592,6.957981378133452,0.5180453511761247,0.165143986,0.01196411300000011,-0.1711260424999992
25152.0,0.060507030499999996,-1.6081925334999998,6.588009403499999,-0.41613012690674805,-0.0761225353257327,-0.22766772894714832,6.7817263455664065,0.4804076578363379,0.19515233499999998,-0.05383850849999994,-0.19279873900000055
25162.0,0.10002783,-1.7015518415,6.40374245,-0.38255697341538514,-0.1080987125515208,-0.1621166529007453,6.626703675434609,0.4293215330166619,0.0395207995,-0.09335930800000014,-0.184266953499999
25172.0,0.126309652,-1.8883685239999999,6.2624286235,-0.31300909338191507,-0.11635761057195797,-0.10882476952035043,6.542163409381824,0.3512216060252291,0.026281821999999996,-0.18681668249999994,-0.14131382650000024
25182.0,0.12277925799999999,-2.0451768575,6.221731026,-0.21441893459525935,-0.10383487318889865,-0.0773826630456726,6.550401520864169,0.25048999369867225,-0.003530394000000006,-0.15680833350000012,-0.04069759750000035
25192.0,0.067665885,-2.0403715989999998,6.2971441645,-0.1120972618678398,-0.0987716730288631,-0.049403289806951495,6.619797546941677,0.15736049235731733,-0.05511337299999999,0.004805258500000242,0.07541313850000009
25202.0,0.034127142,-1.9684888544999999,6.463563015,-0.0257628050886883,-0.09344318282252441,-0.020359265724513857,6.756756609571466,0.09904468811038192,-0.033538742999999996,0.07188274449999987,0.16641885050000038
25212.0,-0.04246279449999999,-1.9445606284999999,6.683820374,0.02459867047760808,-0.09477486904179609,0.0030892327760299633,6.961075629435911,0.09796383899327366,-0.07658993649999998,0.023928225999999997,0.22025735899999965
