timestamp,ax,ay,az,gx,gy,gz,acc_mag,gyro_mag,dax,day,daz
23132.0,-0.285569648,1.422944915,12.2591950985,0.1442025934582755,0.661439643933055,-0.22498515788683304,12.344804037248611,0.713382864803846,0.0,0.0,0.0
23142.0,-0.578788483,1.2229873215,13.0541221475,0.07438942337850231,0.681158373822087,-0.22445283246497477,13.124054218817186,0.7210336958423553,-0.29321883499999996,-0.19995759349999997,0.794927049
23152.0,-0.644689171,1.4444214785,13.87052576,0.025893704782587873,0.6598409223382282,-0.20366945173222628,13.960424864364994,0.6910439727748424,-0.06590068800000004,0.22143415700000002,0.8164036125000003
23162.0,-0.6865635664999999,1.5031633119999999,14.7887223995,0.037351791321930644,0.5852315874739746,-0.18368368646763922,14.880765426645937,0.614516772730092,-0.04187439549999994,0.05874183349999984,0.9181966394999996
23172.0,-0.7667819634999999,1.6359453529999999,15.593161899,0.09437344331383737,0.4418754787029164,-0.18021920790243046,15.697482912428237,0.48645580310941,-0.080218397,0.13278204100000002,0.8044394995000008
23182.0,-0.819443674,1.7257742669999998,16.202449063499998,0.15646004079503165,0.2105861915578798,-0.20207073013739948,16.314690938255925,0.3311478044902257,-0.052661710500000014,0.08982891399999993,0.6092871644999978
23192.0,-0.9558541755,1.954465345,16.554409732,0.2009589554038791,-0.07053224573159485,-0.21725858528825415,16.696768356917545,0.30423772337830485,-0.1364105015,0.22869107800000021,0.35196066850000207
23202.0,-1.0433294935,2.2872049795,16.6286460725,0.22654024625035998,-0.3551151615862782,-0.21965666768049436,16.81760129313114,0.4750540104199957,-0.08747531799999997,0.33273963449999977,0.07423634050000061
23212.0,-0.8744589804999999,2.5170728555,16.520870989,0.24012937980638785,-0.6031910254769962,-0.2191225969293841,16.73438115090169,0.6852125544291116,0.168870513,0.22986787600000014,-0.10777508350000176
23222.0,-0.4663062075,2.6283783329999997,16.286295921,0.24092874060380123,-0.7715943543434252,-0.2193896323049392,16.503613209443504,0.8375776480222459,0.4081527729999999,0.11130547749999975,-0.23457506799999805
23232.0,-0.03893240049999999,2.7828330705,15.928353195999998,0.2094866341291234,-0.846737759958789,-0.2105966635333918,16.169666390083638,0.8973296154202053,0.42737380700000005,0.1544547375000005,-0.3579427250000027
23242.0,0.324992381,2.9575875735,15.5536410995,0.1348772992648698,-0.836878395014273,-0.17062687833346962,15.835677937956595,0.8646796317182887,0.36392478149999996,0.17475450299999995,-0.3747120964999979
23252.0,0.6003631129999999,2.9886746539999995,15.153823979,0.03122219498892656,-0.7601380131333344,-0.08455945692987327,15.457392834544526,0.7654638634360834,0.2753707319999999,0.03108708049999942,-0.39981712049999985
23262.0,0.6422375085,3.021036599,14.820986278,-0.07456221097444975,-0.614649112016339,0.034548792543227756,15.139377972773056,0.6201182736172732,0.04187439550000016,0.032361945000000336,-0.33283770100000076
23272.0,0.6613604759999999,2.8881564914999998,14.459513159,-0.16835795030587702,-0.43665170825169736,0.14513110862033649,14.759958211116409,0.4899715832981434,0.019122967499999866,-0.13288010750000012,-0.36147311899999934
23282.0,0.648219565,2.5134443949999996,14.1661962575,-0.2661487482951193,-0.25785494368964224,0.2522489461322365,14.402038318835729,0.4482787737882213,-0.013140910999999922,-0.37471209650000015,-0.2933169015000008
23292.0,0.476995456,2.212968639,13.943487236,-0.3527502404498259,-0.10224138758182783,0.35377125806224263,14.126060709296738,0.5099413069197369,-0.171224109,-0.30047575599999954,-0.22270902150000005
23302.0,0.292630436,1.8059926639999997,13.785502104499999,-0.39565043346384654,0.012870057904206186,0.43290972233542147,13.906376607429747,0.5866137840036825,-0.18436502,-0.4069759750000004,-0.15798513150000026
23312.0,0.19211227349999999,1.311541371,13.625065310499998,-0.39218595489863783,0.08961218511439686,0.47767567231982405,13.689391973673057,0.6245111807381267,-0.10051816250000001,-0.4944512929999998,-0.16043679400000066
23322.0,0.126309652,0.8758319115,13.492185203,-0.36367425623805844,0.11945556999424789,0.4944622490655055,13.521172183558727,0.6253171304257333,-0.06580262149999999,-0.43570945949999995,-0.13288010749999835
23332.0,-0.080806796,0.6651850695,13.289874013499999,-0.3340979067337625,0.10506707564080664,0.5163137713004745,13.30675588600272,0.6238913463914302,-0.207116448,-0.21064684199999995,-0.20231118950000138
23342.0,-0.39324666499999994,0.6436104394999999,12.9882214595,-0.3170442946125259,0.054171529323400004,0.5402945952228766,13.01010276740285,0.6287844534994819,-0.3124398689999999,-0.02157463000000015,-0.3016525539999986
23352.0,-0.635078654,0.6220358094999999,12.486611311999999,-0.32903470657372696,-0.03216118212649951,0.5586798935633849,12.518215348125032,0.64916977997888,-0.24183198900000002,-0.021574629999999928,-0.501610147500001
23362.0,-0.822974068,0.7261824325,12.035309279,-0.3833929861270904,-0.1667260674552623,0.5720037370731096,12.085251204797341,0.7085026736760751,-0.18789541399999998,0.1041466230000001,-0.45130203299999927
23372.0,-0.6973508815,0.5035714775,11.659420384499999,-0.4593340072106157,-0.2906304817128438,0.608776079083378,11.691106285864246,0.8161262901934558,0.12562318649999993,-0.22261095500000005,-0.37588889450000096
23382.0,-0.44355477949999994,0.2652698825,11.1398640675,-0.5446020678167987,-0.3468545182365891,0.6570047623037374,11.151846501604858,0.9211703028111902,0.2537961020000001,-0.23830159499999998,-0.5195563169999993
23392.0,-0.3394081565,0.14562875249999999,10.6765979215,-0.6293378030011233,-0.3087504900070489,0.6788545392094544,10.682984077851636,0.9758260197243944,0.10414662299999994,-0.11964113000000001,-0.4632661459999987
23402.0,-0.29508209849999995,0.061781894999999996,10.289921712,-0.7095426634472707,-0.19949986014921184,0.6692622096404937,10.294337243674017,0.9955716401667325,0.04432605800000006,-0.08384685749999998,-0.3866762095000009
23412.0,-0.26154335549999996,-0.1560238015,9.975128246999999,-0.793479037834182,-0.06920055951232318,0.6332892284276385,9.97977614466066,1.0175720847986898,0.03353874299999998,-0.2178056965,-0.31479346500000105
23422.0,-0.29508209849999995,-0.35480459699999994,9.7261374035,-0.8918039065745347,0.05204048230671492,0.5690733292590111,9.737079055788199,1.0591821720810126,-0.03353874299999998,-0.19878079549999994,-0.24899084349999967
23432.0,-0.438749521,-0.5594693824999999,9.4807750205,-1.0021191872760882,0.1282485387657953,0.4827388724798596,9.507397231706975,1.1196996794701584,-0.14366742250000003,-0.20466478549999995,-0.2453623829999998
23442.0,-0.613504024,-0.5846724729999999,9.260419595,-1.0961802166538186,0.1170574876020077,0.39454040405957813,9.299118246565536,1.1708866952965185,-0.17475450300000006,-0.025203090500000025,-0.2203554254999993
23452.0,-0.5452497399999999,-0.6863674335,9.24374829,-1.1276223231284965,0.024595179819104092,0.34098148530362815,9.28521835939346,1.1783061570779938,0.06825428400000011,-0.10169496050000004,-0.016671305000000913
23462.0,-0.5153394575,-0.564274641,9.1706887475,-1.0940491696371335,-0.08199033227093762,0.3391157283332462,9.202473185533071,1.1483316060148254,0.02991028249999994,0.12209279249999994,-0.07305954249999935
23472.0,-0.49023443349999996,-0.39903258849999995,8.938467275499999,-1.0383574585352464,-0.18244624802797524,0.38814377235101893,8.96078981126432,1.1234448954577794,0.02510502400000003,0.16524205250000007,-0.23222147200000087
23482.0,-0.459147353,-0.39550219449999996,8.470395871,-0.9967889517404975,-0.2663826224148866,0.43717356169804367,8.492045954248896,1.120566213520783,0.031087080499999975,0.0035303939999999923,-0.46807140449999984
23492.0,-0.302240953,-0.636059319,7.918477608999999,-0.9885300537200603,-0.30768409383408035,0.489400794234722,7.949730102034373,1.1451525252576014,0.1569064,-0.24055712450000005,-0.551918262
23502.0,-0.10120462799999999,-0.8778913079999999,7.401372954499999,-0.991727496909714,-0.2850349561309499,0.5442913992099436,7.45394238889694,1.166628253385498,0.201036325,-0.24183198899999991,-0.5171046544999998
23512.0,0.07835513350000001,-0.9042711965,7.0781457705,-0.968011963033615,-0.1805822363868453,0.5658741407401054,7.136104923010339,1.1357247236161674,0.1795597615,-0.02637988850000006,-0.3232271839999994
23522.0,0.070019481,-1.0119482135,6.84111904,-0.8939349535912197,-0.020170770165298467,0.5307022656539158,6.91591292845535,1.03979394881457,-0.008335652500000013,-0.10767701699999999,-0.23702673050000023
23532.0,-0.071196279,-1.3232112845,6.5550590595,-0.7665660607684295,0.1365091821154845,0.4472999620181147,6.687657010276813,0.8979618802294855,-0.14121576,-0.31126307099999995,-0.28605998050000014
23542.0,-0.08924051499999999,-1.5722021279999998,6.644789906999999,-0.5837724922193073,0.2572161531834123,0.3535042226866875,6.8288371124939165,0.7293255155194647,-0.01804423599999999,-0.2489908434999999,0.08973084749999938
23552.0,-0.071196279,-1.6009356125,6.9249658975,-0.3748653074018461,0.37792312425134017,0.2679691267049494,7.107968516183241,0.5959507860590401,0.01804423599999999,-0.02873348450000024,0.28017599050000097
23562.0,0.0412859965,-1.4429504809999998,7.4037265505,-0.14384305563236466,0.5151513820186463,0.18776426625880197,7.5431410870209605,0.5668572930933173,0.1124822755,0.15798513150000026,0.47876065300000015
23572.0,-0.1562199345,-0.9737022785,7.7257769365,0.010171778880622952,0.5969567093888725,0.13633813984878906,7.788461341474746,0.612412333601647,-0.197505931,0.46924820249999977,0.3220503859999999
23582.0,-0.059232165999999996,-0.549956932,7.880231674,0.017366026057343577,0.5644482067412261,0.11795109617902878,7.899621023343888,0.57690191371172,0.09698776849999999,0.42374534650000006,0.15445473750000005
23592.0,0.194563936,-0.564274641,8.147168686999999,-0.11186687840657655,0.4778467145865195,0.13127493968875348,8.169003526140798,0.508020463087707,0.25379610199999997,-0.014317709000000067,0.26693701299999884
23602.0,0.20289958849999998,-0.6767569165,8.191494745,-0.3098500474358053,0.3845850460062025,0.16511512855567156,8.221906976146512,0.5207453458126339,0.008335652499999985,-0.1124822755,0.04432605800000111
23612.0,0.0065704555,-0.7546217175,8.064596693999999,-0.5400729384078733,0.30065041694854316,0.1832351368498767,8.099828204615443,0.6447050235481653,-0.196329133,-0.07786480099999993,-0.1268980510000013
23622.0,-0.242420388,-0.9999841005,7.8850369325,-0.7487130878497795,0.24549277659776642,0.15658919515967926,7.951889289512265,0.8033418744967727,-0.24899084349999998,-0.24536238300000002,-0.17955976149999842
23632.0,-0.5033753445,-1.2429928875,7.7114592275,-0.8814104708789083,0.2105861915578798,0.08677602507990606,7.827197549137301,0.9103631367638407,-0.2609549565,-0.24300878700000006,-0.17357770500000047
23642.0,-0.8373898434999999,-1.468055505,7.600055683499999,-0.9157847304969366,0.18926874007402109,-0.01741140461789543,7.785708388326549,0.9353007460658429,-0.3340144989999999,-0.2250626174999999,-0.11140354400000074
23652.0,-1.0348957745,-1.6691898964999998,7.527094207499999,-0.8758149452970145,0.13757557828845304,-0.16130158414006393,7.779097080203825,0.901108794315708,-0.19750593100000013,-0.2011343914999999,-0.07296147599999969
23662.0,-1.042054629,-1.6799772114999998,7.491103802,-0.7953447948045639,0.02193006205130875,-0.3403636387484222,7.747569777247475,0.865391054279136,-0.007158854499999867,-0.010787314999999964,-0.03599040549999977
23672.0,-0.799045842,-1.5339561929999999,7.515130094499999,-0.706345220257617,-0.11689691731082422,-0.5218255210782726,7.711593622392203,0.8859403670147139,0.24300878699999995,0.14602101849999993,0.024026292499999435
23682.0,-0.3849110125,-1.211905807,7.504342779499999,-0.652786301501667,-0.2186862646163855,-0.6489273785255076,7.6113095275923355,0.9460763078949185,0.41413482949999997,0.3220503859999999,-0.010787314999999964
23692.0,0.12748644999999997,-0.807283428,7.510324835999999,-0.6661101450113919,-0.2333417943453819,-0.6958243755265954,7.554663359164023,0.9911219298615063,0.5123974625,0.404622379,0.005982056499999722
23702.0,0.5871241355,-0.5439748754999999,7.477962891,-0.7332581973233697,-0.16725839287712058,-0.6606525004404056,7.520674997288138,1.0010517870060045,0.4596376855,0.26330855250000007,-0.032361944999999004
23712.0,0.6937224209999999,-0.5451516734999999,7.291244275,-0.8086668929850367,-0.09877690901661909,-0.5503354744096,7.344432191955906,0.9831419815868864,0.10659828549999995,-0.0011767980000000344,-0.1867186159999994
23722.0,0.46748300549999994,-0.7007832089999999,7.151205312999999,-0.8334488230341043,-0.05960822994336233,-0.3957883144747541,7.200651004952752,0.924574751747354,-0.22623941549999999,-0.15563153549999997,-0.1400389620000011
23732.0,0.15739673249999997,-0.9856663915,7.153558908999999,-0.7647003037980477,-0.03216118212649951,-0.25322982117185727,7.222860723513057,0.8061800286507543,-0.31008627299999997,-0.2848831825000001,0.002353595999999847
23742.0,-0.1646536535,-1.2730012365,7.244564620999999,-0.6213441950269893,-0.0204378055408536,-0.1493094268496109,7.357401682767245,0.6393587549531347,-0.32205038599999997,-0.28733484500000006,0.0910057120000003
23752.0,-0.3849110125,-1.454914594,7.37263947,-0.4558712739746589,-0.05560968062704333,-0.09601754346921605,7.524675788230337,0.4691805874805383,-0.22025735899999999,-0.18191335749999982,0.12807484900000077
23762.0,-0.41236963249999997,-1.5770073865,7.396567696,-0.33516255757747904,-0.13501692560502934,-0.0941517864988341,7.574048764854534,0.37340068171152685,-0.02745861999999999,-0.12209279250000016,0.023928225999999775
23772.0,-0.25918975949999995,-1.6535973229999998,7.3570468965,-0.29492748233125377,-0.21069091131299947,-0.13492093249616965,7.545044895516707,0.386751261109502,0.15317987300000002,-0.07658993649999979,-0.03952079949999998
23782.0,0.05207331149999999,-1.7254800675,7.250546677499999,-0.3269036595570419,-0.21841922924083038,-0.1906126435980567,7.453215427969103,0.4369280744394718,0.31126307099999995,-0.0718827445000001,-0.10650021900000084
23792.0,0.25918975949999995,-1.636926018,7.160717763499999,-0.40364404143798055,-0.146207976768817,-0.23777667597469948,7.350005782877958,0.49075761053374845,0.20711644799999995,0.0885540494999999,-0.08982891399999993
23802.0,0.289100042,-1.4716839655,7.2337773059999995,-0.4675946505603048,-0.03855606850580673,-0.2585600567074479,7.387622529704317,0.5357094647061938,0.02991028250000005,0.16524205250000001,0.07305954250000024
23812.0,0.20652804899999996,-1.4393220205000001,7.3894088415,-0.4774540155048208,0.051773446931159796,-0.23990772299138455,7.531113114311743,0.5368412635777192,-0.08257199300000004,0.03236194499999989,0.15563153550000042
23822.0,0.150237878,-1.5087531024999998,7.7246001385,-0.4305570185037332,0.08268322798397937,-0.20580049874891135,7.87199813541667,0.4843239697330449,-0.05629017099999997,-0.0694310819999997,0.3351912969999997
23832.0,0.11189387649999999,-1.6045640729999997,8.099312235,-0.3471547148679321,0.03312111321509639,-0.173291996101265,8.257481745906631,0.389414329613592,-0.0383440015,-0.09581097049999987,0.3747120964999997
23842.0,0.12866324799999998,-1.640456412,8.1986535995,-0.2757428231933321,-0.06200631233560255,-0.14264925042400053,8.362151177517191,0.3165875802343148,0.01676937149999999,-0.03589233900000033,0.09934136450000075
23852.0,0.2268278145,-1.651243727,8.203458858,-0.24723112453275276,-0.16459327510932525,-0.12079947351828352,8.371068864743997,0.3206348202414049,0.09816456650000002,-0.010787314999999964,0.004805258499999354
23862.0,0.43992631899999995,-1.7590188105,8.229740679999999,-0.24856281075202444,-0.1955030561621448,-0.10560987303817689,8.427117775484604,0.3334042008445984,0.21309850449999995,-0.10777508349999998,0.02628182199999962
23872.0,0.5739832244999999,-1.8666958274999998,8.157956001999999,-0.2757428231933321,-0.1683247890500891,-0.10401115144335006,8.388459702769104,0.3393901276937173,0.1340569055,-0.10767701699999987,-0.07178467800000021
23882.0,0.5919293939999999,-1.9600551354999998,8.172273710999999,-0.31491150226658887,-0.09984330518958762,-0.11014074777635416,8.424859295512467,0.3482368793963606,0.017946169499999942,-0.09335930799999992,0.014317709000000178
23892.0,0.542896144,-2.034291476,8.215422971,-0.3412921539104832,-0.03003013510981443,-0.11840139112604332,8.480934655150387,0.3624928037301609,-0.04903324999999992,-0.07423634050000016,0.04314926000000163
23902.0,0.4663062075,-2.065476623,8.320746392,-0.35008512268203057,0.025659830662820633,-0.1266602891464805,8.585945240874388,0.3731766992720835,-0.07658993649999996,-0.03118514699999997,0.10532342099999958
23912.0,0.42678540800000003,-2.0953869055,8.411752104,-0.34342320092716827,0.05044176071188811,-0.12479627750535054,8.679306742325162,0.36886037607470124,-0.03952079949999998,-0.02991028249999994,0.0910057119999994
23922.0,0.49023443349999996,-2.1563842685,8.436857128,-0.327168949603345,0.025659830662820633,-0.10560987303817689,8.721862250202518,0.3447483049665953,0.06344902549999992,-0.06099736300000025,0.025105024000000142
23932.0,0.5847705395,-2.2366026655,8.379390159,-0.30372045110280127,-0.03802374308394846,-0.06857224098160522,8.692440825449136,0.31367829011495607,0.09453610600000006,-0.08021839699999989,-0.057466969000000034
23942.0,0.638609048,-2.3312368379999997,8.157956001999999,-0.27627514861519037,-0.1222254075171629,-0.021408208604962446,8.508509437122552,0.3028618816899143,0.05383850849999994,-0.09463417249999972,-0.2214341570000009
23952.0,0.6769530494999999,-2.4641169455,7.811977389999999,-0.24190088899716208,-0.1968364877106685,0.021759019784613306,8.219314356696596,0.3126245318810996,0.03834400149999995,-0.13288010750000012,-0.3459786119999997
23962.0,0.7703123574999999,-2.6041559075,7.468450440499999,-0.19473685662051932,-0.2040307348873891,0.044408157487743724,7.946871151647608,0.2855224484284642,0.09335930800000003,-0.1400389620000002,-0.3435269495000002
23972.0,0.8409202375,-2.6664281349999994,7.232600507999999,-0.13798049467491572,-0.12169308209530463,0.048404961474810736,7.7541921534921014,0.19023896403199558,0.07060788000000007,-0.06227222749999939,-0.23584993249999986
23982.0,0.8661233279999999,-2.6161200205,7.1811155955,-0.07855901496151677,0.024328144443548957,0.051869440040019484,7.691727684785781,0.09723073718662825,0.025203090499999914,0.0503081144999995,-0.051484912499999425
23992.0,0.7296147599999999,-2.5322731629999997,7.228972047499999,-0.028731610146330654,0.17408088492316642,0.0659908990179056,7.694334404845959,0.18837318989289548,-0.136508568,0.0838468575000002,0.04785645199999955
24002.0,0.5417193459999999,-2.519132252,7.349888042,0.0032445670794574587,0.27906593008912933,0.09823411161924885,7.7884749073764015,0.29586865538219315,-0.18789541399999998,0.01314091099999981,0.12091599450000068
24012.0,0.3645131805,-2.6184736165,7.62761237,0.04667708551533635,0.3512771825611427,0.13314069665913544,8.072777985677659,0.37855099313986795,-0.17720616549999996,-0.0993413645000003,0.2777243279999997
24022.0,0.114345539,-2.7645927015,7.9460342955,0.10716496140170384,0.3891159207443798,0.15285768121891538,8.414006699114188,0.43157965595773706,-0.2501676415,-0.1461190849999996,0.31842192550000004
24032.0,-0.058055367999999996,-2.8710929204999998,8.2561205685,0.16072388015765382,0.37099591245017466,0.15045959882667514,8.741285479007512,0.4314026235278983,-0.172400907,-0.10650021899999995,0.31008627300000047
24042.0,-0.12748644999999997,-2.878251775,8.5577731225,0.18417237865819766,0.3246312408709453,0.1326066259080252,9.02973238204808,0.3960926972878182,-0.06943108199999998,-0.007158854500000089,0.30165255400000035
24052.0,-0.12150439349999999,-2.8244132664999997,8.791171392499999,0.17031620972661465,0.2686742397227551,0.10862580198562308,9.234542114795481,0.3361443488194625,0.005982056499999985,0.05383850850000016,0.23339826999999858
24062.0,-0.21966896,-2.6759405855,8.7074226015,0.10130240044425487,0.1932655440610881,0.09610131927331177,9.111976779504356,0.23843072457858183,-0.09816456650000001,0.14847268099999988,-0.08374879099999966
24072.0,-0.44590837549999995,-2.4796114525,8.2321923425,-0.002350958502436362,0.09094387133366853,0.10596068421782774,8.609082297122374,0.13965665519031037,-0.22623941549999996,0.19632913299999988,-0.47523025899999993
24082.0,-0.4663062075,-2.4521528325,7.8418876724999995,-0.055644587212083214,0.03258878779323812,0.11448836294307205,8.229562397916323,0.13139990268345114,-0.02039783200000006,0.02745861999999999,-0.3903046699999999
24092.0,-0.5656475719999999,-2.381446886,7.516306892499999,-0.018605209826259555,0.04138175656478555,0.11475365298937518,7.904815984499044,0.12339774910213011,-0.09934136449999992,0.07070594649999995,-0.3255807800000001
24102.0,-0.5573119194999999,-2.33594403,7.409708607,0.07812093731926618,0.0752219454317036,0.11155620979972157,7.789159950056186,0.15558280710621725,0.008335652500000013,0.04550285600000015,-0.10659828549999961
24112.0,-0.5237731765,-2.3611471205,7.507873173499999,0.19003493961564658,0.11039556584714533,0.1150206883649303,7.887807911861653,0.24805285320950504,0.033538742999999926,-0.025203090500000247,0.0981645664999995
24122.0,-0.5297552329999999,-2.28691078,7.623983909499999,0.2832966081959636,0.12611749174911024,0.13020854351578495,7.9772007731337675,0.3363284923180405,-0.005982056499999944,0.07423634050000016,0.11611073599999955
24132.0,-0.530932031,-2.1097046144999996,7.662327911,0.3408523309389806,0.11572405605348401,0.152058320421502,7.965174913187657,0.3907609262265285,-0.0011767980000000344,0.17720616550000035,0.03834400150000139
24142.0,-0.510534199,-2.0115400479999996,7.6096662005,0.36216978242283937,0.07815409857505408,0.17550681892204578,7.887582533076185,0.4099727526463458,0.020397832000000005,0.09816456649999994,-0.05266171049999979
24152.0,-0.5129858615,-1.9014113685,7.479139688999999,0.34884593891311466,0.012603022528651054,0.20135514514408182,7.734083667373591,0.40298414329725735,-0.0024516625000000625,0.1101286794999996,-0.13052651150000116
24162.0,-0.563293976,-1.6836056719999999,7.2229899909999995,0.30994254988616105,-0.054810319829629923,0.2122791609323143,7.437970998348584,0.3796458844184791,-0.050308114499999945,0.21780569650000015,-0.25614969799999976
24172.0,-0.656653284,-1.464525111,6.8482778945,0.2534532233161126,-0.13395052943206082,0.19762363120331794,7.033842296812952,0.3481901497090945,-0.09335930800000003,0.21908056099999995,-0.3747120964999997
24182.0,-0.8266025284999999,-1.1760134679999998,6.3814813545,0.17937621387371722,-0.2325424335479685,0.17284344648350244,6.541374755727662,0.34077362940282846,-0.16994924449999993,0.2885116430000001,-0.4667965399999998
24192.0,-0.995374975,-0.8348401145,5.6930545245,0.08984431390491211,-0.338860910262455,0.14886087723184835,5.8394005836699145,0.38086517038865525,-0.16877244650000012,0.3411733534999999,-0.68842683
24202.0,-1.0971680019999999,-0.6013437779999999,4.994036512499999,0.013103932023973426,-0.4238619354930829,0.13100790431319836,5.1483776718627725,0.4438397507963515,-0.10179302699999981,0.2334963365,-0.6990180120000007
