timestamp,ax,ay,az,gx,gy,gz,acc_mag,gyro_mag,dax,day,daz
88802.0,0.2784107935,3.125183222,13.312135109,0.09121439736772766,0.4941079472273507,-0.05020265060436489,13.676886484184843,0.5049584497046148,0.0,0.0,0.0
88812.0,0.6614585424999999,3.2149140695,13.6162393255,0.05311036913818745,0.2889305310214013,-0.00836885376331281,14.00625479016457,0.29389045710879286,0.38304774899999994,0.08973084749999982,0.30410421650000075
88822.0,0.6853867684999999,3.1526418419999995,13.913086620999998,0.059772290893049806,0.129587206302075,0.050785590574531005,14.282257697220464,0.15147523561884232,0.023928225999999997,-0.06227222750000028,0.29684729549999744
88832.0,0.5573119194999999,3.194614304,13.969376791999998,0.0853518364102787,-0.017235126363444004,0.11473794502610722,14.34083836753648,0.1440374312051727,-0.128074849,0.04197246200000038,0.056290171000000555
88842.0,0.497393288,3.1550935045,13.783834973999998,0.0962775975277632,-0.11849040291789503,0.17016087542318714,14.149067873734689,0.2286133742678859,-0.05991863149999993,-0.03952079949999998,-0.1855418180000008
88852.0,0.6829351059999998,2.721737641,13.518074759,0.08295375401803849,-0.10596592020558372,0.21306106843720776,13.806252255241331,0.2520022230741346,0.18554181799999986,-0.4333558635000001,-0.26576021499999847
88862.0,0.670970993,2.4966750234999995,13.558772356499999,0.06962991050831378,0.037390188565474526,0.23251450827993658,13.803039377680722,0.24557961478717696,-0.011964112999999887,-0.22506261750000034,0.04069759749999946
88872.0,0.483075579,2.5780702185,13.97055359,0.06270269870714829,0.18740821909139513,0.20640089201159742,14.214646519615068,0.28575303538431723,-0.18789541399999998,0.0813951950000007,0.41178123350000106
88882.0,0.34656701100000004,2.479905652,14.588274473499999,0.027263788245403424,0.2537586559352116,0.15337429867750568,14.801614535249414,0.2977590386644073,-0.13650856799999994,-0.09816456650000038,0.6177208834999988
88892.0,0.158671597,2.57326496,15.354468037999998,-0.03455577386023573,0.19380310547070237,0.10221346231379591,15.569410970233328,0.22181374410829846,-0.18789541400000004,0.09335930800000014,0.7661935645
88902.0,0.09522257149999999,2.7157555845,15.974542517499998,-0.08918108878915426,-0.00817512221634144,0.06384239870870058,16.204024326576445,0.10998159434083427,-0.0634490255,0.14249062450000016,0.6200744794999995
88912.0,0.21133330749999998,2.8557945465,16.2210816985,-0.1347463995709702,-0.3295286347520414,0.07530048524804335,16.471906863751073,0.3638899234624046,0.11611073599999999,0.14003896199999977,0.24653918100000283
88922.0,0.41599809299999996,2.9192435719999996,15.961401606499999,-0.1765801964120223,-0.6903178617365533,0.15444069485047424,16.23149342143303,0.7290893252704588,0.20466478549999997,0.06344902549999976,-0.25968009200000175
88932.0,0.6961740835,2.8581481424999997,15.426252715999999,-0.1891046791243336,-0.9799639777512721,0.27354894432357524,15.704233251480654,1.034852164464739,0.2801759905,-0.06109542949999991,-0.5351488905000004
88942.0,0.9079977235,2.7157555845,14.5906280695,-0.17604787099016403,-1.1334464868424015,0.3873287035903376,14.86896821313118,1.2106681279527116,0.21182363999999998,-0.1423925579999996,-0.8356246464999995
88952.0,0.9966498395,2.479905652,13.7095986335,-0.15233233711406508,-1.114792407797086,0.4571418736701108,13.967689058575939,1.2144735262965913,0.088652116,-0.2358499325000003,-0.8810294359999986
88962.0,1.1259014864999999,2.1040167574999997,12.990182789499999,-0.13527872499282848,-0.9224065096790032,0.43102825740177164,13.207550476063519,1.0270927227921995,0.12925164699999991,-0.37588889450000007,-0.719415844000002
88972.0,1.2851614825,1.904059164,12.475431731,-0.14540512531289956,-0.5967909031099331,0.31005425095828865,12.685167646150981,0.688066618169589,0.15925999600000007,-0.19995759349999975,-0.5147510584999981
88982.0,1.443146614,1.9723134479999997,12.253899507499998,-0.19656596167660936,-0.20162567117814095,0.15950214968125778,12.49522891453254,0.3236232753076151,0.15798513150000004,0.06825428399999978,-0.22153222350000235
88992.0,1.535329124,2.1603069285,12.3759923,-0.2959554812606785,0.2017984587740884,0.042259657178538704,12.656593023163342,0.36069120238326424,0.09218251,0.1879934805000001,0.12209279250000193
89002.0,1.4587391874999998,2.3458487464999997,12.6345936605,-0.4211933270667836,0.5039655668426146,-0.016362461737446838,12.933053905576616,0.6570029234963066,-0.07658993650000023,0.18554181799999991,0.25860136050000015
89012.0,1.2934971349999997,2.397333659,12.984200733,-0.5253807567645851,0.6531859819003738,-0.031285026841998353,13.266868966929056,0.8388418321913781,-0.16524205250000001,0.05148491250000031,0.34960707249999956
89022.0,1.140317262,2.2752408665,13.264278656999998,-0.5861339226972556,0.6249395732860975,-0.029152234496061285,13.506225703324839,0.8572935893680738,-0.1531798729999998,-0.12209279250000016,0.28007792399999865
89032.0,1.0241084594999998,2.2967174299999997,13.367248481999999,-0.6079836996029727,0.4194968670338451,-0.00836885376331281,13.601729341139551,0.7387095763203839,-0.1162088025000001,0.021476563499999823,0.10296982500000063
89042.0,1.0552936064999998,2.3338846335,13.2320147785,-0.6039868956159057,0.09201550349439305,0.046788786587463986,13.477643606241026,0.612744819243209,0.03118514699999997,0.037167203500000134,-0.13523370349999908
89052.0,1.2647636505,2.2177738975,12.8524974235,-0.598656660080315,-0.2549192998877878,0.14671237692264336,13.103619277632136,0.6670068722705108,0.20947004400000013,-0.11611073599999999,-0.37951735500000083
89062.0,1.511400898,2.0334088775,12.074339745999998,-0.6301005118842449,-0.5179177288830573,0.2634225440035042,12.337291624963978,0.8571212665996857,0.24663724750000005,-0.18436502,-0.7781576775000012
89072.0,1.7399939094999999,1.8251156315,11.1861514555,-0.7132357801444907,-0.5922600283717557,0.35242211855045097,11.466848314110878,0.9918057112806022,0.2285930114999999,-0.208293246,-0.8881882904999987
89082.0,1.765197,1.589265699,10.3433679545,-0.846734269300285,-0.45609816677741816,0.4030488841630505,10.612584348451817,1.0428004907796549,0.025203090500000025,-0.23584993249999986,-0.8427835009999995
89092.0,1.706553233,1.348610508,9.671808562499999,-1.015404633542269,-0.15739379194484865,0.39692103315929844,9.91337253960523,1.1015287931443885,-0.05864376699999996,-0.2406551910000001,-0.6715593920000007
89102.0,1.604760206,1.18464332,9.309060578999999,-1.193667327353214,0.19433717622181262,0.33403507488069073,9.520359445833629,1.254666512545458,-0.10179302700000004,-0.16396718799999999,-0.36274798350000026
89112.0,1.5712214629999999,1.0301885825,9.2336474405,-1.3535464681529024,0.5260823791238868,0.2389093946592438,9.422858932232693,1.4717093496782205,-0.03353874300000004,-0.15445473750000005,-0.07541313849999831
89122.0,1.492179864,0.9667395569999999,9.344952917999999,-1.487575537401303,0.7917459258869517,0.1472464476737536,9.512588036766457,1.6915744461849445,-0.07904159899999996,-0.06344902549999998,0.11130547749999842
89132.0,1.4707033004999999,0.8230721345,9.6059078745,-1.6037533790603056,0.9500245997625615,0.061179026270157234,9.75263461994107,1.865023998305847,-0.021476563500000045,-0.14366742249999986,0.2609549565000009
89142.0,1.4036258145,0.6710690595,9.775955185499999,-1.692218882856142,0.9977209575610625,-0.014763740142620033,9.898979689778807,1.9645024369225026,-0.06707748599999985,-0.1520030750000001,0.17004731099999937
89152.0,1.3006559894999998,0.5908506625,9.687303069499999,-1.7750888610700848,0.9564194861418687,-0.06565754113077468,9.792070836587275,2.01742152533235,-0.10296982500000018,-0.080218397,-0.08865211600000045
89162.0,1.267215313,0.45198849849999995,9.479009823499998,-1.8462354626983817,0.8746159041008945,-0.10509500090883855,9.574014596097472,2.0456254111267196,-0.03344067649999993,-0.138862164,-0.2082932460000002
89172.0,1.2731973694999998,0.3011622215,9.034964711499999,-1.882740769333095,0.788548482697298,-0.13627007200796126,9.129201365037952,2.0457495072951235,0.005982056499999944,-0.15082627699999995,-0.4440451119999995
89182.0,1.2431890204999998,0.27007514099999996,8.449507706499999,-1.8931324596994694,0.7344554931902378,-0.15145792715881592,8.54474341362459,2.036250201999824,-0.030008349000000045,-0.03108708050000003,-0.5854570050000003
89192.0,1.3234074174999997,0.134743371,7.840220541999999,-1.8949982166698514,0.7688297528082662,-0.15385775488030815,7.952271443802784,2.0508021939528795,0.08021839699999989,-0.13533176999999996,-0.6092871644999995
89202.0,1.385679645,-0.016082905999999998,7.264374053999999,-1.9147152012296313,0.9164497009419464,-0.14879455472027256,7.395369979579191,2.1279459992421836,0.06227222750000028,-0.150826277,-0.5758464879999998
89212.0,1.306638046,-0.25310963649999996,7.0932480115,-1.9245745661741471,1.1261562465568211,-0.13600478196165813,7.21703088700558,2.2339902535910476,-0.07904159899999996,-0.23702673049999995,-0.1711260424999992
89222.0,1.0205780654999999,-0.549956932,7.3625386205,-1.86462076103889,1.233274084068721,-0.13627007200796126,7.45325480264754,2.239719866737322,-0.28605998050000014,-0.2968472955,0.26929060899999957
89232.0,0.852982417,-0.9378099395,7.798346146499999,-1.7329880288534778,1.147738988086983,-0.1815683474142221,7.900713202424674,2.0865088923144146,-0.16759564849999986,-0.38785300750000007,0.4358075259999996
89242.0,0.805125965,-1.081477362,8.0197803035,-1.5744423196023127,0.9255097050890491,-0.2668364080204051,8.13232422007646,1.8457081298553035,-0.047856451999999994,-0.14366742249999997,0.22143415700000002
89252.0,0.9631110965,-1.022833595,7.989870021,-1.4425442973705973,0.6718383156164373,-0.3656953475118679,8.112446887329162,1.6327993934952902,0.15798513150000004,0.05864376699999996,-0.029910282499999497
89262.0,1.1654222859999999,-0.8301329224999999,7.680960546,-1.3682002525526469,0.4965060296195909,-0.43870596078129465,7.813096996897738,1.5201819261387024,0.20231118949999982,0.19270067250000011,-0.3089094750000001
89272.0,1.3449820474999998,-0.5679031015,7.192589375999999,-1.3375575068753822,0.4386832715010187,-0.46934870645855914,7.3392664873636155,1.4838434233934008,0.17955976149999997,0.2622298209999999,-0.48837117000000063
89282.0,1.511400898,-0.505630874,6.7615871085,-1.3077141219955315,0.4957066688221775,-0.46401847092296844,6.946873791933361,1.473483786045511,0.16641885050000016,0.062272227500000055,-0.43100226749999937
89292.0,1.5042420435,-0.666067668,6.667051002499999,-1.239499673510585,0.6446583031751295,-0.44003764700056636,6.8670196835107635,1.4647787885081074,-0.007158854500000089,-0.160436794,-0.09453610600000051
89302.0,1.2946739329999999,-0.956932907,6.9232007005,-1.1369109654076102,0.8309163502894603,-0.4211182779089478,7.107925795947286,1.4698058131710525,-0.20956811050000002,-0.29086523900000005,0.25614969800000065
89312.0,1.0265601219999998,-1.3412555204999999,7.5588677534999995,-1.0396524928402262,0.9708079804953098,-0.4275131642882551,7.745274286315141,1.485298941796578,-0.2681138110000001,-0.38432261349999985,0.6356670529999997
89322.0,0.6602817445,-1.7842219009999998,8.2484713815,-1.0002167783914144,1.0225028876101299,-0.4485635803965587,8.465028051078894,1.4990513815760063,-0.3662783774999998,-0.4429663804999999,0.6896036280000004
89332.0,0.31185147,-2.1073510184999997,8.8039200375,-1.04524801842212,0.9614826863019043,-0.47840871060566165,9.057990267228606,1.4986217903317254,-0.34843027449999997,-0.32312911749999995,0.5554486559999994
89342.0,0.1203275955,-2.297698095,9.072033848499998,-1.1318495105768267,0.7954756944984636,-0.4991920913384102,9.359257097352073,1.470733707775011,-0.19152387450000002,-0.19034707650000016,0.2681138109999992
89352.0,0.053348176000000004,-2.490496834,8.9535695165,-1.2043260530951432,0.5823064156476322,-0.5103831425021977,9.29364447323248,1.4317726621285018,-0.0669794195,-0.1927987390000001,-0.1184643319999985
89362.0,0.1442558215,-2.6508355614999997,8.582387814,-1.2347035087261047,0.3976470901281281,-0.530634197813088,8.98360281323954,1.4014951354309657,0.0909076455,-0.16033872749999967,-0.3711817024999995
89372.0,0.3250904475,-2.6951616195,8.204145323499999,-1.2067241354873832,0.2774724444820585,-0.5679388652452149,8.641619086918176,1.362251317221108,0.180834626,-0.044326058000000224,-0.3782424905000017
89382.0,0.5740812909999999,-2.6029791094999997,7.900041106999999,-1.1377103262050239,0.20712694898042705,-0.6310918588993777,8.337608713861512,1.317407793250273,0.24899084349999995,0.09218251000000022,-0.30410421649999986
89392.0,0.887697958,-2.3491830075,7.648696667499999,-1.0678971561252504,0.18580949749656833,-0.6955747934435601,8.050417950565654,1.287926161972951,0.313616667,0.25379610199999947,-0.2513444394999995
89402.0,1.1594402295,-1.951719483,7.3111517745,-1.0319259202416473,0.2289767258861441,-0.7355445786434822,7.655485017677149,1.2877605651035937,0.27174227149999997,0.3974635245000002,-0.33754489299999957
89412.0,1.41804159,-1.7254800675,7.028622188,-1.0441833675784036,0.34622096371811517,-0.7206220135389307,7.37493412010951,1.3150984553417202,0.25860136050000015,0.22623941550000004,-0.28252958649999993
89422.0,1.514931292,-1.7686293275,6.850239224499999,-1.0761577994749396,0.5074300454078233,-0.6542733220243663,7.235250095915983,1.3578197377657057,0.09688970199999991,-0.04314926000000008,-0.1783829635000007
89432.0,1.295850731,-2.0139917105,6.8825031029999995,-1.0886822821872508,0.6310691696191018,-0.556482524035124,7.287265652479026,1.3759179510234925,-0.21908056099999995,-0.24536238300000002,0.03226387850000023
89442.0,0.899662071,-2.3360420965,6.9412449365,-1.0588388973073999,0.6403944638125073,-0.44749892955284215,7.3788458302842335,1.3158647999258126,-0.3961886600000001,-0.3220503859999999,0.05874183350000095
89452.0,0.49621648999999995,-2.6616228764999996,7.121981495999999,-0.9607793186133505,0.5188881319471662,-0.3683587199504112,7.6192576784764565,1.1524018132206575,-0.403445581,-0.3255807799999997,0.18073655949999878
89462.0,0.169458912,-2.9130653824999997,7.2884003465,-0.800901923142914,0.2934614057595786,-0.34464318607431227,7.850824533540245,0.9199687021153813,-0.32675757799999994,-0.25144250600000007,0.16641885050000038
89472.0,0.12993811249999998,-2.8914907524999998,7.3111517745,-0.642357959221001,0.03445978075137604,-0.3864787282446163,7.863239978192677,0.7504512187008414,-0.03952079950000001,0.021574629999999928,0.022751428000000296
89482.0,0.3741236975,-2.7514517904999996,7.0500987515,-0.5613519926481882,-0.1539293133796399,-0.46241974932814167,7.577225607198098,0.7433991644710938,0.24418558500000004,0.1400389620000002,-0.26105302299999966
89492.0,0.773940818,-2.5204071165,6.7077486,-0.5816030479590784,-0.19096869076546358,-0.5245063468093359,7.207310712288761,0.8061253339842637,0.3998171205,0.23104467399999962,-0.3423501514999998
89502.0,1.1019732604999999,-2.212772506,6.4467936434999995,-0.6418238884698908,-0.08491550409728012,-0.5551490924866004,6.904480828566223,0.8528417564445365,0.32803244249999985,0.30763461050000007,-0.2609549565000009
89512.0,1.3006559894999998,-2.006832856,6.1714229115,-0.7063085683433252,0.08348782476914876,-0.5428916451498442,6.618575743128613,0.8947476454137145,0.19868272899999995,0.20593964999999992,-0.27537073199999984
89522.0,1.3700870715,-2.0151685085,6.1966260019999995,-0.7393493964128299,0.2492277811970343,-0.4816061537953153,6.658544624000357,0.9168950344886428,0.06943108200000014,-0.008335652500000013,0.025203090499999803
89532.0,1.2288713115,-2.0714586795,6.346275481,-0.7092389761574238,0.3304990378161502,-0.38834448521499826,6.787950960477351,0.8735336161219749,-0.1412157599999999,-0.05629017100000011,0.1496494790000007
89542.0,1.1127605754999998,-2.2211081585,6.5509402665,-0.6282347549138628,0.2985228605903621,-0.286555137909437,7.00616699239987,0.752269002843418,-0.11611073600000021,-0.1496494789999998,0.20466478549999945
89552.0,0.887697958,-2.424596146,6.8059131665,-0.519251160431581,0.20792630977784046,-0.17757154342715506,7.279225794394173,0.586844758809752,-0.2250626174999999,-0.20348798749999997,0.2549729000000003
89562.0,0.613504024,-2.6604460784999997,6.962721499999999,-0.4222597232397521,0.09121614269697965,-0.09603499676173599,7.4788937156930135,0.4425453413629551,-0.2741939339999999,-0.23584993249999986,0.156808333499999
89572.0,0.483075579,-2.9836732625,7.030975784,-0.3679014436863887,-0.01430297322009353,-0.07018841586895196,7.653122802332261,0.3748098998581237,-0.13042844500000006,-0.3232271840000003,0.06825428400000089
89582.0,0.47591672449999994,-3.2793437599999997,7.009401153999999,-0.35084783156515215,-0.0841161432998667,-0.09949772999769274,7.753212028740492,0.374258633504034,-0.007158854500000034,-0.29567049749999974,-0.021574630000000816
89592.0,0.5118090635,-3.4469394085,6.8298413925,-0.35377823937925057,-0.1080987125515208,-0.14905984476657572,7.667468503362594,0.3988272954994609,0.03589233900000005,-0.1675956485000003,-0.1795597614999993
89602.0,0.6051683715,-3.4793013535,6.779631344499999,-0.35910672958558926,-0.074790849106461,-0.19915603028656895,7.644289884198385,0.41739003191646507,0.09335930800000003,-0.03236194499999989,-0.050210048000000285
89612.0,0.6937224209999999,-3.383490383,6.785613401,-0.3513801569870104,-0.03375466773357033,-0.23486197612386894,7.614053269913626,0.423990023640685,0.0885540494999999,0.09581097050000009,0.00598205650000061
89622.0,0.6961740835,-3.2326641059999996,6.7808081425,-0.32473421529681296,-0.044945718897357975,-0.2252696465549081,7.5441457198381405,0.39776732129551623,0.0024516625000000625,0.15082627700000018,-0.004805258500000242
89632.0,0.6757762515,-3.199125363,6.634787124,-0.2866301870672727,-0.09664062601217802,-0.1685115392800525,7.396720679536132,0.34625483910665866,-0.020397832000000005,0.033538742999999815,-0.14602101849999993
89642.0,0.6649889364999999,-3.2853258164999994,6.4575809584999995,-0.2362687115009764,-0.13181250109836776,-0.08510923564425149,7.275708064636085,0.2836212641394992,-0.010787315000000075,-0.08620045349999961,-0.17720616550000035
89652.0,0.5968327189999999,-3.3547568985,6.267233881999999,-0.17418211401978212,-0.14007314444805694,-0.01822821870782878,7.133640282085371,0.22425914161350713,-0.0681562175,-0.06943108200000037,-0.19034707650000016
89662.0,0.5141626595,-3.3906492375,6.1116023465,-0.09690766138773314,-0.14140657599658057,0.001223475805648025,7.008034584241701,0.17143048580623946,-0.08267005949999995,-0.035892339000000106,-0.15563153549999953
89672.0,0.450713634,-3.4337984974999998,6.1127791445,-0.001514945790731078,-0.14140657599658057,-0.0254224658845494,7.025680306613794,0.1436816500722227,-0.06344902549999998,-0.043149259999999856,0.0011767980000003675
89682.0,0.35019547149999997,-3.314059301,6.140335831,0.1064022525185823,-0.1315472110520646,-0.07285178830749531,6.986368873475418,0.1842104533847216,-0.10051816250000001,0.11973919649999987,0.02755668649999965
89692.0,0.3286208415,-3.0926251439999994,6.202608058499999,0.19939863105259617,-0.09557422983920949,-0.13440431503757932,6.938635936993546,0.25876392209063515,-0.021574629999999984,0.22143415700000046,0.06227222749999939
