timestamp,ax,ay,az,gx,gy,gz,acc_mag,gyro_mag,dax,day,daz
115822.0,-0.7523661879999999,0.8567089439999999,11.376890798,0.04641179546903321,0.07149217682019172,-0.009417796643761401,11.433881638585923,0.08575477245478628,0.0,0.0,0.0
115832.0,-0.579965281,-0.620564812,11.210570013999998,0.14073811489306676,-0.06680247712008297,-0.02540501259202946,11.242701652710256,0.1578455023047361,0.17240090699999988,-1.4772737559999998,-0.1663207840000016
115842.0,-0.6183092825,-1.1113876445,11.572043133,0.32806255818036617,-0.17471967542939634,-0.047254789497746474,11.641721141531667,0.3746798929652832,-0.03834400149999995,-0.4908228324999999,0.3614731190000011
115852.0,-0.6194860805,-1.1508103774999998,11.859377978,0.5966565127575294,-0.2794394305490561,-0.07763224512870778,11.931176536870382,0.663409492730757,-0.0011767980000000344,-0.03942273299999988,0.28733484500000017
115862.0,-0.4578724885,-1.0454869565,12.1658357905,0.8780402400933073,-0.3290015453179391,-0.11440284180972432,12.219257369961054,0.9446082205119991,0.16161359199999997,0.1053234209999998,0.3064578124999997
115872.0,-0.21731536399999998,-0.8240527994999999,12.563299314999998,1.0757563737469809,-0.24613156710399633,-0.14664605441106757,12.592171324361564,1.1132554016292295,0.24055712450000002,0.22143415700000013,0.3974635244999991
115882.0,-0.10120462799999999,-0.4984720195,13.256433336999999,1.1418380298859903,-0.035093335269849986,-0.1639649565786073,13.266187905697626,1.1540841111721911,0.11611073599999999,0.3255807799999999,0.6931340220000006
115892.0,-0.079629998,-0.14651135099999998,14.131480716499999,1.0749570129495676,0.20765403841452934,-0.17275967067940673,14.132464532181379,1.1083765980805336,0.021574629999999997,0.35196066849999996,0.8750473794999998
115902.0,-0.19574073399999997,0.16475172,15.1633364295,0.8804383224855475,0.3675314338849659,-0.14957646222516605,15.165494691515724,0.9657246567456484,-0.11611073599999998,0.31126307099999995,1.0318557130000006
115912.0,-0.44708517349999993,0.35392199849999995,16.014553649499998,0.5833326692478048,0.407501219084888,-0.06590712321380987,16.024702010524233,0.7146173769631964,-0.25134443949999996,0.18917027849999996,0.8512172199999988
115922.0,-0.578788483,0.304790682,16.620212353499998,0.2566506665057662,0.3408854921947685,0.0737192169457365,16.63308005582013,0.43302079205716687,-0.13170330950000003,-0.049131316499999966,0.6056587039999997
115932.0,-0.6734226554999999,0.011571847,16.937457481,-0.007147123286916779,0.19726234804815512,0.22426957289351537,16.950843574915865,0.2987647178878217,-0.09463417249999995,-0.29321883499999996,0.31724512750000144
115942.0,-0.7081381964999999,-0.38589167750000003,16.9422627395,-0.1611637031291564,0.004876449930072156,0.34098148530362815,16.96144565850317,0.3771815110660804,-0.03471554099999996,-0.39746352450000005,0.004805258499999354
115952.0,-0.668617397,-0.8923070835,16.7818259455,-0.21392326108769297,-0.19736881313252677,0.4105276200078462,16.818827046494423,0.5032400389685245,0.03952079949999987,-0.5064154059999999,-0.16043679399999888
115962.0,-0.5380908855,-1.132864208,16.4215296245,-0.221916869061827,-0.3324642785538958,0.4345084439302483,16.469352091784206,0.5904042523011265,0.13052651150000005,-0.2405571245,-0.36029632099999986
115972.0,-0.42560861,-1.2610371235,16.034853415,-0.24723112453275276,-0.35538045163258136,0.4347754793058034,16.089993205601065,0.6135537561989969,0.11248227549999995,-0.12817291549999998,-0.38667620949999915
115982.0,-0.47827032049999996,-1.1017771275,15.641018351,-0.3154455730176991,-0.24453284550916954,0.42758123212908283,15.687068253643574,0.5849170301318816,-0.05266171049999996,0.15925999600000007,-0.393835064000001
115992.0,-0.544072942,-0.8923070835,15.2639526585,-0.42202933977848883,-0.0779935282838706,0.43344379308653175,15.299688822273804,0.6099715369205962,-0.06580262150000005,0.2094700439999999,-0.37706569250000044
116002.0,-0.5297552329999999,-0.8599451385,14.911991989999999,-0.5376748560156331,0.09467363994518042,0.4451671696721777,14.946158414721316,0.7044367663927252,0.014317709000000067,0.032361945,-0.3519606685000003
116012.0,-0.42198014949999996,-1.0550974735,14.703698743999999,-0.6290707676255682,0.27400272992909375,0.4395716440902839,14.7475440219538,0.814880823788272,0.10777508349999998,-0.19515233500000007,-0.2082932460000002
116022.0,-0.417174891,-1.282513687,14.595923660499999,-0.6874258511659986,0.4405420471543927,0.4102605846322911,14.658098913234515,0.9137534369101493,0.004805258499999965,-0.22741621349999996,-0.10777508349999998
116032.0,-0.5859473374999999,-1.3818550515,14.607887773499998,-0.7106090596202392,0.5236790607438906,0.3654946346478885,14.684796316900352,0.9554011315841936,-0.16877244649999995,-0.09934136450000008,0.011964112999999443
116042.0,-0.8613180695,-1.3447859144999998,14.574349030499999,-0.6951541690938294,0.4754486321942793,0.3095376334996983,14.661581348392167,0.8972760262129692,-0.27537073200000006,0.03706913700000025,-0.03353874299999937
116052.0,-0.887697958,-1.387837108,14.472654069999999,-0.6482571720927419,0.3209014722594334,0.24745278134775606,14.566118746353357,0.7644919849577829,-0.02637988849999995,-0.043051193500000196,-0.10169496049999971
116062.0,-0.820620472,-1.31605243,14.186496023,-0.5808420844052089,0.11119492664455874,0.17577385429760092,14.271022435977361,0.6169589018583903,0.06707748599999996,0.07178467799999999,-0.2861580469999989
116072.0,-0.7116685904999999,-1.0766721035,13.584367712999999,-0.5128929259665657,-0.1136994741211706,0.10835876661006795,13.645539240468155,0.5364031564254921,0.10895188150000013,0.23938032650000007,-0.6021283100000012
116082.0,-0.578788483,-0.6732265225,12.6973562205,-0.45986807796172596,-0.30235560362774166,0.07238578539721283,12.728357515756734,0.5551011278144545,0.1328801074999999,0.40344558099999994,-0.8870114924999992
116092.0,-0.32979763949999996,-0.276939796,11.843785404499998,-0.40790788080060275,-0.3798953463060938,0.08277922109283906,11.851612330880364,0.5635261420812727,0.2489908435,0.3962867265,-0.8535708160000013
116102.0,0.014906108,-0.0136312435,11.062097332999999,-0.33649598912600276,-0.3500519614262427,0.12834278654540304,11.062115774462892,0.5022328118059248,0.34470374749999994,0.2633085525,-0.7816880714999996
116112.0,0.29508209849999995,0.30243708599999997,10.3833790865,-0.24536536756237085,-0.2661155870393314,0.2021545059414952,10.391973002746346,0.41459391401316464,0.28017599049999997,0.31606832949999997,-0.678718246499999
116122.0,0.576434887,0.556233188,9.9116792215,-0.1201275217562657,-0.15233582777256907,0.30820594728042666,9.943996054318314,0.36418090538286196,0.28135278850000006,0.253796102,-0.4716998649999997
116132.0,0.8026743025,0.7860029974999999,9.616008723999999,0.044013713076793,-0.02603333112274742,0.43424315388394513,9.681410564996039,0.4372437054586704,0.22623941550000004,0.22976980949999992,-0.2956704975000015
116142.0,0.8900515539999999,0.9081938565,9.371823138999998,0.22387512848256463,0.05896769410788042,0.5554824503737312,9.45769933960992,0.6017956586539073,0.08737725149999986,0.12219085900000004,-0.24418558500000032
116152.0,1.0121443465,0.8160113465000001,9.1502909155,0.3669659472073198,0.05603728629378194,0.6929777435165926,9.242193166886876,0.7861439670151296,0.12209279250000005,-0.09218250999999988,-0.2215322234999988
116162.0,0.995374975,0.8985833395,8.9647490975,0.4378437681308095,-0.0041835542170304075,0.8416640878232414,9.064488388210902,0.9487481774149567,-0.016769371499999908,0.08257199299999995,-0.18554181799999903
116172.0,0.9689950864999999,0.9836069949999999,8.780384077499999,0.4274520777644352,-0.1307530862424072,0.9858195573917131,8.888283228311842,1.0824286803679217,-0.02637988850000017,0.0850236554999999,-0.18436502000000132
116182.0,1.0348957745,0.833957516,8.439210723999999,0.34644785652087445,-0.31034921160187573,1.1294427015383266,8.54322960282863,1.2214677918340737,0.06590068800000015,-0.14964947899999992,-0.34117335350000033
116192.0,1.1031500585,0.4615990155,7.8239415029999995,0.2097519241754265,-0.491542313226919,1.2842586421779796,7.914800966862339,1.391017604272711,0.068254284,-0.3723585005,-0.6152692209999993
116202.0,1.0827522264999998,0.14445195449999998,6.95487618,0.0594668582739508,-0.6018593392577246,1.4228185861645575,7.040136463896206,1.5460218952589349,-0.020397832000000227,-0.317147061,-0.8690653229999992
116212.0,1.0289137179999999,-0.056682437,6.098951768,-0.04205370832680337,-0.5853380525583463,1.497160885653256,6.185393197375828,1.6080671216360574,-0.05383850849999994,-0.20113439149999998,-0.8559244120000002
116222.0,0.7380484789999999,-0.20280152199999998,5.52310528,-0.04791626928425233,-0.42119681772528755,1.515280893947461,5.575888803468341,1.5734608084366914,-0.29086523899999994,-0.14611908499999998,-0.5758464879999998
116232.0,0.1550431365,-0.25546323249999997,5.2968658645,0.04454603849865127,-0.1440769297521319,1.4851704736920546,5.3052886654583125,1.4928073710828889,-0.5830053424999999,-0.052661710499999986,-0.22623941550000026
116242.0,-0.5704528305,-0.506807672,5.639216016,0.19056726503750485,0.20312490900560407,1.4038992170729387,5.690608730472904,1.4312612000820886,-0.725495967,-0.2513444395,0.3423501514999998
116252.0,-0.9176082405,-1.1963132335,6.344314150999999,0.3075444674939208,0.49756544447555145,1.235761178252813,6.521003932084351,1.3672090771711007,-0.34715541000000005,-0.6895055615,0.7050981349999992
116262.0,-0.9091745215,-2.0977405014999997,7.1236486265,0.3200672048769801,0.6321285844750623,0.9415876781584208,7.481542840618742,1.1783959091103355,0.008433719000000006,-0.9014272679999997,0.7793344755000007
116272.0,-0.8003207065,-2.3635007165,7.827569963499999,0.21321640274063527,0.6110781683667587,0.561077975955625,8.215686240578814,0.8565548770245782,0.10885381500000002,-0.26576021500000024,0.7039213369999997
116282.0,-0.7128453885,-2.0869531864999997,8.1196120005,-0.011145672603235788,0.5481939554174029,0.10782644118820968,8.413775679753522,0.5588088941608486,0.08747531799999997,0.2765475300000002,0.29204203700000075
116292.0,-0.6039915735,-1.814034117,7.8777800115,-0.34342320092716827,0.50049585228965,-0.30598937913039387,8.106475406000312,0.6797537004200928,0.10885381500000002,0.27291906949999967,-0.24183198900000047
116302.0,-0.460324151,-1.444127279,7.5126784319999995,-0.6767688707533213,0.47838078533762973,-0.5772484514753526,7.664055006625656,1.009990126155531,0.14366742249999997,0.3699068380000001,-0.3651015795000001
116312.0,-0.4950396919999999,-0.9617381655,7.226618451499999,-0.9040613539112908,0.5593850065811906,-0.7182082231834226,7.307121104730303,1.2829893098042726,-0.034715540999999905,0.4823891134999999,-0.28605998050000014
116322.0,-0.8601412714999999,-0.587026069,6.928496291499999,-1.011711516845049,0.6478505103770272,-0.7608413808218881,7.0063188247433095,1.422023236056163,-0.36510157949999994,0.37471209650000004,-0.29812216000000014
116332.0,-1.1318835429999998,-0.517594987,6.877011379,-0.993858543926399,0.6571758045704329,-0.7347277645535489,6.988730244642245,1.399807033649336,-0.27174227149999997,0.06943108200000003,-0.051484912499999425
116342.0,-1.2611351899999999,-0.5953617215,7.0087146885000005,-0.8542322037668526,0.5569869241889503,-0.6742416339964334,7.146117766429507,1.2225174324663113,-0.12925164700000003,-0.07776673450000005,0.13170330950000064
116352.0,-1.2659404485,-0.7258882329999999,7.221813192999999,-0.6389301325700841,0.36833079468237934,-0.5988329383347665,7.367774748222497,0.9500000929747474,-0.004805258500000242,-0.13052651149999994,0.21309850449999868
116362.0,-1.143847656,-0.679208579,7.383426784999999,-0.42735957531407953,0.12585045637355513,-0.5255552896897845,7.502313166176104,0.6889723553982234,0.12209279250000016,0.04667965399999996,0.16161359200000014
116372.0,-0.8852462955,-0.5331875604999999,7.4708040365,-0.279472591804844,-0.12968669006943867,-0.4733280571531062,7.541940262966361,0.5647681089080879,0.25860136049999993,0.14602101850000004,0.08737725150000042
116382.0,-0.552506661,-0.41707682449999994,7.4444241479999995,-0.21312390029027958,-0.34871852987771906,-0.44908019785514897,7.476541151047715,0.6072062533115403,0.3327396345,0.11611073599999999,-0.02637988850000017
116392.0,-0.26399501799999997,-0.22908334399999997,7.234954103999999,-0.2304428024578193,-0.49953766653030507,-0.45067891944997573,7.243392398249143,0.7111633103048508,0.28851164300000004,0.18799348049999998,-0.20947004400000058
116402.0,0.0293218835,-0.080610663,7.0590228029999995,-0.28959899212491513,-0.5472340243288061,-0.46773253157121236,7.059543950221944,0.7759551370490965,0.29331690149999995,0.14847268099999997,-0.17593130099999943
116412.0,0.289100042,0.0295180165,6.8590652095,-0.35994448762654657,-0.4931427801509978,-0.48185573587835046,6.865218546831249,0.777775537019942,0.2597781585,0.11012867949999999,-0.19995759349999975
116422.0,0.441103117,0.128859381,6.7453080695,-0.4225634105295991,-0.364440455779684,-0.47599317492090154,6.760943547491034,0.7334481469733156,0.152003075,0.0993413645,-0.1137571399999997
116432.0,0.5273035705,0.14317708999999998,6.6711697955,-0.46066743875913935,-0.21362306445634993,-0.439220832910633,6.693508435413705,0.6713897845985873,0.0862004535,0.014317708999999984,-0.07413827400000006
116442.0,0.6075219675,-0.032754211,6.7549185865,-0.4625314504002693,-0.06866648876121291,-0.3792670277753758,6.782262225067419,0.6020746694935257,0.080218397,-0.17593130099999998,0.08374879099999966
116452.0,0.626644935,-0.250657974,6.9728223495,-0.4337544616933868,0.03605326635844687,-0.32224363045421706,7.005409681965619,0.5415567638044482,0.019122967499999977,-0.217903763,0.2179037630000007
116462.0,0.5357372895,-0.36314024949999996,7.312818904999999,-0.38738979011415736,0.0650972904408845,-0.27801175122092475,7.341403518503333,0.48124737975843684,-0.09090764549999997,-0.11248227549999995,0.3399965554999991
116472.0,0.4578724885,-0.425412477,7.606037739999999,-0.3402257577375146,0.011271336309379381,-0.2412394092106562,7.631673020617219,0.4172254328376586,-0.07786480099999998,-0.062272227500000055,0.29321883499999934
116482.0,0.4243337455,-0.3739275645,7.778438647,-0.30718492966801,-0.09291609338842212,-0.21032962815783665,7.798973569400409,0.38371152433399763,-0.03353874299999998,0.051484912500000035,0.172400907000001
116492.0,0.4148212949999999,-0.3129302015,7.826295098999999,-0.2957268431286672,-0.19443665998917628,-0.17275967067940673,7.843525801221522,0.39383484394838775,-0.009512450500000103,0.06099736299999997,0.04785645199999955
116502.0,0.4088392385,-0.2686041435,7.7628460734999996,-0.31064940823321874,-0.27091175182381183,-0.12319755591052374,7.778243816549915,0.4302021267895153,-0.005982056499999944,0.044326058,-0.06344902549999976
116512.0,0.4663062075,-0.3511761365,7.6204535154999995,-0.3463553540705187,-0.326868752972002,-0.06617415858936501,7.642779464298077,0.4808162146057436,0.057466969000000034,-0.08257199300000001,-0.14239255800000006
116522.0,0.5811420789999999,-0.47572059149999996,7.376267930499999,-0.38632339394118886,-0.3732334245512314,0.0015079644737231008,7.414402523446126,0.5371696453312796,0.11483587149999991,-0.12454445499999994,-0.24418558500000032
116532.0,0.7212791075,-0.7210829744999999,7.163169426,-0.40124595904574034,-0.37669790311644014,0.06785665598828754,7.235412941402235,0.5545305723084811,0.1401370285000001,-0.24536238299999996,-0.21309850449999956
116542.0,0.8624948674999999,-1.050292215,7.11766657,-0.37593170357481465,-0.32766811376941546,0.12994150814022984,7.2462534136648165,0.5153405030381625,0.1412157599999999,-0.3292092405000001,-0.0455028559999997
116552.0,0.880441037,-1.2730012365,7.2193615305,-0.32050702784848273,-0.24799557874512626,0.18163641525504987,7.383419903799829,0.4440927260427749,0.017946169500000053,-0.22270902150000005,0.10169496049999971
116562.0,0.8301329224999999,-1.499240652,7.439716955999999,-0.25469240708502855,-0.18084752643314844,0.20854939232080244,7.634542002440072,0.3755887366270855,-0.050308114500000056,-0.22623941549999982,0.2203554254999993
116572.0,0.742755671,-1.6788004135,7.7497051625,-0.19873366060758632,-0.15526798091591956,0.217609396467905,7.964168941003799,0.33310218130075875,-0.08737725149999997,-0.1795597615000002,0.3099882065000008
116582.0,0.6661657345,-1.7864774305,8.032234748999999,-0.16009730695618787,-0.14674030219067527,0.2237372474716571,8.255426909527507,0.3118047784878033,-0.0765899364999999,-0.10767701699999987,0.28252958649999904
116592.0,0.6015399109999999,-1.8822884009999998,8.301623424499999,-0.14277665945939613,-0.1408777412332263,0.2322631808676494,8.533569673429291,0.30688417627521736,-0.06462582350000012,-0.09581097049999987,0.2693886755000001
116602.0,0.5296571664999999,-1.9864350239999997,8.542180549,-0.13798049467491572,-0.14380989437657676,0.24611934979923236,8.78608612240471,0.3166932853360385,-0.07188274449999998,-0.10414662299999988,0.24055712450000044
116612.0,0.4566956905,-2.0510608475,8.6954584885,-0.12812112973039974,-0.146207976768817,0.2727670368186818,8.945748704222323,0.33495320976080967,-0.07296147599999997,-0.06462582350000035,0.15327793950000057
116622.0,0.345390213,-2.1085278165,8.816374483,-0.11426496079881676,-0.13981309038950976,0.3004776293525958,9.071584369705436,0.3505581082388144,-0.11130547749999997,-0.057466969000000034,0.12091599450000068
116632.0,0.199271128,-2.1169615354999998,8.9863237275,-0.09987646644537551,-0.1136994741211706,0.3161995552545607,9.234459879206277,0.35054962231933295,-0.146119085,-0.008433718999999673,0.1699492444999997
116642.0,-0.08561205449999999,-2.0630249605,9.1969705695,-0.08975181145455641,-0.07186393195086652,0.32232915158756476,9.425904151208567,0.34222199569573597,-0.2848831825,0.05393657499999982,0.21064684199999917
116652.0,-0.37530049549999994,-2.0642017585,9.490287471,-0.09028413687641468,-0.03375990372132631,0.31566722983270246,9.719430829217142,0.33005568690911025,-0.28968844099999996,-0.0011767979999999234,0.2933169015000008
116662.0,-0.5932042585,-2.149225414,9.809886194499999,-0.11506606692548217,-0.03775670770839333,0.2940827429732885,10.060066019740013,0.3180415514510169,-0.21790376300000008,-0.08502365550000013,0.3195987234999986
116672.0,-0.644689171,-2.33594403,10.008666989999998,-0.15130433818464042,-0.096645861999934,0.25811150708968544,10.297848006025966,0.3144121109106821,-0.05148491249999998,-0.18671861599999984,0.19878079549999939
116682.0,-0.5093574009999999,-2.527565971,10.0385772725,-0.18940836641418063,-0.18031520101129017,0.21254619630786947,10.364413555800645,0.3369940452713874,0.13533177000000007,-0.19162194100000018,0.029910282500001273
116692.0,-0.3274440435,-2.6076863015,9.867353163499999,-0.22484727687592548,-0.23787092375430716,0.16111832456860456,10.211361608614583,0.36482597056410426,0.18191335749999993,-0.08012033049999978,-0.17122410900000062
116702.0,-0.1777945645,-2.6041559075,9.650724265,-0.25042856772240635,-0.24799557874512626,0.1227472609635092,9.997485570721903,0.37320659785522253,0.149649479,0.00353039399999977,-0.21662889849999978
116712.0,-0.0771783355,-2.5143269935,9.399281758999999,-0.26908090143846974,-0.2272121980123778,0.08864003672103603,9.730071649827837,0.36316245752343684,0.100616229,0.08982891399999993,-0.25144250600000007
116722.0,-0.060507030499999996,-2.4090035725,9.187458119,-0.27121194845515484,-0.19736881313252677,0.062261130406393715,9.498228571762038,0.34115512269591647,0.016671305000000004,0.10532342100000003,-0.21182363999999865
116732.0,-0.024516625,-2.3646775145,9.035455043999999,-0.24989449697129612,-0.16219519271708505,0.051335369288909215,9.339793823453936,0.3023075591133939,0.035990405499999996,0.044326058000000224,-0.15200307500000143
116742.0,0.000588399,-2.3694827729999997,8.9419976695,-0.20806070013024403,-0.12515756066051337,0.049736647694082405,9.250609238266449,0.2478455245773518,0.025105024,-0.004805258499999798,-0.0934573744999998
116752.0,0.03530394,-2.391057403,8.9839701315,-0.16489347174066826,-0.09264905801286699,0.047338565301842196,9.296780152090548,0.19497344623870946,0.034715540999999996,-0.021574630000000372,0.04197246200000038
116762.0,0.0293218835,-2.346731345,8.966023962,-0.13744816925305745,-0.0739967242968036,0.04387583206588545,9.268095460536413,0.16214994010837028,-0.005982056499999999,0.044326058000000224,-0.017946169500000053
116772.0,0.067665885,-2.365952379,8.959943839,-0.12838816510595488,-0.06973288493418145,0.04307647126847205,9.267302894031394,0.15232130040628336,0.038344001499999995,-0.01922103400000008,-0.00608012300000027
116782.0,0.049621649,-2.353988266,8.873841451999999,-0.124658396494443,-0.07506312046977212,0.04600687908257053,9.180892395608861,0.15261330477433332,-0.018044235999999998,0.011964112999999887,-0.08610238700000039
116792.0,0.060408963999999996,-2.367129177,8.817551281,-0.11133455298471827,-0.09344841881028039,0.04707327525553906,9.129959494795198,0.1527870508575002,0.010787314999999999,-0.01314091099999981,-0.05629017099999878
116802.0,0.1238579895,-2.4545064285,8.730174029499999,-0.08095884268300897,-0.13341820401020255,0.0465392045044288,9.069502808559411,0.16285161628238531,0.0634490255,-0.08737725149999997,-0.08737725150000131
116812.0,0.1813249585,-2.4556832265,8.575719292,-0.04312010449977191,-0.17392031463198296,0.04254240051736178,8.922231796174625,0.1841669761263914,0.05746696899999999,-0.0011767980000003675,-0.15445473749999827
