timestamp,ax,ay,az,gx,gy,gz,acc_mag,gyro_mag,dax,day,daz
106412.0,-2.068418618,-0.0909076455,10.2957076355,0.12454844075156735,-0.12709138547172308,-0.03896273022152141,10.501819627807,0.18216099665154406,0.0,0.0,0.0
106422.0,-2.1701135784999996,-0.8558263454999999,10.301689692,0.05100375673103029,-0.06367310177125714,-0.0357652870318678,10.562511168633197,0.08907751032849356,-0.10169496049999971,-0.7649187,0.00598205650000061
106432.0,-1.757155547,-1.1682662145,10.458498025499999,0.07072248662006224,0.04904026132253667,-0.01338318470429252,10.669237203928049,0.08709607899978494,0.41295803149999966,-0.3124398690000001,0.156808333499999
106442.0,-1.9008229694999998,-0.9264342254999999,10.748186466499998,0.1717124731282101,0.10526429784628201,-0.0016580627893946131,10.954219308294421,0.201416223281767,-0.14366742249999986,0.24183198900000014,0.28968844099999913
106452.0,-2.136672902,-0.7624670375,11.195860038999998,0.32972411162826476,-0.00451865743341332,0.059095103143276005,11.423397440616874,0.33500841671451087,-0.23584993250000008,0.16396718799999987,0.4476735724999994
106462.0,-2.195316669,-0.5888893325,11.477212827499999,0.4821402245464256,-0.21156008528049264,0.14516252454687237,11.700111974286914,0.5461584242162602,-0.05864376699999996,0.17357770500000003,0.28135278850000134
106472.0,-2.0815595289999997,-0.5661379044999999,11.6364728235,0.5671429951063054,-0.36690835134200395,0.2051163296821296,11.83473286440114,0.7059359913511467,0.11375714000000015,0.022751428000000073,0.15925999600000118
106482.0,-2.0707722139999998,-0.560155848,11.5670417415,0.5652772381359235,-0.37730004170837816,0.23469442451567749,11.764281821935686,0.7190098402153245,0.010787314999999964,0.005982056499999944,-0.06943108199999948
106492.0,-2.210811176,-0.5553505894999999,11.440143690500001,0.48667109928460284,-0.2616545254712339,0.21524273000220068,11.665032704303552,0.5929934927107215,-0.1400389620000002,0.00480525850000002,-0.1268980509999995
106502.0,-2.3976278585,-0.7001948100000001,11.2785300985,0.3675611044822498,-0.05621181921898137,0.14516252454687237,11.551802166873212,0.39916549535366924,-0.18681668249999994,-0.14484422050000012,-0.16161359200000192
106512.0,-2.4921639645,-0.8881882904999999,11.200665297499999,0.2599109415484916,0.17481043255050005,0.04177445564648428,11.50889494139009,0.31600235760145273,-0.09453610600000006,-0.18799348049999987,-0.07786480100000048
106522.0,-2.5867000705,-0.9109397185,11.294024605499999,0.19409457545578537,0.38744738597947326,-0.07280466441769147,11.622212363190794,0.4394185934671645,-0.09453610600000006,-0.022751428000000073,0.09335930800000014
106532.0,-2.5783644179999996,-0.919275371,11.513105166499999,0.1677156691411431,0.5134845925829917,-0.16153545825983118,11.834044991237132,0.5638161728531703,0.008335652500000457,-0.008335652500000013,0.21908056100000017
106542.0,-2.5137385945,-0.9229038314999999,11.942930636,0.16478351599779262,0.5324039616746102,-0.2044356512738518,12.239453638949067,0.5936341643328646,0.06462582349999968,-0.003628460499999875,0.4298254695000008
106552.0,-2.495792425,-0.9443803949999999,12.431301806,0.1823694535408875,0.4583269522322149,-0.19484332170489096,12.714483817717753,0.530364151070063,0.017946169500000053,-0.021476563500000045,0.48837117000000063
106562.0,-2.5496309335,-0.9707602834999999,12.9460528645,0.19889074024026582,0.30697549015777065,-0.15141080326901207,13.230392216238705,0.39587461330261114,-0.05383850850000016,-0.02637988849999995,0.5147510584999999
106572.0,-2.6370081849999996,-1.031855713,13.238192968,0.17837264955382048,0.09753597991845112,-0.10264804929754251,13.537661963508041,0.22774259924768853,-0.08737725149999953,-0.06109542950000002,0.2921401034999995
106582.0,-2.8309837219999996,-1.0605891975,13.239369765999998,0.1434660645139339,-0.09111840425886795,-0.06321058951947864,13.58014101844887,0.18133023434937362,-0.19397553700000003,-0.028733484500000017,0.001176797999997703
106592.0,-3.0332949114999996,-1.058137535,13.0513762855,0.12081692681080347,-0.22008601867648495,-0.0552169815453446,13.44094327079835,0.25706711277767924,-0.20231118950000004,0.0024516624999999515,-0.18799348049999764
106602.0,-2.9638638294999997,-1.1647358205,12.742564877,0.07951545539160966,-0.22568328958763076,-0.10238101392198737,13.134460703657696,0.2602643403482768,0.06943108199999992,-0.10659828550000006,-0.30881140850000044
106612.0,-2.8668760609999997,-1.2521130719999998,12.463663750999999,0.00783652834145454,-0.08019438847063545,-0.1841845959629616,12.85027935852756,0.20103859457493484,0.09698776850000002,-0.08737725149999975,-0.27890112600000094
106622.0,-2.774693551,-1.2951642654999997,12.246936786,-0.06410768875500372,0.12631471395458563,-0.27851266071624714,12.62393898182612,0.312465205900082,0.09218250999999977,-0.04305119349999997,-0.21672696499999944
106632.0,-2.6741753884999997,-1.3047747825,12.141613365,-0.09235235204002797,0.3083089217062943,-0.3568535095212646,12.50089702168023,0.48054945155380885,0.10051816250000023,-0.009610517000000263,-0.10532342099999958
106642.0,-2.633477791,-1.2413257569999998,12.1679932535,-0.053181927637519215,0.4298152535716356,-0.4042828319442105,12.51144095329964,0.592464410606175,0.040697597499999905,0.0634490255000002,0.02637988850000106
106652.0,-2.684864637,-1.0486250844999998,12.580951285,0.057932713861447785,0.46312311701669534,-0.41600795385910844,12.906914732901852,0.6252214315941627,-0.05138684600000021,0.1927006725,0.41295803149999877
106662.0,-2.854911948,-0.8666136605,13.236918103499999,0.19063009689057667,0.3602691188674175,-0.3898943375907693,13.568991942888182,0.5640489928502318,-0.1700473109999998,0.1820114239999998,0.6559668184999996
106672.0,-3.018879136,-0.8115983539999999,13.955255216,0.31666730349409516,0.06929131663342687,-0.3429973405896816,14.301100351710241,0.4719392368881922,-0.16396718799999999,0.05501530650000008,0.7183371125000004
106682.0,-3.063205194,-0.7923773199999999,14.2736771415,0.35663708869401733,-0.35918003341417304,-0.31288692033427545,14.620155505930112,0.5950617903645117,-0.044326058000000224,0.01922103399999997,0.3184219255000009
106692.0,-2.834514116,-0.6918591574999999,13.936034181999998,0.2966832835587601,-0.7127767585512162,-0.3302058225018152,14.238194692077089,0.8397068318693655,0.22869107800000021,0.10051816250000001,-0.3376429595000019
106702.0,-2.5292331014999996,-0.6295869299999999,13.181902797,0.17704096333454883,-0.8172294782953209,-0.38536520818184394,13.437111338889267,0.9207137810255169,0.3052810145000002,0.062272227500000055,-0.7541313849999991
106712.0,-2.2371910644999997,-0.562509444,12.2540956405,0.03261845839052203,-0.6688101693642271,-0.4543790174642037,12.469334412878217,0.8092164716468119,0.29204203699999987,0.06707748599999985,-0.9278071565000001
106722.0,-2.0420387294999998,-0.6020302435,11.455638197499999,-0.10221171698454393,-0.3367979310865978,-0.5220593951980399,11.651781370197764,0.629623771460135,0.19515233499999995,-0.03952079949999998,-0.7984574430000002
106732.0,-1.9546614779999998,-0.7146105855,10.939710341,-0.16829511845280523,0.060231312486324316,-0.5918725652778131,11.135916312880054,0.6182751745197345,0.08737725149999997,-0.112580342,-0.5159278564999994
106742.0,-2.0240925599999997,-0.44404511199999996,10.626093674,-0.1267266116580563,0.4055673942736784,-0.6707457395046889,10.826264061141371,0.7940052849093417,-0.06943108199999992,0.27056547350000004,-0.3136166669999998
106752.0,-2.037233471,-0.05374044199999999,10.731417095,0.002775073510670984,0.5968868962187928,-0.7203078542735718,10.923210202011463,0.935481198549116,-0.013140911000000255,0.39030466999999996,0.10532342099999958
106762.0,-1.979766502,0.331660903,11.1049523935,0.157589268821072,0.6573747721051603,-0.7003238343382366,11.284921001891039,0.9733598726011267,0.057466969000000034,0.385401345,0.3735352985000002
106772.0,-1.875619879,0.6967624825,11.405428149499999,0.2732347850582163,0.6360573206213015,-0.6366385152622156,11.57960358392836,0.9404970823968766,0.10414662299999988,0.36510157949999994,0.3004757559999991
106782.0,-1.6925297234999999,0.7769808794999999,11.690311332,0.3291917862064065,0.5726390369208356,-0.5527021408753043,11.83772508513047,0.8612562657185905,0.18309015550000018,0.080218397,0.28488318250000155
106792.0,-1.6673266329999998,0.8296425899999998,11.911745489,0.32759306461157967,0.5070897062036844,-0.46743408026912137,12.056449125798395,0.7635128063866283,0.025203090500000025,0.0526617104999999,0.22143415699999913
106802.0,-1.8828768,0.8787739064999999,12.0889516545,0.2652394317548303,0.43807589692132476,-0.4064156242901476,12.266222757131137,0.6537859797274631,-0.21555016700000018,0.04913131650000002,0.17720616550000123
106812.0,-2.2958348315,0.920648302,12.228990616499999,0.1730441593474818,0.3781220917860675,-0.3747064824399146,12.476644675871361,0.5597548975787903,-0.4129580315000001,0.04187439550000016,0.14003896199999843
106822.0,-2.5939569915000003,0.9397712694999999,12.209867649,0.040879101740211185,0.29365339197729795,-0.3898943375907693,12.517693514335065,0.48981732315650484,-0.29812216000000014,0.019122967499999866,-0.019122967499999532
106832.0,-2.6621132089999997,0.9829205295,12.0303078875,-0.13338853341291862,0.23796168087541086,-0.4282654011958646,12.360472781123283,0.5077691564801421,-0.06815621749999945,0.04314926000000008,-0.1795597615000002
106842.0,-2.4945175605,1.0199896665,11.912922286999999,-0.344426765247065,0.29125530958505774,-0.4591751822486842,12.21395571448951,0.6436624114962416,0.16759564849999986,0.03706913699999992,-0.11738560050000046
106852.0,-2.241996323,1.082261894,11.725026873,-0.5717192484050345,0.4268848457575371,-0.4698321626613615,11.986412870084282,0.8543042968435228,0.2525212374999999,0.062272227500000055,-0.18789541399999976
106862.0,-2.057631303,1.046369555,11.703452243,-0.7830227702854841,0.5902249744639304,-0.4437202917222744,11.92893667637221,1.0762796460737336,0.18436502,-0.035892338999999884,-0.021574629999999928
106872.0,-2.048020786,0.9804688669999999,11.7417962445,-0.9548923230463736,0.7109336908611102,-0.37310776084508784,11.959326376782206,1.2475798421813076,0.00961051700000004,-0.06590068800000015,0.0383440015000005
106882.0,-2.243173121,0.8775971085,11.801616809499999,-1.0694696977812974,0.7266538714338231,-0.28197713928145585,12.044922650390802,1.3233678212876177,-0.19515233499999995,-0.10287175849999997,0.05982056499999899
106892.0,-2.5903285309999995,0.701567741,11.843491205,-1.1246290834613262,0.6432515677980222,-0.19244523931265078,12.143734315137037,1.3098085069871013,-0.3471554099999996,-0.17602936749999998,0.041874395500000716
106902.0,-3.0368253055,0.5076902704999999,11.862712238999999,-1.1219639656935307,0.46765224642562064,-0.13968568135411416,12.255774109055938,1.2235251748440024,-0.44649677450000036,-0.19387747050000004,0.019221033999999193
106912.0,-3.3565220955,0.329307307,11.820739776999998,-1.0803954588987819,0.23316551609093047,-0.13222439880183842,12.29245999609408,1.1131503928677235,-0.31969679000000006,-0.17838296349999994,-0.04197246200000038
106922.0,-3.525294542,0.22398388599999997,11.714239558,-1.0167101398227607,-0.032498030672134415,-0.1506114424715987,12.235247394771168,1.0283187429096876,-0.16877244650000023,-0.10532342100000003,-0.10650021899999906
106932.0,-3.4881273385,0.20476285199999997,11.5335029985,-0.9500961582618932,-0.29842686748150243,-0.17219418400176054,12.051168058389973,1.010639471910168,0.037167203500000134,-0.019221033999999998,-0.18073655949999967
106942.0,-3.387609176,0.3245020485,11.1671265545,-0.9015986943367268,-0.49614125580592405,-0.18551802751148527,11.674155772175524,1.045683168973338,0.10051816249999979,0.1197391965,-0.36637644400000013
106952.0,-3.1290078155,0.4645410105,10.793689322499999,-0.8872101999832854,-0.5787459439735637,-0.18551802751148527,11.247676091110863,1.07540957088543,0.25860136050000015,0.14003896200000004,-0.37343723200000056
106962.0,-2.7830292034999995,0.378340557,10.512336534,-0.9109257338593845,-0.5190574288846096,-0.16846441539024867,10.881066699946105,1.0618787907950407,0.3459786120000006,-0.0862004535,-0.28135278849999956
106972.0,-2.5771876199999997,0.179657828,10.37347437,-0.9516948798567201,-0.35838067261675965,-0.1460805677334214,10.69032943687377,1.027374996347515,0.20584158349999981,-0.19868272900000003,-0.13886216399999896
106982.0,-2.5245259095,-0.0310870805,10.4273128785,-0.9767420999520906,-0.1894432729992205,-0.13036038716070847,10.728609012376339,1.0034479129701583,0.05266171049999979,-0.2107449085,0.05383850850000016
106992.0,-2.602292644,-0.19387747049999998,10.513513331999999,-0.9751433783572638,-0.09165247500997822,-0.12263206923287757,10.832519469667512,0.9870883491024548,-0.07776673449999993,-0.16279038999999998,0.08620045349999828
107002.0,-2.731544291,-0.3231291175,10.6895426995,-0.9554246484682318,-0.08632223947438754,-0.1252971870006729,11.037756554875848,0.9674643006327414,-0.12925164700000025,-0.12925164700000003,0.17602936750000175
107012.0,-2.7351727515,-0.465619742,10.8882254285,-0.927712310605066,-0.15400436253747565,-0.1359559127426023,11.236165925551395,0.9501849741699975,-0.003628460499999875,-0.1424906245,0.19868272899999972
107022.0,-2.659759613,-0.5709431629999999,10.913428518999998,-0.9090599768890024,-0.2872358163177148,-0.14847865012566158,11.24736499512863,0.9648525096097725,0.07541313850000009,-0.10532342099999992,0.025203090499998027
107032.0,-2.4443075125,-0.5553505894999999,10.706312071,-0.9063948591212072,-0.43059192508877303,-0.15007737172048843,10.995825192070043,1.0146350398520338,0.21545210049999985,0.015592573499999984,-0.20711644799999895
107042.0,-2.2048291195,-0.5709431629999999,10.3674923135,-0.9135891062979278,-0.5046689345311683,-0.1266288732199446,10.614713581253767,1.0513660923579493,0.23947839300000018,-0.015592573499999984,-0.3388197574999996
107052.0,-2.049197584,-0.6176228169999999,10.0646629615,-0.9165212594412783,-0.5044018991556132,-0.07360402521510487,10.289708898260455,1.0487373586401325,0.15563153549999997,-0.04667965399999996,-0.30282935199999983
107062.0,-2.0432155275,-0.7456976659999999,9.86352857,-0.9037314866826639,-0.44604681561518283,-0.003790855135331684,10.100494569678318,1.0078207838325026,0.005982056499999722,-0.128074849,-0.20113439150000012
107072.0,-2.1785472974999998,-0.9121165164999999,9.784486971,-0.8701565878620489,-0.3978181323948235,0.06815510729037856,10.065496021199621,0.9592063763922715,-0.13533176999999963,-0.16641885050000005,-0.07904159899999996
107082.0,-2.391645802,-1.0282272525,9.765364003499998,-0.8099357473512366,-0.40661110116637095,0.12384507306301364,10.106411581063847,0.9146945416646577,-0.21309850450000045,-0.1161107360000001,-0.01912296750000131
107092.0,-2.5891517329999996,-1.1539485054999998,9.828813028999999,-0.7212032081798448,-0.48708299698807356,0.15715293650807344,10.22941197766923,0.8843534128937903,-0.19750593099999936,-0.1257212529999998,0.06344902550000064
107102.0,-2.728013897,-1.2401489589999999,9.772522857999999,-0.6180821746550119,-0.6200474153927575,0.1568876464617703,10.22165506524586,0.8894369598649592,-0.1388621640000003,-0.08620045350000005,-0.056290171000000555
107112.0,-2.6777057825,-1.2137690705,9.492444934,-0.5589277303171681,-0.7138414093949328,0.11798251210556468,9.937296133212426,0.9142700031430457,0.050308114499999945,0.02637988849999995,-0.28007792399999865
107122.0,-2.4298917369999997,-1.229361644,9.183535459,-0.5893051859481293,-0.654686965057089,0.04097509484907088,9.578780059693907,0.8818018954384889,0.2478140455000002,-0.015592573499999984,-0.3089094750000001
107132.0,-2.127062385,-1.2257331835,9.054283812,-0.6924262194729623,-0.4380532076410488,-0.041894883364871884,9.381197768678591,0.8204266349835231,0.30282935199999983,0.003628460499999875,-0.12925164700000025
107142.0,-1.8636557659999997,-1.2245563855,9.0112326185,-0.848573846331887,-0.10444224776859266,-0.10851061025499145,9.283052539985553,0.8618354299605928,0.2634066190000002,0.0011767980000001454,-0.043051193500000196
107152.0,-1.7403861754999999,-1.3263494125,9.110573982999998,-1.0268365401428319,0.22224150030269793,-0.1436824853411812,9.369669423390937,1.060391069946892,0.12326959049999986,-0.10179302700000004,0.09934136449999897
107162.0,-1.7870658295,-1.3897984380000001,9.33200814,-1.1704596842894452,0.4540631128695928,-0.1540741757075554,9.60268295333445,1.2648668050967797,-0.04667965400000007,-0.0634490255000002,0.2214341570000009
107172.0,-2.0157569075,-1.4627599139999998,9.5582475555,-1.2330786071924977,0.5300058792823701,-0.1359559127426023,9.877400407412923,1.3490267209360023,-0.22869107800000021,-0.07296147599999969,0.22623941550000026
107182.0,-2.2300322099999996,-1.6291787645,9.67916355,-1.2064326655023005,0.44926694808511236,-0.09971589615419203,10.065459459556918,1.2912257072171893,-0.2142753024999995,-0.16641885050000016,0.12091599450000068
107192.0,-2.311427405,-1.8853284625,9.609732467999999,-1.1216969303179758,0.2654069833630217,-0.06667506808468737,10.062013623854373,1.154595355527956,-0.08139519500000025,-0.256149698,-0.06943108200000125
107202.0,-2.336532429,-2.076852337,9.440960021499999,-1.0097829280215953,0.04797386514956813,-0.041627847989316756,9.94507041448336,1.0117785979103713,-0.025105024000000142,-0.19152387450000008,-0.16877244650000023
107212.0,-2.244349919,-2.177468566,9.1883407175,-0.8933380509870376,-0.14094755440330606,-0.023242549648808487,9.705878685399988,0.9046874059849452,0.09218251000000022,-0.10061622899999989,-0.25261930399999954
107222.0,-2.196493467,-2.2564120985,9.012409416499999,-0.7744968368894917,-0.2906985495536715,0.005003858965467743,9.546701137013178,0.8272702313446209,0.047856451999999994,-0.07894353249999986,-0.17593130100000032
107232.0,-2.2120860405,-2.384585014,8.915421648,-0.6495260264589418,-0.444448094020356,0.047637016603933234,9.490221994305266,0.788471592815361,-0.015592573500000206,-0.12817291549999998,-0.09698776849999824
107242.0,-2.196493467,-2.665839736,8.848344162,-0.5317494632051124,-0.5867395519476977,0.09027191957165072,9.498656718600254,0.7969754154940168,0.015592573500000206,-0.28125472200000035,-0.06707748600000052
107252.0,-2.0420387294999998,-2.953174581,8.741843943,-0.43902012004665364,-0.7223690881201771,0.11611850046443474,9.45044960847939,0.8532521734091647,0.15445473750000005,-0.28733484499999973,-0.10650021900000084
107262.0,-1.8229581684999998,-3.1830424569999995,8.425775613499999,-0.3870599228855305,-0.8310856472269038,0.14089868518425025,9.189593595813514,0.9275619528728876,0.21908056099999995,-0.2298678759999997,-0.3160683295000002
107272.0,-1.526110873,-3.3398507904999994,8.049886719,-0.3758688717217428,-0.847339898550727,0.1819348665571409,8.847841199310986,0.9446494630679133,0.2968472954999999,-0.1568083334999999,-0.3758888944999992
107282.0,-1.1932731719999998,-3.5002875845,7.714695422,-0.38839160910480214,-0.7359582216762048,0.23043058515305534,8.555258002623155,0.8634702083163025,0.3328377010000001,-0.16043679400000066,-0.3351912969999997
107292.0,-1.030482782,-3.5516744305,7.5100306365,-0.41423993532683817,-0.4977399774007509,0.2690669388044538,8.371191443601953,0.7012394930978165,0.16279038999999984,-0.051386845999999764,-0.20466478550000033
107302.0,-1.1359042695,-3.5157820914999998,7.527976806,-0.4459490771770711,-0.1875775160288386,0.28638758630124556,8.385787799369503,0.562204369906606,-0.10542148749999991,0.035892339000000106,0.017946169500000053
107312.0,-1.375284596,-3.6725904249999997,7.7506858275,-0.48884927019109176,0.12631471395458563,0.2751965351374579,8.68633748748032,0.5750323024660909,-0.23938032650000007,-0.1568083334999999,0.22270902150000005
107322.0,-1.6350627544999998,-3.985030294,8.257003166999999,-0.5381443495844196,0.3901125037472686,0.2245680241956064,9.313001554552585,0.7015824285575567,-0.25977815849999986,-0.3124398690000003,0.5063173394999989
107332.0,-1.9343617124999999,-4.2173498325,8.9190501085,-0.5757160523921016,0.5651777543685598,0.13343740263197448,10.053718201859827,0.8177288104476941,-0.29929895800000006,-0.2323195385000001,0.6620469415000017
107342.0,-2.148637015,-4.2412780585,9.5582475555,-0.6012955979093305,0.6216688262678602,0.017526596348527056,10.675447387531978,0.8650639902330709,-0.21427530249999993,-0.023928225999999775,0.639197446999999
107352.0,-2.2730834035,-4.131149379,10.1017320985,-0.6247440964098743,0.5888932882446588,-0.07680146840475849,11.148017525136225,0.8619738722767206,-0.1244463885,0.11012867949999983,0.5434845429999999
107362.0,-2.3089757425,-3.9982692715,10.41662363,-0.6457945125181779,0.49936138827585363,-0.11463846125874354,11.394014832180488,0.8243508508512327,-0.035892339000000106,0.13288010750000012,0.3148915315000007
107372.0,-2.291029573,-3.970712585,10.588926470499999,-0.6633821953905247,0.41276164145039895,-0.10611252786275124,11.53866277931258,0.7884846088437004,0.017946169500000053,0.027556686500000094,0.17230284049999867
107382.0,-2.3784068245,-4.0473025215,10.6536503605,-0.6729745249594855,0.3642659228544845,-0.0629452994731755,11.642067802892672,0.7678193046044377,-0.08737725149999997,-0.07658993650000001,0.06472389000000156
107392.0,-2.627397668,-4.1071230865,10.726611836499998,-0.6719081287865171,0.3242961376545624,-0.01098510231205231,11.782694091098817,0.7461562777996791,-0.24899084350000011,-0.05982056499999988,0.07296147599999792
107402.0,-2.9925973139999997,-4.3107091405,10.774566355,-0.6577866698086309,0.23742935545355262,0.042573816443897676,11.984537209089396,0.7006201050894963,-0.36519964599999977,-0.20358605400000052,0.04795451850000099
107412.0,-3.3014087224999997,-4.630307864,10.7254350385,-0.6372685791221855,0.08661196413021861,0.05483126378065386,12.139769653230774,0.6454605656077582,-0.3088114085,-0.3195987234999995,-0.04913131649999869
107422.0,-3.5193124855,-4.813496086,10.495567162499999,-0.606358798069366,-0.10364288697117927,0.015128513956286848,12.071132299957688,0.615338696938826,-0.21790376300000025,-0.18318822200000007,-0.22986787600000191
107432.0,-3.6545461889999995,-4.862529336,10.116147874,-0.5530669146889712,-0.3069528008774947,-0.06054721708093529,11.804081802479587,0.6354282017556055,-0.13523370349999952,-0.04903324999999992,-0.3794192884999994
107442.0,-3.607866535,-4.746418599999999,9.65758892,-0.4768571129006387,-0.4908127655995854,-0.15274248948828376,11.349634981289293,0.7011562914889408,0.046679653999999626,0.11611073600000044,-0.458558953999999
107452.0,-3.281108957,-4.649430831499999,9.153625176499999,-0.3963869624081882,-0.6104550858237967,-0.24920160125825436,10.77829935177452,0.7693370352745327,0.32675757800000005,0.09698776850000002,-0.5039637435000017
107462.0,-2.833337318,-4.46987107,8.832849654999999,-0.3257744315310016,-0.6200474153927575,-0.337667105054091,10.296930647908043,0.7775646927492249,0.44777163899999994,0.1795597614999993,-0.3207755214999999
107472.0,-2.4431307144999996,-4.109574749,8.740667145,-0.27248080282135473,-0.5153276602730977,-0.40001899258158835,9.962768412717127,0.7069820222429309,0.39020660350000025,0.36029632099999986,-0.09218250999999889
107482.0,-2.11627507,-3.8150810495,8.904634333,-0.25542719070011816,-0.35278514703486585,-0.415208593061695,9.915945552018723,0.601746279979892,0.3268556444999997,0.29449369950000026,0.16396718800000087
107492.0,-1.8229581684999998,-3.696518651,9.3236724875,-0.2807414461710439,-0.1950387985811143,-0.383499451211462,10.194032336394473,0.5137389625380444,0.2933169015000001,0.11856239849999994,0.41903815449999904
107502.0,-1.7164579494999999,-3.540985182,9.790469027499999,-0.33243460795661195,-0.08179311006546226,-0.3134192457561337,10.551686487475928,0.46414922711536516,0.10650021899999995,0.15553346899999987,0.4667965399999989
107512.0,-1.7619608054999998,-3.3745663315,10.192737810499999,-0.4107754567616294,-0.035161403110677766,-0.22095693797323013,10.88044612501748,0.46775503052874023,-0.045502855999999925,0.16641885049999994,0.40226878300000024
107522.0,-1.9582899384999999,-3.2093242789999996,10.450064306499998,-0.5075016039071552,-0.06394013714681226,-0.12636358317364146,11.105787041943245,0.5268908561164921,-0.1963291330000001,0.16524205250000046,0.25732649599999924
107532.0,-2.3185862595,-3.1602910289999997,10.450064306499998,-0.6148847314653583,-0.16892518231277515,-0.06054721708093529,11.160964368758883,0.6405348668924089,-0.3602963210000001,0.04903324999999992,0.0
107542.0,-2.471864199,-3.2428630219999994,10.258540431999998,-0.7299979222806443,-0.3104172794427035,-0.0450923265545255,11.039199472458662,0.7945370802075679,-0.15327793950000013,-0.08257199299999973,-0.19152387449999964
107552.0,-2.4801998515,-3.4655720434999995,9.912561819999999,-0.8275216848943314,-0.43245768205915497,-0.07280466441769147,10.789831450369883,0.9365427405640935,-0.008335652500000013,-0.22270902150000005,-0.3459786119999997
107562.0,-2.2611192905,-3.811452589,9.472047102,-0.878150195836183,-0.5465027313722205,-0.12103334763805078,10.457509626415488,1.0413750876052765,0.21908056100000017,-0.34588054550000047,-0.4405147179999993
107572.0,-1.952307882,-3.9898355524999998,9.039966103,-0.8645610622801551,-0.6373663175602973,-0.1764580233643827,10.072302663517478,1.0885031406390286,0.3088114085,-0.17838296349999982,-0.4320809990000001
107582.0,-1.5668084704999998,-3.9431558984999997,8.582583947,-0.8011427785796891,-0.6879948285021487,-0.21749245940802137,9.574137790444004,1.0781788374919234,0.3854994115000001,0.04667965400000007,-0.45738215599999954
107592.0,-1.0844193569999998,-3.9539432134999997,8.2247392885,-0.7377244948792232,-0.690392910894389,-0.20763309446350542,9.189992853164496,1.031499541286628,0.4823891135,-0.010787314999999964,-0.35784465849999947
107602.0,-0.704902002,-3.9670841245,7.957704208999999,-0.6900281370807221,-0.6115197366675132,-0.14128440294894098,8.919624406959064,0.9327681924324153,0.37951735499999983,-0.013140911000000255,-0.26703507950000116
107612.0,-0.498962352,-4.0916285795,7.915829813499999,-0.6449951517207645,-0.4567055413571122,-0.027239353635875502,8.924726858430459,0.7907848504088107,0.20593964999999997,-0.12454445500000011,-0.04187439549999983
107622.0,-0.5672166359999999,-4.273541937,8.069107752999999,-0.6047600764745391,-0.2624538862686473,0.1219793160926317,9.14851875053976,0.6704444392113582,-0.06825428399999994,-0.18191335750000004,0.15327793949999968
107632.0,-0.692937889,-4.560876781999999,8.3312395075,-0.604493041098984,-0.08232543548732053,0.26880164875815066,9.523198604981799,0.666666063663342,-0.12572125300000003,-0.2873348449999993,0.26213175450000037
107642.0,-1.0532342099999998,-4.95235825,8.614945892,-0.6617834737956979,0.06422811647339133,0.38977565520163365,9.99261963949119,0.7707189361386442,-0.36029632099999986,-0.3914814680000003,0.2837063845000003
107652.0,-1.5691620665000001,-5.2850978845,8.671236063,-0.7694336367294561,0.18040595813239385,0.45639138209175323,10.275449581403272,0.9126157596206654,-0.5159278565000003,-0.3327396345000002,0.056290171000000555
107662.0,-2.0779310685,-5.6598099809999995,8.6077870375,-0.9063948591212072,0.29072123883394746,0.4443992248013002,10.509293231679179,1.0505051881616267,-0.5087690019999997,-0.3747120964999997,-0.06344902550000064
107672.0,-2.568753901,-6.107483553499999,8.4138115005,-1.0183106067468397,0.36240016588410257,0.3671265174985032,10.709438637301291,1.1415219016280507,-0.49082283250000014,-0.4476735724999994,-0.19397553700000003
107682.0,-2.7997985749999996,-6.4379676585,8.1468744875,-1.0681380115620258,0.3746576132208588,0.24055524014387444,10.75443459915687,1.157218200016188,-0.23104467399999962,-0.3304841050000009,-0.2669370129999997
107692.0,-2.912378917,-6.466701143,7.8739554179999995,-1.0433578268422101,0.3608014442892758,0.09320232738574918,10.597138696540457,1.1079078981865988,-0.11258034200000022,-0.028733484500000017,-0.27291906950000033
107702.0,-2.935130345,-6.352944002999999,7.712341825999999,-0.9503614483081964,0.3405503889783856,-0.03389953006148586,10.414178032301084,1.010104265906333,-0.022751428000000296,0.11375714000000059,-0.16161359200000014
107712.0,-2.8632476005,-6.1494560155,7.597407887999999,-0.8173970299035123,0.313637411912633,-0.12582951242253118,10.185018543183059,0.8844995177176921,0.07188274450000032,0.20348798749999908,-0.11493393800000007
107722.0,-2.681334243,-6.047662988499999,7.6620337114999995,-0.669777081769832,0.2632759363463366,-0.1796554665540363,10.122773411536958,0.741749044209631,0.18191335750000004,0.10179302700000115,0.06462582350000012
107732.0,-2.5400204165,-5.947144826,7.840416674999999,-0.5162945726787026,0.17694147956718512,-0.18258587436813478,10.163285341624206,0.5755049734691134,0.1413138264999998,0.10051816249999934,0.17838296349999982
107742.0,-2.48500511,-5.915959679,7.9589790735,-0.3745371855024711,0.08847597577134855,-0.15327481491014203,10.223462095234218,0.4142454230266679,0.05501530650000008,0.031185146999999525,0.11856239850000083
107752.0,-2.393999398,-6.1722074435,8.048709921,-0.26475423022277583,0.018397515645272228,-0.1250301516251178,10.421569422866453,0.293369749323567,0.09100571199999985,-0.2562477644999994,0.08973084750000027
107762.0,-2.356930261,-6.3385282274999994,8.1947309395,-0.20293466811713667,-0.02077290875723651,-0.11463846125874354,10.62476708059195,0.233999936029524,0.03706913700000003,-0.16632078399999983,0.14602101849999904
107772.0,-2.4298917369999997,-6.2547794365,8.218757232,-0.20133594652230988,-0.03143163449916588,-0.12796230476846826,10.610118288282955,0.24062099337128073,-0.07296147599999969,0.08374879099999966,0.024026292500000324
107782.0,-2.50657974,-6.148181151,8.274949336499999,-0.23384444916995628,-0.011712904610133947,-0.16153545825983118,10.609328912807442,0.28445407857371285,-0.07668800300000012,0.10659828549999961,0.05619210449999912
107792.0,-2.5532593939999995,-6.112288811999999,8.368308644499999,-0.24450317491188564,-0.0077161006230669306,-0.19457803165858784,10.67275960677289,0.3125731132950303,-0.046679653999999626,0.035892339000000995,0.09335930800000014
107802.0,-2.496969223,-6.1386687005,8.425775613499999,-0.22771485283695217,-0.03276332071843755,-0.21589373781319457,10.71969231853969,0.3154957930210899,0.05629017099999967,-0.02637988850000106,0.057466969000000034
107812.0,-2.476571391,-6.167402184999999,8.420970355,-0.1954733855648609,-0.05781054081380818,-0.22575310275771054,10.727674365213145,0.30416503168199194,0.020397832000000005,-0.02873348449999913,-0.004805258499999354
107822.0,-2.348496542,-6.2188870975,8.4461734455,-0.14884342393932842,-0.07459886288874164,-0.23827758547002187,10.748387721454193,0.2906812049852888,0.12807484899999988,-0.05148491250000031,0.025203090499999803
107832.0,-2.2551372339999998,-6.1949588715,8.5252150445,-0.09235235204002797,-0.08845503182032462,-0.25533119759125844,10.776940703127156,0.2855648263442929,0.09335930800000014,0.023928225999999775,0.07904159899999996
107842.0,-2.1701135784999996,-6.047662988499999,8.704774806,-0.037194711689251155,-0.13295394642917205,-0.2667892841306012,10.819275622204803,0.3003942752045324,0.08502365550000013,0.14729588300000085,0.1795597615000002
107852.0,-2.0169337054999996,-5.8980135095,8.822062339999999,-0.007883652231258387,-0.20623159507415398,-0.2633248055653925,10.802007631059734,0.33456475607180297,0.15317987300000002,0.14964947899999892,0.11728753399999903
107862.0,-1.8564969114999998,-5.8393697425,8.8890417595,-0.01614429558094755,-0.2789751729680256,-0.23747822467260846,10.796290250552195,0.3667201829815189,0.16043679399999977,0.0586437670000004,0.06697941950000086
107872.0,-1.6913529255,-5.812989854,8.8843345675,-0.04945215902600734,-0.33253409172397563,-0.19031419229596566,10.750950026326965,0.3863210193353305,0.1651439859999999,0.02637988850000017,-0.004707191999999694
107882.0,-1.5440570425,-5.801025740999999,8.771754225499999,-0.10407747395492585,-0.3605117196334447,-0.12876166556588167,10.62919018509009,0.39671196994444424,0.14729588299999996,0.011964113000000332,-0.11258034200000111
107892.0,-1.505713041,-5.793866886499999,8.504817212499999,-0.17442296945655733,-0.33706322113290094,-0.06880611510137245,10.400383698612034,0.3857061949073068,0.03834400150000006,0.007158854500000089,-0.2669370129999997
107902.0,-1.4758027585,-5.8405465405,8.1827668265,-0.23224572757512943,-0.28377133775250607,-0.02697231826032037,10.161085109899021,0.3676843157643308,0.02991028249999994,-0.04667965400000096,-0.322050385999999
107912.0,-1.4315747669999999,-5.9901960195,7.896706845999999,-0.2548948652782599,-0.2190213678327684,0.005003858965467743,10.014481198604749,0.3361053265229597,0.04422799150000012,-0.1496494789999998,-0.28605998050000103
107922.0,-1.444715678,-6.120722531,7.663210509499999,-0.24316974336336197,-0.15666948030527098,0.031649800655665174,9.913387060165727,0.2909958075781683,-0.013140911000000033,-0.13052651150000028,-0.2334963365
107932.0,-1.5165003559999999,-6.2607614929999995,7.481297152,-0.20586507593123515,-0.10444224776859266,0.051101495169141975,9.87252322754943,0.23643175636037378,-0.07178467799999999,-0.14003896199999932,-0.18191335749999915
107942.0,-1.5919134945,-6.277530864499999,7.3939199005,-0.14378022377929287,-0.03196395992102415,0.06309190713034302,9.829121721890072,0.1602343166403508,-0.07541313850000009,-0.016769371499999686,-0.08737725149999953
107952.0,-1.6829192065,-6.214081838999999,7.470509837,-0.07689746151361816,0.03891386100246557,0.05136678521544511,9.861822721085082,0.10032973033317326,-0.09100571200000007,0.06344902549999976,0.07658993649999957
107962.0,-1.7691196599999999,-6.160243330499999,7.628494968499999,-0.026535985947321785,0.059431951688910904,0.024987878900802816,9.963549455229197,0.06971878888585692,-0.08620045349999983,0.05383850850000016,0.15798513149999938
107972.0,-1.7499966925,-6.180543096,7.7877549644999995,-0.005218534463463045,0.018397515645272228,0.011931070766633236,10.095084386589772,0.02254001183457538,0.019122967499999977,-0.020299765500000788,0.1592599960000003
107982.0,-1.7548019509999997,-6.119447666499999,7.790108560499999,-0.007351326809400116,-0.04768588582298908,0.005269149011770881,10.060455308515667,0.04853606539358131,-0.004805258499999798,0.0610954295000008,0.002353595999999847
107992.0,-1.7152811515,-5.9566572765,7.668015767999999,-0.015877260205392416,-0.11776609127831739,-0.010451031560942046,9.860143059645138,0.11929024984168038,0.03952079949999976,0.16279038999999962,-0.12209279250000016
108002.0,-1.575144123,-5.844175001,7.4477584089999995,-0.0220068565383965,-0.15880052732195607,-0.020844467256568276,9.597112366194583,0.16166756331324794,0.14013702849999987,0.11248227549999967,-0.22025735899999965
108012.0,-1.4709975,-5.761603008,7.122177628999999,-0.0475864020556254,-0.16093157433864116,-0.0019250981649497454,9.278217342023678,0.16783069827256844,0.1041466230000001,0.08257199300000018,-0.3255807800000001
108022.0,-1.4291231045,-5.6777561505,6.7690401625,-0.07796385768658669,-0.11883074212203394,0.047637016603933234,8.94981633743924,0.14989460874084526,0.04187439550000005,0.0838468575000002,-0.3531374664999998
108032.0,-1.423141048,-5.757974547499999,6.601444514,-0.08835554805296095,-0.03649483465920143,0.11212169647736772,8.874608216906312,0.147342630116014,0.005982056499999944,-0.08021839699999944,-0.16759564849999986
108042.0,-1.3633204829999999,-6.0800249335,6.620567481499999,-0.05984384939238157,0.04131368872395778,0.16114974049514044,9.091603802874621,0.17679747183636205,0.0598205650000001,-0.3220503860000008,0.019122967499999532
108052.0,-1.388425507,-6.4654262785,6.775022219,-0.007084291433844984,0.07009067743084028,0.1803361449623141,9.46733269823926,0.19360789092312977,-0.025105024000000142,-0.385401345,0.15445473750000094
108062.0,-1.4590333869999998,-6.7180455825,6.885150898499999,0.055799921515510706,0.03438473159354029,0.16727933682814453,9.729656611003485,0.17966167520526127,-0.07060787999999985,-0.25261930400000043,0.11012867949999894
108072.0,-1.558472818,-6.791105125,6.8971150114999995,0.12401437000045709,-0.04635245427446541,0.1275765870037775,9.803986017182234,0.1838583681408303,-0.09943943100000019,-0.07305954249999935,0.011964113000000332
108082.0,-1.6027008095,-6.630668330999999,6.814543018499999,0.18450224588682454,-0.13934883280847926,0.07348359749671726,9.642220125649764,0.24260876951055854,-0.0442279914999999,0.16043679400000066,-0.08257199300000018
108092.0,-1.5093415014999998,-6.443949715,6.754624386999999,0.22873412512011684,-0.18411478279288182,0.02525491427635795,9.456614103739984,0.2947123409910781,0.09335930800000014,0.1867186159999994,-0.05991863150000043
