timestamp,ax,ay,az,gx,gy,gz,acc_mag,gyro_mag,dax,day,daz
39692.0,-2.4861819080000003,-0.53740442,10.6116778985,0.008370599092564804,0.04291241031878458,-0.35951688195980797,10.912268866363926,0.36216561170635553,0.0,0.0,0.0
39702.0,-2.543648877,-0.7397156094999999,10.192737810499999,0.02728996818418334,-0.05914397236233185,-0.3797679372706982,10.531345254334681,0.3853134282751264,-0.05746696899999959,-0.20231118949999993,-0.41894008800000115
39712.0,-2.438325456,-0.895347145,10.0801574685,0.03421717998534883,-0.0743318275131865,-0.4064156242901476,10.409450135775357,0.4145717014639932,0.10532342100000003,-0.15563153550000008,-0.11258034199999933
39722.0,-2.393999398,-1.0808889629999998,9.936588112499999,0.03928038014538438,0.0485079359006784,-0.460773903843511,10.27790530144328,0.46498232071004525,0.04432605799999978,-0.1855418179999998,-0.14356935600000043
39732.0,-2.2719066055,-1.0521554784999998,10.027495758,0.043809509554309664,0.3048444431410856,-0.520193638227658,10.335340437148652,0.6045252921871137,0.12209279250000016,0.028733484500000017,0.09090764550000152
39742.0,-2.2240501535,-0.8666136605,10.6105011005,0.0736528944341607,0.6048805041929268,-0.5308523639695873,10.875667884114534,0.8081518455979162,0.047856451999999994,0.1855418179999998,0.5830053424999999
39752.0,-2.4047867129999996,-0.7840416674999999,11.5478207075,0.1413350174972488,0.7962017514672932,-0.48955089255039347,11.821585492816238,0.945289845818424,-0.18073655949999967,0.08257199300000007,0.9373196069999992
39762.0,-2.5974873854999996,-0.9036827974999999,12.455230032,0.21221458374999055,0.7154628202700355,-0.4301294128369946,12.755247487460357,0.8613555529120553,-0.1927006725,-0.11964112999999998,0.9074093244999997
39772.0,-2.7602777754999996,-0.9348679444999999,13.057358341999999,0.25564710218586945,0.42262100639491496,-0.3808343334436667,13.378629165313233,0.6236976394309707,-0.16279039000000006,-0.03118514699999997,0.6021283099999994
39782.0,-2.9446427954999996,-0.9229038314999999,13.354303704,0.27776391446714155,0.050106657495505205,-0.3424632698385714,13.706206626705857,0.44378436260644377,-0.18436502,0.011964112999999998,0.29694536200000066
39792.0,-3.0200559339999997,-0.9875296549999999,13.3398879285,0.32013178205930387,-0.28377133775250607,-0.3062249985794131,13.71307998259082,0.5261029174688866,-0.07541313850000009,-0.06462582350000001,-0.014415775499999839
39802.0,-2.9459176599999997,-1.1215865605,13.272908509,0.3763558185830493,-0.4817527614524828,-0.2958333082130388,13.642085161751437,0.6791515085727784,0.07413827400000006,-0.13405690550000005,-0.06697941949999908
39812.0,-2.869229657,-1.2197511269999999,13.205831022999998,0.4000696071298962,-0.5142612641001292,-0.3190147713380275,13.568870426253442,0.7254590013465863,0.07668800299999967,-0.09816456649999994,-0.0670774860000023
39822.0,-2.8190196089999997,-1.1563021015,13.149540852,0.36702877906039155,-0.41966790930054054,-0.3667111291365286,13.49793801750018,0.6673142670345331,0.050210048000000285,0.06344902549999998,-0.05629017099999878
39832.0,-2.7794988095,-0.9790959359999999,13.1890616515,0.2966832835587601,-0.26431964323902923,-0.41867132629765175,13.514273555429146,0.5772101211942234,0.03952079949999954,0.1772061655,0.03952079949999998
39842.0,-2.7160497839999995,-0.8282696589999999,13.6487974035,0.22820179969825857,-0.08179311006546226,-0.4610391938898141,13.941041123925242,0.5208870439378144,0.06344902550000064,0.15082627699999995,0.4597357520000003
39852.0,-2.7016340085,-0.8689672564999998,14.356249134499999,0.1706460769552416,0.0061400683085160515,-0.48049088840329096,14.634063674201533,0.5099306598525247,0.014415775499999395,-0.040697597499999905,0.707451730999999
39862.0,-2.5903285309999995,-0.8079698935,14.872176991,0.08591034177091689,-0.11190353032086843,-0.4882192063311218,15.117680566110161,0.5081938413165391,0.11130547750000064,0.060997362999999805,0.5159278565000012
39872.0,-2.531684764,-0.44169151599999995,14.929643959999998,-0.0321315115292156,-0.34319281746590496,-0.48768513558001153,15.149217402623165,0.5972022567430839,0.058643766999999514,0.3662783775000001,0.05746696899999826
39882.0,-2.4311666014999997,0.0097085835,14.595629461,-0.15896807893014753,-0.5752814654083549,-0.4485164565067548,14.796724795158344,0.7465833016606396,0.10051816250000023,0.45140009949999993,-0.33401449899999847
39892.0,-2.079205933,0.09826263299999999,14.0090937245,-0.28047441079548874,-0.6690754594105303,-0.369643282279879,14.162890236060287,0.8142260261322596,0.35196066849999985,0.08855404949999998,-0.5865357365000001
39902.0,-1.781083773,0.1293497135,13.283597757499999,-0.4035812095849088,-0.5656891358393941,-0.29663266901045227,13.40309517006745,0.7555613353401582,0.2981221599999999,0.031087080500000003,-0.7254959670000005
39912.0,-1.6458500695,0.1868166825,12.6540108275,-0.5274856238424902,-0.3285372877369086,-0.2497356720093646,12.761963522382468,0.6697355736915833,0.13523370349999997,0.05746696900000001,-0.6295869299999985
39922.0,-1.6338859565,0.1724989735,11.979999773,-0.6308736927428783,-0.06207438017643033,-0.21589373781319457,12.092135203337188,0.6696752577901293,0.01196411300000011,-0.014317708999999984,-0.6740110545000011
39932.0,-1.618293383,0.0263798885,11.531051335999999,-0.66791132479945,0.19133171924987838,-0.1935116354856193,11.64408494839531,0.721221268165873,0.015592573499999984,-0.146119085,-0.4489484370000003
39942.0,-1.5931883589999998,-0.28723677849999996,11.5478207075,-0.6103556020564329,0.43114693979090724,-0.17592569794252444,11.660742566695399,0.7677053444188722,0.025105024000000142,-0.31361666699999996,0.016769371500000574
39952.0,-1.642221609,-0.5026888789999999,11.981176570999999,-0.4960435173678124,0.563579032773733,-0.16153545825983118,12.103643251005712,0.7679675784693135,-0.04903325000000014,-0.21545210049999997,0.4333558634999992
39962.0,-1.850514855,-0.5026888789999999,12.730600763999998,-0.40171545261452685,0.4927012118502433,-0.1391533559322559,12.874210544728687,0.6507637401509103,-0.208293246,0.0,0.7494241929999994
39972.0,-2.083913125,-0.5266171049999999,13.247705418499999,-0.37240439315653406,0.19692724483177218,-0.09039060196078633,13.420943273227113,0.4308547698728104,-0.23339827000000013,-0.023928225999999997,0.5171046545000006
39982.0,-2.2240501535,-0.6176228169999999,13.395001301499999,-0.4011831271926686,-0.18571350438770862,-0.015781267096532728,13.5924213036732,0.44236461843961306,-0.14013702849999987,-0.09100571199999996,0.14729588299999996
39992.0,-2.4358737935,-0.8163055459999999,13.3147829045,-0.4408858770170356,-0.4577719375300807,0.06948679350965024,13.560356915518701,0.6393464771275256,-0.21182363999999998,-0.19868272900000006,-0.08021839699999944
40002.0,-2.7459600664999995,-1.036562905,13.1196305695,-0.4843183954529145,-0.5640904142445673,0.11824954748111981,13.443937876343881,0.7528248528683035,-0.3100862729999996,-0.2202573590000001,-0.1951523349999995
40012.0,-2.950624852,-1.1275686169999999,12.726972303499998,-0.5738502954217195,-0.5507665707348426,0.07508231909154406,13.113101159425995,0.798927613513751,-0.20466478550000033,-0.09100571199999985,-0.39265826600000153
40022.0,-2.858442342,-1.170717877,12.233795875,-0.7273328045128489,-0.4239300033339107,-0.0466910481493523,12.617726993449844,0.8431546182192805,0.09218250999999977,-0.04314926000000008,-0.4931764284999982
40032.0,-2.5903285309999995,-1.1227633584999999,11.765724470499999,-0.8925386901896242,-0.20836264209083905,-0.19697611405082804,12.099697176930723,0.9374646092578908,0.26811381100000053,0.0479545185000001,-0.4680714045000016
40042.0,-2.2096343779999996,-1.0258736565,11.4760360295,-1.0103152534434536,0.021327923459370707,-0.3200811675109961,11.731764734852222,1.0600206344476513,0.38069415299999987,0.09688970199999991,-0.28968844099999913
40052.0,-1.8804251374999998,-0.9036827974999999,11.655595790999998,-1.0465552700318639,0.2211751041297294,-0.3717743292965642,11.840842644821194,1.132436537666537,0.3292092404999998,0.12219085900000004,0.17955976149999842
40062.0,-1.7739249185,-0.805518231,12.1105262845,-1.020973979185383,0.2973831605888098,-0.3493922269689888,12.266234798197612,1.1193299507481134,0.10650021899999995,0.09816456649999994,0.4549304935000027
40072.0,-1.7918710879999997,-0.7181409795,12.489945572999998,-0.9937957120733273,0.17614211876977173,-0.2667892841306012,12.63824627386845,1.0439504228970622,-0.01794616949999983,0.08737725149999997,0.3794192884999976
40082.0,-1.8828768,-0.639197447,12.557023058999999,-0.9905982688836736,-0.05221501523191435,-0.15327481491014203,12.713482077089944,1.0037452400966782,-0.0910057120000003,0.07894353249999997,0.06707748600000052
40092.0,-1.9498562195,-0.6440027055,12.2313442125,-1.0081842064267685,-0.28750110636401793,-0.049621455963450786,12.402518292914202,1.0495496982710444,-0.06697941949999997,-0.00480525850000002,-0.3256788464999989
40102.0,-1.9378921064999999,-0.74334407,11.5813594505,-1.0334984618976941,-0.39435365382961474,0.02045874949187753,11.765877482981235,1.106369032224076,0.01196411300000011,-0.09934136449999997,-0.649984761999999
40112.0,-1.9450509609999997,-0.8450390305,10.925392632,-1.0662722545916437,-0.32827025236135343,0.05030213437172857,11.129308979775665,1.1167937071006826,-0.007158854499999867,-0.10169496049999993,-0.6559668185000014
40122.0,-2.037233471,-1.0018473639999999,10.4273128785,-1.102777561226357,-0.1372177857917942,0.04097509484907088,10.67159183169261,1.112036882787547,-0.09218251000000022,-0.1568083334999999,-0.498079753499999
40132.0,-2.117451868,-1.149143247,10.1939146085,-1.120098208723149,0.11112685880373095,0.0023387411976724015,10.474732820497719,1.1255996826770969,-0.08021839699999989,-0.14729588300000018,-0.23339827000000035
40142.0,-2.2778886619999996,-1.2963410635,10.2058787215,-1.0953180240033333,0.3424161459487675,-0.03523296161000953,10.537041206493923,1.1481340306326553,-0.16043679399999977,-0.14719781649999986,0.011964112999999443
40152.0,-2.4250864785,-1.4675651725,10.296884433499999,-1.0167101398227607,0.46632056020634893,-0.05122017755827759,10.67991671318616,1.1197222333590962,-0.1471978165000003,-0.17122410900000018,0.0910057119999994
40162.0,-2.4801998515,-1.6579122489999998,10.245399521,-0.8938721217381479,0.48444056850055406,-0.04136081261376162,10.670907912341473,1.0175464369009746,-0.05511337300000019,-0.1903470764999997,-0.051484912499999425
40172.0,-2.4250864785,-1.8542413819999999,10.1400761,-0.747316824448184,0.4716490504126876,0.006867870606597687,10.589636388692295,0.8837321033577862,0.05511337300000019,-0.1963291330000001,-0.10532342099999958
40182.0,-2.3185862595,-1.9165136094999997,10.072998614,-0.5725186092024479,0.47538056435345155,0.09959721376505641,10.5125718896846,0.7507888144064705,0.10650021899999995,-0.06227222749999983,-0.06707748600000052
40192.0,-2.194139871,-1.7632356699999998,9.9377649105,-0.39585289165707793,0.48896969790947936,0.21257761223440536,10.328718275654406,0.6640633392457673,0.1244463885,0.1532779394999999,-0.13523370349999908
40202.0,-2.176095635,-1.4699187685,9.803708004999999,-0.2567606222486418,0.4919001057235779,0.3407458658546089,10.1493223441743,0.6511524216689853,0.018044236000000158,0.2933169014999999,-0.13405690550000138
40212.0,-2.2371910644999997,-1.2652539829999998,9.619342985,-0.161898486744246,0.49429993344507006,0.4753090058541198,9.956789189474923,0.7046007346433221,-0.06109542949999991,0.2046647855000001,-0.18436501999999955
40222.0,-2.4084151735,-1.173071473,9.3811394565,-0.10088003076527226,0.5153503495533737,0.5976164438461264,9.756143594218596,0.7955552635406776,-0.17122410900000018,0.09218250999999977,-0.2382035284999997
40232.0,-2.6549543545,-1.1000119305,9.1979512345,-0.06197664173831865,0.5366660557079804,0.6876806692367898,9.636447259439597,0.8745034375645874,-0.24653918100000016,0.07305954250000002,-0.18318822200000007
40242.0,-3.0524178789999996,-1.0976583345,9.278169631499999,-0.0414585510518733,0.5555854247995989,0.7260499875126332,9.828862621800399,0.9151735136421761,-0.39746352449999955,0.002353596000000069,0.08021839699999944
40252.0,-3.308567577,-1.2461310154999998,9.389475109,-0.05957681401682644,0.5316046008771969,0.7111291677373336,10.033030685784693,0.8898637770181411,-0.2561496980000002,-0.14847268099999988,0.1113054775000002
40262.0,-3.470181169,-1.3849931795,9.5092143055,-0.10487683475233926,0.4519320658529077,0.6658308923310727,10.216923223792453,0.8115248115714879,-0.16161359200000014,-0.13886216400000007,0.1197391965000012
40272.0,-3.4869505404999996,-1.4807060835,9.561876016,-0.1555036003649388,0.3298916632364562,0.6096068558073274,10.28497873225624,0.7103734214106477,-0.016769371499999686,-0.09571290400000021,0.052661710499998904
40282.0,-3.4869505404999996,-1.5705349974999998,9.620519782999999,-0.20773083290161712,0.2062525390251779,0.5469879329042748,10.35276799437522,0.6203934296357623,0.0,-0.0898289139999997,0.058643766999999514
40292.0,-3.433112032,-1.7213612744999998,9.656412121999999,-0.2676846380368743,0.08927533656876195,0.47930580984118676,10.392094973176484,0.5562006926532131,0.053838508499999715,-0.15082627699999995,0.035892339000000106
40302.0,-3.4426244824999994,-1.8398256064999998,9.6372891545,-0.33030356093992685,-0.03862588167588651,0.42654625188265016,10.39778648738686,0.5408642215010832,-0.009512450499999492,-0.11846433200000006,-0.019122967499999532
40312.0,-3.3731934005,-1.9212208014999999,9.5211784185,-0.38039800113066813,-0.17105797465871225,0.37938221950600737,10.282137985954245,0.5638211936738923,0.06943108199999948,-0.08139519500000003,-0.11611073599999955
40322.0,-3.285816149,-2.0086961195,9.361918422499999,-0.42036778633059024,-0.2906985495536715,0.3276890577204394,10.123090655282526,0.6071201207724866,0.08737725149999997,-0.0874753180000003,-0.15925999600000118
40332.0,-3.2104030105,-2.167858049,9.1081223205,-0.4579394891382722,-0.3951530146270282,0.26640356636591045,9.89768600308334,0.6609276366241059,0.07541313850000009,-0.15916192949999974,-0.253796101999999
40342.0,-3.099097533,-2.2959328979999998,8.75145446,-0.49444479577298556,-0.46416682390938796,0.19365824314278682,9.563663971335425,0.705287183792722,0.11130547749999975,-0.12807484899999988,-0.3566678605
40352.0,-2.9171841755,-2.5676751694999997,8.458137558499999,-0.5360133025677346,-0.4548397843867303,0.11132233567995432,9.308222722322602,0.7117458481872427,0.18191335750000004,-0.27174227149999997,-0.2933169015000008
40362.0,-2.765083034,-2.8191176755,8.2845598535,-0.5605264519119949,-0.37410259851872457,0.03298148687493684,9.177529112972353,0.6747076670588482,0.1521011415000002,-0.25144250600000007,-0.17357770499999958
40372.0,-2.7208550424999998,-2.8968844099999997,8.2414105935,-0.5408094673522149,-0.2749783689809586,-0.04375889500600183,9.14963605931147,0.6082785745670818,0.04422799150000012,-0.07776673449999993,-0.043149259999999856
40382.0,-2.7926397205,-2.8239229339999996,8.3455572165,-0.48778287401812326,-0.236074979954005,-0.11730357902653889,9.242386196192015,0.5544579857826016,-0.07178467800000021,0.07296147600000014,0.1041466230000001
40392.0,-2.772339955,-2.7711631569999997,8.601804980999999,-0.42756203350731087,-0.25019643893189114,-0.17619098798882757,9.452844175165483,0.5257859020548056,0.0202997654999999,0.0527597769999999,0.2562477644999994
40402.0,-2.71840338,-2.7688095609999994,8.8639367355,-0.3971863232056016,-0.2917649457266401,-0.22628542817956881,9.676021794747406,0.5422995979187747,0.053936575000000264,0.002353596000000291,0.26213175450000037
40412.0,-2.4502895689999997,-2.8453994975,8.9465087285,-0.433691629840315,-0.34798898225038544,-0.28890435108262136,9.70258912360253,0.6266182934096949,0.2681138110000001,-0.07658993650000046,0.08257199300000018
40422.0,-2.1199035305,-2.9759260089999997,8.774205888,-0.5301507416102855,-0.370905155329071,-0.353656066331611,9.504568141408788,0.7373622287131115,0.3303860384999999,-0.13052651149999983,-0.17230284050000044
40432.0,-1.806188797,-3.0429054285,8.4844193805,-0.6383349752951542,-0.32267472677945963,-0.40001899258158835,9.192766919780306,0.819515536407488,0.3137147334999999,-0.06697941950000041,-0.2897865074999988
40442.0,-1.4997309845,-3.0094647519999995,8.058320437999999,-0.7414560088199871,-0.18438007283918495,-0.4301294128369946,8.731700830931409,0.8767920711679285,0.3064578124999999,0.0334406765000006,-0.42609894250000124
40452.0,-1.2998714574999999,-3.0094647519999995,7.668015767999999,-0.8016751040015474,0.04344473574064285,-0.43092877363440796,8.33936506682914,0.9111915415462991,0.1998595270000001,0.0,-0.3903046699999999
40462.0,-1.2771200295,-2.9267946924999997,7.724305939,-0.8083370257564099,0.3322897456286964,-0.405349228117179,8.358353006487995,0.9633967090424875,0.02275142799999985,0.08267005949999984,0.056290171000000555
40472.0,-1.6063292699999998,-2.815489215,8.1217694635,-0.753179385405633,0.5806326448949696,-0.3624490351031584,8.744736271705461,1.0177341293112585,-0.3292092404999998,0.11130547749999975,0.3974635245
40482.0,-2.083913125,-2.748411729,8.787346799,-0.6529887596948984,0.6794898390571804,-0.3150179673509605,9.440017198636218,0.9936483691043656,-0.4775838550000002,0.06707748600000007,0.6655773355000001
40492.0,-2.462253682,-2.7688095609999994,9.440960021499999,-0.5325488240025258,0.5811667156460798,-0.2833088255007275,10.142027692092388,0.8376317161664345,-0.378340557,-0.02039783199999956,0.6536132224999989
40502.0,-2.5963105874999997,-2.7807736739999998,9.791743892,-0.4113077821834877,0.31523613350745977,-0.27158544891508163,10.504845517155184,0.5850697117573587,-0.1340569054999996,-0.011964113000000332,0.3507838705000008
40512.0,-2.532861562,-2.688591164,9.9150134825,-0.3079214586123516,0.012801990063378408,-0.26092672317315224,10.580708978965102,0.40380969588337007,0.06344902549999976,0.09218250999999977,0.12326959049999964
40522.0,-2.3677175759999995,-2.536588089,9.711525494999998,-0.24370381411447223,-0.21235944607790605,-0.24200735408153373,10.312812084634867,0.4038014893261306,0.16514398600000035,0.1520030750000001,-0.20348798750000086
40532.0,-2.106664553,-2.4827495804999997,9.440960021499999,-0.21279403306165265,-0.32267472677945963,-0.2137626907965095,9.986681488157158,0.44169533366949526,0.26105302299999966,0.05383850850000016,-0.2705654734999996
40542.0,-1.9056282279999999,-2.469510603,9.230215112999998,-0.19787146795710112,-0.32667153076652666,-0.16819738001469356,9.743037133970773,0.417322136351106,0.20103632500000002,0.013238977499999915,-0.2107449085000006
40552.0,-1.7284220624999997,-2.434795062,9.114104376999999,-0.19627274636227432,-0.26112220004937564,-0.11010933184981826,9.590754319391507,0.3447199722726103,0.17720616550000012,0.03471554099999974,-0.11611073599999955
40562.0,-1.7667660639999998,-2.4814747159999997,9.152448378499999,-0.1938746639700341,-0.17505477864577926,-0.04482529117897036,9.646060875412127,0.26502993714955275,-0.03834400150000006,-0.046679653999999626,0.0383440015000005
40572.0,-1.8900356545,-2.6347526555,9.2469844845,-0.187746812966282,-0.10763969095824628,0.018592992521495592,9.799024358961931,0.21721157478248537,-0.1232695905000003,-0.15327793950000013,0.0945361060000014
40582.0,-2.0037927945,-2.941210468,9.3811394565,-0.187746812966282,-0.07486415293504477,0.05936213851883113,10.033527898135532,0.21065937117348174,-0.1137571399999997,-0.30645781250000015,0.13415497199999926
40592.0,-2.1569726675,-3.0776209695,9.4074212785,-0.19067722078038052,-0.0759305491080133,0.07188487590189044,10.130343381713313,0.21746421819647616,-0.15317987300000002,-0.1364105014999999,0.02628182199999962
40602.0,-2.298286494,-3.2201115939999996,9.3823162545,-0.19174361695334904,-0.09085311421256483,0.05989446394068941,10.182293346087164,0.22047051915214547,-0.14131382650000024,-0.14249062449999972,-0.025105024000000142
40612.0,-2.3149577989999996,-3.367407477,9.365546882999999,-0.18028553041400625,-0.09698096521631693,0.024987878900802816,10.218215653673465,0.20623427014662046,-0.01667130499999958,-0.1472958830000004,-0.016769371500000574
40622.0,-2.2264037494999998,-3.540985182,9.5439298465,-0.1461783061715331,-0.08285950623843079,-0.022975514273253353,10.420270948005369,0.16959265675546065,0.0885540494999999,-0.17357770500000003,0.1783829635000007
40632.0,-2.069595416,-3.5757007229999997,9.906579763499998,-0.09874723841933518,-0.0658058941171942,-0.047490408946765705,10.733554092516542,0.12781538146068117,0.1568083334999999,-0.03471554099999974,0.3626499169999988
40642.0,-1.9594667364999998,-3.3888840405,10.3208126595,-0.07956257928141351,-0.04422140725778033,-0.043493604959698694,11.038261587944952,0.10088325209944415,0.11012867950000005,0.18681668249999994,0.41423289600000146
40652.0,-2.001341132,-3.1183185669999998,10.642863045499999,-0.10407747395492585,-0.06553885874163907,-0.0040561451816348215,11.269419275952131,0.12306061475439366,-0.04187439550000005,0.27056547350000004,0.322050385999999
40662.0,-2.0516492465,-3.0226056629999998,10.811635491999999,-0.15390487877011197,-0.11829841670017564,0.0582957423458626,11.41213703197336,0.20268108120558873,-0.050308114499999945,0.09571290399999999,0.16877244650000023
40672.0,-2.1521674089999996,-2.8825667009999996,10.822422806999999,-0.215457405500196,-0.16972628843944057,0.12357978301671049,11.404641632052693,0.3008336240229162,-0.10051816249999979,0.1400389620000002,0.010787314999999964
40682.0,-2.1606011279999997,-2.8239229339999996,10.5661750425,-0.3004601760600758,-0.18811158677994885,0.17580527022413683,11.14839867425972,0.39568899342476505,-0.008433719000000117,0.05864376699999996,-0.2562477644999994
40692.0,-2.184529354,-2.8945308139999995,10.258540431999998,-0.41050842138607424,-0.17372309242650757,0.2144433692047873,10.88063090664608,0.4946542585149918,-0.02392822600000022,-0.07060787999999985,-0.30763461050000096
40702.0,-2.1868829499999998,-3.0573212039999995,9.827636231,-0.5221571336361516,-0.1326869110536169,0.22536738499301978,10.52198193641733,0.583990022851987,-0.002353595999999847,-0.16279039000000006,-0.4309042009999988
40712.0,-2.206103984,-3.2129527394999995,9.40261602,-0.6084898450860511,-0.0759305491080133,0.20698208665251153,10.178366672214255,0.6471992923788766,-0.01922103400000008,-0.15563153549999997,-0.42502021099999965
40722.0,-2.2360142665,-3.3805483880000002,9.043496497,-0.6607170776227294,0.00400727596257898,0.17047678001779812,9.910231889055483,0.682367531062401,-0.02991028249999994,-0.16759564850000075,-0.3591195230000004
40732.0,-2.3509482045,-3.554126093,8.808921429,-0.6767042935709975,0.10552958789258514,0.12171402604632856,9.7854926543062,0.6956144758374483,-0.11493393800000007,-0.17357770499999958,-0.23457506799999983
40742.0,-2.4753945929999994,-3.806745397,8.677218119499999,-0.6615164384201427,0.18973299765505158,0.0676210365392683,9.793518428124461,0.691502142644466,-0.12444638849999956,-0.252619304,-0.13170330950000064
40752.0,-2.611903161,-3.9826766979999997,8.649661433,-0.6255434572072877,0.2398274378457928,0.014062117783318312,9.874228815900592,0.6700892179068958,-0.13650856800000044,-0.17593130099999987,-0.02755668649999876
40762.0,-2.7436064705,-3.9946408109999996,8.5179581235,-0.5922355937622279,0.252084885182549,-0.04562465197638377,9.8000072585471,0.6452684687200853,-0.1317033095000002,-0.011964112999999887,-0.13170330950000064
40772.0,-2.784304068,-3.974242979,8.348008879,-0.5631915696797903,0.2312997591205485,-0.09811717455936522,9.655889842115794,0.6166938484135568,-0.040697597499999905,0.02039783199999956,-0.1699492444999997
40782.0,-2.680157445,-4.0257278915,8.187572085,-0.5320164985806675,0.2062525390251779,-0.12849463019032653,9.509262097211392,0.5848867707549168,0.1041466230000001,-0.05148491249999987,-0.16043679400000066
40792.0,-2.4909871665,-4.127520918499999,7.9936946145,-0.4963088074141155,0.19319573089100833,-0.13941864597855905,9.334912939401688,0.5505311813129454,0.1891702784999998,-0.10179302699999937,-0.19387747049999948
40802.0,-2.3174094614999996,-4.1849878875,7.878760676499999,-0.459538210733099,0.18626851908984282,-0.12609654779808632,9.217341266782638,0.5116362650304377,0.17357770500000047,-0.05746696900000092,-0.11493393800000096
40812.0,-2.2755350659999998,-4.235296001999999,7.897883643999999,-0.415838656921665,0.17587682872346858,-0.08852484499040439,9.24620776942177,0.4600990063592983,0.04187439549999983,-0.05030811449999906,0.01912296750000042
40822.0,-2.3521250025,-4.289134510499999,7.847575529499999,-0.3630790989631284,0.12791343554941242,-0.0466910481493523,9.247356842241727,0.38777355902023025,-0.07658993650000001,-0.05383850850000016,-0.050308114499999945
40832.0,-2.4406790519999997,-4.444766046,7.803347538,-0.2937982543052135,0.05490282227998563,-0.005122541354603357,9.3061856975539,0.29892804244002974,-0.0885540494999999,-0.15563153550000042,-0.044227991499999675
40842.0,-2.544825675,-4.619520549,7.7673571325,-0.20293466811713667,-0.003452261260444784,0.0295170083097281,9.388713684130062,0.20509912581768683,-0.1041466230000001,-0.17475450299999995,-0.03599040549999977
40852.0,-2.6633880734999997,-4.7547542525,7.8272757639999995,-0.10381043857937072,-0.02024058333537824,0.0473699812283781,9.537692064510715,0.11588875481846625,-0.11856239849999994,-0.13523370349999997,0.05991863149999954
40862.0,-2.772339955,-4.7763288825,8.0882307205,-0.01667662100280582,0.00587303293296092,0.045771259633551296,9.793807360160452,0.04906740682311253,-0.10895188150000035,-0.021574629999999928,0.2609549565000009
40872.0,-2.8656992629999998,-4.794275052,8.5179581235,0.04460887035172307,0.03198664920130008,0.03991044400535434,10.1859175401084,0.06786708025168309,-0.0933593079999997,-0.017946169500000053,0.42972740299999934
40882.0,-2.923166232,-4.800257108499999,8.970535021,0.06326120406778647,0.022127284256784112,0.03458020846976365,10.58573888260037,0.07541476955145433,-0.057466969000000034,-0.005982056499999722,0.4525768975000002
40892.0,-2.9866152574999996,-4.6266794035,9.2805232275,0.03821398397241584,-0.02823419130951227,0.016460200175558524,10.791392142595408,0.05028336026724596,-0.06344902549999976,0.17357770499999958,0.3099882064999999
40902.0,-3.0344717094999996,-4.398086392,9.448118875999999,-0.00815068760681352,-0.12602498929875455,-0.01338318470429252,10.854406145076704,0.12699543798516652,-0.047856451999999994,0.2285930115000001,0.16759564849999897
40912.0,-2.9147325129999997,-4.259224228,9.4756755625,-0.050251519823420736,-0.24167050553589883,-0.04429296575711209,10.790045598257738,0.25078220691688086,0.11973919649999987,0.13886216399999984,0.027556686500000538
40922.0,-2.7519421229999996,-4.2759935995,9.355936366,-0.0739670536995197,-0.365042594371622,-0.06480931111430543,10.648514074552748,0.37805749238133485,0.16279039000000006,-0.016769371499999686,-0.11973919649999942
40932.0,-2.556789788,-4.387299077,9.0506553515,-0.08515810486330733,-0.49587596575962095,-0.06667506808468737,10.377857654771612,0.5075336845432473,0.1951523349999995,-0.1113054775000002,-0.3052810145000002
40942.0,-2.3629123174999997,-4.524984443,8.6795717155,-0.08862258342851607,-0.5888705989643829,-0.05921378553241162,10.069449041238197,0.5984386493328233,0.19387747050000037,-0.13768536600000036,-0.37108363599999983
40952.0,-2.2491551775,-4.6039279754999995,8.242685458,-0.09634915602709497,-0.5907363559347647,-0.044558255803415235,9.705499233712363,0.6001983340950399,0.1137571399999997,-0.07894353249999941,-0.43688625749999943
40962.0,-2.2503319755,-4.5572483214999995,7.883565934999999,-0.10700788176902434,-0.4993386989955777,-0.023507839695111624,9.379931669008293,0.5112166288398888,-0.0011767979999999234,0.04667965400000007,-0.3591195230000013
40972.0,-2.337709227,-4.4075988425,7.632123428999999,-0.10487683475233926,-0.34639026065555856,-0.008319984544256968,9.118175257248513,0.36201462026762393,-0.08737725149999997,0.1496494789999998,-0.25144250600000007
40982.0,-2.4215560845,-4.574017693,7.628494968499999,-0.0819606616736537,-0.16546244907681842,0.0020717058221172693,9.218433012756877,0.18466094357360804,-0.0838468575000002,-0.16641885050000038,-0.003628460499999875
40992.0,-2.554436192,-4.772798488499999,7.6967492525,-0.036662386267392884,-0.0026529004630313807,-5.93411945678072e-05,9.409819271733472,0.03675829116082034,-0.13288010749999968,-0.19878079549999939,0.06825428400000089
41002.0,-2.731544291,-4.8457599645,7.896706845999999,0.0003769911184307752,0.07302108524493875,-0.04482529117897036,9.65922889566807,0.08568271553779948,-0.17710809900000024,-0.07296147600000058,0.19995759349999886
41012.0,-2.9770047405,-5.0768046385,8.0211532345,0.019029324834494175,0.01946216648898877,-0.11703654365098376,9.948638186896957,0.12016007522413774,-0.2454604494999999,-0.23104467399999962,0.12444638850000089
41022.0,-2.9207145695,-5.197720633,8.0535151795,0.03608293695573077,-0.14147987982516433,-0.2044356512738518,10.020278445314801,0.2512219541490316,0.05629017100000011,-0.12091599450000068,0.03236194499999989
41032.0,-2.9027684,-5.099556066499999,7.8667965634999995,0.05366887449882564,-0.3021566360930143,-0.29743202980786565,9.814174679050241,0.42736962126553174,0.017946169500000053,0.09816456650000127,-0.18671861600000028
