timestamp,ax,ay,az,gx,gy,gz,acc_mag,gyro_mag,dax,day,daz
155252.0,0.7691355594999999,1.3103645729999998,12.504165215499999,0.07655886763873126,0.2494948165725894,-0.03927863481613239,12.596141177343997,0.2639161511990767,0.0,0.0,0.0
155262.0,0.716473849,1.3618494854999998,12.2431121925,0.10613521714302718,0.27534139746537345,-0.12134925223266174,12.33943941010286,0.31906615378884745,-0.0526617104999999,0.05148491250000009,-0.2610530229999988
155272.0,1.3090897085,1.7460740325,12.942228270999998,0.09920800534186168,0.3486190461103553,-0.1559888018969932,13.124929066876629,0.3946010313621396,0.5926158595,0.3842245470000001,0.6991160784999977
155282.0,1.4012722184999997,2.420085087,13.704793375,0.048579494400010165,0.4221619848016404,-0.12028285605969322,13.987199044487198,0.44164315249950153,0.09218250999999977,0.6740110545,0.7625651040000019
155292.0,1.385679645,2.9383665395,14.479322591999999,-0.06280043714525996,0.4107038982622977,-0.011566296952966421,14.839302164260356,0.4156385042061042,-0.015592573499999762,0.5182814525000001,0.7745292169999995
155302.0,1.4132363314999998,3.060459332,14.994073650499999,-0.23013911516797228,0.2985228605903621,0.12752771778472166,15.368340602944608,0.39792364773751454,0.027556686499999872,0.12209279250000016,0.5147510584999999
155312.0,1.3079129104999998,2.9767105409999997,15.251498213,-0.3870861028243104,0.15037058703482348,0.2434385240681691,15.5942181454376,0.48136190069987733,-0.10532342100000003,-0.08374879100000054,0.2574245625000007
155322.0,1.167775882,2.8594230069999997,15.074292047499998,-0.5067284230485217,0.019004890224966254,0.31458338036721395,15.38747156542827,0.5967391253981658,-0.14013702849999987,-0.11728753399999992,-0.17720616550000123
155332.0,1.121096228,2.6737831224999997,14.6588823535,-0.5978572992829015,-0.027626816729818243,0.35588659711565973,14.942851293924978,0.6963130483590206,-0.04667965399999985,-0.18563988450000002,-0.41540969399999916
155342.0,1.015772807,2.4488185715,14.189634150999998,-0.683924720686498,0.04431914569589201,0.3875939936366407,14.435173159016465,0.7873666961108517,-0.10532342100000003,-0.2249645509999998,-0.4692482025000011
155352.0,0.9079977235,2.0704780145,13.874840686,-0.7782527854397836,0.2121901491404626,0.3777363740213768,14.05782853559859,0.890722642406631,-0.10777508350000009,-0.378340557,-0.3147934649999975
155362.0,0.761976705,1.6203527795,13.795799086999999,-0.8773770149775495,0.4077734904481992,0.32764018850138354,13.911514082869125,1.0214782127115805,-0.14602101849999993,-0.450125235,-0.07904159900000174
155372.0,0.6398839125,1.2708437735,13.865230168999998,-0.9762342091397603,0.5290145322672373,0.2743483051209887,13.938045162700103,1.1437467372488617,-0.12209279250000005,-0.3495090059999999,0.06943108199999948
155382.0,0.45551889249999994,1.0253833239999999,13.934661251,-1.0732273916608412,0.5380727910850879,0.24397084949002737,13.979760105333803,1.2250963791139515,-0.18436502000000005,-0.24546044950000012,0.06943108200000125
155392.0,0.322638785,0.829054191,13.855619651999998,-1.1707528996037804,0.41043860821599454,0.24024108087851545,13.884150048817878,1.2636605477685134,-0.13288010749999996,-0.19632913299999988,-0.07904159900000174
155402.0,0.2460488485,0.5418174124999999,13.576718525999999,-1.2232454221867617,0.18394548585543838,0.2596927753919923,13.58975320153269,1.2639642567170395,-0.07658993649999998,-0.28723677850000007,-0.27890112599999917
155412.0,0.26399501799999997,0.408937305,13.099134670999998,-1.1987305275132494,-0.09823934760700483,0.29433232505632373,13.108175014773938,1.2382396232488704,0.01794616949999997,-0.13288010749999996,-0.47758385500000067
155422.0,0.528578435,0.19946726099999998,12.6430273795,-1.0894816429846643,-0.3441841644810378,0.3292389100962103,12.65564394525006,1.189046361333911,0.26458341700000004,-0.209470044,-0.4561072914999986
155432.0,0.832584585,-0.017259704,12.1832916275,-0.9525204205929133,-0.48007899069982024,0.3745389308317231,12.21171936580895,1.1305089118031881,0.30400615,-0.216726965,-0.4597357520000003
155442.0,1.0875574849999998,-0.13454723799999999,11.6494176015,-0.8893674269387505,-0.5120551679256083,0.41877081006501543,11.70084675126424,1.1083969985801503,0.25497289999999984,-0.11728753399999998,-0.5338740259999994
155452.0,1.2372069639999999,-0.20162472399999998,11.089163687,-0.9290701767631175,-0.42891815433611047,0.45527611669972884,11.159788747022839,1.1200082673386527,0.14964947900000003,-0.06707748599999999,-0.5602539145000005
155462.0,1.453933929,-0.40991796999999996,10.742008277,-1.0076780609436902,-0.2517218566981342,0.46620187781721334,10.847704754240079,1.138474048244881,0.2167269650000001,-0.208293246,-0.34715540999999916
155472.0,1.5365059220000001,-0.6026186425,10.564802111499999,-1.083086756605357,-0.03002489912205845,0.46007228148420926,10.692943623333308,1.177134198420591,0.08257199300000018,-0.1927006725,-0.17720616550000123
155482.0,1.5293470675,-0.6481214984999999,10.5385202895,-1.1494354481199216,0.14104354751216577,0.4494135557422799,10.668616303058792,1.242202751475934,-0.007158854500000089,-0.045502855999999925,-0.02628182199999962
155492.0,1.48864947,-0.7499145254999999,10.6318795975,-1.2109879748500056,0.21938439631718326,0.43928890075146076,10.761752311581228,1.3067502159564388,-0.04069759750000013,-0.10179302700000004,0.09335930800000014
155502.0,1.409607871,-0.7726659534999999,10.6905233645,-1.2701424191878492,0.20979206674822243,0.4374231437810788,10.810702883374589,1.3596372615540422,-0.07904159899999996,-0.022751427999999962,0.05864376700000129
155512.0,1.3785207904999999,-0.7426576045,10.5408738855,-1.3279651773064214,0.15410035564633534,0.43982122617331904,10.656541754123534,1.4073667406690424,-0.031087080500000086,0.030008348999999934,-0.1496494790000007
155522.0,1.3820511844999999,-0.7414808064999999,10.397206462999998,-1.36660153095782,0.09494591130849153,0.44728250872559483,10.51483530528342,1.441067699000404,0.0035303939999999923,0.0011767980000000344,-0.14366742250000186
155532.0,1.3868564429999999,-0.6972528149999999,10.1805775645,-1.3809917706405133,0.04751658888554562,0.45314506968304374,10.298237316566208,1.4542133787633054,0.00480525850000002,0.04422799150000001,-0.216628898499998
155542.0,1.492179864,-0.7151989844999999,9.947081228,-1.3913834610068874,0.03499210617323432,0.4571418736701108,10.083775844909827,1.4649747696532398,0.10532342100000003,-0.017946169499999942,-0.2334963365
155552.0,1.5700446649999997,-0.7007832089999999,9.637093021499998,-1.4142996340855731,0.07602828754612498,0.4483489048985634,9.789264490305452,1.485611152356337,0.07786480099999982,0.01441577549999995,-0.3099882065000017
155562.0,1.5783803175,-0.8372917769999999,9.389278975999998,-1.4571998270995936,0.14823954001813835,0.42276761405208246,9.55776656105697,1.5245126279618564,0.008335652500000235,-0.136508568,-0.2478140455000002
155572.0,1.5162061564999998,-0.9809591994999999,9.160587898,-1.5102246751044333,0.22684567886945897,0.3734725346587546,9.336890954545643,1.5721702406102436,-0.06217416100000017,-0.14366742249999997,-0.22869107799999888
155582.0,1.4240236465,-1.113839307,9.030159453,-1.5557899858862492,0.28413436623692084,0.3036593645789814,9.209357257388522,1.6104110742159292,-0.09218250999999977,-0.1328801075,-0.13042844499999973
155592.0,1.3904849035,-1.241914156,8.9678872255,-1.5827029629520017,0.31371246107046874,0.23064875130955462,9.159628831291183,1.6298966297433075,-0.03353874300000004,-0.1280748490000001,-0.06227222749999939
155602.0,1.3305662719999998,-1.2490730105,8.9223843695,-1.5840363945005256,0.31611054346270895,0.16669814218723042,9.107114407255539,1.6238489601558355,-0.05991863150000021,-0.007158854500000089,-0.04550285600000059
155612.0,1.3006559894999998,-1.1412979269999999,9.0384951055,-1.551260856477324,0.2828026800176492,0.11527027044796549,9.202644225077059,1.581036000827645,-0.02991028249999994,0.1077750835000002,0.11611073599999955
155622.0,1.2695689089999997,-0.8779893744999999,9.160587898,-1.5027651378814095,0.21538759233011623,0.10194642693824078,9.28972772439636,1.5215413068750288,-0.031087080500000086,0.26330855249999996,0.12209279250000016
155632.0,1.3330179345,-0.6816602414999999,9.373686402499999,-1.4561334309266252,0.12452400614203943,0.11047410566348508,9.49250200268369,1.4656177280552913,0.0634490255000002,0.196329133,0.21309850449999956
155642.0,1.409607871,-0.5810440124999999,9.5005844535,-1.424424289076392,0.0054157566689384045,0.14218324751371805,9.622146925324573,1.431513171998298,0.07658993650000001,0.100616229,0.1268980510000013
155652.0,1.3748923299999998,-0.535639223,9.4897971385,-1.4404132503539122,-0.07105933516569712,0.183751754308467,9.603826738659526,1.453824084310324,-0.03471554100000018,0.04540478949999993,-0.010787314999999964
155662.0,1.2624100545,-0.6828370395,9.311414175,-1.5128897928722287,-0.08065166473465797,0.19947193488117995,9.421378853788163,1.5281129765847445,-0.11248227549999967,-0.14719781649999997,-0.1783829635000007
155672.0,1.1270782845,-0.9378099395,9.194126641,-1.608816579220341,-0.027626816729818243,0.1720266323935691,9.310303842129022,1.6182234669011368,-0.13533177000000007,-0.25497290000000006,-0.11728753399999903
155682.0,0.967916355,-1.21798593,9.045752026499999,-1.6932852790291106,0.0504469966996441,0.11100643108534335,9.178560972226707,1.6976696861860414,-0.15916192950000008,-0.28017599049999997,-0.14837461450000156
155692.0,0.9152546444999999,-1.4597198525,8.905614997999999,-1.769226300112636,0.12398993539092916,0.025738370479160375,9.070747025723072,1.773752426017627,-0.052661710500000014,-0.24173392249999992,-0.14013702849999987
155702.0,0.9199618365,-1.6465365349999999,8.7703812945,-1.8315799329693854,0.1847448466528518,-0.05606521156181385,8.970897412891407,1.8417271831540074,0.004707192000000027,-0.18681668249999994,-0.13523370349999908
155712.0,0.8338594494999999,-1.7638240689999998,8.595626791499999,-1.8784769299704729,0.21565462770567134,-0.12001582068413809,8.814260993790501,1.894620355664071,-0.08610238700000006,-0.11728753399999992,-0.17475450300000084
155722.0,0.783551335,-1.8955273784999997,8.313097205,-1.9237752053767336,0.21965143169273837,-0.16638049226336743,8.562392298709641,1.94340944231337,-0.050308114499999945,-0.13170330949999998,-0.28252958649999904
155732.0,0.6697941949999999,-1.9601532019999999,8.0448853275,-1.9536185902565848,0.21085671759193897,-0.19196178310984832,8.307286245916373,1.9743189908736847,-0.11375714000000003,-0.06462582350000012,-0.26821187750000064
155742.0,0.5656475719999999,-2.1253952545,7.6151579245,-1.9650766767959276,0.1834114151043281,-0.21487621085928188,7.926404757431692,1.985280302343007,-0.104146623,-0.16524205250000001,-0.42972740299999934
155752.0,0.481898781,-2.3229011854999997,7.078832236,-1.9653437121714827,0.15596611261671728,-0.24098982712762104,7.465786105840386,1.986196725411598,-0.08374879099999993,-0.1975059309999998,-0.5363256884999998
155762.0,0.5141626595,-2.5119733975,6.534170895,-1.9357656173379347,0.14664081842331156,-0.2668364080204051,7.019242329143289,1.9595646770496773,0.032263878499999954,-0.18907221200000013,-0.5446613410000003
155772.0,0.5477014025,-2.756257049,6.1223896615,-1.860889247098126,0.15276866942706366,-0.29135130269391746,6.736511331075213,1.8897440667734318,0.03353874300000004,-0.24428365149999998,-0.4117812335000002
155782.0,0.5201447159999999,-2.9273830915,5.8674167614999995,-1.7471112331606156,0.16742419915606005,-0.3193306759326385,6.577742906431807,1.7839284189929399,-0.027556686500000094,-0.17112604250000008,-0.2549729000000003
155792.0,0.40403397999999996,-3.1368531354999996,5.826719164,-1.6168101871944751,0.16369443054454816,-0.36729406910669465,6.6297622330529835,1.6660660194626415,-0.11611073599999994,-0.2094700439999997,-0.04069759749999946
155802.0,0.3860878105,-3.2625743884999996,5.9499887545,-1.5024981025058544,0.11679568821420855,-0.4427027647683617,6.79675081318929,1.5707092406784506,-0.017946169499999942,-0.12572125300000003,0.12326959049999964
155812.0,0.4327674645,-3.253061938,5.941653101999999,-1.4158983556804,0.036857863143616255,-0.5210418682441271,6.787705152354533,1.5091756969144792,0.04667965399999996,0.009512450499999492,-0.008335652500000457
155822.0,0.5920274605,-3.2015770255,5.801516073499999,-1.3676679271307886,-0.04974362901109038,-0.5793969517845576,6.6526822196219735,1.4861664830249195,0.15925999600000001,0.05148491250000031,-0.14013702849999987
155832.0,0.7775692784999999,-3.0423170295,5.6603003135,-1.3319619812934884,-0.09903870840441824,-0.6132388859807277,6.472967366661206,1.4696915719471806,0.18554181799999991,0.15925999599999985,-0.1412157599999997
155842.0,1.0217548635,-2.9920089149999995,5.516632891,-1.2837315527438773,-0.11529295972824143,-0.6153699329974127,6.358406939052297,1.4282644434803886,0.2441855850000001,0.05030811450000039,-0.1436674224999992
155852.0,1.198961029,-2.9669038909999994,5.4328841,-1.2442958382950655,-0.10223615159407184,-0.5953859130620777,6.305256211410008,1.3831878937309818,0.1772061654999999,0.025105024000000142,-0.08374879100000054
155862.0,1.2157304004999998,-3.035158175,5.4568123260000005,-1.1971318059184226,-0.09477486904179609,-0.5647414220555612,6.361366701830256,1.3270417138615995,0.016769371499999908,-0.06825428400000044,0.023928226000000663
155872.0,1.258781594,-3.1919665084999997,5.517809689,-1.1339805575935118,-0.10863103797337907,-0.5348980371757102,6.497646116618013,1.2585024900991229,0.043051193500000196,-0.1568083334999999,0.06099736299999936
155882.0,1.4167667254999998,-3.4565499255,5.572923062,-1.0862841997950108,-0.11289487733600122,-0.5191778566029972,6.709130852571703,1.2092577321811424,0.15798513149999982,-0.2645834170000003,0.05511337300000019
155892.0,1.5006135829999998,-3.662391509,5.6112670635,-1.0710945993149041,-0.10703231637855226,-0.5077197700636544,6.8666782907457735,1.1901592004200126,0.08384685749999998,-0.20584158349999981,0.038344001499999614
155902.0,1.607113802,-3.9173644089999997,5.617249119999999,-1.0737597170826996,-0.09637359063662289,-0.4999914521358236,7.03434761449984,1.18837672949726,0.10650021900000017,-0.25497289999999984,0.005982056499999722
155912.0,1.6358472865,-4.240591593,5.6279383685,-1.0793552426645934,-0.07452381373090587,-0.5002584875113787,7.234106972046109,1.1919815824951803,0.028733484500000017,-0.3232271840000007,0.010689248500000303
155922.0,1.5868140365,-4.465654210499999,5.631566829,-1.080688674213117,-0.07585549995017754,-0.5111825032996112,7.3603390726027635,1.1978938263155265,-0.04903324999999992,-0.225062617499999,0.003628460499999875
155932.0,1.603583408,-4.617755352,5.4867226085,-1.0798893134157035,-0.0979723122314497,-0.5271714645771313,7.3484195048978105,1.205682070969712,0.016769371499999908,-0.1521011415000002,-0.14484422049999957
155942.0,1.6585987144999998,-4.634426657,5.3347195334999995,-1.080688674213117,-0.10143679079665843,-0.5266373938260209,7.258656393297571,1.2064511501405653,0.05501530649999986,-0.016671305000000025,-0.15200307500000054
155952.0,1.686155401,-4.5136087289999995,5.027084922999999,-1.088947572233554,-0.09157742585214247,-0.5095837817047844,6.963287055542114,1.2057648487891846,0.027556686500000094,0.12081792800000013,-0.30763461050000007
155962.0,1.7951072824999998,-4.422603016999999,4.7660319,-1.080688674213117,-0.08225038632948478,-0.48826807555017765,6.745138076680094,1.1887215192068021,0.1089518814999999,0.0910057120000003,-0.26105302299999966
155972.0,1.893271849,-4.354348733,4.499094887,-1.0449827283758168,-0.06359805261342137,-0.4501640473206375,6.541153261086621,1.1395969833235269,0.09816456650000016,0.06825428399999911,-0.2669370129999997
155982.0,1.9100412205,-4.401028387,4.1555679375,-0.9860935740842763,-0.028958502949089915,-0.3992685010032308,6.3471295252552515,1.0642530092213607,0.016769371499999908,-0.04667965400000007,-0.3435269495000002
155992.0,1.985454359,-4.654824489,4.0059184585,-0.8749789325853092,0.0123429684701039,-0.3688927907015215,6.454208141299538,0.9496432869084779,0.07541313850000009,-0.2537961019999999,-0.1496494789999998
156002.0,1.9327926484999998,-4.7780940795,3.9448230289999997,-0.7190983411019397,0.042720424101065205,-0.3600980766007221,6.490570020019607,0.8053558738734549,-0.052661710500000236,-0.12326959049999964,-0.06109542950000035
156012.0,1.9112180185,-4.7625995725,3.9293285219999996,-0.5762745577527397,0.05604252228153792,-0.36915808074782464,6.46333749977664,0.6866664538174337,-0.021574629999999706,0.015494506999999658,-0.015494507000000102
156022.0,1.9555440764999998,-4.7398481445,3.8753919469999993,-0.47635096741756033,0.07309613440277453,-0.38567936744720294,6.427205910107967,0.617253483990774,0.04432605799999978,0.022751428000000296,-0.053936575000000264
156032.0,2.0489033845,-4.7673067645,3.8431280685,-0.42412373488088206,0.1040059154555941,-0.40060193255175447,6.457155117910329,0.5926044897764996,0.09335930800000014,-0.02745861999999999,-0.03226387849999934
156042.0,2.1254933209999995,-4.7973151135,3.862251036,-0.40467204036740523,0.13278464949172858,-0.41925426626781787,6.515284891769062,0.5976331342717925,0.07658993649999957,-0.030008349000000045,0.019122967499999977
156052.0,2.1135292079999997,-4.808004361999999,3.8539153835,-0.3841556950102119,0.1181291197627322,-0.4267138034908416,6.514336147395072,0.5861866230427963,-0.011964112999999887,-0.010689248499999415,-0.008335652500000013
156062.0,2.0836189254999997,-4.7325912235,3.779679043,-0.3337942194439155,0.04645019271257709,-0.4179208347192942,6.405065275510031,0.5368743106441954,-0.02991028249999994,0.0754131384999992,-0.07423634050000016
156072.0,2.088424184,-4.678752715,3.6838680724999997,-0.25651976681186656,-0.03775147172063734,-0.3995355363787859,6.310556751667859,0.4762942464609169,0.004805258500000242,0.05383850850000016,-0.09581097050000009
156082.0,2.1793318295,-4.5709776315,3.609631732,-0.1672549022186166,-0.12088848531013524,-0.375820002502687,6.218743037898132,0.42875272882846754,0.09090764550000019,0.10777508349999998,-0.07423634049999972
156092.0,2.3146635995,-4.4381955904999995,3.4444877459999996,-0.08598364559950064,-0.18883589841952647,-0.34837470001507614,6.076161906230618,0.40548380418098645,0.13533176999999963,0.13278204100000046,-0.16514398600000035
156102.0,2.3995891885,-4.263343021,3.223053589,-0.02602984046424343,-0.22267608728644453,-0.31426747577260294,5.858514865206136,0.3860391674069845,0.08492558900000002,0.1748525694999996,-0.22143415699999958
156112.0,2.542079813,-4.144878689,3.078111302,0.028595474464675096,-0.19309973778214864,-0.2676357688178185,5.7547335567937985,0.33126139926363174,0.14249062450000016,0.11846433200000028,-0.14494228700000011
156122.0,2.6618190095,-4.1184988005,3.0888986169999995,0.0922790482114442,-0.1011697554211033,-0.21327748926445508,5.795567916534152,0.253452223461791,0.11973919649999987,0.026379888499999282,0.01078731499999952
156132.0,2.7036934049999997,-4.132914575999999,3.2649279845,0.17221861861128848,0.00701447826376521,-0.1591862450866468,5.920362798403911,0.23462462813285237,0.04187439549999983,-0.01441577549999895,0.17602936750000042
