timestamp,ax,ay,az,gx,gy,gz,acc_mag,gyro_mag,dax,day,daz
96782.0,-0.432473265,0.8933858149999999,12.4143363015,-0.006379178416039274,-0.02065946235585688,0.016070991752363786,12.453951868628836,0.026940380064157846,0.0,0.0,0.0
96792.0,-0.111599677,1.0981486669999998,12.0312885525,-0.039420006485543925,-0.13497154704447747,0.009410815326753426,12.081816470061856,0.14092486958664951,0.320873588,0.20476285199999988,-0.38304774900000105
96802.0,0.10140076099999999,1.32193642,12.186920087999999,-0.05727297940419392,-0.12404753125624499,0.037121407860667394,12.258826177254969,0.14158383771518668,0.213000438,0.2237877530000001,0.15563153549999953
96812.0,0.112188076,1.5709272635,12.1832916275,-0.07379252077432025,-0.0955358325956656,0.07016398125942405,12.284664973547946,0.13962598503913354,0.010787315000000006,0.24899084350000011,-0.003628460499999875
96822.0,0.203193788,1.6428100079999999,12.269492081,-0.08551764268921816,-0.026787313359608968,0.12718563325133078,12.380652178443121,0.1555860298153041,0.09100571199999999,0.07188274449999987,0.08620045350000005
96832.0,0.17210670749999998,1.6464384685,12.4119827055,-0.10789974501679343,0.07260220622446012,0.18847286993511167,12.521888636741432,0.2289878992980319,-0.031087080500000003,0.003628460500000097,0.1424906245000006
96842.0,0.15288567349999999,1.5889714995,12.604683377999999,-0.15213336957933773,0.1773219613441199,0.23243945912210082,12.705362943065197,0.32956902504856805,-0.019221033999999998,-0.057466969000000034,0.19270067249999911
96852.0,0.04158019599999999,1.5614148129999998,12.805817769499999,-0.20622461375714599,0.27458043391150394,0.2553556322007864,12.900725323662897,0.4279363327680616,-0.1113054775,-0.027556686500000094,0.20113439150000012
96862.0,-0.07688413599999999,1.4632502465,13.0631442655,-0.26191632485903305,0.3249419094778003,0.25375691060595956,13.14506563526848,0.48844649189345446,-0.11846433199999998,-0.09816456649999994,0.257326496000001
96872.0,-0.099635564,1.3375289935,13.378035796999999,-0.30295076090267176,0.3158836506599497,0.24149946326920338,13.445101444015963,0.49988362150112325,-0.022751428000000004,-0.1257212529999998,0.31489153149999893
96882.0,-0.178677163,1.2465232815,13.6521316645,-0.3176062906316681,0.23780983723048738,0.2353698669361993,13.710085514129473,0.4613309536482054,-0.079041599,-0.09100571200000007,0.2740958675000016
96892.0,-0.26252402049999995,1.2118077404999998,13.861601708499999,-0.2928261059118526,0.08672541053159824,0.252690514432991,13.916946460569763,0.39638481456759084,-0.08384685749999995,-0.03471554100000018,0.2094700439999979
96902.0,-0.29243430299999995,1.2118077404999998,13.982517703,-0.24166526954814282,-0.09287071482787028,0.29106157803808635,14.037976960239506,0.3895432124789715,-0.029910282499999996,0.0,0.12091599450000068
96912.0,-0.2517367055,1.3471395105,13.934661251,-0.19876507653412223,-0.2460861885434445,0.34115601822882763,14.001890601264067,0.46524552293945115,0.04069759749999996,0.13533177000000007,-0.04785645199999955
96922.0,-0.061389628999999994,1.5518042959999998,13.810116795999999,-0.2134188609338666,-0.3049753428349852,0.4101698275111874,13.897164861179208,0.553892460086056,0.1903470765,0.2046647854999999,-0.12454445500000055
96932.0,0.0714904785,1.6738970885,13.5719132675,-0.30694756488973873,-0.2159757682880383,0.4911740487547482,13.674935908147702,0.6181539341049934,0.13288010749999998,0.12209279250000016,-0.2382035284999997
96942.0,-0.015886773,1.6727202904999998,13.259473398499999,-0.4572326307912145,-0.020392426980301748,0.5636523366023167,13.364575577448612,0.7260726453294143,-0.0873772515,-0.0011767980000001454,-0.3124398690000003
96952.0,-0.272036471,1.4835500119999998,13.073931580499998,-0.6240389833920686,0.2100974993673214,0.5990912470640616,13.160646315863614,0.8902111740155706,-0.256149698,-0.1891702785,-0.1855418180000008
96962.0,-0.673128456,1.1830742559999998,13.020093071999998,-0.7649970097708866,0.4123427624299203,0.5932286861066126,13.091050004374333,1.052220154105838,-0.40109198500000004,-0.300475756,-0.05383850850000016
96972.0,-1.1663048845,0.8862269605,13.0129342175,-0.8547941997859949,0.5269218824940961,0.5439336067132848,13.095118260562138,1.1420085650952991,-0.4931764284999999,-0.2968472954999998,-0.007158854499998313
96982.0,-1.5613167464999997,0.485233042,13.067949524,-0.8875697378091963,0.514929725203643,0.4602642677019287,13.169831656090436,1.1246225400089478,-0.3950118619999998,-0.40099391850000005,0.05501530649999964
96992.0,-1.752840621,0.13082071099999998,13.174547809499998,-0.8545289097396918,0.3843633891911992,0.36007538732044614,13.29128565210512,1.0037973685388006,-0.1915238745000003,-0.354412331,0.10659828549999872
97002.0,-1.7348944515,-0.022359162,13.191219114499999,-0.7703254999772253,0.17998707911191522,0.26201580862639673,13.304834475359735,0.8333360717816946,0.017946169500000053,-0.15317987299999997,0.016671305000000913
97012.0,-1.4930624625,0.060212830999999994,12.9231053035,-0.6767985413506051,-0.03504795670929813,0.1834096697750761,13.009208730253098,0.7020852738882978,0.24183198900000002,0.082571993,-0.2681138109999992
97022.0,-1.0417604295,0.3056732805,12.5388807565,-0.6253706696113402,-0.20478471712425067,0.1405094767610555,12.585794832771176,0.672880500414049,0.45130203299999994,0.24546044949999998,-0.3842245470000005
97032.0,-0.643120107,0.5689818329999999,12.070809352,-0.6384274777455098,-0.2436881061512043,0.15143523787854002,12.101313243224572,0.6999329744278262,0.39864032250000003,0.26330855249999996,-0.46807140449999984
97042.0,-0.3199909895,0.7509932569999999,11.700902514,-0.718100012769799,-0.1698781320843641,0.2012626426937261,11.729343747522798,0.7648744076281547,0.3231291175,0.18201142399999992,-0.36990683800000035
97052.0,-0.1726951065,0.6432181734999999,11.454265266499998,-0.8358765760236283,-0.058496455209841945,0.26921180113236937,11.47361085333985,0.8801059478756157,0.147295883,-0.10777508349999998,-0.2466372475000007
97062.0,-0.19907499499999998,0.45532275949999995,11.28549282,-0.9536531392774578,0.026237534645230758,0.3342270610984101,11.296428544421662,1.0108661863216566,-0.026379888499999976,-0.18789541399999993,-0.16877244649999845
97072.0,-0.2744881335,0.176323567,11.035325178499999,-1.0383871291325304,0.03796265656012866,0.37499620709574566,11.040146535755218,1.1046769430821828,-0.07541313850000003,-0.27899919249999994,-0.2501676415000009
97082.0,-0.33793715899999993,-0.0607031635,10.6893465665,-1.0732937141724168,-0.013997540600994524,0.39071813299771063,10.694859345322744,1.1422854229473975,-0.06344902549999992,-0.23702673049999998,-0.3459786119999997
97092.0,-0.3414675529999999,-0.28811937699999995,10.324244987,-1.0583728943971176,-0.09926560120717749,0.38592196821323016,10.333907654742678,1.1309034480127507,-0.0035303939999999923,-0.22741621349999996,-0.3651015794999992
97102.0,-0.2672312125,-0.5478975355,9.924329799999999,-1.002415893248927,-0.18133621862370683,0.36247346971268635,9.943034054528285,1.0812527287680447,0.07423634049999994,-0.2597781585,-0.3999151870000013
97112.0,-0.1152281375,-0.6844061035,9.484991879999999,-0.934466734810284,-0.20718279951649088,0.3257011277024178,9.510350161894445,1.0110558913675893,0.152003075,-0.136508568,-0.4393379199999998
97122.0,0.0714904785,-0.5897719309999999,8.929543224,-0.8995601497703973,-0.16588132809729708,0.2710758127734993,8.94928399417495,0.95404778409526,0.186718616,0.09463417250000006,-0.5554486559999994
97132.0,0.33244543499999996,-0.45090976699999996,8.4579414255,-0.9270054522580082,-0.039311796071920285,0.21112200763824207,8.476474074897965,0.9515550577531899,0.26095495649999995,0.13886216399999995,-0.47160179850000006
97142.0,0.547995602,-0.380301887,8.120298466,-1.0104095012230614,0.16000305917658017,0.16715541845125292,8.14764848787606,1.0365660967952373,0.21555016700000001,0.07060787999999996,-0.3376429595000001
97152.0,0.6281159325,-0.41266383199999995,7.8138406535,-1.1153945463890242,0.37050722025961624,0.14797075931333126,7.849899796888529,1.1845994850541886,0.0801203305,-0.03236194499999995,-0.3064578124999997
97162.0,0.6245855385,-0.5862415369999999,7.538567987999999,-1.2017290031681755,0.5415774122230924,0.14717139851591785,7.587080699735953,1.3263175000832075,-0.0035303939999999923,-0.17357770499999997,-0.27527266550000107
97172.0,0.525244174,-0.8148345484999999,7.2776130315,-1.2385013451784441,0.6422986180264333,0.15170052792484315,7.34189949672486,1.4033695688948644,-0.09934136449999997,-0.2285930115,-0.2609549564999991
97182.0,0.35882532349999996,-1.0350919075,7.1052121244999995,-1.2267762232635464,0.671609677484426,0.155432041865607,7.18917312379516,1.4071952886838477,-0.16641885050000005,-0.2202573590000001,-0.1724009070000001
97192.0,0.191229675,-1.1524775079999998,6.8442571679999995,-1.1910702774262465,0.6420333279801301,0.16022820665008744,6.943243433494599,1.3625447802592692,-0.16759564849999997,-0.1173856004999998,-0.2609549565
97202.0,-0.05295591,-1.2445619515,6.5293656365,-1.1441732804251585,0.5591633497661873,0.16795477924866634,6.647131290611949,1.2845251866869254,-0.24418558499999998,-0.09208444350000011,-0.3148915314999998
97212.0,-0.249285043,-1.4061755434999998,6.232518341,-1.0828860437413779,0.46243720262066157,0.1826103089776627,6.3940407851922885,1.1915690811037325,-0.19632913300000002,-0.16161359199999992,-0.2968472955000001
97222.0,-0.365395779,-1.6121151935,5.922432068,-1.0093431050500927,0.3960885111060971,0.1810115873828359,6.14879102527475,1.0992837700563316,-0.11611073599999996,-0.20593965000000014,-0.3100862729999996
97232.0,-0.454047895,-1.870716554,5.677069684999999,-0.9355331309832525,0.3715736164325848,0.15010180633001632,5.994569219277524,1.0177522998547588,-0.088652116,-0.25860136049999993,-0.24536238300000068
97242.0,-0.5174969205,-2.148440882,5.478386956,-0.8734465335020583,0.37210594185444307,0.0861511972076921,5.907311141784125,0.9533067227448168,-0.06344902549999998,-0.27772432800000013,-0.19868272899999972
97252.0,-0.5832995419999999,-2.2908334399999997,5.339524792,-0.8273488972983839,0.37930018903116364,-0.009241518389309974,5.839407607788848,0.9101979108534958,-0.06580262149999994,-0.1423925579999996,-0.13886216399999984
97262.0,-0.638412915,-2.336336296,5.1754595375,-0.8001706301863284,0.39795252274722703,-0.10037213995294189,5.714142084543008,0.8992851684823904,-0.05511337300000008,-0.04550285600000015,-0.16406525449999965
97272.0,-0.5869280025,-2.3280006435,5.029438518999999,-0.7844487042843633,0.4483139983135234,-0.19283444773584552,5.573089205517525,0.9238670548140911,0.05148491249999998,0.008335652500000013,-0.14602101850000082
97282.0,-0.4743476605,-2.302797553,4.9683430895,-0.7783208532806112,0.5271871725403993,-0.27970122993685526,5.496573053103817,0.9807866452857059,0.112580342,0.025203090499999803,-0.06109542949999902
97292.0,-0.39540412799999997,-2.2585695615,4.9779536065,-0.7623318920030913,0.5786150442796641,-0.35271184320628207,5.48064804535377,1.0199759445054297,0.07894353250000002,0.04422799150000012,0.009610516999999597
97302.0,-0.29723956149999997,-2.1759975684999997,5.036597373499999,-0.7141032087827319,0.5985990642149991,-0.3924145930306491,5.4946000653173765,1.0110655000029802,0.0981645665,0.08257199300000018,0.058643766999999514
97312.0,-0.189464478,-2.1268662519999997,5.086905487999999,-0.6410925955133052,0.5988660995905544,-0.40094227175589336,5.516889004336126,0.9645698660758414,0.10777508349999998,0.04913131650000002,0.050308114499999945
97322.0,-0.07217694399999999,-2.113725341,5.1586901659999995,-0.559554303518634,0.5676892831621797,-0.3838886596346568,5.575403891846388,0.8847274404015659,0.117287534,0.01314091099999981,0.07178467800000021
97332.0,-0.0027458619999999995,-2.0394890004999997,5.2209623935,-0.4708217643472423,0.4936140190490363,-0.34178782741804953,5.605173613480662,0.7629854864648101,0.06943108199999999,0.07423634050000016,0.06227222750000028
97342.0,-0.0206920315,-1.9712347165,5.192228909,-0.37702777034506707,0.387827867756408,-0.2682431433975125,5.553866717086192,0.603750593042883,-0.0179461695,0.06825428399999978,-0.028733484500000017
97352.0,-0.05295591,-1.9401476359999998,5.054543542999999,-0.2837661017647501,0.280710030244508,-0.17578083561460892,5.414368624868767,0.43614243517457146,-0.0322638785,0.031087080500000086,-0.13768536600000036
97362.0,-0.037461403,-1.9125909495,4.900186872,-0.19503356259335836,0.21329494255697504,-0.09344492815177641,5.260345889515744,0.30375117720847006,0.015494507000000005,0.027556686499999872,-0.1543566709999995
97372.0,-0.05295591,-1.906608893,4.7828012714999995,-0.1084338157679037,0.1951749342627699,-0.032424726843550654,5.1490921337583995,0.22561584668932966,-0.015494507000000005,0.005982056499999944,-0.11738560050000046
97382.0,-0.0685484835,-1.9341655794999997,4.7732888209999995,-0.012239994044236233,0.2037026129880142,0.010475466170469966,5.150726313074331,0.20433870750260774,-0.015592573499999991,-0.02755668649999965,-0.009512450499999936
97392.0,-0.153572139,-1.9042552969999997,4.854684015999999,0.10180505526882924,0.20876581314804973,0.04031885105032101,5.217061388678062,0.2357393555766066,-0.0850236555,0.02991028249999994,0.08139519499999981
97402.0,-0.328326642,-1.9102373535,5.067782520499999,0.2297080188427297,0.18798068708604926,0.05923822014193954,5.425792550921846,0.3026742132451655,-0.174754503,-0.005982056500000166,0.21309850449999956
97412.0,-0.45287109699999994,-1.8958215779999998,5.332267871,0.35894092330664984,0.1354881645030678,0.0776252638116998,5.6773508200750875,0.391434938050344,-0.12454445499999994,0.014415775500000061,0.2644853505000011
