timestamp,ax,ay,az,gx,gy,gz,acc_mag,gyro_mag,dax,day,daz
22722.0,-3.188926447,-1.1347274715,10.5542109295,-0.4027818487874954,-0.05168268981005608,-0.27025201736655796,11.083691923873113,0.4877914216438924,0.0,0.0,0.0
22732.0,-2.5257027075,-1.7476430965,10.447710710499999,-0.43289226904290157,-0.12549266387689628,-0.264391201738361,10.889815868494441,0.522538833811121,0.6632237395000002,-0.6129156250000001,-0.10650021900000084
22742.0,-2.4753945929999994,-1.6542837885,10.2370638685,-0.36574247140167176,-0.06793694113387928,-0.250535032806778,10.661224596250458,0.44849836791355685,0.05030811450000039,0.09335930800000014,-0.21064684199999917
22752.0,-2.4250864785,-1.4100982035,10.2058787215,-0.2442361395363305,0.0061400683085160515,-0.23667886387519504,10.584393315144894,0.34015566568807326,0.0503081144999995,0.24418558499999987,-0.031185147000000413
22762.0,-2.483828312,-1.3849931795,10.459674823499999,-0.08462577944144906,0.11006046263076243,-0.19457803165858784,10.839391431446417,0.2390302039172051,-0.05874183350000006,0.025105024000000142,0.253796101999999
22772.0,-2.633477791,-1.3777362585,10.950497656,0.042477823335037995,0.14896385165771603,-0.14155143832449613,11.346663006705421,0.20983661326784311,-0.1496494789999998,0.007256920999999972,0.490822832500001
22782.0,-2.833337318,-1.3753826625,11.519087223,0.12987693095790603,0.12418192160864854,-0.10078229232716056,11.94189466864278,0.20602484630786275,-0.1998595270000001,0.002353595999999847,0.5685895670000001
22792.0,-2.980633201,-1.510616366,11.899781376,0.17970608110234415,0.03811450020505217,-0.07786611924847503,12.360053919005653,0.1995247434226165,-0.14729588299999996,-0.13523370349999997,0.3806941530000003
22802.0,-3.085956622,-1.5932864254999999,12.094933711,0.19889074024026582,-0.06740461571202101,-0.07840018999958528,12.583684332501052,0.22415953819674325,-0.10532342100000003,-0.08267005949999984,0.1951523349999995
22812.0,-3.084779824,-1.612409393,12.094933711,0.21088115220146686,-0.138816507386621,-0.09545380212082188,12.585831402282341,0.2699116733603033,0.0011767979999999234,-0.0191229675000002,0.0
22822.0,-3.050064283,-1.6507533945,12.056589709499999,0.23246563906088075,-0.15986692349492462,-0.1220997438110193,12.545486611650695,0.3074183696697911,0.03471554099999974,-0.038344001499999836,-0.0383440015000005
22832.0,-3.0009329664999997,-1.6423196755,12.187116220999998,0.26124262776776325,-0.12256225606279782,-0.15887208582128784,12.65814419139402,0.329407888228888,0.049131316500000466,0.008433718999999895,0.1305265114999994
22842.0,-3.0153487419999996,-1.5932864254999999,12.4480711775,0.2716360634633895,-0.06314077634939887,-0.19590971787785952,12.906795330742243,0.34081303697316784,-0.014415775499999839,0.04903325000000014,0.2609549565000009
22852.0,-3.0248611925,-1.6554605864999998,12.695885223,0.24578773724135344,-0.008782496796035466,-0.23534543232667138,13.155828996415893,0.3404059584455372,-0.00951245050000038,-0.06217416099999995,0.2478140455000002
22862.0,-3.005738225,-1.7093971614999999,12.942424404,0.1980913794428524,0.02346071580530778,-0.28410818629814094,13.396374523960771,0.34714271030411786,0.019122967499999977,-0.05393657500000004,0.24653918100000105
22872.0,-2.9218913675,-1.6268251685,13.215441539999999,0.15892095504034368,0.03651577861022536,-0.3275424500632718,13.632017619908419,0.3658870435419883,0.0838468575000002,0.08257199299999995,0.2730171359999982
22882.0,-2.81058589,-1.497475455,13.473944834,0.12055163676450033,0.01653175867489029,-0.35125798393937074,13.845180214539274,0.3717366910228745,0.11130547749999975,0.1293497134999999,0.2585032940000005
22892.0,-2.71840338,-1.2688824435,13.552986433,0.06699271800855035,-0.03382971689140609,-0.3461947837793352,13.881038176047928,0.3542362239059502,0.09218251000000022,0.2285930115000001,0.07904159899999996
22902.0,-2.6477955,-1.0833406255,13.529058207,0.016631242442253967,-0.081259039314352,-0.3171507596968976,13.828227069623678,0.3278173791484883,0.07060787999999985,0.18554181799999991,-0.023928225999998887
22912.0,-2.6070979024999996,-0.9443803949999999,13.349498445499998,-0.020408134943569696,-0.10950544792862824,-0.2814448138595976,13.634438842507862,0.302686501757822,0.04069759750000035,0.13896023050000006,-0.17955976150000197
22922.0,-2.672900524,-0.8833830319999999,13.211813079499999,-0.03293087232662901,-0.1286901070665499,-0.2531984052453214,13.50839619052063,0.28592834491838476,-0.06580262150000049,0.06099736300000003,-0.13768536599999948
22932.0,-2.766259832,-0.870242121,12.989202124499998,-0.022539181960254773,-0.14947348779929837,-0.2441384010982188,13.30897767067082,0.2871478663844105,-0.0933593079999997,0.013140910999999922,-0.2226109550000004
22942.0,-2.8250016655,-0.9001524034999999,12.711379729999999,0.0011763519158441782,-0.16093157433864116,-0.2550641622157033,13.052589145447714,0.30159257661577504,-0.05874183350000006,-0.02991028249999994,-0.27782239449999935
22952.0,-2.796268181,-0.9684066875,12.4133556365,0.037414623175002444,-0.14014819360589267,-0.2825094647033141,12.761203916977978,0.3175735628878375,0.028733484500000017,-0.06825428400000011,-0.2980240934999987
22962.0,-2.796268181,-1.0760837044999998,12.129649251999998,0.07764969842122772,-0.08925439261773802,-0.31128819873944863,12.49421717658644,0.3330107579957732,0.0,-0.10767701699999976,-0.2837063845000021
22972.0,-2.8871758265,-1.2341669024999997,11.970389255999999,0.11815355437226013,-0.016509069394614363,-0.34539542298192183,12.375345293627673,0.3654186776834697,-0.09090764550000019,-0.15808319799999992,-0.1592599959999994
22982.0,-3.0799745655,-1.205433418,11.920179207999999,0.15492415105327667,0.04451113191361138,-0.40321818110049396,12.370528905434623,0.43424375069055415,-0.1927987390000001,0.028733484499999795,-0.050210048000000285
22992.0,-3.170882211,-1.1994513615,12.143966960999999,0.16984671615782818,0.03651577861022536,-0.47063152345877496,12.608295329444818,0.5016725425516492,-0.09090764549999975,0.005982056499999944,0.22378775299999987
23002.0,-3.0703640484999997,-1.2137690705,12.403745119499998,0.1677156691411431,-0.05781054081380818,-0.5196613128057996,12.83562478948118,0.5491069880557827,0.10051816250000023,-0.014317708999999956,0.25977815849999963
23012.0,-2.8848222304999998,-1.124038223,12.731777562,0.1717124731282101,-0.21875433245721326,-0.5537685370482729,13.102817296925064,0.6196759024047906,0.18554181799999991,0.08973084750000004,0.3280324425000014
23022.0,-2.6621132089999997,-0.9528141139999999,12.918496178,0.16851502993855652,-0.40101557558447715,-0.5686911021528243,13.224305084743413,0.7159751230624819,0.22270902150000005,0.17122410899999996,0.18671861600000028
23032.0,-2.3509482045,-0.7229462379999999,12.9244782345,0.12135099756191373,-0.5640904142445673,-0.558032376410895,13.156433648878574,0.8026980709922442,0.31116500449999984,0.22986787600000003,0.00598205650000061
23042.0,-1.9498562195,-0.5325991615,12.800031846,0.02036101105376585,-0.6552192904789472,-0.5196613128057996,12.95864253701627,0.8365254146850015,0.4010919849999999,0.19034707649999993,-0.12444638850000089
23052.0,-1.6793888125,-0.30753654399999997,12.5198558555,-0.12193044687357586,-0.6592178397952663,-0.450914538898995,12.635731722062765,0.8079350936613785,0.27046740699999994,0.2250626175,-0.2801759905000001
23062.0,-1.478254421,-0.072961476,12.213398043,-0.3001931406845207,-0.5870048419940008,-0.3744394470643595,12.302749744140225,0.758218639810643,0.20113439150000012,0.23457506799999997,-0.3064578124999997
23072.0,-1.304676716,-0.029812216,11.886640465,-0.49764223896263915,-0.43698681146808027,-0.3032945907653146,11.958063875296483,0.7284180668985961,0.17357770500000003,0.043149259999999995,-0.3267575780000005
23082.0,-1.2663327144999998,-0.083748791,11.6160749915,-0.6841655761232732,-0.2544602782945133,-0.24040863248670694,11.685196216236962,0.7685238313519888,0.03834400150000006,-0.053936575,-0.2705654734999996
23092.0,-1.3477279094999999,-0.24408751849999996,11.4676023105,-0.8296544772402685,-0.08792096106921435,-0.19617675325341463,11.549106112012204,0.8570542372085962,-0.08139519500000003,-0.16033872749999994,-0.14847268099999944
23102.0,-1.631434294,-0.3949137955,11.4317099715,-0.9191863772090737,0.0061400683085160515,-0.16979610160952036,11.55428611529107,0.9347577293648688,-0.2837063845000001,-0.15082627700000004,-0.035892339000000106
23112.0,-1.9247511954999998,-0.4727785965,11.401799688999999,-0.9490297620889246,-0.013845696956071017,-0.16127016821352805,11.572779394508807,0.9627342623021058,-0.2933169014999999,-0.07786480099999998,-0.029910282500001273
23122.0,-2.1043109569999996,-0.5134761939999999,11.3599252935,-0.927979345980621,-0.1007124791570808,-0.159137375867591,11.564587544718405,0.9468967073670758,-0.17955976149999975,-0.040697597499999905,-0.04187439549999894
23132.0,-2.1102930134999998,-0.5182814525,11.217434669000001,-0.8866778745614272,-0.18251606119805502,-0.15540760725607908,11.42597010411438,0.9185103647891415,-0.005982056500000166,-0.004805258500000131,-0.14249062449999883
23142.0,-1.9247511954999998,-0.5661379044999999,11.0737672465,-0.8706889132839072,-0.21395816767273287,-0.14687992853083479,11.254043731972367,0.9085433366849419,0.18554181799999991,-0.04785645199999988,-0.14366742250000186
23152.0,-1.7260684665,-0.55897905,10.877438113499998,-0.8949367725818644,-0.17318902167539732,-0.12476486157881465,11.027711904216892,0.9200394202602983,0.19868272899999995,0.007158854499999867,-0.19632913300000077
23162.0,-1.5608264139999999,-0.605658704,10.6895426995,-0.9439665619288891,-0.09085311421256483,-0.0831963547840657,10.819857886534592,0.9519710036820054,0.16524205250000001,-0.04667965399999996,-0.18789541399999798
23172.0,-1.5297393334999998,-0.720592642,10.6105011005,-0.96954785277537,-0.035960763908091165,-0.023774875070666758,10.744398065404749,0.9705057753804508,0.031087080500000086,-0.11493393799999996,-0.07904159899999996
23182.0,-1.526110873,-0.931239484,10.463303283999998,-0.9530265660759917,-0.03382971689140609,0.03937637325424407,10.61493933031247,0.9544394083241778,0.003628460499999875,-0.21064684200000006,-0.14719781650000208
23192.0,-1.5656316724999997,-1.2640771849999999,10.375926032499999,-0.9013334042904236,-0.04129099944368185,0.0862733702553317,10.569244755207622,0.9063939247038431,-0.03952079949999976,-0.3328377009999999,-0.08737725149999953
23202.0,-1.6637962389999998,-1.5705349974999998,10.288450714499998,-0.848573846331887,-0.032498030672134415,0.10119593535988322,10.539782550317554,0.855204251631984,-0.09816456650000016,-0.3064578124999999,-0.08747531800000097
23212.0,-1.7727481204999997,-1.7393074439999998,10.1843040915,-0.8110021435242051,0.00347495054072071,0.0862733702553317,10.482741822234951,0.8155854624117139,-0.1089518814999999,-0.1687724465,-0.10414662299999833
23222.0,-1.8564969114999998,-1.875816012,10.181950495499999,-0.7806246878932438,0.04797386514956813,0.059627428565134276,10.518430604709872,0.7843671495690672,-0.0837487910000001,-0.13650856800000022,-0.002353596000000735
23232.0,-1.9008229694999998,-2.0134033115,10.296884433499999,-0.7470515344018809,0.07701963456125777,0.027918286714901295,10.662680239648592,0.7515300725142339,-0.044326058,-0.13758729949999982,0.11493393800000007
23242.0,-1.907981824,-2.0110497155,10.3339535705,-0.7140089610031243,0.07542091296643096,-0.002991494337918281,10.699313622666489,0.7179875065374222,-0.007158854500000089,0.002353595999999847,0.03706913700000136
23252.0,-1.838550742,-1.8769928099999997,10.290902376999998,-0.6905604625025804,0.04983962211995007,-0.01338318470429252,10.62101890463644,0.6924859925931112,0.06943108199999992,0.13405690550000027,-0.04305119350000197
23262.0,-1.6206469789999998,-1.8494361234999999,10.149588550499999,-0.6836332507014149,0.04157897877026091,0.006335545184739416,10.443230264141896,0.6849258150142608,0.21790376300000025,0.027556686499999872,-0.14131382649999935
23272.0,-1.4063716765,-1.8362952124999998,10.00474433,-0.6836332507014149,0.07995004237535625,0.0676210365392683,10.268630410555197,0.6916061273029975,0.2142753024999997,0.013140911000000033,-0.14484422049999957
23282.0,-1.4279463064999998,-1.867382293,9.912561819999999,-0.669777081769832,0.15082960862809797,0.15422252869397493,10.187493760379862,0.7036586519469376,-0.021574629999999706,-0.031087080500000086,-0.09218251000000066
23292.0,-1.767942862,-1.9894750854999999,9.992780217,-0.6335370651814217,0.20758597057370157,0.22536738499301978,10.34114546577837,0.7037411501086935,-0.3399965555000002,-0.12209279249999994,0.08021839700000122
23302.0,-2.185706152,-2.2062020505,10.196366271,-0.5890381505725742,0.20891765679297325,0.2480165226961502,10.658823762634764,0.6724022052909369,-0.4177632899999999,-0.2167269650000001,0.20358605400000052
23312.0,-2.6657416695,-2.31633073,10.3639619195,-0.5557302871275145,0.14390065149768047,0.2189724986137126,10.949122036405344,0.6144041867381919,-0.4800355175000002,-0.11012867949999983,0.16759564849999897
23322.0,-2.9997561685,-2.341435754,10.3794564265,-0.5344145809729077,0.02399304122716605,0.14676124614169916,11.055042929368275,0.5547192747262722,-0.3340144989999998,-0.025105024000000142,0.015494507000001434
23332.0,-3.062028396,-2.3558515294999998,10.296884433499999,-0.5154952118812892,-0.09937904760855712,0.043107887195007945,10.997812662698543,0.5267540208812237,-0.06227222750000028,-0.014415775499999839,-0.08257199300000195
23342.0,-2.842947835,-2.3091718755,10.0909447835,-0.5029707291689779,-0.1763864648650509,-0.0653433818654157,10.735073067603091,0.536993013867008,0.21908056100000017,0.046679653999999626,-0.20593964999999947
23352.0,-2.449112771,-2.293579302,9.8599001095,-0.5138964902864623,-0.1627973313090231,-0.14874568550121675,10.415195127742745,0.5592118138642198,0.3938350640000001,0.015592573500000206,-0.23104467399999962
23362.0,-2.082736327,-2.2432711875,9.733002058499999,-0.5650573266501722,-0.0626067055982886,-0.19217994926634763,10.203008639574815,0.6001187506543402,0.3663764439999997,0.050308114499999945,-0.1268980510000013
23372.0,-1.8553201135,-2.2791635265,9.616891322499999,-0.6537881204923118,0.0687589912115686,-0.18445163133851675,10.055913574253776,0.6827804256660719,0.22741621350000019,-0.035892339000000106,-0.11611073599999955
23382.0,-1.7918710879999997,-2.4623517484999997,9.5821757815,-0.7574432247682551,0.16521810298153922,-0.13195910875553526,10.054455273007903,0.7864035011898836,0.0634490255000002,-0.18318822199999962,-0.03471554099999885
23392.0,-2.069595416,-2.6023907105,9.524708812499998,-0.8315202342106505,0.16868258154674795,-0.06400995031689204,10.088396332368195,0.8508683722871483,-0.27772432800000013,-0.1400389620000002,-0.05746696900000181
23402.0,-2.426361343,-2.7628275044999997,9.2446308885,-0.8555010581330524,0.07861835615608458,-0.016313592518391,9.949052490113555,0.8592607518630846,-0.3567659270000001,-0.16043679399999977,-0.28007792399999865
23412.0,-2.7195801779999997,-2.8885487574999997,8.9214037045,-0.8293874418647135,-0.037559485502917975,-0.03176848304480079,9.763773570074822,0.8308450398173568,-0.2932188349999998,-0.12572125300000003,-0.3232271840000003
23422.0,-2.857265544,-2.9699439525,8.640050916,-0.7566438639708417,-0.15080691934782203,-0.1111739826935348,9.572617891726033,0.7794949122578341,-0.13768536600000036,-0.08139519500000025,-0.28135278849999956
23432.0,-2.76155264,-2.8657973295,8.4820657845,-0.6540551558678671,-0.22141945022500864,-0.23987630706484867,9.36933334287162,0.7309961440023843,0.09571290399999999,0.1041466230000001,-0.15798513150000026
23442.0,-2.5627718445,-2.561693113,8.5071708085,-0.5514681930941443,-0.2707145296183365,-0.3669781645120837,9.246730573405289,0.7155952052450153,0.19878079550000027,0.30410421649999986,0.025105024000000142
23452.0,-2.253960436,-2.292402504,8.599353318499999,-0.4640673401420243,-0.33812961730586943,-0.42933005203958113,9.180649453268309,0.7169479952341149,0.3088114085,0.269290609,0.09218250999999889
23462.0,-1.9151406784999998,-2.1151963384999997,8.7131104585,-0.388126319058499,-0.3954183046733313,-0.3984202709867616,9.168430249005077,0.6824488167985902,0.33881975750000004,0.17720616550000035,0.11375714000000059
23472.0,-1.699688578,-2.1858042185,8.7227209755,-0.3476242084367186,-0.4575049021545256,-0.2875726648633497,9.151641522711852,0.6425351067165791,0.21545210049999985,-0.07060788000000029,0.009610517000000485
23482.0,-1.6111345284999998,-2.444405579,8.636520522,-0.3436274044496516,-0.5259863860150271,-0.14554824231156313,9.119230221378249,0.6449230668862288,0.08855404950000012,-0.25860136050000015,-0.08620045350000005
23492.0,-1.7511734905,-2.759199044,8.2988775625,-0.33829716891406086,-0.6307061411346869,-0.00032637657012293966,8.9191455171225,0.7157061670000767,-0.1400389620000002,-0.3147934649999997,-0.3376429595000001
23502.0,-1.9941822775,-3.0956652055,7.846398731499999,-0.290867846491115,-0.7306297314698663,0.07774743685933941,8.667518622658,0.7902332393466531,-0.24300878699999995,-0.3364661615000002,-0.4524788310000005
23512.0,-2.1868829499999998,-3.205793885,7.4190249244999995,-0.19334233854817584,-0.7207703665253503,0.047637016603933234,8.372663990657712,0.747770330039437,-0.19270067249999978,-0.11012867949999983,-0.4273738069999995
23522.0,-2.1606011279999997,-3.3326919359999994,7.2334831065,-0.10487683475233926,-0.5568961670678467,-0.08532740180075077,8.252170055604477,0.5730735178496693,0.026281822000000066,-0.1268980509999995,-0.18554181799999991
23532.0,-1.9475026234999997,-3.4655720434999995,7.433440699999999,-0.0747664144969331,-0.3026907068441246,-0.2531984052453214,8.429649856171052,0.40164799659066763,0.2130985045,-0.13288010750000012,0.19995759349999975
23542.0,-1.6733086895,-3.6677851665,7.9242635325,-0.11633492129168203,-0.043422046460366924,-0.38216601966293834,8.89081337845211,0.40183349115742145,0.2741939339999997,-0.20221312300000038,0.490822832500001
23552.0,-1.607506068,-3.6247339729999997,8.500011954,-0.2063991466823454,0.13963681213505832,-0.44478494256599094,9.379390990454555,0.5098359463473262,0.06580262150000005,0.043051193500000196,0.5757484214999993
23562.0,-1.618293383,-3.5553028909999997,8.836380048999999,-0.29193249733483156,0.17987363271053558,-0.4511798289452981,9.661297246776945,0.5666942251265179,-0.010787314999999964,0.06943108199999992,0.3363680949999992
23572.0,-1.5967187529999998,-3.5289230025,8.972888616999999,-0.3398958905088877,0.11805407060489645,-0.4085466713068327,9.773205127635645,0.5444045945866997,0.02157463000000015,0.026379888499999726,0.136508568
23582.0,-1.501005849,-3.5074464389999997,8.829221194499999,-0.348423569234132,0.03998025717543411,-0.3549877525508827,9.61822987782024,0.499012734329288,0.09571290399999977,0.021476563500000267,-0.14366742250000009
23592.0,-1.3034018514999999,-3.5948236904999997,8.688005434499999,-0.33483269034885216,0.044244096538056256,-0.3171507596968976,9.492262753536439,0.4633088332646361,0.19760399750000013,-0.08737725149999997,-0.1412157599999997
23602.0,-1.260350658,-3.579231117,8.6915358285,-0.3159150665864856,0.1284457609712707,-0.28943842183373164,9.483784805030178,0.44729771164341275,0.04305119349999997,0.015592573499999762,0.0035303940000002143
23612.0,-1.3249764815,-3.5744258584999997,8.8723704545,-0.3092531448316233,0.21344678620189853,-0.2667892841306012,9.656657826407962,0.46084005929941313,-0.06462582350000012,0.004805258500000242,0.1808346260000011
23622.0,-1.3932307655,-3.714562887,9.109397184999999,-0.31964483519799747,0.24648935960065518,-0.22681949893067907,9.935803263023045,0.46300854221089743,-0.068254284,-0.14013702850000032,0.23702673049999845
23632.0,-1.550039099,-3.8952994464999997,9.230215112999998,-0.3449590906689233,0.2091846921685284,-0.16686569379542188,10.137694511997562,0.43657664783929967,-0.1568083334999999,-0.18073655949999967,0.12081792799999924
23642.0,-1.724793602,-4.0233742955,9.200304830499999,-0.36414374980684494,0.10846174103593562,-0.10984229647426313,10.188624179216342,0.39551226262491074,-0.17475450300000017,-0.12807484900000032,-0.029910282499999497
23652.0,-1.8720894849999998,-4.1957752025,9.007604158,-0.3521533378456439,-0.02503674811985866,-0.061346577878348685,10.111685381625575,0.35833254768389344,-0.14729588299999974,-0.1724009070000001,-0.19270067249999911
23662.0,-1.977412906,-4.317867995,8.720269313,-0.2996608152626624,-0.1635966921064365,-0.025905922087351832,9.92961442928728,0.3423910026143322,-0.10532342100000025,-0.12209279250000016,-0.28733484500000017
23672.0,-1.9726076474999998,-4.3334605685,8.3767423635,-0.23037997060474752,-0.2517951605267179,-0.014182545501705921,9.635345040743243,0.3415799735309843,0.004805258500000242,-0.015592573499999318,-0.3435269494999993
23682.0,-1.8912124524999998,-4.351406738,8.130105116,-0.1749552948784156,-0.2568583606867535,-0.013116149328737385,9.413290303459902,0.3110588465771283,0.08139519500000003,-0.017946169500000053,-0.2466372475000007
23692.0,-1.8852303959999999,-4.387299077,7.9409348374999995,-0.13178981181809182,-0.20916200288825243,-0.01951103570804461,9.266117467983477,0.2479878595126664,0.005982056499999944,-0.035892339000000106,-0.1891702784999998
23702.0,-1.8816019355,-4.351406738,7.8344346185,-0.09821491299747691,-0.15666948030527098,-0.03256784384221419,9.157157432016794,0.18775558486169328,0.003628460499999875,0.035892339000000106,-0.10650021899999995
23712.0,-1.896017711,-4.284329252,7.828452562,-0.0747664144969331,-0.11136945956975818,-0.046956338195655443,9.123323397504493,0.14211991752858563,-0.014415775500000061,0.06707748599999963,-0.005982056499999722
23722.0,-1.7835354355,-4.261577824,7.792560223,-0.07183426135358262,-0.0666052549146076,-0.05761506393758481,9.059030799637153,0.1136482145877649,0.11248227550000012,0.022751428000000296,-0.035892339000000106
23732.0,-1.6482036654999999,-4.16586492,7.7183238825,-0.09022130502334287,0.00347495054072071,-0.0629452994731755,8.9243223501745,0.11006393545182398,0.13533177000000007,0.09571290399999999,-0.07423634049999972
23742.0,-1.5404285819999999,-4.0137637784999995,7.581815314499999,-0.11180404655350476,0.08447917178428153,-0.05708273851572654,8.71591322518919,0.1513119768146303,0.10777508349999998,0.1521011415000002,-0.13650856800000088
23752.0,-1.4136285975,-3.890494188,7.519641153499999,-0.11899829373022539,0.16868258154674795,-0.03869744017521828,8.583664364124589,0.2100283292893958,0.12679998449999985,0.12326959049999964,-0.06217416099999973
23762.0,-1.3405690549999998,-3.8282219604999996,7.615354057499999,-0.0990142737948903,0.2518178498069939,-0.003790855135331684,8.628211065519883,0.2706112090790112,0.07305954250000024,0.06227222750000028,0.09571290399999999
23772.0,-1.3226228854999997,-3.7659497329999994,7.639282283499999,-0.07876321848400011,0.3147038080856015,0.04497189883613789,8.619184560950535,0.32751275256769047,0.017946169500000053,0.06227222750000028,0.023928225999999775
23782.0,-1.3812666525,-3.7396679109999997,7.629769833,-0.07849618310844496,0.37598929944013043,0.09346936276130433,8.608507498656692,0.39530510473693464,-0.05864376700000018,0.02628182199999962,-0.009512450499999048
23792.0,-1.5452338405,-3.707305966,7.7063597695,-0.07130193593172435,0.43727653612391126,0.12651019083080897,8.690215534975739,0.4607597676622664,-0.16396718799999999,0.03236194499999989,0.07658993649999957
23802.0,-1.651832126,-3.764772935,7.895530047999999,-0.03346494307773928,0.4769792859482783,0.1462289207198409,8.901767204519844,0.5000120387488838,-0.10659828550000006,-0.057466969000000034,0.1891702784999989
