timestamp,ax,ay,az,gx,gy,gz,acc_mag,gyro_mag,dax,day,daz
87952.0,0.5539776584999999,0.4325713315,11.809854395499999,0.10633593000700652,0.0856590143586297,0.06909758508645551,11.830751034734163,0.1530335682656811,0.0,0.0,0.0
87962.0,0.5084748025,0.233790536,11.5140858315,0.10313848681735291,0.05874603729287713,0.08588416183213697,11.527678741821772,0.14650847625375837,-0.045502855999999925,-0.1987807955,-0.2957685639999994
87972.0,0.6030109084999999,0.1009104285,11.908018962,0.09887464745473076,0.0678060414399797,0.09041503657031424,11.923704150544058,0.1501623588089532,0.09453610599999995,-0.1328801075,0.39393313050000067
87982.0,0.5227925115,0.1560238015,12.269492081,0.11246378101075861,0.12429711333928016,0.08055567162579828,12.281615991490561,0.1859760486051824,-0.080218397,0.05511337300000001,0.36147311899999934
87992.0,0.43541525999999997,0.20152665749999998,12.603506579999998,0.11486186340299882,0.1666632356021905,0.06190333790973488,12.612635630764382,0.2116646050008533,-0.08737725149999997,0.04550285599999998,0.33401449899999847
88002.0,0.3456844124999999,0.34509601349999997,12.967431361500001,0.10260441606624264,0.23487768408713688,0.05470909073301425,12.976627646919397,0.2620844850182183,-0.08973084750000004,0.14356935599999998,0.3639247815000033
88012.0,0.29900475849999997,0.44571224249999997,13.324099222000001,0.06050358384963543,0.3097540543269456,0.051244612167805514,13.334904698812851,0.3197409390535704,-0.04667965399999996,0.100616229,0.3566678605
88022.0,0.29900475849999997,0.485233042,13.677334755,-0.0023806290997202655,0.39422275413571517,0.058972930095636394,13.689205270978485,0.39861642434466216,0.0,0.03952079950000004,0.35323553299999944
88032.0,0.27262486999999996,0.5367179544999999,14.048418390999998,-0.08045444252918262,0.47522697537927605,0.07789055385800293,14.06131038598509,0.4882422900887663,-0.026379888500000004,0.051484912499999924,0.37108363599999805
88042.0,0.16612465099999998,0.5689818329999999,14.382334823499999,-0.15932761675605836,0.5223910077559188,0.10693457794044058,14.394543851793799,0.5565183360902946,-0.10650021899999998,0.03226387850000001,0.3339164325000006
88052.0,0.0379517355,0.570158631,14.68643904,-0.21981549264242584,0.5050703602591271,0.14850308473518953,14.697551254354154,0.5704981032341683,-0.12817291549999998,0.0011767980000000344,0.30410421650000075
88062.0,-0.153572139,0.5965385195,14.952199254999998,-0.2491248067711666,0.4230014881718497,0.19673351328480082,14.964882397411174,0.5288643527349443,-0.1915238745,0.02637988850000006,0.26576021499999847
88072.0,-0.305575214,0.49602035699999997,14.998878909,-0.26191632485903305,0.2855061950289884,0.23883434550140806,15.010189237075412,0.45514370611783617,-0.152003075,-0.10051816250000006,0.04667965400000185
88082.0,-0.39658092599999994,0.39903258849999995,14.8636452055,-0.2779035408073011,0.14534752944758378,0.25695435379561316,14.874288293311217,0.4054402819704434,-0.09100571199999996,-0.09698776850000002,-0.13523370350000086
88092.0,-0.37618309399999994,0.41815555599999993,14.582292417,-0.3000203530885733,0.046488589956120964,0.24496219650516013,14.593136055150064,0.39010239550678644,0.020397832000000005,0.019122967499999977,-0.28135278849999956
88102.0,-0.3343086985,0.4445354445,14.200421466,-0.3407894990859088,0.015578808903301385,0.22391178039685652,14.211310420905708,0.4080645382467831,0.04187439549999994,0.02637988850000006,-0.3818709509999998
88112.0,-0.28047019,0.4839581775,13.837673482499998,-0.3951477786392722,0.05528330405692039,0.19513479168997402,13.848974202204703,0.4441571766828616,0.05383850849999999,0.03942273299999999,-0.36274798350000204
88122.0,-0.33793715899999993,0.5043560094999999,13.562400817,-0.4537681522260057,0.12935856817006372,0.15889477510156375,13.575982190203183,0.4978822397798389,-0.05746696899999992,0.02039783199999995,-0.2752726654999975
88132.0,-0.47915291899999995,0.49356869449999996,13.3408685935,-0.5049289885897155,0.18345155767712396,0.11892673523089362,13.358591707399823,0.5502284306404707,-0.14121576000000002,-0.010787314999999964,-0.22153222350000057
88142.0,-0.6120330265,0.38706847549999995,13.180529865999999,-0.5422336560218423,0.17145940038667093,0.07096334205683745,13.200408098947948,0.5731068483447446,-0.13288010750000007,-0.10650021900000001,-0.160338727500001
88152.0,-0.688622963,0.220649625,13.02126987,-0.5512936601689449,0.0670066806425663,0.017669713347190592,13.041332633958591,0.5556319049181561,-0.07658993650000001,-0.16641885049999997,-0.1592599959999994
88162.0,-0.641943309,-0.0032361944999999997,12.780614679,-0.5387709227858856,-0.11578688790655582,-0.03535513465764913,12.796726661845794,0.5522053025798471,0.04667965400000007,-0.2238858195,-0.2406551910000001
88172.0,-0.4612067495,-0.23065240799999998,12.4119827055,-0.5227819615083655,-0.33961489249931665,-0.07772300224981148,12.422690001796376,0.6282357197458457,0.18073655949999995,-0.22741621349999996,-0.36863197349999943
88182.0,-0.14876688049999998,-0.33597582899999995,11.947441694999998,-0.5137237026905149,-0.5461239949245377,-0.11742575207417849,11.95309057933681,0.7589151914335194,0.31243986900000004,-0.10532342099999997,-0.4645410105000014
88192.0,0.21398110299999998,-0.39461959599999996,11.411214073,-0.5193192282724087,-0.6937439430582182,-0.15552978030371867,11.420040243266287,0.880433206975258,0.3627479834999999,-0.05864376700000001,-0.5362276219999984
88202.0,0.6377264495,-0.3611789195,10.7934931895,-0.5243806831031923,-0.8144509141261459,-0.17631490636571917,10.818347400045255,0.9845772384833186,0.42374534650000006,0.03344067649999999,-0.6177208835000005
88212.0,1.1908215094999999,-0.2342808685,10.217646701499998,-0.4950713689744516,-0.8653447151143006,-0.15100065089479342,10.289472654587637,1.0083245176653888,0.5530950599999999,0.12689805099999998,-0.5758464880000016
88222.0,1.7295007939999998,-0.0595263655,9.718488216499999,-0.4343164577125289,-0.7542300736153336,-0.08278620240984702,9.871359055311766,0.8742696064116575,0.5386792844999999,0.174754503,-0.4991584849999988
88232.0,2.2071827154999997,0.14759008249999997,9.3856505155,-0.3783594565643387,-0.451528894795697,-0.0025813419636996136,9.642814629098691,0.58910176076245,0.4776819214999999,0.20711644799999995,-0.332837700999999
88242.0,2.403413782,0.2409493905,9.307883781,-0.3663690446031377,0.0006579891280018622,0.07709119306058954,9.61619232840591,0.37439252375096055,0.19623106650000022,0.09335930800000003,-0.07776673450000082
88252.0,2.2645516179999996,0.33313190049999997,9.493425599,-0.40953627299271345,0.49974187005278836,0.16049349669639057,9.765464684154342,0.6657477435654248,-0.1388621640000003,0.09218250999999997,0.1855418180000008
88262.0,1.7570574804999999,0.49955075099999996,9.840581009,-0.5027979415730305,0.935674502652664,0.24922603586778228,10.008688052751825,1.091057359591491,-0.5074941374999997,0.1664188505,0.34715540999999916
88272.0,0.9885103199999999,0.6755801185,10.309829211499999,-0.6429566071544351,1.203203806386111,0.34382113599662295,10.379120363477709,1.406877952042599,-0.7685471604999999,0.17602936750000003,0.4692482024999993
88282.0,0.19240647299999997,0.4923918964999999,10.664143476,-0.817224242307565,1.2461039994001315,0.44374472633180234,10.677238693000383,1.5548440505991148,-0.7961038469999999,-0.18318822200000007,0.35431426450000103
88292.0,-0.38814720699999994,0.13925443,10.890480958,-0.9677745982553437,1.1024808552535181,0.5215515043857095,10.898285440707502,1.5569417718578358,-0.58055368,-0.3531374664999999,0.22633748199999992
88302.0,-0.7293205605,-0.170831843,10.804280504500001,-1.0541090550344954,0.8288237005163193,0.5489968068733204,10.830215566574362,1.4489624289126286,-0.3411733535000001,-0.310086273,-0.08620045349999828
88312.0,-1.0118501469999999,-0.25820909449999996,10.4834069165,-1.0732937141724168,0.5021399524450285,0.5351406379417374,10.535289897928127,1.3001843835011273,-0.2825295864999998,-0.08737725149999995,-0.3208735880000013
88322.0,-1.1626764239999998,-0.21751149699999997,9.921976204,-1.0493128902500148,0.17758899671967504,0.5100934178463667,9.992233959980863,1.1801655342920876,-0.15082627699999995,0.04069759749999999,-0.5614307125
88332.0,-1.0669635199999998,-0.25820909449999996,9.36535075,-0.9941552498992381,-0.0728866948925352,0.4791836367935472,9.429468583118503,1.1060172191088455,0.09571290399999999,-0.04069759749999999,-0.5566254540000006
88342.0,-0.7640361014999999,-0.33842749149999996,8.8290250615,-0.9360654564051107,-0.18053685782629345,0.4341506514335895,8.868481711544167,1.0475203500882022,0.30292741849999993,-0.080218397,-0.5363256884999998
88352.0,-0.40138618449999997,-0.4916073645,8.428031142999998,-0.9152820756723623,-0.1264456136484852,0.3709994031086786,8.451893138067705,0.9956758148941078,0.36264991699999993,-0.15317987300000002,-0.4009939185000011
88362.0,-0.1726951065,-0.6736187885,8.1119628135,-0.9560512216696979,0.05181882549171164,0.29905518601222036,8.141715209931878,1.003071848579286,0.22869107799999996,-0.18201142400000003,-0.3160683294999984
88372.0,-0.111599677,-0.8136577505,7.920438939,-1.0482464940770464,0.2769785163037441,0.22471114119426994,7.962904395337336,1.1072637029251315,0.061095429500000006,-0.140038962,-0.19152387449999964
88382.0,-0.17387190449999998,-0.8723015175,7.7779483145,-1.1577624139811866,0.49414634447089456,0.16315861446418592,7.828641092784919,1.2693365000878867,-0.062272227499999985,-0.05864376699999996,-0.1424906245000006
88392.0,-0.34509601349999997,-0.9955711079999999,7.7348971209999995,-1.2494253609666766,0.6513586221735357,0.11839266447978336,7.806336308542697,1.4139832425842744,-0.17122410899999999,-0.12326959049999997,-0.043051193500000196
88402.0,-0.5522124614999999,-1.191900241,7.744409571499999,-1.2915261931832838,0.7001213761450054,0.09467887593293639,7.855026696216414,1.4721324459985268,-0.20711644799999995,-0.196329133,0.009512450499999936
88412.0,-0.7724698205,-1.353513833,7.7096940305,-1.2848660167576735,0.6372371631956497,0.07895695003097147,7.865627207262812,1.4363795052612531,-0.2202573590000001,-0.16161359200000014,-0.03471554099999974
88422.0,-0.895739411,-1.4852171425,7.604370609499999,-1.2448962315577514,0.49654442686313477,0.06962991050831378,7.7996584168424885,1.3420772405614088,-0.12326959049999997,-0.13170330949999998,-0.10532342100000047
88432.0,-0.9304549520000001,-1.6157436539999999,7.410493139,-1.190537952004388,0.32067981544443014,0.06776589886718383,7.641451598767649,1.2348313148950967,-0.03471554100000007,-0.13052651149999983,-0.19387747049999948
88442.0,-0.9651704929999999,-1.7270491314999998,7.1518917785,-1.1316487977128473,0.14428113327461525,0.07042927130572718,7.420499228121289,1.1429813336361168,-0.03471554099999985,-0.11130547749999997,-0.25860136050000015
88452.0,-0.9615420324999999,-1.8227620355,6.884954765499999,-1.0684975493879365,-0.01852667000991981,0.07496014604390447,7.186767468153222,1.07128393717287,0.003628460499999986,-0.09571290400000021,-0.2669370130000006
88462.0,-0.8874037585,-1.8815038689999999,6.620371348499999,-0.9986843793081633,-0.14269986497230838,0.07069630668128232,6.939514322465341,1.0113019869038231,0.07413827399999995,-0.05874183349999984,-0.2645834169999999
88472.0,-0.7377542795,-1.9029804325,6.359416391999999,-0.9342014447639808,-0.22583513323255427,0.060571651690463205,6.678906553488883,0.9630175345183417,0.14964947899999992,-0.021476563500000045,-0.2609549565
88482.0,-0.6024225095,-1.8574775764999998,6.1426894270000005,-0.8902348555769918,-0.26447323221320473,0.050712286745947244,6.445600765152166,0.9300730749078217,0.13533177000000007,0.04550285600000015,-0.21672696499999855
88492.0,-0.49356869449999996,-1.8263904959999997,5.983527497499999,-0.8710484511098181,-0.27353149103105534,0.041652282598844674,6.27550106472847,0.9139364274456837,0.10885381500000002,0.031087080500000086,-0.15916192950000152
88502.0,-0.39658092599999994,-1.7940285509999998,5.8685935595,-0.8633218785112391,-0.2812598089588862,0.04031885105032101,6.149488209540292,0.9088769750641623,0.09698776850000002,0.03236194499999989,-0.11493393799999918
88512.0,-0.352254868,-1.7593130099999998,5.754836419499999,-0.8601244353215856,-0.28259149517815785,0.039254200206604466,6.028051756113954,0.9062079726079237,0.044326057999999946,0.03471554099999996,-0.11375714000000059
88522.0,-0.2899826405,-1.7641182684999999,5.677069684999999,-0.8460012310144474,-0.2881870207600517,0.028595474464675096,5.951917624210938,0.8941965907854798,0.0622722275,-0.00480525850000002,-0.07776673449999993
88532.0,-0.20623384949999998,-1.7953034155,5.5538000945,-0.8201546501216633,-0.2905851031522919,0.01687035254977719,5.840405999933032,0.8702746469278362,0.08374879100000002,-0.03118514700000019,-0.12326959049999964
88542.0,-0.17151830849999997,-1.7988338095,5.396893694499999,-0.7812512610947098,-0.2884540561356068,-0.001514945790731078,5.691369180969096,0.8328034405091679,0.034715541000000016,-0.0035303939999999923,-0.15690640000000045
88552.0,-0.153572139,-1.8527703844999999,5.2209623935,-0.7287587385117283,-0.257011949660929,-0.023097687320892957,5.54209263851648,0.7730963357727751,0.01794616949999997,-0.05393657499999982,-0.17593130099999943
