timestamp,ax,ay,az,gx,gy,gz,acc_mag,gyro_mag,dax,day,daz
55472.0,-2.2767118639999997,-0.25487483349999995,10.0885911875,-0.05291663759121607,-0.28190558078212413,-0.11357206508577501,10.3454362035118,0.30849560933328424,0.0,0.0,0.0
55482.0,-2.2587656945,-0.5111225979999999,10.156845471499999,-0.010548769999053728,-0.44018425465773386,-0.0536182599505178,10.417522675990025,0.4435632676374352,0.01794616949999961,-0.2562477645,0.06825428399999822
55492.0,-1.8888588565,-0.561332646,10.0095495885,0.07711737299936945,-0.484150843844723,-0.01684591794024927,10.201664819228496,0.49054348814873777,0.3699068380000001,-0.05021004800000006,-0.14729588299999818
55502.0,-1.884053598,-0.302829352,9.928154393499998,0.18263648891644263,-0.4303248897132179,-0.0027244589623631483,10.109877013977114,0.4674858505527805,0.00480525850000002,0.258503294,-0.08139519500000247
55512.0,-1.898371307,-0.05619210449999999,9.9867981605,0.254847741388456,-0.32107600518463286,0.02418851810338941,10.16578126217632,0.4106364046259875,-0.014317708999999956,0.2466372475,0.05864376700000129
55522.0,-1.8732662829999998,0.004903325,10.094573244,0.2625760593162869,-0.1723896608779839,0.06495766410072495,10.266915777783577,0.3207551717885763,0.025105024000000142,0.06109542949999999,0.10777508349999998
55532.0,-1.9235743974999997,0.06835235049999999,10.3925973375,0.2132792345937071,-0.02929884215322881,0.09666680595095793,10.56933725102707,0.23598924855416087,-0.050308114499999945,0.06344902549999999,0.2980240935000005
55542.0,-2.0265442225,-0.040599530999999994,10.553034131499999,0.13014396633346118,0.031719613825744945,0.11718315130815128,10.745932215879154,0.17797605688622428,-0.1029698250000004,-0.10895188149999999,0.16043679399999888
55552.0,-2.079205933,-0.18662054949999998,10.634429326500001,0.0440765449298648,0.02026152728640217,0.11398570811849766,10.837389521542601,0.12387902548941589,-0.05266171049999979,-0.1460210185,0.08139519500000247
55562.0,-2.2156164345,-0.2752726655,10.585396076499999,-0.015877260205392416,0.00587303293296092,0.09746616674837133,10.818287356212144,0.09892539394959571,-0.1364105014999999,-0.08865211600000003,-0.04903325000000258
55572.0,-2.3401608895,-0.432080999,10.512336534,-0.04438895886597178,0.03438473159354029,0.07907912307861108,10.778323913415916,0.09698555120659397,-0.12454445500000011,-0.1568083335,-0.07305954249999935
55582.0,-2.453819963,-0.6847003029999998,10.474090599,-0.050783845245279007,0.11565598821265624,0.05483126378065386,10.779453640690969,0.13770175756004777,-0.11365907350000004,-0.2526193039999998,-0.038245934999999065
55592.0,-2.623867274,-1.010281083,10.590201335,-0.03186622148291247,0.22170742955158768,0.022589796508562607,10.957084998030801,0.22512205422007972,-0.17004731100000026,-0.3255807800000001,0.11611073599999955
55602.0,-2.7866576640000003,-1.3370386609999998,10.890677091,0.01876228945893904,0.3115063648959479,-0.02137679267842655,11.320776511254467,0.3128021837226283,-0.16279039000000006,-0.3267575779999998,0.30047575600000087
55612.0,-2.9818099989999998,-1.598091684,11.412587003999999,0.09203993810392097,0.34987568317179124,-0.07120594282286465,11.903454541622613,0.36872026005414227,-0.1951523349999995,-0.2610530230000001,0.5219099129999982
55622.0,-3.2200135274999995,-1.6782120145,11.9751945145,0.1706460769552416,0.2955174036184279,-0.12343143003029097,12.513599256129549,0.3628855705879109,-0.2382035284999997,-0.0801203305,0.5626075105000012
55632.0,-3.3025855205,-1.6567354509999999,12.4576816945,0.22153987794339625,0.14576640846806244,-0.18045482735144971,12.994063131919006,0.3207673737637518,-0.08257199300000062,0.021476563500000045,0.4824871799999997
55642.0,-3.181669526,-1.6662479015,12.7246187075,0.22846883507381371,-0.022638665727618447,-0.2356124677022265,13.221774627227209,0.3289737872880529,0.12091599450000023,-0.009512450500000158,0.2669370129999997
55652.0,-2.9937741119999997,-1.60044528,12.861029209,0.21247987379629368,-0.11350225191569523,-0.2694526565691446,13.30151047222483,0.3614349071279533,0.1878954140000002,0.06580262150000005,0.13641050150000034
55662.0,-2.8752117134999997,-1.4914933984999998,13.03107652,0.19729201864543902,-0.12975650323951843,-0.2750481821510384,13.427596591546529,0.362508473361286,0.11856239849999994,0.10895188150000013,0.17004731099999937
55672.0,-2.8453014309999998,-1.4184338559999998,13.272908509,0.18583393210609625,-0.1007124791570808,-0.2590609662027703,13.648362360568477,0.33434987362027146,0.02991028249999994,0.07305954250000002,0.24183198900000136
55682.0,-2.8752117134999997,-1.3622417515,13.608099805999998,0.15519118642883178,-0.0548801329997097,-0.23960927168929352,13.975082300903798,0.29070386379050406,-0.02991028249999994,0.056192104499999784,0.33519129699999795
55692.0,-2.9422891995000002,-1.2640771849999999,13.816393051999999,0.08031481618902306,0.015465362501921754,-0.23641182849963993,14.182653976970801,0.2501603481596066,-0.06707748600000052,0.09816456650000016,0.2082932460000002
55702.0,-2.9052200624999998,-1.254466668,13.950449957499998,-0.03506366467256608,0.11752174518303818,-0.2531984052453214,14.304860860888764,0.28133654862088414,0.037069137000000474,0.009610516999999819,0.1340569054999996
55712.0,-2.8871758265,-1.2018049575,14.0198810395,-0.1536395887238088,0.23076743369869024,-0.2830435354544244,14.36444164493452,0.39619739353211364,0.018044235999999714,0.052661710500000014,0.06943108200000125
55722.0,-2.8848222304999998,-1.1119760435,14.2640666245,-0.24290445331705884,0.33708591041317687,-0.30995476719092496,14.59528302881036,0.5183641983631971,0.002353596000000291,0.08982891400000015,0.24418558500000032
55732.0,-2.8896274889999995,-1.0413681635,14.533455299999998,-0.3209765214172692,0.34747760077955103,-0.3264760538903033,14.854484765020759,0.5747636245522397,-0.004805258499999798,0.07060787999999985,0.26938867549999834
55742.0,-2.88119377,-0.8522959514999999,14.6004347195,-0.40864266441569236,0.2427578456598913,-0.3222122145276812,14.906387219162502,0.5742307114749439,0.008433718999999673,0.18907221200000013,0.06697941950000263
55752.0,-2.796268181,-0.6953895514999999,14.387336215,-0.4816550230143712,0.0943385367287975,-0.29823139060527903,14.673040780010766,0.5743111378420791,0.08492558900000002,0.1569064,-0.21309850450000134
55762.0,-2.576010822,-0.6666560669999999,13.924070068999999,-0.5154952118812892,-0.014645057753484418,-0.2595932916246286,14.176035741812683,0.5773547161370102,0.22025735899999965,0.028733484500000017,-0.4632661460000005
55772.0,-2.3903709374999997,-0.6224280754999999,13.337534332499999,-0.5077668939534583,-0.02849948135581541,-0.21109757302871418,13.564332346217098,0.55063747091104,0.18563988450000046,0.04422799150000001,-0.5865357365000001
55782.0,-2.1677599825,-0.5385812179999999,12.675487390999999,-0.49124735258333196,0.04451113191361138,-0.16153545825983118,12.870789939607853,0.5190365175588102,0.22261095499999994,0.08384685749999998,-0.6620469414999999
55792.0,-2.0288978185,-0.5637843084999999,12.1595595345,-0.4741937404620954,0.21291446078004025,-0.11277270428836161,12.34054971131654,0.5318928030488838,0.13886216399999984,-0.025203090500000025,-0.5159278564999994
55802.0,-1.9953590755,-0.569766365,11.850748126,-0.42756203350731087,0.4298152535716356,-0.06774146425765591,12.031056591037963,0.6100322538026391,0.03353874300000004,-0.005982056500000055,-0.30881140850000044
55812.0,-2.2360142665,-0.48954796799999994,12.1954518735,-0.33589908652182066,0.6499134895528844,-0.03523296161000953,12.408402935584382,0.7324323189297515,-0.24065519099999988,0.08021839700000005,0.34470374750000055
55822.0,-2.6908466935,-0.5912429285,12.827588532499998,-0.2442361395363305,0.7285196284042051,-0.021109757302871415,13.120108676666767,0.7686597183924738,-0.45483242700000037,-0.1016949605000001,0.6321366589999986
55832.0,-2.969845886,-0.7780596109999999,13.473944834,-0.20799786827717223,0.5958205000458242,-0.04429296575711209,13.819281845831782,0.63263500400963,-0.2789991924999997,-0.18681668249999983,0.6463563015000009
55842.0,-3.1314594779999996,-0.7277514964999999,13.830710760999999,-0.2583593438434686,0.3141697373344913,-0.08532740180075077,14.199444385519286,0.4156115252325393,-0.1616135919999997,0.050308114499999945,0.35676592699999965
55852.0,-3.144600389,-0.5111225979999999,13.645168943,-0.37560183634618766,0.026658158994961392,-0.10904293567684972,14.012151633482167,0.39201754900597824,-0.013140911000000255,0.2166288985,-0.18554181799999903
55862.0,-3.0356485075,-0.3925601995,13.1172769735,-0.5008396821522928,-0.15213860556709372,-0.10451206093867245,13.469677819860124,0.5337689700647259,0.1089518814999999,0.11856239849999994,-0.5278919695000006
55872.0,-2.857265544,-0.43570945949999995,12.517502259499999,-0.6148847314653583,-0.16679413529609008,-0.09225635893116826,12.846854554271834,0.6437505357835694,0.17838296349999982,-0.04314925999999997,-0.5997747140000005
55882.0,-2.7818524054999996,-0.5194582505,12.13082605,-0.7161417533490613,-0.045553093477052,-0.09465444132340847,12.456543675328131,0.7238049174172854,0.07541313850000053,-0.0837487910000001,-0.38667620949999915
55892.0,-2.7926397205,-0.562509444,11.989610289999998,-0.7806246878932438,0.08421388173797839,-0.10291333934384564,12.323392730460933,0.7918699619512689,-0.010787315000000408,-0.04305119349999997,-0.14121576000000147
55902.0,-2.9135557149999998,-0.584084074,11.977646176999999,-0.8205944730931659,0.16255298521374387,-0.11517078668060181,12.34074426650647,0.8444306202273689,-0.12091599449999979,-0.021574629999999928,-0.011964112999999443
55912.0,-2.9997561685,-0.5829072759999999,12.048254057,-0.8411125637796113,0.14603344384361755,-0.13808695975928736,12.429752362170555,0.8647913737568736,-0.08620045350000005,0.0011767980000000344,0.07060788000000073
55922.0,-3.0260379905,-0.6332153905,12.082969598,-0.8568327443523243,0.043177700365087716,-0.1796554665540363,12.472209986883144,0.8765288085772772,-0.026281822000000066,-0.050308114500000056,0.03471554100000063
55932.0,-2.9997561685,-0.665479269,11.935673715,-0.8741533918491159,-0.10417521239303754,-0.21456205159392291,12.324841043959328,0.9061089897703486,0.026281822000000066,-0.03226387850000001,-0.14729588299999996
55942.0,-2.9422891995000002,-0.549368533,11.620880249999999,-0.8973348549741046,-0.236074979954005,-0.2409409579085652,12.000155386634999,0.9586416344544911,0.05746696899999959,0.11611073599999999,-0.31479346500000105
55952.0,-2.774693551,-0.536227622,11.207824151999999,-0.9391703971444086,-0.29043325950736837,-0.2611920132194554,11.558623905409815,1.0171596634108595,0.1675956485000003,0.013140911000000033,-0.4130560980000002
55962.0,-2.5627718445,-0.5912429285,10.8284048635,-0.9956597237144572,-0.22888073277728438,-0.2641241663628059,11.143236496428388,1.0552185794993676,0.21192170650000008,-0.05501530650000008,-0.3794192884999994
55972.0,-2.542472079,-0.5996766475,10.603342245999999,-1.0446895130614817,-0.08578991405252927,-0.2510673582286363,10.920377426621284,1.0778547705612676,0.0202997654999999,-0.008433719000000006,-0.22506261750000078
55982.0,-2.6633880734999997,-0.6546919539999999,10.523123849,-1.0702690585787107,0.039713221799878975,-0.23134862833960437,10.874667494966774,1.0957076186516648,-0.12091599449999979,-0.05501530649999986,-0.08021839699999944
55992.0,-2.7531189209999996,-0.7852184655,10.616483157000001,-1.0537495172085845,0.07755195998311604,-0.21109757302871418,10.995724007749335,1.077480643377486,-0.08973084749999982,-0.13052651150000005,0.09335930800000192
56002.0,-2.8477530934999997,-0.9204521689999999,10.755345321,-0.993528676697772,-0.0026529004630313807,-0.1935116354856193,11.163977017663205,1.012202065977941,-0.09463417250000017,-0.13523370349999997,0.13886216399999896
56012.0,-2.784304068,-0.9408500009999999,10.693073093499999,-0.921849749647617,-0.160666284292338,-0.17725738416179612,11.089605946578835,0.9523868941105621,0.06344902549999976,-0.020397832000000005,-0.062272227500001165
56022.0,-2.658582815,-0.8905418865,10.441728653999998,-0.878150195836183,-0.28483773392547457,-0.15807272502387446,10.811606019439893,0.9366254787861579,0.12572125300000003,0.050308114499999945,-0.2513444395000004
56032.0,-2.508933336,-0.882206234,10.167632786499999,-0.858431465947151,-0.3306683347535937,-0.11730357902653889,10.509699843711536,0.9273652241643121,0.1496494789999998,0.008335652500000013,-0.2740958674999998
56042.0,-2.4107687694999997,-0.9587961704999999,9.9173670785,-0.8469751247370603,-0.29682814588667567,-0.061346577878348685,10.251110472835498,0.899576129480582,0.09816456650000038,-0.0765899364999999,-0.2502657079999988
56052.0,-2.4191044219999998,-1.2353437004999999,9.681517146,-0.8560333835549108,-0.22221881102242202,-0.021109757302871415,10.055342585471514,0.8846581122592354,-0.008335652500000013,-0.27654753,-0.23584993250000075
56062.0,-2.5112869319999995,-1.5561192219999997,9.3811394565,-0.8797489174310098,-0.18091733960322823,-0.02137679267842655,9.83533662821019,0.8984131614994072,-0.09218250999999977,-0.3207755214999999,-0.30037768949999943
56072.0,-2.5305079659999996,-1.7356789835,9.063894329,-0.8808153136039782,-0.19717159092705142,-0.07600210760734506,9.569233642619006,0.9058082431225373,-0.01922103400000008,-0.1795597615000002,-0.31724512749999967
56082.0,-2.41439723,-1.8482593255,8.704774806,-0.806738304161583,-0.2584570822815803,-0.1594044112431461,9.22054667260579,0.8619956618839728,0.11611073599999955,-0.112580342,-0.3591195230000004
56092.0,-2.1353980375,-1.8733643494999999,8.362326588,-0.6553885874163907,-0.3256051345935581,-0.23534543232667138,8.83164337645651,0.7687264641641843,0.27899919250000016,-0.02510502399999992,-0.34244821799999947
56102.0,-1.8361971459999997,-1.819525841,8.1337335765,-0.45660605758974854,-0.35038706464262565,-0.28544161784666466,8.534630404330862,0.6424461877040362,0.2992008915000002,0.05383850849999994,-0.228593011500001
56112.0,-1.4171589915,-1.8901337209999998,8.1337335765,-0.2738142343698784,-0.27204621583760813,-0.3014288337949327,8.469862276562356,0.48973739936633215,0.4190381544999997,-0.07060787999999985,0.0
56122.0,-1.168168148,-1.983493029,8.416263163,-0.16829511845280523,-0.09804736138928545,-0.27851266071624714,8.725385209087568,0.3398614925961579,0.24899084350000011,-0.09335930800000014,0.2825295865000008
56132.0,-1.153850439,-1.948777488,8.8639367355,-0.16029976514941918,0.08474620715983666,-0.21189693382612756,9.148687282023715,0.27888751298660036,0.014317708999999956,0.03471554099999996,0.4476735724999994
56142.0,-1.3130123685,-1.9846698269999998,9.3152387685,-0.22638316661768051,0.19026532307690985,-0.12103334763805078,9.614394890798048,0.31952981478084735,-0.15916192949999997,-0.035892338999999884,0.45130203300000105
56152.0,-1.5895598985000001,-2.099603765,9.649253267499999,-0.3164473920083439,0.17481043255050005,-0.02883807523070231,10.00215603064064,0.3626696483308012,-0.2765475300000002,-0.11493393800000007,0.33401449899999847
56162.0,-1.8912124524999998,-2.2660226155,9.760558744999999,-0.3777346286921248,0.04397706116250112,0.047637016603933234,10.197060853454023,0.38325802923434127,-0.3016525539999997,-0.16641885049999994,0.1113054775000002
56172.0,-2.1905114105,-2.4766694575,9.693579325499998,-0.3745371855024711,-0.18144966502508647,0.09453401360502087,10.24195840554945,0.4267771830710995,-0.2992989580000003,-0.21064684200000006,-0.06697941950000086
56182.0,-2.496969223,-2.5174651215,9.3499543095,-0.30099250148193407,-0.45297577274560036,0.10998890413143066,9.999706572110796,0.5548703413184551,-0.3064578124999997,-0.04079566400000001,-0.34362501599999895
56192.0,-2.543648877,-2.538941685,8.868741994,-0.19600571098671918,-0.6514895218674353,0.09027191957165072,9.56927160474783,0.6862986633424396,-0.04667965400000007,-0.021476563500000267,-0.48121231549999877
56202.0,-2.380858487,-2.7077141315,8.508445672999999,-0.10620852097161095,-0.7250324605587204,0.05722934617289407,9.240879326310734,0.7350017121437109,0.16279039000000006,-0.16877244649999978,-0.36029632100000164
56212.0,-2.0863647875,-2.7807736739999998,8.368308644499999,-0.05051855519897586,-0.6818669774983966,0.029784043685283233,9.06168912632434,0.6843842405260643,0.2944936994999998,-0.0730595424999998,-0.14013702849999987
56222.0,-1.8804251374999998,-2.7628275044999997,8.353990935499999,-0.04119151567631817,-0.5643557042908705,0.02578723969821622,8.997687428877475,0.5664442458535615,0.20593965000000014,0.017946169500000053,-0.014317709000000178
56232.0,-1.7380325794999998,-2.8191176755,8.4353861305,-0.06517408492797225,-0.454307458964872,0.05563062457806726,9.062224941279691,0.4623177424761711,0.14239255800000006,-0.05629017100000011,0.0813951950000007
56242.0,-1.6410448109999998,-2.9364052094999997,8.5622841815,-0.09634915602709497,-0.37490195931613796,0.09586744515354453,9.199359435898453,0.3987796459280244,0.09698776850000002,-0.11728753399999992,0.1268980510000013
56252.0,-1.6686014974999999,-3.0034826955,8.580230351,-0.1176666075109537,-0.329336648534322,0.1297076340204626,9.242591202463126,0.37300419423130166,-0.027556686500000094,-0.06707748600000007,0.017946169500000053
56262.0,-1.8457095964999999,-3.0872314864999995,8.543161214,-0.12406149389026093,-0.31974431896536115,0.15368845794286468,9.269479256907754,0.375829517044313,-0.17710809900000002,-0.08374879099999966,-0.03706913700000136
56272.0,-2.0181105035,-3.1602910289999997,8.501188752,-0.10700788176902434,-0.321343040560188,0.14942636390949454,9.29141644688506,0.37018951188326876,-0.1724009070000001,-0.07305954250000024,-0.04197246200000038
56282.0,-2.1581494654999998,-3.0956652055,8.433032534499999,-0.07663042613806303,-0.31841088741683754,0.11665082588629301,9.238873844139055,0.3476566274582341,-0.14003896199999977,0.06462582349999968,-0.06815621750000034
56292.0,-2.0707722139999998,-2.998677437,8.313293338,-0.06330832795759031,-0.22781433660431583,0.05536533453176412,9.076949380550854,0.24284282286916464,0.08737725149999997,0.09698776850000002,-0.11973919649999942
56302.0,-1.898371307,-2.905318129,8.382724419999999,-0.09741555220006351,-0.01064650843716541,-0.011250392358355447,9.072747971348111,0.09863928872697164,0.17240090699999988,0.09335930800000014,0.06943108199999948
56312.0,-1.770296458,-2.8071535625,8.6066102395,-0.18881146380999855,0.273934662088266,-0.05388529532607293,9.224304878272944,0.33703648617303283,0.12807484899999988,0.09816456649999994,0.2238858195000013
56322.0,-1.712829489,-2.5975854519999997,8.887864961499998,-0.324708035358033,0.5569171110188706,-0.07333698983954974,9.416760515840329,0.6488222336282913,0.057466969000000034,0.20956811050000024,0.2812547219999981
56332.0,-1.7523502884999997,-2.3366304955,9.262577058,-0.4638020500957211,0.7727532529667493,-0.07013954664989612,9.712152560657938,0.9039798048894343,-0.03952079949999976,0.26095495649999956,0.3747120965000015
56342.0,-1.9127870825,-2.06135783,9.711525494999998,-0.5472043537315222,0.8729421333482319,-0.018978710286186338,10.110473676654133,1.0304468760501058,-0.16043679400000022,0.2752726655000002,0.44894843699999853
56352.0,-2.3473197439999995,-1.8721875515,10.25971723,-0.5360133025677346,0.8228476931574906,0.08733976642830024,10.690032453090245,0.9859091344865022,-0.4345326614999996,0.1891702785,0.5481917350000014
56362.0,-2.854911948,-2.0972501689999996,10.675126923999999,-0.4656660617368511,0.5883609628228005,0.2021859218680311,11.247547081284583,0.7771053021495267,-0.5075922040000003,-0.22506261749999967,0.41540969399999916
56372.0,-3.1122384439999995,-2.4455823769999996,10.831935257499998,-0.3740031147513609,0.21451318237486705,0.2597416446110481,11.532463861537831,0.5033487431210737,-0.2573264959999997,-0.348332208,0.156808333499999
56382.0,-3.1733338735,-2.7149710524999997,10.697878352,-0.27967504999807535,-0.19024263379663392,0.2597416446110481,11.484150683564096,0.42646936027170596,-0.06109542950000035,-0.2693886755000001,-0.13405690549999782
56392.0,-2.9338554804999997,-2.9460157264999998,10.3112021425,-0.2000025149737862,-0.527850397656157,0.23069762052861048,11.117886771538096,0.6097937687605256,0.23947839300000018,-0.23104467400000006,-0.3866762095000009
56402.0,-2.356930261,-3.2237400545,9.724666405999999,-0.1680280830772501,-0.6680108085668137,0.18060143500861722,10.512695035155835,0.712101646811658,0.5769252194999996,-0.27772432800000013,-0.5865357365000001
56412.0,-1.8912124524999998,-3.3709378709999998,9.260223461999999,-0.20426635433640836,-0.5520982569541143,0.14036635976239198,10.034522671099424,0.6051776134314649,0.4657178085000002,-0.14719781649999986,-0.46444294399999997
56422.0,-1.7152811515,-3.187749649,9.044673294999999,-0.29752802291672537,-0.24087114473848542,0.12810891242563577,9.742179030723923,0.4036752732472514,0.17593130099999987,0.18318822199999962,-0.21555016699999996
56432.0,-1.93191005,-3.115964971,9.152448378499999,-0.4131735391538697,0.11325790582041603,0.14436316374945898,9.859453608740056,0.45208456038169853,-0.2166288985,0.07178467800000021,0.10777508349999998
56442.0,-2.2252269515,-3.4439974135,9.515196362,-0.517093933476116,0.3663969698711696,0.15635357571066,10.3610672701848,0.6527475133664514,-0.2933169014999999,-0.3280324425000001,0.36274798350000026
56452.0,-2.5232510449999994,-3.8856889295,9.8934388525,-0.5821109387714087,0.45246439127476595,0.13263804183456107,10.924536906482075,0.7491128223109533,-0.2980240934999996,-0.4416915160000001,0.3782424904999999
56462.0,-2.7794988095,-4.0796644665,10.046716792,-0.5933019899351963,0.37439057784530366,0.07401766824782752,11.194007061364996,0.7054460796214334,-0.25624776450000075,-0.1939755369999996,0.15327793950000057
56472.0,-2.854911948,-4.098787434,9.935313248,-0.5666560482449989,0.2225067903490011,-0.003790855135331684,11.120298107327597,0.6087879099873041,-0.07541313849999964,-0.01912296750000042,-0.11140354399999985
56482.0,-2.7687114945,-3.985030294,9.6480764695,-0.5344145809729077,0.1068630194411088,-0.07866548004588843,10.799611536772687,0.5506422677486441,0.08620045349999961,0.11375714000000015,-0.2872367785000005
56492.0,-2.599939048,-3.7815423065,9.341618657,-0.5216230628850413,0.06822492046045833,-0.13995271672966933,10.407957744052142,0.5443638695077243,0.16877244650000023,0.20348798749999997,-0.3064578124999997
56502.0,-2.3988046565,-3.6725904249999997,9.069876385499999,-0.5264192276695216,0.08767661497393515,-0.17459226639400074,10.074961134321972,0.5615040975434258,0.20113439150000012,0.10895188150000035,-0.27174227150000085
56512.0,-2.210811176,-3.601982545,8.8998290745,-0.536812663365148,0.15296065564478303,-0.18018779197589457,9.852356158083541,0.5865427845448394,0.18799348049999987,0.07060787999999985,-0.17004731099999937
56522.0,-2.1079394175,-3.530197867,8.847167363999999,-0.5410747573985181,0.22543894349235158,-0.1649999368250399,9.755925170615459,0.6089413678582529,0.10287175850000008,0.07178467799999977,-0.05266171050000068
56532.0,-2.089993248,-3.5553028909999997,8.916598446,-0.5248205060746949,0.26274361092447834,-0.1266288732199446,9.82415280167446,0.6004212189880412,0.017946169500000053,-0.025105023999999698,0.06943108200000125
56542.0,-2.1498138129999997,-3.6044342074999998,9.044673294999999,-0.48538479162588305,0.25475000295034433,-0.06694210346024251,9.970945812712447,0.5522474129958276,-0.05982056499999988,-0.04913131650000002,0.128074848999999
56552.0,-2.3174094614999996,-3.6582727159999995,9.0710531835,-0.4315588374943779,0.19293044084470518,-0.004855505979048225,10.051733767602743,0.47274597953059705,-0.16759564849999986,-0.053838508499999715,0.02637988850000106
56562.0,-2.4813766494999996,-3.7240753374999995,9.099786667999998,-0.3766682325191562,0.0927398151339707,0.042041491022039405,10.140615592712805,0.3901885668078249,-0.16396718799999999,-0.06580262150000005,0.02873348449999824
56572.0,-2.611903161,-3.600805747,9.112927578999999,-0.33589908652182066,-0.02636843433913033,0.059627428565134276,10.140674987897443,0.34216797175215097,-0.13052651150000028,0.12326959049999964,0.013140911000000699
56582.0,-2.6454419039999997,-3.488225405,9.0494785535,-0.3239086745606196,-0.1830483866199133,0.042041491022039405,10.052817586815301,0.3744209239173565,-0.033538742999999815,0.11258034199999978,-0.06344902549999887
56592.0,-2.451466367,-3.3888840405,8.8268675985,-0.3553507810352975,-0.37943108872506326,-0.009119345341670372,9.767692357457669,0.5199281595883641,0.1939755369999996,0.0993413645000003,-0.2226109550000004
56602.0,-2.0192873015,-3.3817251859999997,8.6783949175,-0.42569627653692893,-0.5243876644202004,-0.08985827653892806,9.53037904722135,0.6813767330310191,0.4321790655000002,0.007158854500000089,-0.14847268099999944
56612.0,-1.5571979534999998,-3.5350031255,8.450978703999999,-0.5514681930941443,-0.5856731557747292,-0.18178651357072137,9.291940250515006,0.8247281672804977,0.4620893480000001,-0.15327793950000013,-0.22741621350000152
56622.0,-1.157380833,-3.4954823259999994,8.156485004499999,-0.7185398357413015,-0.5824757125850755,-0.2537324759964317,8.949087926297711,0.9591442126572561,0.39981712049999985,0.039520799500000425,-0.29449369950000026
56632.0,-0.8940722805,-3.522940946,7.8344346185,-0.9127897455005144,-0.44871193338297816,-0.2745158567291801,8.636483308807646,1.0535114969695107,0.26330855249999996,-0.027458620000000433,-0.322050385999999
56642.0,-1.0807908965,-3.6295392315,7.712341825999999,-1.0428237560911,-0.17318902167539732,-0.18951483149855228,8.591966040204296,1.0739607510774105,-0.18671861599999995,-0.10659828550000006,-0.12209279250000016
56652.0,-1.5907366964999998,-3.8270451624999997,7.829629359999999,-1.0564146349763799,0.1388374513376449,-0.03869744017521828,8.858883328522866,1.0662012993625196,-0.5099457999999999,-0.1975059309999998,0.11728753399999992
56662.0,-2.1701135784999996,-4.447119642,8.254649571,-0.9578227308604721,0.3440148675435943,0.09107128036906412,9.62421454425569,1.0217947890609493,-0.5793768819999998,-0.6200744794999999,0.42502021100000054
56672.0,-2.6921215579999997,-5.255187602,8.822062339999999,-0.7862202134751376,0.3549388833318268,0.15208973634803788,10.61571001610863,0.8759310034929411,-0.5220079795000001,-0.8080679600000007,0.5674127689999988
56682.0,-3.1087080499999997,-5.741205175999999,9.1763766045,-0.590371582121098,0.17001426776601963,0.12517850461153732,11.261944334824202,0.626987331799427,-0.416586492,-0.486017573999999,0.35431426450000103
56692.0,-3.2774804965,-5.97224985,9.237472034,-0.3998496956441449,-0.13188755025620352,0.03085043985825177,11.477828028625233,0.42216804078322356,-0.16877244650000023,-0.2310446740000005,0.06109542949999991
56702.0,-3.0835049594999995,-5.973426647999999,9.139307467499998,-0.2210546764113418,-0.41460470914050496,-0.06827378967951418,11.345341323195122,0.47478789491941376,0.19397553700000048,-0.0011767979999994793,-0.09816456650000127
56712.0,-2.7004572104999998,-5.7770975149999995,8.964454898,-0.06650577114724393,-0.5318472016432241,-0.1266288732199446,11.001307943232787,0.55074434633918,0.3830477489999997,0.19632913299999988,-0.17485256949999872
56722.0,-2.3401608895,-5.5855736405,8.916598446,0.035016540782762236,-0.45297577274560036,-0.13195910875553526,10.778715773662624,0.47310296469840457,0.36029632099999986,0.19152387449999964,-0.04785645199999955
56732.0,-2.1426549584999997,-5.384439249,9.1667660875,0.07178888279303076,-0.2547273136700684,-0.09518676674526674,10.844941530515337,0.2812475219191428,0.19750593100000025,0.20113439150000012,0.25016764149999915
56742.0,-2.1390264979999998,-5.384439249,9.449295674,0.05553463146920758,-0.07939502767322205,-0.04216017341117503,11.084079083080963,0.10566525414587685,0.003628460499999875,0.0,0.2825295865000008
56752.0,-2.1665831845,-5.463480847999999,9.6372891545,0.0054384459492143305,0.01946216648898877,0.001806415775814131,11.288093192353802,0.020288315769002446,-0.027556686500000094,-0.07904159899999907,0.18799348049999942
56762.0,-2.3066221465,-5.422783250499999,9.669553033,-0.05504768460790115,0.05037194754180834,0.009532988374393028,11.323751134965264,0.07522272626801,-0.1400389620000002,0.04069759749999946,0.03226387850000023
56772.0,-2.4790230535,-5.269505311,9.5929630965,-0.09315171283744136,0.029321531433504737,-0.01204975315576885,11.222218251898889,0.09839812173649508,-0.1724009070000001,0.15327793949999968,-0.07658993649999957
56782.0,-2.5160921905,-5.139076865999999,9.491268136,-0.09874723841933518,0.0008098327729253688,-0.04269424416228529,11.08264416893371,0.10758471735871207,-0.03706913700000003,0.13042844500000061,-0.10169496049999971
56792.0,-2.464607278,-4.966675959,9.5092143055,-0.07903025385955524,0.00294262511886244,-0.07173826824472292,11.007602637468569,0.10677461869961291,0.05148491250000031,0.17240090699999921,0.017946169500000053
56802.0,-2.4203792865,-4.803885569,9.693579325499998,-0.05344896301307434,0.025858798197547987,-0.09758484913750695,11.086073813137169,0.11422903252932019,0.04422799150000012,0.16279038999999962,0.18436501999999777
56812.0,-2.3066221465,-4.686598034999999,9.822830972499998,-0.06384065337944858,0.029855602184615,-0.11650421822912549,11.125318655332771,0.1361624723295688,0.1137571399999997,0.1172875340000008,0.12925164700000025
56822.0,-2.0875415855,-4.5548947255,9.874315884999998,-0.140048709838529,0.03358537079612688,-0.12609654779808632,11.072804975630287,0.1914208912985855,0.21908056100000017,0.13170330949999975,0.051484912499999425
56832.0,-1.9534846799999999,-4.5309664995,9.8096900615,-0.26128975165756707,0.060231312486324316,-0.10824357487943632,10.98070029266248,0.289165725541217,0.13405690550000005,0.023928225999999775,-0.06462582349999835
56842.0,-1.8732662829999998,-4.505763408999999,9.588157837999999,-0.3740031147513609,0.10499726247072688,-0.06480931111430543,10.758429308747107,0.39383118436352543,0.08021839700000011,0.02520309050000069,-0.22153222350000057
56852.0,-1.967802389,-4.5082150715,9.4325263025,-0.4448826810041026,0.16628449915450774,-0.019245745661741472,10.63808261955171,0.4753330761082591,-0.09453610600000029,-0.0024516625000003955,-0.15563153549999953
56862.0,-2.1521674089999996,-4.63266146,9.376334197999999,-0.477391183651749,0.20971701759038666,0.026319565120074488,10.677500632260125,0.5220883921363645,-0.18436501999999955,-0.1244463885,-0.056192104500000895
56872.0,-2.34967334,-4.8337958515,9.4876396755,-0.49391072502187533,0.2041214920084928,0.062025510957374484,10.904212660747548,0.5380153824947118,-0.19750593100000025,-0.20113439150000012,0.11130547750000197
56882.0,-2.5137385945,-5.125935955,9.5354961275,-0.5226894590580098,0.17108066393898816,0.08414232323864662,11.11394563302377,0.5563746891656348,-0.1640652545000001,-0.2921401035000004,0.04785645199999955
56892.0,-2.6681933319999995,-5.29951366,9.4541009325,-0.5722515738268927,0.09833534071586451,0.0785467976567528,11.16172590289482,0.5859277279692365,-0.1544547374999996,-0.17357770499999958,-0.0813951950000007
56902.0,-2.798621777,-5.2958851995,9.182358660999999,-0.6103556020564329,0.016264723299335156,0.05216789134211051,10.963320412914303,0.6127968595487063,-0.13042844500000061,0.003628460499999875,-0.27174227150000085
56912.0,-2.8177447444999997,-5.340211257499999,8.8268675985,-0.6215466532202206,-0.046886525025575665,0.012463396188491507,10.69444403984313,0.6234371857715759,-0.019122967499999532,-0.044326057999999335,-0.35549106249999873
56922.0,-2.6992804125,-5.498196389,8.462942817,-0.6116872882757047,-0.07992735309508033,-0.02457423586808016,10.446898075559591,0.6173763953046559,0.11846433199999984,-0.15798513150000115,-0.36392478149999974
56932.0,-2.5855232724999997,-5.6334300925,8.2402337955,-0.5743826208435779,-0.05035100359078441,-0.04482529117897036,10.311252019237237,0.5783251035697967,0.11375714000000015,-0.13523370349999997,-0.22270902150000005
56942.0,-2.5639486425,-5.7028611745,8.2737725385,-0.5104320117212536,0.021860248881228977,-0.0544176207479312,10.370716958621223,0.513789827185028,0.021574629999999484,-0.06943108199999948,0.03353874299999937
56952.0,-2.684864637,-5.740028377999999,8.5730714965,-0.4320929082454882,0.10046813306180159,-0.056016342342758006,10.660862009394888,0.447141988328572,-0.12091599449999979,-0.037167203499999246,0.2992989580000014
56962.0,-2.796268181,-5.844175001,8.959747706,-0.36361142438498667,0.10659598406555368,-0.05974785628352188,11.056698247558295,0.3835958525488239,-0.11140354399999985,-0.10414662300000099,0.38667620949999915
56972.0,-2.7328191554999997,-5.906447228499999,9.2924873405,-0.31777907822761553,0.047708575103265,-0.07706675845106162,11.344811165157216,0.3304526228610255,0.0634490255000002,-0.06227222749999939,0.3327396344999993
56982.0,-2.6861395014999996,-5.905172364,9.4625346515,-0.3004601760600758,-0.035161403110677766,-0.10131461774901883,11.472836096663556,0.3190255372793738,0.04667965400000007,0.0012748644999991399,0.17004731100000114
56992.0,-2.546002473,-5.832210888,9.419385391499999,-0.31697971743020215,-0.12149585988982926,-0.12582951242253118,11.367569379081504,0.3620365332794354,0.14013702849999943,0.07296147600000058,-0.04314926000000163
57002.0,-2.368894374,-5.7795491775,9.226684719,-0.3550837456597423,-0.15533604875674734,-0.14581527768711824,11.142107527489486,0.41409642558476956,0.17710809900000024,0.05266171049999979,-0.19270067249999911
57012.0,-2.2659245489999997,-5.62509444,8.962101301999999,-0.4081103389938341,-0.1108371341478999,-0.16420057602762653,10.821061004725452,0.4536526736034806,0.10296982500000018,0.15445473750000005,-0.26458341700000076
57022.0,-2.174918837,-5.595184157499999,8.707128402,-0.4741937404620954,-0.009314822217893736,-0.18764907452817034,10.575936966188456,0.5100574914435263,0.09100571199999985,0.029910282500000385,-0.2549728999999985
57032.0,-2.089993248,-5.627448036,8.569443036,-0.5437398751663134,0.12951215714423922,-0.20869949063647394,10.462867538195,0.5966422111164746,0.08492558900000002,-0.03226387850000023,-0.13768536600000125
57042.0,-2.082736327,-5.5867504385,8.582583947,-0.6055594372719525,0.2885901918172624,-0.22415438116288372,10.450374073552942,0.7072706112067455,0.00725692099999975,0.04069759749999946,0.013140911000000699
57052.0,-2.1546190715,-5.4945679284999995,8.765772169,-0.643930500877048,0.41569204926449743,-0.21882589095654506,10.567469980226452,0.7970766213698711,-0.07188274449999987,0.09218251000000066,0.18318822200000007
57062.0,-2.2348374685,-5.5975377535,8.964454898,-0.6583189952304891,0.4292829281497773,-0.18844843532558375,10.80223953774149,0.8081958578579751,-0.08021839699999989,-0.10296982500000063,0.19868272899999972
57072.0,-2.2132628385,-5.686189869499999,8.938173076,-0.6569873090112175,0.33149038483128296,-0.15593993267793735,10.822302230155135,0.7522203547106344,0.021574629999999928,-0.08865211599999867,-0.02628182199999962
57082.0,-2.113921474,-5.8393697425,8.790877193,-0.6252781671609845,0.16601746377895263,-0.13808695975928736,10.763197703762131,0.6615153762864163,0.09934136449999986,-0.1531798730000009,-0.14729588299999996
57092.0,-2.000164334,-5.953126882499999,8.5766018905,-0.5450715613855851,0.002675589743307307,-0.12050102221619251,10.630074178023312,0.558238893455966,0.11375714000000015,-0.1137571399999997,-0.21427530250000082
57102.0,-1.8732662829999998,-5.948321623999999,8.265436886,-0.4312935474480748,-0.13668371504068394,-0.09651845296453841,10.354182904798428,0.4626147141956635,0.12689805100000018,0.004805258500000242,-0.3111650044999994
57112.0,-1.7164579494999999,-6.022557964499999,7.907494160999999,-0.3055216308908594,-0.2352756191565916,-0.056016342342758006,10.08691708275691,0.38966128178353715,0.1568083334999999,-0.07423634049999972,-0.3579427250000009
57122.0,-1.6230986414999997,-6.0847321254999995,7.724305939,-0.17788744802176606,-0.2728455766350215,0.0023387411976724015,9.966108391864978,0.3257209274261996,0.09335930800000014,-0.062174161000000616,-0.18318822199999918
57132.0,-1.6541857219999998,-6.015301043499999,7.556710290499999,-0.06890385353948414,-0.24966411351003287,0.059627428565134276,9.799186061165969,0.26577310030293033,-0.031087080500000086,0.06943108200000037,-0.16759564850000075
57142.0,-1.7762785145,-5.963914197499999,7.4429531505,0.0011763519158441782,-0.18837862215550397,0.10012953918691468,9.701597266262617,0.21333966744799227,-0.12209279250000016,0.051386845999999764,-0.11375713999999881
57152.0,-1.942697365,-6.0560967075,7.4382459585,0.042743113381341125,-0.11590033430793545,0.11904890827853322,9.786617562861638,0.17155903880743795,-0.16641885049999994,-0.09218251000000066,-0.004707192000000582
57162.0,-2.1353980375,-6.145827555,7.480120353999999,0.08484569092720035,-0.058876936986776714,0.11398570811849766,9.913794511925351,0.15381165961374393,-0.1927006725,-0.08973084750000027,0.04187439549999983
57172.0,-2.2348374685,-6.248797379999999,7.5123842325,0.12667948776825244,-0.01570970859720096,0.07881383303230793,10.023865724540656,0.15002035809409436,-0.09943943099999997,-0.10296982499999885,0.03226387850000023
57182.0,-2.3077989445,-6.2679203475,7.475315095499999,0.15332542945844987,-0.0013212142437597075,0.023122121930420878,10.024624542986635,0.15506471374320224,-0.07296147600000014,-0.01912296750000042,-0.037069137000000474
57192.0,-2.3317271705,-6.200940928,7.489632804499999,0.17597456716158025,0.00027750735106709843,-0.03603232240742293,9.99916094162085,0.17962587106569,-0.023928225999999775,0.06697941949999997,0.014317709000000178
57202.0,-2.3174094614999996,-6.089537383999999,7.490907668999999,0.20262225418102972,-0.015444418550897822,-0.08665908802002245,9.928068788483804,0.2209165124888566,0.014317709000000178,0.11140354400000074,0.001274864500000028
57212.0,-2.2001219274999997,-5.9327290505,7.572302863999999,0.2321986036853256,-0.06420542719311541,-0.12956102636329506,9.868007962433731,0.273540834221832,0.11728753399999992,0.156808333499999,0.08139519499999981
