timestamp,ax,ay,az,gx,gy,gz,acc_mag,gyro_mag,dax,day,daz
62942.0,-0.23732092999999999,0.454047895,12.499359957,0.10633593000700652,-0.3915750896604398,0.028063149042816826,12.509855316886163,0.4067258550759169,0.0,0.0,0.0
62952.0,-0.23732092999999999,-0.0032361944999999997,12.763943374,0.09647656506249055,-0.43234423565777536,0.05364269456004572,12.766149856219354,0.4462138549982792,0.0,-0.4572840895,0.26458341700000076
62962.0,0.0020593965,-0.43414039549999994,13.217599003,0.10526953383403799,-0.4115591095957749,0.08828224422437718,13.224727049290108,0.43388515772056013,0.2393803265,-0.43090420099999993,0.453655629
62972.0,-0.005099457999999999,-0.42462794499999995,13.591134301499999,0.1404431542494797,-0.3574678654179666,0.11945906065275189,13.59776696732065,0.4022163864812801,-0.007158854499999999,0.009512450499999991,0.37353529849999845
62982.0,-0.129643913,-0.3527452005,13.973005252499998,0.17748078630605138,-0.3337523315418676,0.15676372808487868,13.978058252384209,0.4092247729066714,-0.124544455,0.07188274449999993,0.3818709509999998
62992.0,-0.19662333249999997,-0.301260288,14.396750598999999,0.21052161437555603,-0.328423841335529,0.19619944253369057,14.401244609609826,0.43666439164123055,-0.06697941949999997,0.051484912500000035,0.4237453465000005
63002.0,-0.20623384949999998,-0.26419115099999996,14.7055620075,0.23423714825165498,-0.3316212845251826,0.22098137258275805,14.709380793268414,0.46224721199782226,-0.009610517000000013,0.03706913700000003,0.30881140850000044
63012.0,-0.14876688049999998,-0.2030957215,14.891103825499998,0.23237139128127304,-0.31083615846318213,0.23057370215171888,14.8932317714674,0.4514197747308956,0.05746696900000001,0.061095429499999965,0.18554181799999903
63022.0,-0.07815900049999999,-0.070215614,14.989268392,0.1932027122080163,-0.2460861885434445,0.22311241959944314,14.989636619652218,0.38427184645234064,0.07060787999999998,0.1328801075,0.09816456650000127
63032.0,-0.014709975,0.057859234999999995,15.058699473999999,0.12045738898489264,-0.14109939804822957,0.20499415663449,15.058817812919019,0.2764807894681225,0.06344902549999999,0.128074849,0.06943108199999948
63042.0,0.04873905049999999,0.1213082605,15.150881984,0.02852740662384732,-0.017994344588061536,0.17648245797391063,15.151446006312563,0.17967656313039093,0.06344902549999999,0.0634490255,0.09218251000000066
63052.0,0.0703136805,0.23741899649999998,15.124600162,-0.08152083870215114,0.09445198313017712,0.14104180218291376,15.126626915936512,0.18830723359162171,0.02157463000000001,0.11611073599999998,-0.02628182199999962
63062.0,0.027262487,0.25654196399999996,15.055169079999999,-0.19450123717150009,0.1642651532099503,0.10213841315596016,15.0573793553154,0.2743100932564279,-0.0430511935,0.019122967499999977,-0.06943108200000125
63072.0,-0.030204481999999998,0.31636252899999995,14.822947607999998,-0.29602354910150624,0.1743915535300214,0.06590014189680189,14.826354014052175,0.34983593907328164,-0.05746696899999999,0.05982056499999999,-0.23222147200000087
63082.0,-0.0242224255,0.40138618449999997,14.593079732,-0.37516201337468513,0.116036469989591,0.03845483940919106,14.598618895618646,0.39457543425938135,0.005982056499999999,0.08502365550000002,-0.22986787599999836
63092.0,-0.0230456275,0.4804277835,14.213562376999999,-0.42472412814356814,0.002256710722828668,0.030461231435057034,14.221698119457304,0.42582104737922566,0.0011767979999999997,0.07904159900000002,-0.37951735500000083
63102.0,0.012846711499999998,0.5115148639999999,13.819727312999998,-0.4415107048892496,-0.15708835932574963,0.048846529775565306,13.8291964878574,0.4711628578724909,0.035892338999999995,0.03108708049999992,-0.393835064000001
63112.0,0.1876012145,0.474445727,13.422263788499999,-0.4260575596920918,-0.33988192787487176,0.08828224422437718,13.431956602506903,0.5521218377423704,0.174754503,-0.03706913699999992,-0.3974635244999991
63122.0,0.355196863,0.463658412,12.986554328999999,-0.3866200999140279,-0.5152142138717181,0.14823779468888637,12.999682198983637,0.6609805077362038,0.16759564849999997,-0.010787314999999964,-0.43570945949999995
63132.0,0.5192621175,0.38589167750000003,12.579578353999999,-0.3455856638703892,-0.6654992797731938,0.2191156156123761,12.596203281062897,0.7812364529747493,0.16406525449999998,-0.07776673449999999,-0.40697597499999993
63142.0,0.678424047,0.28047019,12.068357689499999,-0.31947204760205006,-0.7568951913831289,0.2950583820251534,12.090664995637761,0.872933083770601,0.15916192950000008,-0.10542148750000002,-0.5112206644999997
63152.0,0.873576382,0.23143693999999998,11.5452709785,-0.3266662947787707,-0.7667545563276449,0.35021602237593014,11.580586372001164,0.9040324552373726,0.19515233499999995,-0.04903325000000003,-0.5230867109999995
63162.0,1.083046426,0.17396997099999997,11.068765855,-0.3791588173617521,-0.6860156251303872,0.3853878974621199,11.122986679147603,0.8734430022711681,0.2094700439999999,-0.05746696900000001,-0.4765051234999991
63172.0,1.1788573965,0.25899362649999996,10.6307027995,-0.4772183960558016,-0.5192110178587851,0.4056389527730101,10.69900109688505,0.8135480554993736,0.09581097050000009,0.08502365549999999,-0.4380630555000007
63182.0,1.1106031125,0.279293392,10.233239275,-0.6085840928656588,-0.3124348800580089,0.40483959197559666,10.297117564236707,0.794912100547568,-0.068254284,0.02029976550000001,-0.3974635244999991
63192.0,1.0627466604999998,0.09492837199999998,9.8681376955,-0.7455453152574097,-0.09713455419049243,0.3781936502853993,9.925652796545046,0.8416076139367152,-0.047856452000000216,-0.18436502,-0.365101579500001
63202.0,0.9501663185,-0.0414821295,9.560503084999999,-0.853195478191168,0.1152371091921776,0.31770751972828376,9.607692544944086,0.9176928589853598,-0.11258034199999978,-0.13641050149999998,-0.30763461050000096
63212.0,0.7765886135,-0.116895268,9.2432579575,-0.9296705700258036,0.30522492491802033,0.23164009832468743,9.276560356467568,1.0055380443897608,-0.17357770500000003,-0.0754131385,-0.31724512749999967
63222.0,0.599382448,-0.16484978649999998,8.9798513385,-0.9824301279843402,0.45444359464652756,0.13971011596364208,9.001342390590406,1.0914242317216338,-0.1772061655,-0.04795451849999999,-0.2634066189999995
63232.0,0.607816167,-0.23065240799999998,8.7464530685,-1.0162703168512581,0.564491839972526,0.05524141615487252,8.770580499924495,1.1638333249943138,0.008433719000000006,-0.06580262149999999,-0.23339827000000035
63242.0,0.7981632435,-0.392266,8.6554473565,-1.0311928819558096,0.6572211831309848,-0.02149896572606615,8.701017533551653,1.2230129389665958,0.19034707650000005,-0.16161359200000003,-0.0910057119999994
63252.0,0.9489895204999999,-0.497589421,8.5609112505,-1.0325245681750814,0.7384924397501007,-0.07532491985757128,8.627709880428723,1.2716728789294611,0.15082627699999984,-0.10532342099999997,-0.09453610599999962
63262.0,0.999297635,-0.5060231399999999,8.5142315965,-1.0226669485598174,0.804841131264665,-0.09930748910922535,8.587595406187404,1.305173900920951,0.05030811450000017,-0.00843371899999995,-0.04667965400000007
63272.0,0.990863916,-0.544269075,8.429207941,-1.014139269834573,0.8549373167846583,-0.08438492400467384,8.504680278449605,1.3291038671416266,-0.008433719000000006,-0.038245935000000064,-0.08502365550000057
63282.0,0.9011330685,-0.6377264495,8.417243827999998,-1.0104095012230614,0.8773194191122337,-0.03908664859841301,8.489330332337184,1.3387100094538467,-0.08973084750000004,-0.09345737450000002,-0.01196411300000122
63292.0,0.6581242815,-0.7357929495,8.374094568,-1.0064126972359944,0.8360179476930398,0.02406634505574981,8.432080328616474,1.3085762167283395,-0.24300878699999995,-0.09806649999999995,-0.04314925999999808
63302.0,0.38393034749999994,-0.8244450655,8.247196516999999,-0.9877603635199308,0.7206394668314507,0.09041503657031424,8.297190040476094,1.226036971601654,-0.2741939340000001,-0.088652116,-0.1268980510000013
63312.0,0.2103526425,-1.0219509965,7.9742774475,-0.9488569744929772,0.5655582361454945,0.1546326810681936,8.042246755923445,1.1153909371024615,-0.17357770499999994,-0.19750593100000002,-0.27291906949999944
63322.0,0.10738281749999999,-1.22190859,7.688217466999999,-0.8942316595640587,0.40381508370467606,0.20073031727186783,7.785453069134379,1.001503641064859,-0.102969825,-0.19995759349999997,-0.28605998050000014
63332.0,0.03677493749999999,-1.3343908654999999,7.404511082499999,-0.8185559285268366,0.25646217094655077,0.22231305880202973,7.523877706929006,0.8861319029168084,-0.07060788,-0.1124822754999999,-0.2837063845000003
63342.0,-0.0002941995,-1.4828635465,7.185430521499999,-0.7276923423387598,0.14454816865017037,0.22577753736723846,7.336845109677296,0.775503587701697,-0.037069136999999995,-0.1484726810000001,-0.21908056100000017
63352.0,-0.051779111999999995,-1.638495082,6.9998887035,-0.6410925955133052,0.07846476718190908,0.21645224317383277,7.189282931667427,0.6811813336299531,-0.051484912499999994,-0.15563153549999997,-0.18554181799999903
63362.0,-0.0889463155,-1.723420671,6.7808081425,-0.5830028020191779,0.062477551233641015,0.19007159152993847,6.9969600057214425,0.616378878188642,-0.0371672035,-0.08492558900000002,-0.21908056100000017
63372.0,-0.09247670949999999,-1.7845161004999999,6.5820273469999995,-0.5579555819238072,0.08352796734194462,0.15090116712742974,6.820273722615503,0.5840055778574652,-0.0035303939999999923,-0.06109542949999991,-0.19878079550000027
63382.0,-0.0673716855,-1.874246948,6.461209418999999,-0.5507613347470867,0.12243135636889824,0.10773393873785397,6.727894746669922,0.5743988913905494,0.02510502399999999,-0.08973084750000004,-0.12081792800000013
63392.0,-0.044620257499999996,-1.8886627235,6.337841761999999,-0.5409019698025707,0.17678963592226163,0.05257629838707718,6.613416367556866,0.5714838435668272,0.022751428000000004,-0.014415775500000061,-0.12336765700000019
63402.0,-0.106892485,-1.8275672939999998,6.232518341,-0.521717310664649,0.23141495085118016,-0.011906636157105317,6.495822741450797,0.5708621547354368,-0.0622722275,0.06109542950000013,-0.10532342099999958
63412.0,-0.191818074,-1.812072787,6.165440855,-0.4910728196581325,0.2612583357310312,-0.0779900376253666,6.429079474963904,0.5616857468057589,-0.08492558900000001,0.01549450699999988,-0.06707748599999963
63422.0,-0.1583773975,-1.839531407,6.0972846375,-0.45936542313715156,0.2705836299244369,-0.13901023893359235,6.370701621334323,0.5509591085420344,0.033440676500000016,-0.02745861999999999,-0.06815621750000034
63432.0,-0.084141057,-1.8527703844999999,6.0625690965,-0.42845564208433196,0.276713226257441,-0.19949636949070787,6.339919704932404,0.5476707480408936,0.07423634049999998,-0.013238977499999915,-0.03471554099999974
63442.0,0.010493115499999999,-1.8215852375,6.054135377499999,-0.39541306868557535,0.2649881043425431,-0.24692743724290575,6.322249445572982,0.5362306869191162,0.0946341725,0.03118514699999997,-0.008433719000001005
63452.0,0.12660385149999998,-1.7150850184999997,6.079240401499999,-0.3538445618908264,0.2428730373905229,-0.26930953957048104,6.317808877698632,0.5066763408475609,0.11611073599999998,0.10650021900000017,0.025105024000000142
63462.0,0.2415377895,-1.5785764505,6.0876741205,-0.30614820409232535,0.2239536682989044,-0.25918488457966193,6.293649204653463,0.45941133291209135,0.11493393800000001,0.13650856799999977,0.008433719000001005
63472.0,0.34323275000000003,-1.5223843459999997,6.113955942499999,-0.25578672852602896,0.20876581314804973,-0.22267957794494853,6.309985743601127,0.39824139621987475,0.10169496050000004,0.05619210450000023,0.026281821999998733
63482.0,0.39236406649999994,-1.511597031,6.1223896615,-0.20515996291342944,0.20476726383173074,-0.17231810237865217,6.318427835470665,0.3372147255490973,0.04913131649999991,0.010787314999999742,0.008433719000001005
63492.0,0.365984178,-1.5019865139999997,6.2049616545,-0.15479848734713308,0.21436133872994356,-0.11689342665232022,6.394642839174021,0.2890976105428329,-0.02637988849999995,0.009610517000000263,0.08257199300000018
63502.0,0.2234935535,-1.5067917725,6.336664963999999,-0.09857445082338774,0.20716534622397093,-0.06066939012857489,6.5171844902622516,0.23730819187251723,-0.1424906245,-0.004805258500000242,0.13170330949999887
63512.0,0.030792880999999998,-1.4936508615,6.5185783215,-0.032491049355126436,0.1703947495429544,-0.010040879186723379,6.687585844765637,0.17375516744789432,-0.1927006725,0.013140911000000033,0.18191335750000093
63522.0,-0.1152281375,-1.4732530295,6.693430891,0.03359060678388287,0.09605070472500395,0.039254200206604466,6.854616627149595,0.10906401320389564,-0.1460210185,0.020397832000000005,0.1748525695000005
