timestamp,ax,ay,az,gx,gy,gz,acc_mag,gyro_mag,dax,day,daz
31742.0,-0.07335374199999999,-0.365984178,12.686078573,0.11699465574893589,-0.24715258471641302,0.41283494527898273,12.691568648135716,0.49518162491081635,0.0,0.0,0.0
31752.0,-0.029027683999999998,-0.7382446119999999,13.02126987,0.18360863730980345,-0.3883776464707862,0.44187896936142035,13.042212877458917,0.6162843106366258,0.04432605799999999,-0.3722604339999999,0.3351912969999997
31762.0,-0.08649465299999999,-0.727457297,13.3408685935,0.22810929724790288,-0.3963712544449202,0.42349192569166005,13.360967415310569,0.6232892057201074,-0.05746696899999999,0.010787314999999964,0.3195987235000004
31772.0,-0.304398416,-0.6149750214999999,13.532392468,0.2041267279962488,-0.3246923273947651,0.36140707353971785,13.549778543604148,0.5269799819310282,-0.21790376300000003,0.1124822755,0.19152387449999964
31782.0,-0.3343086985,-0.5179872529999999,13.840125145,0.12338954212824312,-0.207449834892046,0.2897281464895627,13.853849180983042,0.37709788115505516,-0.029910282499999996,0.09698776850000002,0.3077326770000006
31792.0,-0.34744960950000003,-0.556233188,14.248277918,0.017071065413756536,-0.06382669074543264,0.20605880747820654,14.263363566113735,0.2163920050861733,-0.013140911000000033,-0.038245935000000064,0.4081527729999994
31802.0,-0.34391921549999993,-0.519164051,14.530807504499998,-0.10656805879752176,0.061943480482530754,0.1234558646398189,14.54414584881059,0.17445657466580908,0.0035303940000001033,0.03706913700000003,0.28252958649999904
31812.0,-0.33313190049999997,-0.37667342649999996,14.7163493225,-0.23527038316883564,0.1586696276280565,0.06323502412900656,14.724937932473882,0.29073505499790164,0.010787314999999964,0.1424906245,0.1855418180000008
31822.0,-0.305575214,-0.2701732075,14.801372978,-0.35411159726638153,0.21755878191959716,0.04271867877181321,14.80699199052024,0.4177938874910644,0.027556686499999983,0.10650021899999995,0.08502365550000057
31832.0,-0.257718762,-0.204370586,14.8050014385,-0.4473732658466985,0.24074024504458585,0.05843885934452614,14.808654695504783,0.5113842047423418,0.047856451999999994,0.06580262150000002,0.003628460499999875
31842.0,-0.2791953255,-0.2342808685,14.7055620075,-0.49267154125295937,0.22448599372076267,0.09601056215220807,14.710077889377526,0.5498520137110964,-0.02147656349999999,-0.029910282499999996,-0.09943943100000041
31852.0,-0.3343086985,-0.30724234449999993,14.5990617885,-0.47455327828800625,0.15547218443840288,0.1437069199507091,14.606120815212622,0.5196384251666366,-0.05511337300000002,-0.07296147599999994,-0.10650021899999906
31862.0,-0.317539327,-0.437768856,14.459022826499998,-0.3975458610315124,0.037163295762715265,0.19460072093886377,14.469133142407777,0.4441770624032258,0.01676937150000002,-0.13052651150000005,-0.140038962000002
31872.0,-0.23496733399999997,-0.43894565399999996,14.225526489999998,-0.2792352270265728,-0.09979792662903576,0.2484266750703689,14.234236433785417,0.3868433159026464,0.08257199300000001,-0.001176797999999979,-0.2334963365
31882.0,-0.098458766,-0.392266,13.956235881,-0.14893592638968411,-0.20531704254610894,0.29958751143407863,13.962094639038588,0.39254257748261945,0.13650856799999997,0.04667965399999996,-0.2692906089999987
31892.0,0.11101127799999999,-0.289296175,13.6401675515,-0.04421617127002434,-0.22396937626217234,0.34355410062106784,13.64368669435451,0.4124885105776856,0.209470044,0.10296982500000001,-0.3160683295000002
31902.0,0.295376298,-0.20790097999999999,13.3948051685,0.009342747485925645,-0.15202515916571407,0.3654038775267848,13.399674454141767,0.39587741746853405,0.18436502,0.081395195,-0.2453623829999998
31912.0,0.3456844124999999,-0.100223963,13.2116169465,0.015205308443374598,-0.028653070329990905,0.36407219130751317,13.216518637555462,0.3655143777304089,0.050308114499999945,0.10767701699999999,-0.18318822200000007
31922.0,0.3156760635,0.050700380499999996,13.044021297999999,-0.004246386070102204,0.08219453579342095,0.3510153831733436,13.047939052905146,0.3605353973374619,-0.030008348999999934,0.1509243435,-0.16759564850000075
31932.0,0.235555733,0.23859579449999999,12.7818895435,-0.03568849254478005,0.1352211291275127,0.3451528222158946,12.786286198843545,0.3724095768723399,-0.0801203305,0.18789541399999998,-0.2621317544999986
31942.0,0.20201698999999998,0.43374812949999997,12.565162578499999,-0.055939547855670256,0.11949920322554776,0.35687794413079255,12.574269717491754,0.38048805446801964,-0.03353874300000001,0.19515233499999998,-0.21672696500000121
31952.0,0.20799904649999998,0.5043560094999999,12.352064074,-0.059938097171989266,0.04462457831499102,0.38325685044543484,12.364106335512695,0.39047374034081217,0.005982056499999999,0.07060787999999996,-0.21309850449999956
31962.0,0.155337336,0.430119669,12.1570098055,-0.04368384584816607,-0.07928158127184243,0.41150151373045907,12.16560808297881,0.4213399379592555,-0.052661710499999986,-0.07423634049999994,-0.19505426849999985
31972.0,0.271448072,0.30086802199999996,11.864869702,-0.018901915799098588,-0.24715258471641302,0.4320196044169044,11.871787509380898,0.49807893064595543,0.11611073599999999,-0.12925164700000003,-0.2921401034999995
31982.0,0.5922235935,0.1703415105,11.5703760025,0.00028274333882308137,-0.38597956407854594,0.45520106754189305,11.586774609619596,0.5968151436762803,0.3207755215,-0.13052651149999997,-0.29449369950000026
31992.0,0.9310433509999999,0.11287454149999998,11.164576825500001,0.004546582701445229,-0.455525698782764,0.4802500329665157,11.203899235357833,0.661939897445475,0.33881975749999993,-0.05746696900000001,-0.4057991769999987
32002.0,1.2016088244999998,0.140431228,10.629427935,-0.02396511595913414,-0.43793976123966916,0.5076953354541265,10.698052295734595,0.6709099156365713,0.27056547349999993,0.02755668650000001,-0.5351488905000004
32012.0,1.3775401255,0.3080268765,10.107518021999999,-0.08498531726735989,-0.30524063288128833,0.5492638422488755,10.205607180323161,0.6341018187285073,0.1759313010000001,0.1675956485,-0.5219099130000018
32022.0,1.4708994335,0.42658927499999993,9.658667651499998,-0.17877931126953514,-0.05769709441242855,0.603887411848542,9.779334555845205,0.6324326075012077,0.09335930800000014,0.11856239849999994,-0.44885037050000065
32032.0,1.3798937215,0.42178401649999997,9.520982285499999,-0.2885622665492305,0.26738618673478326,0.6558476090096652,9.629699482331459,0.764787317347962,-0.09100571200000007,-0.004805258499999965,-0.13768536599999948
32042.0,0.9956691744999999,0.3319551025,9.621500447999999,-0.3794258527373073,0.5639595145506677,0.681161864480591,9.678575420276967,0.9622867542475749,-0.3842245470000001,-0.08982891399999998,0.10051816250000023
32052.0,0.537208287,0.1560238015,9.895694381999999,-0.41832924176426084,0.7352949965604471,0.6678380209708662,9.911493503614999,1.0778059698926206,-0.4584608874999999,-0.17593130099999998,0.2741939339999995
32062.0,0.155337336,0.045895122,10.127915853999998,-0.41033563379012683,0.7891209506919521,0.6174782907338219,10.129211005595819,1.082758812804808,-0.381870951,-0.1101286795,0.2322214719999991
32072.0,-0.007453054,-0.04873905049999999,10.255990702999998,-0.3879517861332996,0.7683358246299516,0.5258135984190797,10.256109220512425,1.0086260298327752,-0.16279038999999998,-0.09463417249999999,0.12807484900000077
32082.0,-0.026674088000000002,-0.0881617835,10.2727600745,-0.37995817815916555,0.7318305179952383,0.41230087452787245,10.27317300327809,0.9219198096123434,-0.019221034,-0.039422733,0.01676937150000235
32092.0,0.020005566,-0.112188076,10.155374474,-0.4079375513978867,0.7238369100211043,0.2977217544636967,10.156013838816799,0.8826047593517414,0.046679654,-0.024026292500000004,-0.11738560050000046
32102.0,0.17808876399999998,-0.04873905049999999,9.945904429999999,-0.47535263908541964,0.7627402990480578,0.1903386269054936,9.947618108552433,0.9186738747616928,0.15808319799999998,0.0634490255,-0.20947004400000147
32112.0,0.274978466,-0.04511059,9.730452329499998,-0.5758085548424572,0.8248268965292521,0.10746864869155084,9.734441466194443,1.0116542944699165,0.096889702,0.003628460499999993,-0.2154521005000003
32122.0,0.2929246355,-0.0032361944999999997,9.420366056499999,-0.688521917936251,0.8954394274064389,0.05950525551749467,9.424919731939099,1.1311123176178337,0.017946169499999998,0.0418743955,-0.3100862729999996
32132.0,0.308517209,-0.08580818750000001,9.111554647999998,-0.7903112652418124,0.9639191659376882,0.038720129455494204,9.117180157087034,1.2470891318807862,0.01559257350000004,-0.08257199300000001,-0.30881140850000044
32142.0,0.331268637,-0.308517209,8.8398123765,-0.8553282705371051,1.0305348928278077,0.03658908243880912,8.851395631753874,1.339748997636994,0.022751427999999962,-0.2227090215,-0.2717422714999991
32152.0,0.263014353,-0.48680210599999996,8.638677985,-0.8753122904724402,1.0721033996225569,0.04085292180143127,8.656379738020606,1.3846466215443085,-0.068254284,-0.17828489699999994,-0.20113439150000012
32162.0,0.054721107,-0.693918554,8.4842232475,-0.8494657095796562,1.046789144151631,0.04298396881811635,8.512729378557514,1.3487798655231809,-0.208293246,-0.20711644800000006,-0.15445473750000005
32172.0,-0.23732092999999999,-0.8483732915,8.469905538499999,-0.749809154620032,0.8967711136257105,0.04991292594853383,8.515595005439113,1.1700014951965865,-0.292042037,-0.15445473749999994,-0.014317709000000178
32182.0,-0.446790974,-0.9166275755,8.489028505999999,-0.5758085548424572,0.6023305781557631,0.07256206365166425,8.550054576568236,0.8364346180620473,-0.20947004400000002,-0.068254284,0.019122967499999532
32192.0,-0.5102399995,-0.9118223169999998,8.390863939499999,-0.3549109580637949,0.22795047228597143,0.1149299312438266,8.455670431495687,0.4371865678001429,-0.06344902549999998,0.004805258500000131,-0.0981645664999995
32202.0,-0.3894220715,-0.8938761474999999,8.072442014,-0.14600551857558566,-0.12031601731548111,0.17035286164090654,8.13111211251162,0.2545852567342239,0.12081792799999996,0.017946169499999942,-0.31842192549999915
32212.0,-0.07335374199999999,-0.978899803,7.6379093525,-0.019168951174653722,-0.33455169233928106,0.226843933540207,7.700732749082118,0.4046609120241379,0.3160683295,-0.08502365550000013,-0.4345326614999996
32222.0,0.26066075699999997,-1.06500219,7.1769968025,-0.018901915799098588,-0.32389296659735173,0.2686777303812591,7.260265614840812,0.4212501145815084,0.33401449899999996,-0.08610238699999995,-0.46091255000000064
32232.0,0.401876517,-1.144043789,6.831116257,-0.12282231012134497,-0.11924962114251256,0.2721422089464678,6.937902438252877,0.32150765760155625,0.14121576000000002,-0.07904159899999996,-0.3458805455
32242.0,0.33842749149999996,-1.213474871,6.661068945999999,-0.25312335608748565,0.16080241997399358,0.23243945912210082,6.779151416874902,0.37941659666316585,-0.06344902550000003,-0.06943108200000014,-0.17004731100000026
32252.0,0.0607031635,-1.2314210405,6.6587153500000005,-0.35437863264193664,0.4307280607704286,0.16742245382680804,6.771895802902658,0.5823582708725037,-0.27772432799999996,-0.01794616949999983,-0.0023535959999989586
32262.0,-0.28880584249999997,-1.2026875559999999,6.655086889499999,-0.41273371618236704,0.6305752414407874,0.06776589886718383,6.769050722133359,0.7566812226037404,-0.34950900599999996,0.028733484500000017,-0.003628460500001651
32272.0,-0.49709908849999995,-1.1943519034999999,6.8167004815,-0.434583493088084,0.7384924397501007,-0.05160938598147232,6.9383708049991055,0.8584272973025039,-0.208293246,0.008335652500000013,0.16161359200000103
32282.0,-0.6120330265,-1.111681844,6.98429613,-0.4255234889409815,0.7520815733061285,-0.16992001998641193,7.098648700938719,0.8806643774669836,-0.11493393800000007,0.08267005949999984,0.16759564849999986
32292.0,-0.619191881,-1.0566665375,7.169837948,-0.3844890528973428,0.6742747952522213,-0.283165708502064,7.273686751403954,0.8262331086211666,-0.007158854499999978,0.05501530650000008,0.18554181799999991
32302.0,-0.4157038934999999,-0.921432834,7.2907539425,-0.3415888598833222,0.5541001496061517,-0.3681667337326919,7.360498708968273,0.7478346533942823,0.20348798750000008,0.13523370349999997,0.12091599450000068
32312.0,-0.22418001899999998,-0.6532209565,7.283595088,-0.3290643771710109,0.4251325351885348,-0.4052061111185155,7.316263507068847,0.6732109842289911,0.19152387449999994,0.2682118775,-0.007158854500000089
32322.0,-0.014709975,-0.45336142949999997,7.159050633,-0.34691735008966085,0.33053743505969413,-0.38548738122948356,7.173406369011899,0.6149854997121794,0.20947004399999997,0.19985952700000004,-0.12454445500000055
32332.0,0.18161915799999998,-0.4317867995,6.9699784209999995,-0.38635306453847273,0.2934998030031224,-0.3258006114697815,6.9857014356455815,0.5844286639746757,0.196329133,0.021574629999999984,-0.18907221200000013
32342.0,0.236732531,-0.5982056499999999,6.859751675,-0.42738924591136346,0.2924334068301539,-0.24905848425959082,6.889853796242043,0.5746381413834789,0.05511337300000002,-0.16641885049999994,-0.11022674599999949
32352.0,0.167301449,-0.6855829015,6.768844029499999,-0.45243646600673404,0.28603852045084666,-0.17098467083012847,6.805531807681486,0.561918631665884,-0.069431082,-0.08737725150000009,-0.09090764550000063
32362.0,-0.0087279185,-0.6747955864999999,6.693430891,-0.4481726266441119,0.2575268217902673,-0.09211149660325273,6.727365186513534,0.5250364701818052,-0.17602936749999998,0.010787315000000075,-0.0754131384999992
32372.0,-0.153572139,-0.6269391344999999,6.6527332935,-0.4079375513978867,0.20236918143949054,-0.01084023998413678,6.683973171302231,0.4555039431661449,-0.1448442205,0.047856451999999994,-0.04069759750000035
32382.0,-0.304398416,-0.705882667,6.7005897455,-0.3423882206807356,0.13282304673527245,0.061636302534179746,6.744540879313736,0.3723851355720921,-0.150826277,-0.07894353250000008,0.04785645200000044
32392.0,-0.48513497549999995,-0.8447448309999999,6.814346885499999,-0.26671248964351346,0.04355818214202248,0.11626161746309827,6.883623555212628,0.2941931866282676,-0.18073655949999995,-0.13886216399999984,0.11375713999999881
32402.0,-0.6239971395,-0.9274148904999999,6.905254531,-0.20542525295973257,-0.06142860835319242,0.14610500234294932,6.9951419533217,0.2594603634226493,-0.13886216400000007,-0.08267005950000006,0.09090764550000063
32412.0,-0.723338504,-1.013615344,6.998613838999999,-0.17265146026578307,-0.14163346879933986,0.16129285749380398,7.108532220114325,0.2754704196362241,-0.09934136449999997,-0.08620045350000005,0.09335930799999925
32422.0,-0.7927695859999999,-1.122469159,7.041763099,-0.17504954265802328,-0.18986215201969914,0.17275094403314675,7.174597422283069,0.3106973894622835,-0.06943108199999992,-0.10885381500000002,0.043149260000000744
32432.0,-0.8334671834999999,-1.260154525,7.0238169295,-0.20542525295973257,-0.20318599552942387,0.17594838722280035,7.184473622470904,0.33829265185510266,-0.040697597500000016,-0.13768536599999992,-0.017946169500000053
32442.0,-0.858670274,-1.443342747,6.9412449365,-0.25312335608748565,-0.19199494436563624,0.1676894892023632,7.141528841449542,0.35923983193391196,-0.025203090500000025,-0.18318822200000007,-0.08257199299999929
32452.0,-0.8191494744999999,-1.5870101694999998,6.7484461975,-0.30135203930784493,-0.16081812793726152,0.14663907309405957,6.9807688129762795,0.3717237410041593,0.03952079950000009,-0.14366742249999986,-0.19279873900000055
32462.0,-0.7879643275,-1.650459195,6.603601976999999,-0.33279414578252275,-0.12244706433216618,0.12212417842054724,6.852186687942097,0.37504605315291384,0.031185146999999858,-0.0634490255000002,-0.14484422050000045
32472.0,-0.7952212484999999,-1.6576180495000001,6.511419467,-0.3269333301543258,-0.10619281300834298,0.10373713475078696,6.765992751054396,0.3590594783969993,-0.007256920999999861,-0.007158854500000089,-0.09218250999999977
32482.0,-0.7867875294999999,-1.6838998715,6.517401523499999,-0.2813680193725099,-0.12671090369478832,0.10133905235854676,6.777246934584467,0.3247971966838496,0.008433719000000006,-0.026281821999999844,0.005982056499999722
32492.0,-0.8047336989999999,-1.697138849,6.5509402665,-0.21421822173128002,-0.18213557942112027,0.12292353921796063,6.814887744808593,0.30687621658683256,-0.017946169500000053,-0.013238977499999915,0.03353874300000026
32502.0,-0.849059757,-1.663600106,6.6288050675,-0.14920296176523926,-0.26660427922988983,0.15596436728746527,6.886909641236321,0.3430222286770755,-0.04432605800000011,0.033538742999999815,0.07786480100000048
32512.0,-0.8514133529999999,-1.4649173770000001,6.646751237,-0.09111316827111197,-0.38518020328113256,0.18154565813394616,6.859314078365584,0.43545863686391867,-0.002353595999999847,0.19868272899999995,0.017946169500000053
