timestamp,ax,ay,az,gx,gy,gz,acc_mag,gyro_mag,dax,day,daz
121312.0,-2.9315018844999994,-0.5912429285,10.99717731,0.16584991217076114,-0.3735685277676143,-0.054951691499041465,11.396542470719227,0.41240674910107594,0.0,0.0,0.0
121322.0,-2.7890112599999997,-0.8438622324999999,10.62844727,0.041411427162069456,-0.29842686748150243,-0.1436824853411812,11.020643295516697,0.3337935861100994,0.14249062449999972,-0.2526193039999999,-0.3687300399999991
121332.0,-2.3425144854999997,-1.071278446,10.67159653,-0.04572239041449545,-0.11590033430793545,-0.22095693797323013,10.978068323833185,0.25366393696466316,0.4464967744999999,-0.22741621350000008,0.043149259999999856
121342.0,-2.325745114,-0.9252574275,10.784078805499998,-0.07982961465696864,0.04904026132253667,-0.28890435108262136,11.070751886194229,0.3037160494299459,0.016769371499999686,0.14602101850000004,0.1124822754999979
121352.0,-2.4406790519999997,-0.7109821249999999,10.974425882,-0.06517408492797225,0.1129908704448609,-0.3070243593768265,11.265009243513855,0.33358440521228894,-0.11493393799999962,0.21427530250000004,0.19034707650000193
121362.0,-2.4526431649999996,-0.6104639625,11.163596160500001,-0.026003660525463514,0.046642178930296464,-0.2846422570492512,11.446134892576742,0.289608179639632,-0.011964112999999887,0.1005181624999999,0.18917027850000068
121372.0,-2.4250864785,-0.6032070415,11.471230771,0.04754102349507354,-0.12096353446797099,-0.24840224046084097,11.740274211646675,0.28034977911870845,0.02755668649999965,0.007256920999999972,0.3076346104999992
121382.0,-2.3473197439999995,-0.664302471,11.576554192,0.13866989972945346,-0.32267472677945963,-0.206833733666092,11.830799411445607,0.4075886575647456,0.07776673450000038,-0.06109542949999991,0.10532342099999958
121392.0,-2.298286494,-0.7169641814999999,11.520264021,0.2002224264595375,-0.5052012599530267,-0.1732605801747291,11.769139372086807,0.5703828203566043,0.04903324999999947,-0.0526617104999999,-0.056290171000000555
121402.0,-2.206103984,-0.8282696589999999,11.380225058999999,0.21567731698594728,-0.5670208220586659,-0.15593993267793735,11.621637053777414,0.6263757501004822,0.09218251000000022,-0.11130547750000008,-0.1400389620000002
121412.0,-2.136672902,-0.9647782269999999,11.270096379499998,0.1903648068442735,-0.47962171443579776,-0.159137375867591,11.511352679883165,0.540000419482443,0.06943108199999992,-0.136508568,-0.11012867950000071
121422.0,-2.0995056985,-1.0641195915,11.1983117015,0.13840460968315033,-0.27924220834358077,-0.1873820391526152,11.44300920418226,0.3636537852121674,0.037167203500000134,-0.09934136449999997,-0.07178467799999844
121432.0,-2.183352556,-1.0833406255,11.3024583245,0.07951545539160966,-0.03223099529657929,-0.22815118514995075,11.562275704709252,0.24375091382243122,-0.0838468575000002,-0.01922103400000008,0.1041466230000001
121442.0,-2.3149577989999996,-1.082065761,11.577730990000001,0.03341781918793543,0.17960659733498047,-0.2633248055653925,11.856380172678582,0.3204921741190869,-0.13160524299999965,0.001274864500000028,0.27527266550000107
121452.0,-2.3389840915,-1.1072688515,11.906940230499998,0.0009093165402890457,0.3072425255333258,-0.28597394326852293,12.184913481124582,0.4197378855681426,-0.024026292500000324,-0.025203090500000025,0.32920924049999734
121462.0,-2.453819963,-1.0772605025,12.545058946,0.0022410027595607188,0.34907632237437786,-0.2891713864581765,12.828102999262146,0.4532983473187753,-0.11483587149999996,0.030008349000000045,0.638118715500001
121472.0,-2.635831387,-1.082065761,13.135223143,0.014498450096316895,0.2574133753888877,-0.2718507389613848,13.440705354564754,0.37466608487845116,-0.18201142400000014,-0.00480525850000002,0.590164197
121482.0,-2.6788825805000003,-1.0509786804999999,13.4332472365,0.0025080381351158514,0.037049849361335624,-0.2558635230131167,13.738016573869269,0.2585442399313289,-0.043051193500000196,0.031087080500000086,0.2980240935000005
121492.0,-2.623867274,-1.036562905,13.37823193,-0.023071507382113044,-0.18251606119805502,-0.23534543232667138,13.672462532421209,0.2987170560332351,0.05501530650000008,0.014415775499999839,-0.05501530649999964
121502.0,-2.495792425,-0.9875296549999999,13.126789423999998,-0.06677280652279906,-0.31228303641308536,-0.21269629462354098,13.398387784738505,0.3836913033532187,0.12807484900000032,0.04903325000000014,-0.25144250600000184
121512.0,-2.3054453484999997,-0.8845598299999999,12.6240024785,-0.14111510601149754,-0.2747113336054035,-0.19244523931265078,12.863240762923784,0.3638886644153661,0.19034707650000016,0.10296982499999996,-0.5027869454999987
121522.0,-2.0995056985,-0.846313895,12.260077697,-0.2682169634587326,-0.061542054754572056,-0.17699034878624098,12.467304300584825,0.3271900786300114,0.20593964999999992,0.03824593499999995,-0.36392478149999974
121532.0,-1.9941822775,-0.861808402,12.092482048499999,-0.4392871554222088,0.25688104996702943,-0.16047080741611464,12.286073366659814,0.5335840690874111,0.1053234209999998,-0.01549450699999999,-0.16759564850000075
121542.0,-2.049197584,-0.8797545714999999,11.9296916585,-0.604493041098984,0.5667764759633865,-0.13968568135411416,12.136338900641785,0.8403329697316037,-0.05501530649999986,-0.017946169499999942,-0.16279038999999962
121552.0,-2.241996323,-0.793554118,11.959601941,-0.711610878610884,0.8007308808762186,-0.11943462604322395,12.193783425898266,1.0778796853286752,-0.1927987390000001,0.08620045349999994,0.029910282500001273
121562.0,-2.5974873854999996,-0.7541313849999999,12.1727004455,-0.7390561810984948,0.9206384911467329,-0.10637781790905439,12.469574611812128,1.1853672470352452,-0.3554910624999996,0.0394227330000001,0.21309850449999956
121572.0,-2.8991399395,-0.7684490939999999,12.5306431705,-0.7225366397283685,0.8780053335082674,-0.11090869264723166,12.884585544955328,1.1424768266899963,-0.30165255400000035,-0.014317709000000067,0.35794272499999913
121582.0,-3.0954690725,-0.8438622324999999,12.776103619999999,-0.6993534312741279,0.6869511216094562,-0.1383539951348425,13.17280744394379,0.9900196428784421,-0.19632913299999988,-0.07541313849999998,0.24546044949999946
121592.0,-3.1135133085,-0.8642600644999999,12.794049789499999,-0.6703094071916903,0.4050333235225681,-0.16952906623396521,13.19578040880876,0.8013156674067797,-0.018044236000000158,-0.020397832000000005,0.017946169500000053
121602.0,-3.0404537659999997,-0.840233772,12.604879510999998,-0.6172828138575985,0.1433683260758222,-0.18365227054110334,12.993588395113202,0.6597883794677204,0.07305954250000024,0.02402629249999988,-0.18917027850000068
121612.0,-2.890804287,-0.7863952634999999,12.288811181499998,-0.5445392359637268,-0.049551642793371015,-0.17006313698507547,12.648717215225906,0.572625370874087,0.1496494789999998,0.05383850850000016,-0.3160683295000002
121622.0,-2.833337318,-0.8689672564999998,12.039820337999998,-0.4662001324879614,-0.15533604875674734,-0.13968568135411416,12.399200708987616,0.5108658739341614,0.057466969000000034,-0.08257199299999995,-0.24899084349999967
121632.0,-2.7710650904999996,-0.9911581154999999,11.7920062925,-0.4027818487874954,-0.19956967331929162,-0.12023398684063737,12.153707605009629,0.4653143924413215,0.06227222750000028,-0.12219085900000004,-0.24781404549999841
121642.0,-2.6932983559999997,-1.0904994799999999,11.618428587499999,-0.37000631076429386,-0.17958390805470456,-0.13329079497480695,11.976265193838595,0.4323441754697521,0.07776673449999993,-0.09934136449999997,-0.17357770500000136
121652.0,-2.6047443064999998,-1.1790535295,11.491628603,-0.3726714285320892,-0.0921848004318365,-0.1756586625669693,11.841975683008233,0.42218242124657673,0.0885540494999999,-0.08855404950000012,-0.12679998449999808
121662.0,-2.473040997,-1.113250908,11.5119283685,-0.4126412137320114,0.03465176696909542,-0.2348131069048131,11.827077158726945,0.4760364601567817,0.13170330949999975,0.06580262150000005,0.020299765499999012
121672.0,-2.4131223655,-1.0031222285,11.681877613,-0.4680641441290913,0.20039172339698094,-0.2830435354544244,11.970617290737252,0.5825414395455922,0.059918631499999986,0.11012867949999983,0.1699492444999997
121682.0,-2.44185585,-0.9217270335,11.990787088,-0.5322817886269706,0.2995142076054949,-0.30995476719092496,12.271561257892632,0.6849121263095398,-0.028733484500000017,0.08139519500000014,0.3089094750000001
121692.0,-2.5939569915000003,-0.8450390305,12.432478604,-0.568521805215381,0.2997812429810501,-0.3118205241613069,12.72828456924726,0.7143653658575919,-0.1521011415000002,0.076688003,0.44169151600000056
121702.0,-2.7255622345,-0.7541313849999999,12.615666826,-0.5890381505725742,0.15296065564478303,-0.30489331236014144,12.928745225450596,0.680678218343425,-0.13160524299999965,0.09090764550000008,0.18318822200000007
121712.0,-2.684864637,-0.7074517309999999,12.5498642045,-0.6231453748150475,-0.02903355210692567,-0.30009714757566097,12.85332943723526,0.6922509684242989,0.040697597499999905,0.04667965399999996,-0.0658026214999996
121722.0,-2.565223507,-0.6822486405,12.243406391999999,-0.6881623801103403,-0.11723202052720712,-0.30062947299751924,12.527842389174438,0.7600584767442476,0.1196411300000002,0.025203090499999914,-0.3064578125000015
121732.0,-2.4131223655,-0.708628529,11.836332350500001,-0.7795600370495273,-0.081259039314352,-0.31528500272651566,12.100581699012734,0.8448204044524555,0.15210114149999976,-0.02637988849999995,-0.4070740414999978
121742.0,-2.2659245489999997,-0.8067930954999999,11.482018086,-0.8800159528065649,0.04344473574064285,-0.3334050110207208,11.731243262669922,0.9420586094460086,0.1471978165000003,-0.09816456649999994,-0.35431426450000103
121752.0,-2.2946580334999997,-0.9336911465,11.25215021,-0.9604878486282674,0.20012468802142583,-0.3499245523908471,11.521636992899994,1.0416496486267182,-0.028733484500000017,-0.12689805100000007,-0.22986787600000014
121762.0,-2.3784068245,-1.0725533104999998,11.130057417499998,-0.9858021040991932,0.3091082825037077,-0.3677775253094971,11.431770105435966,1.0966376005233298,-0.0837487910000001,-0.13886216399999984,-0.12209279250000193
121772.0,-2.4885355039999997,-1.1551253035,11.060626335499999,-0.9522272052785783,0.32642718467124743,-0.3784362510514265,11.395814071623432,1.0754093887794112,-0.11012867949999983,-0.08257199300000018,-0.06943108199999948
121782.0,-2.6011158459999995,-1.2161226664999998,11.0008057705,-0.8733540310517025,0.27580041905864794,-0.3800349726462533,11.369366103022342,0.9915844468029047,-0.11258034199999978,-0.060997362999999805,-0.05982056499999899
121792.0,-2.623867274,-1.32389775,10.8858718325,-0.7782266055010036,0.198525966426599,-0.39442346699969455,11.275619285770523,0.8947732004118636,-0.02275142800000074,-0.1077750835000002,-0.11493393800000007
121802.0,-2.5017744815,-1.3023231199999998,10.687091036999998,-0.7068147138264036,0.1734787463312284,-0.42906476199327803,11.053001216787088,0.8448541205998251,0.12209279250000016,0.02157463000000015,-0.19878079550000116
121812.0,-2.32221472,-1.185035586,10.529105905499998,-0.6868306938910685,0.22703766508717838,-0.4700991980369167,10.847076182783358,0.8627141817740547,0.1795597615000002,0.11728753399999992,-0.15798513150000026
121822.0,-2.1438317565,-0.989883251,10.524300647,-0.7140089610031243,0.3344207926453815,-0.49035025334780685,10.785953252227308,0.92848771338375,0.17838296349999982,0.19515233499999995,-0.004805258499997578
121832.0,-2.0408619315,-0.8989756055,10.5722551655,-0.7720987544972515,0.4583269522322149,-0.46263791548464095,10.804899529712038,1.010066296181915,0.10296982500000018,0.09090764549999997,0.04795451849999921
121842.0,-2.1114698114999997,-0.9300626859999999,10.5842192785,-0.8419119245770247,0.5702409545285954,-0.4037505065223522,10.832775226142951,1.0940771940241372,-0.07060787999999985,-0.031087080499999864,0.01196411300000122
121852.0,-2.2946580334999997,-1.0856942215,10.438100193499999,-0.9247819027909675,0.6938800787398737,-0.3475264699986069,10.742351841326427,1.2072554736887418,-0.18318822200000007,-0.1556315355000002,-0.14611908500000226
121862.0,-2.5029512795,-1.3562596949999999,10.3423872895,-1.0303010187080406,0.8729421333482319,-0.323810936122508,10.727030358577501,1.388669031727115,-0.2082932460000002,-0.2705654734999998,-0.0957129039999991
121872.0,-2.8489298914999996,-1.553765626,10.256186836000001,-1.1153020439386685,1.0226948738278494,-0.32674308926585843,10.757321114578717,1.5480841387180895,-0.3459786119999997,-0.19750593100000002,-0.08620045349999828
121882.0,-3.188926447,-1.6974330484999998,10.318459063499999,-1.1251614088831845,1.0781178042249293,-0.34166390904115795,10.93257189702594,1.5953245508573046,-0.3399965555000004,-0.14366742249999986,0.06227222749999761
121892.0,-3.5000914515,-1.7883406939999997,10.417800427999998,-1.036961195133651,0.9813916570794035,-0.369643282279879,11.134602299333224,1.4748065164396005,-0.31116500449999984,-0.09090764549999997,0.09934136449999897
121902.0,-3.676120819,-1.8255078975,10.598536987500001,-0.8459087285640917,0.684553039217216,-0.39762091018934814,11.365532527564456,1.1585667131340565,-0.17602936749999998,-0.037167203500000356,0.18073655950000322
121912.0,-3.6724923584999996,-1.7931459525,10.79123766,-0.5717192484050345,0.23316551609093047,-0.40321818110049396,11.539210664720976,0.7374374268104097,0.003628460500000319,0.032361945000000114,0.19270067249999911
121922.0,-3.4941093949999997,-1.6901761275,10.9360818805,-0.285005285533666,-0.2701822041964782,-0.3741724116888044,11.604455295411267,0.5424310370135637,0.17838296349999982,0.10296982499999996,0.14484422049999957
121932.0,-3.1505824455,-1.6183914495,10.8990127435,-0.08888787347481922,-0.7138414093949328,-0.3118205241613069,11.46009770519793,0.7840297514163934,0.34352694949999973,0.07178467799999999,-0.037069136999999586
121942.0,-2.658582815,-1.495121859,10.578237222,-0.04625471583635372,-0.9560564576574538,-0.23747822467260846,11.009203181083508,0.9861943805149543,0.49199963050000006,0.12326959050000008,-0.3207755214999999
121952.0,-2.1868829499999998,-1.5358194564999998,10.1460581565,-0.1555036003649388,-0.9328732492032131,-0.15007737172048843,10.492077704394152,0.9575787624566182,0.47169986500000016,-0.040697597499999905,-0.43217906549999974
121962.0,-1.9271047914999997,-1.5501371654999998,9.7630104075,-0.35028758087526196,-0.6738733695242627,-0.05415233070162806,10.071396642285515,0.7614060561814866,0.2597781585000001,-0.014317708999999956,-0.38304774900000105
121972.0,-2.1043109569999996,-1.6698763619999997,9.51637316,-0.5509341223430341,-0.31201600103753024,0.03617893006459046,9.888274358475549,0.6341855462291456,-0.1772061654999999,-0.11973919649999987,-0.24663724749999894
121982.0,-2.6561311524999995,-2.0278190869999997,9.551088701,-0.6639145208123829,-0.06207438017643033,0.09666680595095793,10.118813088660762,0.6737805213810979,-0.5518201954999999,-0.357942725,0.03471554099999885
121992.0,-3.1637233565,-2.501872548,9.746241035999999,-0.6639145208123829,-0.02077290875723651,0.0838752878630915,10.547877798624231,0.6695140540704795,-0.5075922040000003,-0.47405346100000045,0.1951523349999995
122002.0,-3.560010083,-2.7616507065,9.856369715499998,-0.5690541306372392,-0.16786053146905863,0.0026057765732275338,10.83736178155916,0.5933014003792073,-0.3962867265000001,-0.2597781585000001,0.11012867949999894
122012.0,-3.6473873344999994,-2.7963662475,9.715055888999999,-0.42889546505583453,-0.4164704661108869,-0.10477909631422758,10.747344299147665,0.6069412064710273,-0.08737725149999953,-0.03471554099999974,-0.14131382649999935
122022.0,-3.3025855205,-2.7520401894999997,9.3272028815,-0.3164473920083439,-0.581409316412107,-0.20257163963272187,10.270224433648048,0.6922506874703451,0.3448018139999993,0.044326058000000224,-0.3878530074999986
122032.0,-2.8117626879999995,-2.689767962,8.982499134,-0.2794097599517722,-0.5470368021233307,-0.27638161369956205,9.789083296986565,0.6735769245043961,0.4908228325000006,0.06227222749999983,-0.34470374750000055
122042.0,-2.3976278585,-2.561693113,8.834026453,-0.2943305797270718,-0.36077875500899986,-0.30196115921679095,9.505309796390156,0.5549525582460777,0.4141348294999996,0.12807484899999988,-0.14847268099999944
122052.0,-2.2574908299999996,-2.4683338049999994,9.054283812,-0.31857843902502897,-0.15507075871044418,-0.2705190527421131,9.652408609703855,0.44577990075276724,0.14013702850000032,0.09335930800000058,0.22025735899999965
122062.0,-2.2611192905,-2.525800774,9.31043351,-0.3337680395051356,-0.08419119245770247,-0.20310396505458014,9.908405630571506,0.3996754704800431,-0.003628460500000319,-0.05746696900000048,0.25614969799999976
122072.0,-2.3664427115,-2.6586808815,9.457729393,-0.326573792328415,-0.1404152289814478,-0.1282275948147714,10.10530951567943,0.37790103788909646,-0.10532342100000003,-0.13288010750000012,0.14729588299999996
122082.0,-2.544825675,-2.817842811,9.3811394565,-0.27594528138656343,-0.2755106944028169,-0.0645440210680023,10.120383062213836,0.39524406599651657,-0.17838296349999982,-0.15916192949999974,-0.07658993649999957
122092.0,-2.6429902415,-2.9674922899999996,9.195499572,-0.19733914253524285,-0.3954183046733313,-0.03389953006148586,10.017415848736931,0.4432240415248996,-0.09816456650000038,-0.1496494789999998,-0.18563988450000046
122102.0,-2.7135981215,-3.0548695415,8.951313987,-0.10940596416126455,-0.4449804194422143,-0.044025930381556964,9.839810200123507,0.46034283010272525,-0.07060787999999985,-0.08737725150000042,-0.24418558499999854
122112.0,-2.7232086384999996,-3.0046594934999997,8.824415936,-0.052649602215660944,-0.3975510970192684,-0.10371270014125905,9.711547794878602,0.41421634386547546,-0.009610516999999597,0.050210048000000285,-0.1268980510000013
122122.0,-2.6441670394999996,-2.9124769834999995,8.8196106775,-0.03079982530994393,-0.301624310671156,-0.1943109962830327,9.65710484642615,0.36011472797356936,0.07904159899999996,0.09218251000000022,-0.004805258499999354
122132.0,-2.3748764304999996,-2.82627653,8.980047471499999,-0.030267499888085664,-0.19317478693998438,-0.27584754294845176,9.709229097851527,0.33811904236449264,0.269290609,0.08620045349999961,0.16043679399999888
122142.0,-2.0552777069999997,-2.767632763,9.215897404,-0.03746174706480629,-0.10897137717751795,-0.3174160497432007,9.839548898439203,0.3376849007161713,0.31959872349999996,0.05864376699999996,0.23584993250000075
122152.0,-1.7535270864999999,-2.689767962,9.4278191105,-0.05637937082717283,-0.062341415551985455,-0.2952992374619286,9.95959246720466,0.30702886703613014,0.3017506204999998,0.07786480100000004,0.21192170650000008
122162.0,-1.5764189874999999,-2.7388992784999995,9.6288554355,-0.09848194837303204,-0.03169866987472102,-0.21642780856430482,10.134175994113988,0.23988433910349893,0.17710809900000002,-0.04913131649999958,0.20103632500000046
122172.0,-1.6098596639999998,-2.862168869,9.780956577,-0.15230615717528517,-0.03889291705144164,-0.10477909631422758,10.31749825944286,0.18891395801977992,-0.03344067649999993,-0.12326959050000053,0.15210114149999931
122182.0,-1.906805026,-2.9807312675,9.806061601,-0.187746812966282,-0.0743318275131865,-0.0013927727430914749,10.4249464468091,0.2019307459906987,-0.2969453620000002,-0.11856239849999994,0.025105024000000142
122192.0,-2.1893346124999997,-3.0609496645,9.722312809999998,-0.1968050717841326,-0.10630800473897462,0.062025510957374484,10.425256124891284,0.23212236462922484,-0.2825295864999997,-0.08021839699999989,-0.08374879100000143
122202.0,-2.4443075125,-3.0561444059999996,9.613360928499999,-0.19200890699965217,-0.1278907462691365,0.06895446808779197,10.379372148044379,0.24078659019502738,-0.2549729000000003,0.004805258500000242,-0.10895188149999946
122212.0,-2.5388436185,-3.1423448594999996,9.484011214999999,-0.16563000068500988,-0.17665350024060605,0.04843637740134663,10.308565703407531,0.2469531107921904,-0.09453610600000006,-0.08620045350000005,-0.1293497134999999
122222.0,-2.5149153925,-3.241686224,9.4074212785,-0.13285446266180836,-0.1987703125218782,0.0071349059821528196,10.263181968448157,0.23918790160160092,0.02392822600000022,-0.0993413645000003,-0.07658993649999957
122232.0,-2.4250864785,-3.3182761605,9.334361736,-0.11127172113164649,-0.1817167004006416,-0.041095522567458485,10.199132812354543,0.21700506239069156,0.08982891399999993,-0.07658993650000001,-0.07305954249999935
122242.0,-2.2167932324999997,-3.3338687339999997,9.3379901965,-0.09661619140265011,-0.12895714244210502,-0.07466867605882141,10.160064659298712,0.17759516945109766,0.2082932460000002,-0.015592573499999762,0.003628460499999875
122252.0,-2.000164334,-3.3302402735,9.4852860795,-0.10061299538971712,-0.03809355625402824,-0.09252164897747141,10.249966324442413,0.14189555806606663,0.21662889849999978,0.003628460499999875,0.14729588299999996
122262.0,-1.943874163,-3.233252505,9.748594632,-0.12352916846840266,0.03811450020505217,-0.0839957155814791,10.45311751688112,0.15416695762847712,0.05629017099999989,0.09698776850000002,0.26330855249999985
122272.0,-1.9116102844999998,-3.1805907945,10.035929477,-0.16216552211980112,0.058899626267052634,-0.05015378138530906,10.700013651822216,0.17967254750248174,0.03226387850000023,0.05266171049999979,0.28733484500000017
122282.0,-1.9785897039999998,-3.1602910289999997,10.2274533515,-0.21332635848351092,0.022926645054197514,-0.00032637657012293966,10.885911016624252,0.2145550577333056,-0.06697941949999997,0.020299765500000344,0.19152387449999964
122292.0,-2.0971521025,-3.1207702295,10.3076717485,-0.24770061810153923,-0.04315501108481179,0.054565973734350716,10.972025822115928,0.25728466079265716,-0.11856239850000017,0.03952079949999954,0.08021839700000122
122302.0,-2.2360142665,-3.1902013114999996,10.228630149499999,-0.2546278299027047,-0.12602498929875455,0.10439337854953683,10.945410862235745,0.3026807016869408,-0.13886216399999984,-0.06943108199999948,-0.07904159900000174
122312.0,-2.368894374,-3.321904621,10.034752679,-0.24450317491188564,-0.18917798295291738,0.13716891657273836,10.83249612023414,0.33820914158234294,-0.13288010750000012,-0.1317033095000002,-0.1938774704999986
122322.0,-2.50657974,-3.4594919204999997,9.875492683,-0.22744956279064904,-0.2291460228235875,0.13770124199459663,10.759943404728938,0.35100261457199994,-0.13768536599999992,-0.13758729949999982,-0.15925999600000118
122332.0,-2.5939569915000003,-3.5325514629999994,9.742612575499999,-0.20186827194416815,-0.25792475685972205,0.10812489249030072,10.682978634668604,0.3449158908993763,-0.08737725150000042,-0.0730595424999998,-0.13288010750000012
122342.0,-2.5556129899999998,-3.5074464389999997,9.660040582499999,-0.17335657328358878,-0.2763100552002303,0.05882806776772087,10.590076597110023,0.33145209256039726,0.0383440015000005,0.025105023999999698,-0.08257199300000018
122352.0,-2.4502895689999997,-3.476261292,9.6253250415,-0.15577063574049393,-0.285637094722888,0.013796827737015174,10.523079097713495,0.32564304582830356,0.10532342100000003,0.03118514699999997,-0.03471554099999885
122362.0,-2.325745114,-3.40683021,9.548735104999999,-0.15870104355459239,-0.28430366317436434,-0.019245745661741472,10.401630858693403,0.3261671241032049,0.12454445499999967,0.06943108199999992,-0.07658993650000134
122372.0,-2.153344207,-3.404476614,9.4852860795,-0.1850816951984867,-0.25019643893189114,-0.04216017341117503,10.305241593434374,0.31405568323755173,0.1724009070000001,0.002353595999999847,-0.06344902549999887
122382.0,-2.0385083355,-3.358973758,9.42419065,-0.23464380996736967,-0.17425541784836585,-0.04322656958414356,10.21046474693405,0.2954508495901213,0.11483587149999996,0.04550285600000015,-0.06109542949999991
122392.0,-2.0887183835,-3.348186443,9.476852360499999,-0.2924665680859418,-0.07086734894797775,-0.026439992838462097,10.265662550725805,0.30208930437236803,-0.05021004799999984,0.010787314999999964,0.052661710499998904
122402.0,-2.1928650065,-3.4702792355,9.5786453875,-0.3500222908289588,-0.014910347799787557,-0.0077876591223986985,10.421225569411197,0.3504262692539895,-0.1041466230000001,-0.12209279250000016,0.10179302700000115
122412.0,-2.3054453484999997,-3.579231117,9.689950864999998,-0.3905244014507392,-0.04502076805519373,-0.0013927727430914749,10.584003090038077,0.3931133646935087,-0.11258034199999978,-0.1089518814999999,0.11130547749999842
122422.0,-2.3868405435,-3.6666083685,9.598945152999999,-0.405979291977149,-0.12282754610910093,0.006602580560294549,10.548970222649782,0.42420441495522615,-0.08139519500000025,-0.08737725149999997,-0.0910057119999994
122432.0,-2.3544785984999996,-3.7672245975,9.408598076499999,-0.41210714298090106,-0.19850327714632307,0.010864674593664702,10.404675314680562,0.45755206205167187,0.032361945000000336,-0.10061622899999989,-0.19034707650000016
122442.0,-2.311427405,-3.8881405919999996,9.074681643999998,-0.41210714298090106,-0.2174226462379416,0.0004729842272904633,10.139535534317814,0.4659454132267741,0.04305119349999975,-0.12091599449999979,-0.3339164325000006
122452.0,-2.252783638,-3.9622788659999997,8.754984854,-0.4113077821834877,-0.16093157433864116,-0.025905922087351832,9.870382349501977,0.44242985896411746,0.05864376699999996,-0.07413827400000006,-0.3196967899999983
122462.0,-2.2503319755,-3.93835064,8.600628183,-0.4081103389938341,-0.035428438486232894,-0.05734977389128167,9.723446143511056,0.41364020550789804,0.0024516624999999515,0.023928225999999775,-0.1543566710000004
122472.0,-2.3162326635,-3.9168740764999996,8.619751150499999,-0.39398888001594795,0.09860237609141964,-0.08612676259816418,9.747150669768478,0.41517163364412957,-0.06590068800000015,0.021476563500000267,0.019122967499999532
122482.0,-2.3784068245,-3.8833353335,8.902280737,-0.37000631076429386,0.20172340961625262,-0.10531316706533785,9.999385713912579,0.4343821671638252,-0.06217416099999973,0.033538742999999815,0.2825295865000008
122492.0,-2.3988046565,-3.9132456159999998,9.236197169499999,-0.3606810165708882,0.25714808534258454,-0.11463846125874354,10.313830189850378,0.4575564558715557,-0.020397832000000005,-0.02991028249999994,0.3339164324999988
122502.0,-2.3281967765,-3.9695357869999994,9.495975327999998,-0.3891909699022155,0.24489063800582836,-0.12343143003029097,10.552310743356802,0.476105401729125,0.07060787999999985,-0.05629017099999967,0.25977815849999963
122512.0,-2.264747751,-3.993464013,9.619342985,-0.4371543630762717,0.22437254731938305,-0.1298263164095982,10.658733351663054,0.5082340500002874,0.0634490255000002,-0.023928226000000663,0.12336765700000107
122522.0,-2.2275805474999997,-3.9335453815,9.6480764695,-0.4931113642244619,0.1982589310510439,-0.13115974795812188,10.654589336301983,0.5474196751608865,0.037167203500000134,0.059918631499999986,0.028733484500000017
122532.0,-2.2144396365,-3.8353808149999997,9.588157837999999,-0.5386766750062779,0.15828914585112172,-0.11037462189612139,10.561565207211151,0.5721980173408578,0.01314091099999981,0.09816456650000038,-0.05991863150000043
122542.0,-2.2503319755,-3.8079221949999997,9.460082988999998,-0.5719845384513377,0.11352494119597117,-0.06054721708093529,10.443056813112648,0.5862765473709352,-0.035892339000000106,0.02745861999999999,-0.12807484900000077
122552.0,-2.359283857,-3.866565962,9.326026083499999,-0.5770477386113732,0.0740874814179073,-0.000593411945678072,10.36780184834375,0.581784667791345,-0.1089518814999999,-0.0586437670000004,-0.1340569054999996
122562.0,-2.4801998515,-4.05210778,9.152448378499999,-0.5429405143689,0.02745751979237479,0.05003509899617344,10.312045388051025,0.5459320733093735,-0.12091599450000023,-0.18554181799999991,-0.17357770499999958
122572.0,-2.5735591595,-4.3645476489999995,8.962101301999999,-0.4915126426296351,-0.03942524247329991,0.07428295829413066,10.295229122032586,0.498655176952745,-0.0933593079999997,-0.3124398689999994,-0.19034707650000016
122582.0,-2.694475154,-4.65423609,8.7274281675,-0.44461564562854744,-0.1153662635568252,0.06495766410072495,10.251346855699216,0.4639094148971063,-0.12091599450000023,-0.2896884410000009,-0.2346731344999995
122592.0,-2.7148729859999996,-4.793098253999999,8.465296412999999,-0.40944202521310574,-0.16519541370126328,0.019924678740767265,10.099780669032425,0.4419607330311866,-0.02039783199999956,-0.13886216399999896,-0.26213175450000037
122602.0,-2.680157445,-4.824185334499999,8.29054191,-0.3897250406533258,-0.15986692349492462,-0.04056145181634822,9.95937213046386,0.4231882227962145,0.03471554099999974,-0.031087080499999864,-0.17475450299999906
122612.0,-2.6477955,-4.815849682,8.257003166999999,-0.3772005579410145,-0.11909777749758907,-0.09252164897747141,9.918736334296206,0.40623244213798126,0.03236194499999989,0.008335652499999568,-0.03353874300000115
122622.0,-2.543648877,-4.7871161975,8.385078016,-0.3652101459798135,-0.0695356627287061,-0.131425038004425,9.984796664541383,0.39431738451681486,0.1041466230000001,0.028733484500000017,0.12807484900000077
122632.0,-2.48500511,-4.7524006565,8.56708944,-0.36441078518240005,-0.03462907768881949,-0.14927801092307502,10.107204552673664,0.39532052555360864,0.05864376699999996,0.03471554099999974,0.1820114240000006
122642.0,-2.4203792865,-4.7176851155,8.630538465499999,-0.3785339894895382,-0.03276332071843755,-0.1420837637463544,10.12921433004572,0.4056466594262732,0.06462582350000012,0.03471554099999974,0.06344902549999887
122652.0,-2.3389840915,-4.7990803105,8.5742482945,-0.40864266441569236,-0.048485246620402475,-0.11650421822912549,10.100482771761705,0.42768315279629276,0.08139519499999981,-0.08139519499999981,-0.05629017099999878
122662.0,-2.288675977,-4.894891281,8.395865331,-0.43182587286993307,-0.0650065333197808,-0.08905891574151464,9.98441550802021,0.4456802938510851,0.050308114499999945,-0.09581097049999965,-0.1783829635000007
122672.0,-2.289852775,-4.9714812175,8.228269682499999,-0.41956842553317686,-0.08019438847063545,-0.07360402521510487,9.882483149243368,0.4334585979934346,-0.0011767979999999234,-0.07658993650000046,-0.16759564850000075
122682.0,-2.3174094614999996,-5.0013914999999995,8.223464424,-0.3596146203979196,-0.0844582278332576,-0.056016342342758006,9.899983367729241,0.37362240037521216,-0.02755668649999965,-0.029910282499999497,-0.004805258499999354
122692.0,-2.3976278585,-4.954711846,8.4677480755,-0.27168144202394134,-0.09857968681114372,-0.044558255803415235,10.099531983952621,0.29242810869038216,-0.08021839700000033,0.04667965399999918,0.24428365149999998
122702.0,-2.451466367,-4.854193683499999,8.789700394999999,-0.1912095462022388,-0.16119860971419628,-0.040029126394489946,10.335942951628875,0.25327537048154114,-0.05383850850000016,0.10051816250000112,0.32195231949999936
122712.0,-2.4670589405,-4.8206549405,9.0459481595,-0.14191446680891093,-0.2568583606867535,-0.032035518420355916,10.54297263468086,0.29519859041805196,-0.015592573499999762,0.03353874299999937,0.2562477645000012
122722.0,-2.3425144854999997,-4.894891281,9.170394547999999,-0.1323221372399501,-0.3751672493624411,-0.022975514273253353,10.65567787302034,0.39848147667620476,0.12454445500000011,-0.07423634049999972,0.12444638849999912
122732.0,-2.1581494654999998,-5.0624869294999995,9.086645757,-0.1525731925508403,-0.4636327531582777,-0.010718066936497177,10.623253463040518,0.4882097764743507,0.18436502,-0.16759564849999986,-0.08374879099999966
122742.0,-2.0719490119999997,-5.0696457839999995,8.901103939,-0.1968050717841326,-0.4705617102886952,0.001806415775814131,10.451025424159969,0.5100625673461391,0.08620045350000005,-0.007158854500000089,-0.18554181799999903
122752.0,-2.0157569075,-5.0181608715,8.698792749499999,-0.24290445331705884,-0.4178021523301586,0.0036704274169440747,10.24276377454549,0.48329564861520874,0.05619210449999956,0.051484912499999425,-0.20231118950000138
122762.0,-1.93191005,-5.0385587035,8.5969997225,-0.27194847739949646,-0.33733025650845605,0.0034051373706409367,10.150258838008599,0.43331197915183245,0.0838468575000002,-0.02039783199999956,-0.10179302699999937
122772.0,-1.8516916529999998,-5.036107040999999,8.5599305855,-0.2839388893606975,-0.25792475685972205,-0.0021921335405048776,10.102650530171674,0.38360302207098496,0.08021839700000011,0.0024516625000003955,-0.037069136999999586
122782.0,-1.7667660639999998,-4.953535048,8.5873892055,-0.2780763284032486,-0.2158239246431148,-0.004855505979048225,10.069867186979396,0.3520369111398702,0.08492558900000002,0.08257199299999929,0.0274586199999991
122792.0,-1.6566373845,-4.9283319575,8.626910005,-0.25942399468718513,-0.2190213678327684,0.007401941357707951,10.072560724136036,0.3395967569377783,0.11012867949999983,0.025203090499999803,0.03952079949999998
122802.0,-1.5297393334999998,-4.9965862415,8.697517885,-0.237308927735165,-0.24273690170886736,0.03724532623755899,10.146565618823887,0.3415024816316512,0.12689805100000018,-0.068254284,0.07060788000000073
122812.0,-1.4578565889999997,-5.057681670999999,8.731056628,-0.21972124486281813,-0.27737645137319883,0.07987848387602448,10.194941861560702,0.3627612071415401,0.0718827445000001,-0.06109542949999902,0.03353874299999937
122822.0,-1.3944075635,-5.115148639999999,8.7083052,-0.2109282760912707,-0.3050887892363648,0.13477083418049815,10.195278197223796,0.39463031398798254,0.06344902549999976,-0.057466969000000034,-0.022751427999999407
122832.0,-1.3729310000000001,-5.218118465,8.75145446,-0.20986187991830219,-0.3069528008774947,0.1904607999531332,10.281131018083022,0.41777667111528644,0.021476563499999823,-0.10296982500000063,0.043149259999999856
122842.0,-1.501005849,-5.275585434,8.822062339999999,-0.20693147210420368,-0.2883004671614313,0.24934995424467388,10.388147292034871,0.43372017844980804,-0.12807484899999988,-0.057466969000000034,0.07060787999999896
122852.0,-1.642221609,-5.267151715,8.9333678175,-0.19067722078038052,-0.26431964323902923,0.28319014311159196,10.499754262107219,0.43176305247450436,-0.1412157599999999,0.008433719000000117,0.11130547750000197
122862.0,-1.884053598,-5.315008167,9.092627813499998,-0.16029976514941918,-0.25019643893189114,0.2914507864612811,10.699292048086509,0.41621849272954914,-0.24183198900000002,-0.04785645200000044,0.15925999599999763
122872.0,-2.1006824965,-5.429942104999999,9.237472034,-0.11979765452763878,-0.25899115303269055,0.2725314173696626,10.919158749358184,0.394590000928867,-0.21662889850000022,-0.11493393799999918,0.14484422050000134
122882.0,-2.188059748,-5.682561409,9.336813398499999,-0.08249298709551198,-0.28377133775250607,0.2275001773389569,11.146981388083635,0.37294449417982295,-0.08737725149999997,-0.25261930400000043,0.09934136449999897
122892.0,-2.2156164345,-5.877713743999999,9.351131107499999,-0.06410768875500372,-0.3176115266194241,0.15955101890031365,11.264995695999495,0.3611694965402779,-0.02755668649999965,-0.1951523349999995,0.014317709000000178
122902.0,-2.1701135784999996,-5.8717316875,9.217074202,-0.06890385353948414,-0.3434581075122081,0.07827976228119768,11.141861729475716,0.35894140723975965,0.04550285600000015,0.005982056499999722,-0.1340569054999996
122912.0,-2.105487755,-5.793866886499999,9.088999352999998,-0.08995426964778774,-0.32800496231505033,0.00020769418098732522,10.982344076915934,0.3401162581648183,0.06462582349999968,0.07786480100000048,-0.12807484900000077
122922.0,-1.9571131405,-5.71727695,8.999170439,-0.11473619969685524,-0.271780925791305,-0.06427698569244716,10.839862368032655,0.30192846509490046,0.1483746145,0.07658993649999957,-0.08982891399999815
122932.0,-1.8194277744999998,-5.60351981,9.106945522499998,-0.12912469405029647,-0.1894432729992205,-0.11090869264723166,10.846483690001438,0.25468152348169654,0.13768536600000014,0.1137571399999997,0.1077750834999982
122942.0,-1.79069429,-5.4563219935000005,9.2805232275,-0.12113108607616245,-0.13748307583809732,-0.13968568135411416,10.91357627513353,0.2304049168990493,0.028733484499999795,0.1471978164999994,0.17357770500000136
122952.0,-1.7930478859999999,-5.291079941,9.4170317955,-0.10194468160898879,-0.1659947744986767,-0.1476792893282482,10.949476494380887,0.24445072257148487,-0.002353595999999847,0.1652420525000009,0.136508568
122962.0,-1.7511734905,-5.208507948,9.4541009325,-0.07929554390585838,-0.23500858378103648,-0.14021975210522444,10.935044036495988,0.2849182279436417,0.04187439549999983,0.08257199299999929,0.037069136999999586
122972.0,-1.6925297234999999,-5.146235720499999,9.326026083499999,-0.06037792014349184,-0.31281536183494363,-0.13488951656963374,10.785321574529128,0.34596838803736113,0.05864376700000018,0.062272227500001165,-0.12807484900000077
122982.0,-1.685370869,-5.058858469,8.999170439,-0.0585121631731099,-0.36157811580641325,-0.12769526939291312,10.460286447589201,0.3879026796693229,0.007158854499999867,0.08737725149999953,-0.3268556444999984
122992.0,-1.6733086895,-5.043265895499999,8.5981765205,-0.0747664144969331,-0.35278514703486585,-0.11010933184981826,10.107577966097868,0.3770562844795887,0.012062179499999992,0.015592573500000206,-0.4009939185000011
123002.0,-1.619470181,-5.1893849805,8.24739265,-0.0926193874155831,-0.29229727114849835,-0.09945060610788889,9.877848230574369,0.3223452631904541,0.05383850849999994,-0.14611908500000048,-0.35078387049999904
123012.0,-1.5177752205,-5.336582796999999,7.9493685565,-0.10487683475233926,-0.19583815937852775,-0.11037462189612139,9.694081597359858,0.24806106565753297,0.10169496050000015,-0.1471978164999994,-0.2980240935000005
123022.0,-1.4159821934999999,-5.426411711,7.7590214799999995,-0.10727491714457947,-0.09031904346145456,-0.14155143832449613,9.57357634098608,0.19925422743796967,0.10179302700000004,-0.08982891400000081,-0.19034707650000016
123032.0,-1.3633204829999999,-5.311477773,7.610548798999999,-0.10301107778195732,0.0005445427266222308,-0.18365227054110334,9.380346043425089,0.2105700243327245,0.052661710500000014,0.11493393800000007,-0.14847268100000033
123042.0,-1.200530093,-5.2013490935,7.557887088499999,-0.10967299953681968,0.058899626267052634,-0.21562844776689144,9.252943431101633,0.248983855476938,0.16279038999999984,0.11012867949999983,-0.05266171049999979
123052.0,-1.0113598145,-5.2288077135,7.620159315999999,-0.11846596830836711,0.11512366279079797,-0.2044356512738518,9.296779376771514,0.2628337476302698,0.1891702785,-0.02745861999999999,0.06227222749999939
123062.0,-0.8736744485,-5.172615609,7.6237877765,-0.11073765038053622,0.16521810298153922,-0.15993673666500438,9.254263846548954,0.25522462361549547,0.13768536600000003,0.056192104500000006,0.003628460500001651
