timestamp,ax,ay,az,gx,gy,gz,acc_mag,gyro_mag,dax,day,daz
25842.0,-3.1064525205,-0.7048039355,10.813008423,-0.865800246049071,0.023165755161720734,0.2791130539789332,11.272441927350348,0.9099729749680985,0.0,0.0,0.0
25852.0,-3.2165812,-0.8376840429999999,11.095538009499998,-0.865533210673516,0.1478695302167156,0.2567309516513579,11.58270576732179,0.9148354596762901,-0.11012867949999983,-0.1328801074999999,0.28252958649999904
25862.0,-3.2537484034999995,-0.9346718115,11.364926685,-0.8956436309289222,0.14680487937299905,0.2180928526707074,11.858416784036416,0.933431132230606,-0.03716720349999969,-0.09698776850000013,0.2693886755000019
25872.0,-3.3482845095,-0.949087587,11.422393653999999,-0.9406766162888798,0.039420006485543925,0.20023987975205743,11.940806220322587,0.9625603579969078,-0.09453610600000051,-0.01441577549999995,0.05746696899999826
25882.0,-3.3386739924999995,-0.9107435854999999,11.2810798275,-0.9803793661132468,-0.12312250675268799,0.2124973270888136,11.799955931322485,1.0106720374036118,0.009610517000000485,0.03834400150000006,-0.14131382649999935
25892.0,-3.2202096604999997,-0.9035847309999999,10.914801449999999,-1.0008957114704402,-0.2632811723340926,0.25459815930542085,11.41573941173308,1.0657998985115553,0.11846433199999984,0.007158854499999978,-0.3662783775000005
25902.0,-3.1603890955,-0.9346718115,10.598733120499999,-0.9915704172770345,-0.3581415625092364,0.31055516045361103,11.099315942424182,1.0990549480803395,0.05982056499999988,-0.031087080500000086,-0.3160683295000002
25912.0,-3.0442783595,-0.9658569584999999,10.237260001499997,-0.96092767159977,-0.4295534541838364,0.36811088319662805,10.723898672251366,1.1150801685866456,0.11611073599999999,-0.031185146999999858,-0.3614731190000011
25922.0,-2.8969824765,-1.0052796915,9.9475715605,-0.9385438239429428,-0.4759181257630658,0.41474259015141257,10.409480038818405,1.1310941552217364,0.14729588299999996,-0.0394227330000001,-0.28968844099999735
25932.0,-2.8539312829999997,-1.0939318075,9.678182885,-0.9308172513443638,-0.5161549463385431,0.4432542888119919,10.149326801470783,1.1529575224526902,0.043051193500000196,-0.088652116,-0.2693886755000001
25942.0,-2.7641023689999997,-1.2220066564999998,9.4087942095,-0.9169610824127808,-0.5667817119511426,0.43739172785454294,9.88225534235796,1.163344600390387,0.08982891399999993,-0.12807484899999988,-0.2693886755000001
25952.0,-2.5929763264999997,-1.3057554474999997,9.0604620015,-0.8967100271018906,-0.6027546931639977,0.4008864212198296,9.514225937988373,1.152437423704533,0.17112604250000008,-0.08374879099999988,-0.3483322080000004
25962.0,-2.510306267,-1.2710399065,8.7671451,-0.8804557757780674,-0.6246044700697146,0.3654475107580847,9.207606268868638,1.1396863604743666,0.08267005949999984,0.03471554099999974,-0.293316901499999
25972.0,-2.419300555,-1.204060487,8.418812892,-0.8892487445496149,-0.6603104159070147,0.3459958162446079,8.841899532469446,1.1603819543138085,0.09100571199999985,0.06697941949999997,-0.3483322080000004
25982.0,-2.230228343,-1.219554994,7.985457028499999,-0.9276198081547102,-0.6970827579172832,0.3390668591141904,8.380259948195574,1.208871049705513,0.18907221200000013,-0.01549450699999988,-0.433355863500001
25992.0,-2.1081355504999997,-1.266234648,7.3977444939999994,-0.9841091347247587,-0.7189325348230002,0.3491932594342615,7.795781505505714,1.2677818073746212,0.12209279250000016,-0.04667965400000007,-0.5877125344999996
26002.0,-1.9369114414999997,-1.3967611595,6.7321671585,-1.0312731671014015,-0.7152027662114884,0.361983032192876,7.143153527601612,1.306166550473357,0.17122410899999996,-0.13052651150000005,-0.6655773354999992
26012.0,-1.6831153395,-1.6541857219999998,6.058156103999999,-1.056587422572327,-0.6605774512825698,0.35851855362766716,6.501573888633529,1.2966399284212575,0.2537961019999997,-0.2574245624999998,-0.6740110545000011
26022.0,-1.631630427,-1.8073655949999998,5.488291672499999,-1.056053351821217,-0.5513268214247328,0.3430636631012574,6.004176357064701,1.2397187676467512,0.05148491250000009,-0.15317987300000002,-0.5698644315000001
26032.0,-1.7118488239999998,-1.919945937,4.910091588499999,-1.0358022965103266,-0.4394128191283524,0.3220132469929538,5.543069384798591,1.1703258325395274,-0.08021839699999989,-0.11258034200000022,-0.5782000839999997
26042.0,-1.790890423,-2.153344207,4.4145615639999995,-0.9875736132899674,-0.34428713890690543,0.2823104971685868,5.228052561265973,1.0832979703178989,-0.07904159900000018,-0.2333982699999999,-0.49553002449999983
26052.0,-1.839923673,-2.3772300265,4.187047284,-0.8860513013599614,-0.26115012531740756,0.22395541362815638,5.154406530320516,0.9504958305475819,-0.04903324999999992,-0.22388581949999997,-0.2275142799999994
26062.0,-1.8591447069999998,-2.53403836,4.0637776935,-0.7530868829552773,-0.21105568512666628,0.14774735716907597,5.137320176288974,0.7959356990699867,-0.01922103399999986,-0.1568083334999999,-0.12326959050000053
26072.0,-1.836393279,-2.5315866975,3.9189334729999996,-0.6390400883129598,-0.1876071866261225,0.06540970437699149,5.013911751109623,0.6692138076664957,0.02275142799999985,0.0024516624999999515,-0.1448442205
26082.0,-1.7752978494999998,-2.4813766494999996,3.7836997694999996,-0.5628320318538794,-0.1566974055733029,0.004389503068765739,4.860586021956356,0.5842544315034001,0.06109542950000013,0.050210048000000285,-0.13523370349999997
26092.0,-1.7897136249999999,-2.4346969955,3.5706012649999996,-0.4892890931625943,-0.10313848681735291,-0.03211580356594766,4.677608118796076,0.5010716405760095,-0.014415775500000061,0.046679653999999626,-0.2130985045
26102.0,-1.7621569384999998,-2.3125061364999997,3.340733389,-0.4120146405305454,-0.04824613651287925,-0.033714525160774465,4.428699728321313,0.41619757676703306,0.027556686500000094,0.12219085900000026,-0.2298678759999997
26112.0,-1.99074995,-2.4262632765,3.203048023,-0.30596145386236195,-0.008810422064067376,-0.05396558047166467,4.4843456030910165,0.3108091354226271,-0.22859301150000033,-0.11375714000000015,-0.13768536599999992
26122.0,-2.116471203,-2.4598020194999997,3.2629666545,-0.19031768295446969,0.015437437233889843,-0.08194320838113378,4.60185046656706,0.20778311845119238,-0.12572125300000003,-0.033538742999999815,0.059918631499999986
26132.0,-2.2325819389999997,-2.3628142509999996,3.3119999044999995,-0.06827728033801816,0.002647664475275398,-0.11312002480950849,4.640760354347733,0.1321549739905153,-0.11611073599999955,0.09698776850000002,0.04903324999999947
26142.0,-2.24572285,-2.2299341435,3.454490529,0.07001562827300452,-0.026663394982717373,-0.1349698017152255,4.685016778871757,0.1543695961305698,-0.013140911000000255,0.13288010749999968,0.1424906245000006
26152.0,-2.148833148,-2.07312581,3.526275207,0.21630389018741325,-0.05091125428067459,-0.13896660570229252,4.620600757210542,0.2620897674901797,0.09688970199999991,0.1568083334999999,0.07178467799999977
26162.0,-2.1224532595,-1.9330868479999999,3.5214699485,0.3711180854978143,-0.06450038783670245,-0.12777555453850487,4.54338895526911,0.3977631528337818,0.02637988850000017,0.1400389620000002,-0.004805258499999798
26172.0,-2.0601810319999996,-1.8372758774999998,3.7129938229999997,0.517406347412223,-0.04824613651287925,-0.11232066401209508,4.626689060688229,0.5316511540427571,0.06227222750000028,0.09581097050000009,0.19152387449999964
26182.0,-2.0387044684999998,-1.751075424,4.1343855735,0.6455746010324266,-1.7453292519943296e-05,-0.09819745970495695,4.931097760213598,0.6530002349887026,0.021476563499999823,0.08620045349999983,0.42139175050000066
26192.0,-2.0075193215,-1.65536252,4.631190462499999,0.7385709795664405,0.05114338307118984,-0.08700640854116932,5.3120884780627975,0.7454346736079096,0.03118514699999997,0.09571290399999999,0.496804888999999
26202.0,-1.9141600134999999,-1.5726924605000001,5.1004386649999995,0.7694807606192601,0.1145616667716558,-0.07608239275293682,5.670259668482815,0.7816735552285923,0.09335930799999992,0.08267005949999984,0.4692482025000002
26212.0,-1.9201420699999998,-1.4829616129999998,5.489566537,0.7353735363767868,0.17691355429915323,-0.06169215307024357,6.00178819009515,0.7588666321880961,-0.005982056499999944,0.08973084750000027,0.38912787200000043
26222.0,-1.9620164654999999,-1.415884127,5.8271114299999995,0.6583661191202931,0.22860846141397326,-0.05449790589352294,6.309474153177926,0.699054931448423,-0.04187439550000005,0.06707748599999985,0.33754489299999957
26232.0,-1.9679985219999998,-1.4542281285,6.1204283315,0.5797582349397205,0.2755054584150609,-0.05689598828576315,6.591467256487183,0.644406721007724,-0.005982056499999944,-0.03834400150000006,0.2933169015000008
26242.0,-1.9237705305,-1.4147073289999998,6.483078248499999,0.5200714651800183,0.2920267451144392,-0.06435727083803891,6.908877872485544,0.5999131662718742,0.0442279914999999,0.0395207995000002,0.3626499169999988
26972.0,-3.642778209,0.202605389,12.486611311999999,-0.004858996637552213,-0.06743254098005291,0.06887418294220024,13.008702628647617,0.09651119368915673,-1.7190076785,1.6173127179999998,6.0035330635
26982.0,-3.874999681,0.5150452579999999,11.7072768365,0.014857987922227726,-0.13617931488685756,0.08619483043899195,12.342658752148495,0.16184904819787338,-0.23222147199999998,0.31243986899999987,-0.7793344754999989
26992.0,-3.6726884914999998,0.28635417999999996,11.828192830999999,0.03137927462160605,-0.1348476286675859,0.1051124542013585,12.38857478160098,0.17383086567489098,0.20231118950000004,-0.22869107799999994,0.1209159944999989
27002.0,-3.7181913474999995,0.2695848085,12.004124132,0.07960970317121735,-0.0898146433076282,0.11950269388405176,12.56967060197134,0.16936726022768153,-0.0455028559999997,-0.016769371499999963,0.17593130100000032
27012.0,-3.7756583165,0.287530978,12.280671662,0.14755711628060858,-0.08608487469611631,0.13255775668896932,12.851193184141115,0.21622966280070616,-0.05746696900000048,0.017946169499999998,0.2765475300000002
27022.0,-3.7085808305,0.3833419485,12.606252441999999,0.2184366825333503,-0.14710333067509007,0.1400190392412451,13.146030711102982,0.29826046590509087,0.06707748600000007,0.09581097049999998,0.32558077999999924
27032.0,-3.537454788,0.527009371,12.752371527,0.26373495793961116,-0.23850098761427713,0.1626681769443755,13.2444065483096,0.3910240209025536,0.17112604250000008,0.14366742250000003,0.14611908500000048
27042.0,-3.305233316,0.8034588345,12.739132549499999,0.24588198502096112,-0.32243561667193643,0.21835988804626258,13.18543178988321,0.46054719428527235,0.23222147199999998,0.2764494635,-0.01323897750000036
27052.0,-3.0682065854999996,0.9160391765,12.776299753,0.16034688903922306,-0.3269664914101137,0.29430090912978785,13.171440878001777,0.4682213541095883,0.23702673050000023,0.112580342,0.03716720350000102
27062.0,-3.0682065854999996,0.9519315155,13.024113798499998,0.03430968243570453,-0.28832839242946323,0.3774379227192857,13.414455095075079,0.47620352969759366,0.0,0.035892338999999995,0.24781404549999841
27072.0,-3.3004280575,0.8597490054999999,13.204850357999998,-0.1253006776591769,-0.30325095753401476,0.4480504535964723,13.638184142046336,0.5553472895721652,-0.23222147200000043,-0.0921825100000001,0.18073655949999967
27082.0,-3.517056956,0.6203686789999999,13.2096556165,-0.29343871647930264,-0.37146540601896116,0.4800248854930084,13.683915683610527,0.6741785511942872,-0.21662889849999978,-0.23938032649999996,0.0048052585000011305
27092.0,-3.4883234715,0.2827257195,13.060006137499999,-0.4461218647730186,-0.41276687743815493,0.44751638284536205,13.520802298156061,0.7547662725994034,0.028733484499999573,-0.33764295949999995,-0.1496494790000007
27102.0,-3.4381134235,0.10198916,12.661365814999998,-0.6014683855052778,-0.39011773973502456,0.36491344000697445,13.120259524981163,0.8044363792842872,0.050210048000000285,-0.18073655949999998,-0.39864032250000037
