timestamp,ax,ay,az,gx,gy,gz,acc_mag,gyro_mag,dax,day,daz
41452.0,-1.8423753354999999,0.0242224255,10.556858725,0.5038172138561952,0.0021153390534171274,-0.35746612008871465,10.716445294143224,0.6177526095844592,0.0,0.0,0.0
41462.0,-1.8698339554999999,0.195348468,11.266762118499999,0.5056829708265771,0.02902831611916969,-0.3148312171209971,11.422537751303661,0.596386288737925,-0.02745861999999999,0.1711260425,0.7099033934999994
41472.0,-1.515519691,0.275566865,11.7647438055,0.4843655193427183,0.14760424017041246,-0.2580748551753935,11.865156292267931,0.5683305366758207,0.3543142644999999,0.080218397,0.4979816870000011
41482.0,-1.638887348,0.274390067,12.393252003999999,0.44999125972469,0.29548947835039596,-0.21304361514468784,12.504156784163925,0.5789591933792229,-0.12336765699999996,-0.001176797999999979,0.6285081984999987
41492.0,-1.8136418509999999,0.1318994425,13.076775509,0.43053956521121317,0.34691735008966085,-0.20638169338982548,13.202603983283478,0.5901774041522979,-0.17475450299999995,-0.14249062450000002,0.6835235050000019
41502.0,-1.8591447069999998,0.055309505999999994,13.718424618499999,0.4603829500910642,0.3359915889721764,-0.2452850824167791,13.843939186390806,0.6204897906096485,-0.045502855999999925,-0.0765899365,0.6416491094999976
41512.0,-1.6065254029999998,0.064920023,14.376843099499999,0.5251346653400539,0.315475243614983,-0.2935155109663904,14.466470059676318,0.6792955183523623,0.252619304,0.009610516999999999,0.658418481
41522.0,-1.2881034774999998,0.33666229449999996,15.135779742999999,0.5728310231385549,0.34505159311927897,-0.3177633702643476,15.194221944472666,0.740384725980941,0.31842192550000004,0.27174227149999997,0.7589366435000002
41532.0,-1.122861425,0.7700181580000001,15.8576472495,0.5461850814483575,0.3951477786392722,-0.2849878322411461,15.915989508446456,0.7319002491363203,0.1652420524999998,0.4333558635000001,0.7218675065000006
41542.0,-0.950460518,0.8909341525,16.577063093499998,0.4406659655312843,0.40207499044043765,-0.20558233259241207,16.62817367200161,0.6309634589969804,0.172400907,0.1209159944999999,0.7194158439999985
41552.0,-0.8583760744999999,0.7879643275,17.0726911845,0.31063195494069873,0.32160309461873515,-0.11152130321468168,17.11240724001128,0.4608229193186124,0.09208444350000011,-0.10296982499999996,0.4956280910000004
41562.0,-0.8990736719999999,0.7065691325,17.2989306,0.16913985781077048,0.1230893454969001,-0.004136430327226561,17.336682880825318,0.20922807777866453,-0.040697597500000016,-0.08139519500000003,0.22623941550000026
41572.0,-0.9552657764999999,0.7029406719999999,17.148104323,0.054560737746594735,-0.11406250260558543,0.09445372845942913,17.18907036941193,0.15782469839663704,-0.056192104500000006,-0.003628460500000097,-0.15082627700000018
41582.0,-0.9313375504999999,0.669401929,16.6584582885,-0.04642750343230116,-0.26194948611482094,0.1767913812515136,16.69789570949629,0.31941859500597825,0.023928225999999997,-0.033538742999999926,-0.489646034499998
41592.0,-0.9768404065,0.5999708469999999,16.1844048275,-0.12956451702179905,-0.25635396053292714,0.22448773905001465,16.22495429323073,0.3645532363534812,-0.04550285600000015,-0.06943108200000003,-0.47405346100000045
41602.0,-0.9936097779999998,0.46356034549999997,15.9066804995,-0.184987447418879,-0.15083484461585397,0.22688582144225486,15.944423260125493,0.32931547492392166,-0.016769371499999797,-0.13641050149999995,-0.2777243279999997
41612.0,-1.0402894319999998,0.249285043,15.852841991,-0.20230809491567073,-0.04558101874508391,0.20823348772619146,15.88889374143484,0.2938832760618774,-0.04667965399999996,-0.21427530249999996,-0.05383850850000016
41622.0,-1.0798102315,0.230064009,15.916291016499999,-0.18445512199702072,-0.0423835755554303,0.2021056367224394,15.954536637151447,0.27688760879241475,-0.0395207995000002,-0.019221033999999998,0.06344902549999887
41632.0,-1.029502117,0.19054320949999998,15.9425728385,-0.1626053450913037,-0.13697867568427097,0.23861094335715277,15.976914909783803,0.3195916740690674,0.050308114499999945,-0.03952079950000004,0.026281822000001398
41642.0,-1.0630408599999999,0.3258749795,15.7570310205,-0.19164936917374134,-0.27953542365791584,0.32680941177743417,15.796210841632018,0.47082260503359014,-0.033538742999999815,0.13533177000000002,-0.1855418180000008
41652.0,-1.1612054265,0.24202812199999998,15.401539957999999,-0.29050830866520416,-0.42742240716715135,0.419538754935893,15.447148886841303,0.6656558859089574,-0.09816456650000016,-0.08384685750000001,-0.3554910625000005
41662.0,-1.2414238235,0.11277647499999999,14.753908791999999,-0.43866058222074283,-0.5436002488261539,0.4821576778389455,14.806474134159073,0.8487640209252167,-0.08021839699999989,-0.129251647,-0.647631166
41672.0,-1.2090618784999998,0.202605389,13.580739252499999,-0.6270496763517588,-0.5798385200853121,0.5455759615394115,13.635958280006875,1.0134382742906565,0.032361945000000114,0.08982891400000001,-1.1731695395
41682.0,-0.9864509235,-0.09914523149999999,12.442285254,-0.786127711024782,-0.47778388273344774,0.6177872140114249,12.4817217379378,1.108122402280953,0.22261095499999983,-0.3017506205,-1.1384539984999993
41692.0,-0.9110377849999999,-0.48935183499999996,11.588714438,-0.8663325714709293,-0.2893947886024318,0.6966603882383006,11.634765033709328,1.1487459095039332,0.07541313850000009,-0.39020660349999997,-0.8535708159999995
41702.0,-1.064217658,-0.745501533,11.0357174445,-0.8828538581703076,-0.08821592171280139,0.7654071621451052,11.111948131364993,1.171776901800364,-0.15317987300000013,-0.25614969800000004,-0.5529969935000008
41712.0,-1.4605043845,-1.0160670065,10.846547165999999,-0.8857842659844062,0.05434082626084345,0.8008460726068501,10.991499017108822,1.1953748881727693,-0.3962867265000001,-0.27056547349999993,-0.18917027850000068
41722.0,-1.9500523525,-1.181309059,10.7124902605,-0.9134966038475721,0.05913873637457586,0.7955175824005114,10.952426345411943,1.2127743645416422,-0.4895479679999999,-0.16524205250000001,-0.1340569054999996
41732.0,-2.266120682,-1.2578989955,10.280311195,-0.9814440169569634,-0.04025252853874522,0.7712697231025541,10.60200033457415,1.2488833453325707,-0.31606832949999997,-0.07658993650000001,-0.43217906549999974
41742.0,-2.3786029574999996,-1.3716561354999999,9.657785053,-1.0555210263993586,-0.14470524828284986,0.752882679432794,10.040518149649088,1.3045675816306568,-0.11248227549999967,-0.11375713999999992,-0.6225261419999999
41752.0,-2.47323713,-1.528464469,8.9455280635,-1.079768885697316,-0.202528006401422,0.7515509932135223,9.406145749937757,1.331069996392823,-0.09463417250000017,-0.15680833350000012,-0.7122569895000002
41762.0,-2.5486502685,-1.7103778265,8.358992327,-1.0374010181051536,-0.18520735890463025,0.7520833186353806,8.904704555646575,1.2946551495775411,-0.07541313850000009,-0.18191335750000004,-0.5865357365000001
41772.0,-2.6958480849999997,-1.9546614779999998,7.935246980499999,-0.97878064451842,-0.0983405767036205,0.7283695300885336,8.605605326327117,1.2240116794670244,-0.14719781649999986,-0.24428365149999975,-0.4237453465000005
41782.0,-2.8539312829999997,-2.075479406,7.623983909499999,-0.9729180835609711,0.027162559148787752,0.6670822934047527,8.401051671376091,1.179960248531114,-0.15808319799999992,-0.12081792800000013,-0.31126307099999995
41792.0,-3.0609496645,-2.1030360925,7.364205751,-1.0491261400200516,0.19023739780887794,0.5754193464192625,8.247648149504306,1.2115953736425529,-0.20701838150000018,-0.027556686500000094,-0.25977815849999875
41802.0,-3.1866709175,-2.249057111,7.19415844,-1.1607748522701287,0.33945606753738516,0.45364597917836613,8.183461681024918,1.291674631583118,-0.12572125300000003,-0.14602101849999993,-0.17004731100000026
41812.0,-3.204617087,-2.4526431649999996,7.027837656,-1.2460411675470597,0.4300543636791588,0.3068253918420991,8.104044131679267,1.3534057662137338,-0.017946169500000053,-0.20358605399999963,-0.16632078399999983
41822.0,-3.2058919514999995,-2.4239096805,6.8290568605,-1.2825464741817731,0.4233924419242964,0.17332690268630485,7.923957278270511,1.3617007136333388,-0.001274864499999584,0.028733484499999573,-0.19878079550000027
41832.0,-3.131655611,-2.2395446604999996,6.475919393999999,-1.2726888545665092,0.33465990275290475,0.07446970852409406,7.533947116211206,1.3180591445515866,0.07423634049999972,0.18436502000000043,-0.35313746650000066
41842.0,-2.8383387095,-2.1892365459999996,6.01147645,-1.2303209869743468,0.24033183799961916,0.008121017009529614,6.999055107162161,1.2536008432763097,0.2933169014999999,0.050308114499999945,-0.4644429439999991
41852.0,-2.566596438,-2.2742602014999997,5.628428701,-1.1610401423164318,0.18410954680512584,-0.03584557217745954,6.590818339320364,1.1760932966136992,0.27174227149999997,-0.08502365550000013,-0.38304774900000016
41862.0,-2.2840668515,-2.2083595135,5.193797973,-1.0827010388406664,0.14760424017041246,-0.06329087466507037,6.08846043818353,1.0945475257104247,0.28252958649999993,0.06590068799999971,-0.43463072800000013
41872.0,-1.9608396674999997,-2.2179700305,4.820360740999999,-0.9974329782344834,0.13454743203624286,-0.0696857610443776,5.6568684739183865,1.0088764358580256,0.3232271840000003,-0.00961051700000004,-0.37343723200000056
41882.0,-1.6340820895,-2.2622960885,4.566564639,-0.8708634462091066,0.13667847905292793,-0.06409023546248377,5.351796004093606,0.8838505002889684,0.3267575779999998,-0.04432605799999978,-0.253796101999999
41892.0,-1.4497170695,-2.1856080855,4.383376417,-0.6989938934482169,0.10736741959493518,-0.03797661919414461,5.108086833454811,0.7082107380390312,0.18436502,0.07668800299999967,-0.18318822200000007
41902.0,-1.5407227815,-2.015658841,4.3091400765,-0.48715630081665723,0.026363198351374347,0.009185667853246156,5.000539516055541,0.4879555882932314,-0.09100571200000007,0.16994924450000015,-0.07423634049999972
41912.0,-1.8663035614999999,-1.5787725835,4.3989689905,-0.24121148394262432,-0.12472122834751478,0.044626323644243016,5.032548065687941,0.2751906131181014,-0.3255807799999999,0.4368862575000001,0.08982891399999993
41922.0,-2.1667793175,-1.6098596639999998,4.553423727999999,-0.014453071535765041,-0.34695051134544874,0.03236887630748684,5.293415569859727,0.3487567816589316,-0.3004757560000002,-0.031087080499999864,0.15445473749999916
42532.0,-2.2325819389999997,1.37096967,14.0559695115,0.6828792684645534,0.37516201337468513,0.04382696284682961,14.298050876207794,0.780379032426172,-0.0658026214999996,2.980829334,9.5025457835
42542.0,-2.4935368954999997,1.5947574229999997,14.291819444,0.7476309837135431,0.19769868036115368,0.08992459905050385,14.59510467613473,0.7785392023138049,-0.2609549565,0.22378775299999965,0.23584993249999897
42552.0,-2.54384501,1.9503465519999998,14.964555633999998,0.8089164750680718,-0.06983062337229314,0.08832587745567703,15.304016611036506,0.8167151524402084,-0.05030811450000039,0.35558912900000017,0.6727361899999984
42562.0,-2.229051545,1.8784638075,15.379965327999999,0.8339636951634426,-0.34162202113911005,0.1192356585084966,15.653773684221846,0.9090754602549718,0.31479346500000016,-0.07188274449999987,0.41540969400000094
42572.0,-1.952504015,2.032918545,15.686423140499999,0.7764079724204256,-0.5409351310583586,0.14694799637166256,15.937656687292831,0.9576084112458317,0.27654753,0.15445473749999983,0.3064578124999997
42582.0,-1.814818649,2.4088074395,15.934237185999999,0.6274563380674735,-0.6075508579484781,0.20743412692877805,16.217146318296997,0.8976906027076812,0.13768536599999992,0.37588889450000007,0.2478140455000002
42592.0,-1.6867437999999997,2.6685855979999995,16.098204373999998,0.3974987371417085,-0.5483964136106343,0.3180164430058868,16.404835805571604,0.7482501790927787,0.12807484900000032,0.25977815849999963,0.1639671879999991
42602.0,-1.515519691,2.5141308605,16.2299076835,0.14489199851281326,-0.3946468691439498,0.4331278884919208,16.493257935667515,0.6036055088778006,0.17122410899999974,-0.1544547374999996,0.13170330950000064
42612.0,-1.5047323759999998,2.194532137,16.190386884,-0.09705601437415268,-0.22304609708786735,0.5245255454311079,16.407584169441506,0.5781837762875461,0.010787315000000186,-0.31959872349999996,-0.03952079949999998
42622.0,-1.6603639114999997,1.8761102115,15.935413983999998,-0.2851780731296135,-0.09354441191914008,0.5599644558928527,16.131150507194732,0.6353245487611788,-0.15563153549999997,-0.31842192550000004,-0.2549729000000003
42632.0,-1.7262645994999999,1.5648471404999997,15.584728179999999,-0.3803054986803124,0.024764476756547544,0.5293217102155883,15.75793414395123,0.6522476711656867,-0.06590068800000015,-0.31126307100000017,-0.3506858039999994
42642.0,-1.7382287124999998,1.3696948054999998,15.2782703675,-0.38749974585703306,0.15106697340636918,0.4696331951266342,15.437715126909216,0.627321784619566,-0.011964112999999887,-0.19515233499999995,-0.3064578124999997
42652.0,-1.792067221,1.4248081785,15.008881692,-0.3624525257616624,0.2629809757027496,0.4072813075991368,15.182493632949626,0.6053171817586557,-0.05383850850000016,0.05511337300000019,-0.2693886755000001
42662.0,-1.8674803594999998,1.4092156049999998,15.071153919499999,-0.34593123906228407,0.33332821653363304,0.3710430363399785,15.251657351899627,0.6070000468805997,-0.07541313849999987,-0.015592573500000206,0.06227222749999939
42672.0,-2.1093123485,1.2967333294999999,15.181282599,-0.37790741628807223,0.2709763290061356,0.3928928132456955,15.381874309136418,0.6087749574902739,-0.24183198900000025,-0.1124822754999999,0.11012867950000071
42682.0,-2.2385639955,1.1052094549999998,15.057914941999998,-0.46530652391094024,0.07059507758466665,0.43392724928933424,15.263468121690993,0.6401458301426914,-0.1292516469999998,-0.19152387450000008,-0.12336765700000107
42692.0,-2.4133184985,1.185427852,14.545615545999999,-0.5774875615828758,-0.21878225772524518,0.45497766539763784,14.792034240750542,0.7670477404236169,-0.17475450299999995,0.08021839700000011,-0.5122993959999995
42702.0,-2.419300555,0.9088803219999999,13.690867932,-0.665420739956854,-0.4956368556520977,0.5175965883006903,13.932657440223243,0.977929896294177,-0.005982056500000166,-0.27654753,-0.854747613999999
