timestamp,ax,ay,az,gx,gy,gz,acc_mag,gyro_mag,dax,day,daz
54462.0,-1.1133489745,0.5725122269999999,10.7005261475,0.18299602674235346,0.6890559886873613,-0.2636703807572874,10.773512705817723,0.7601366791821705,0.0,0.0,0.0
54472.0,-1.0187148019999999,0.4300216025,10.8274241985,0.23655494549830344,0.630699159817679,-0.221304258494377,10.883740772395027,0.7090241513955484,0.09463417250000017,-0.14249062449999994,0.1268980509999995
54482.0,-0.957717439,0.5341682255,11.042876299,0.30024026457432457,0.5523600563419134,-0.17627127313441932,11.09719222781666,0.6529298661005876,0.060997362999999916,0.104146623,0.2154521005000003
54492.0,-0.8870114925,0.45757828899999997,11.458285992999999,0.37884640342564513,0.46789135653314384,-0.12697619374109145,11.50167314679787,0.6152803204100936,0.07070594649999995,-0.07658993650000001,0.41540969399999916
54502.0,-1.017538004,0.505434741,11.9143932845,0.4689106288163085,0.357043750409732,-0.10272833444313424,11.968442471964876,0.598256239600569,-0.13052651149999994,0.047856451999999994,0.4561072915000004
54512.0,-1.0773585689999998,0.5688837664999999,12.351279541999999,0.5595071796288302,0.20995612769790986,-0.10272833444313424,12.41122220212871,0.6063686752393873,-0.05982056499999988,0.06344902549999998,0.43688625749999943
54522.0,-1.0594123995,0.6263507355,12.779830146999998,0.6357169814171627,0.07752403471508412,-0.12324467980032759,12.838953557912955,0.6521773589444363,0.01794616949999983,0.057466969000000034,0.42855060499999986
54532.0,-0.9780172045,0.8095389574999999,13.094721678500001,0.6746203704441163,0.009309586230137754,-0.15921766101318272,13.156124308221859,0.6932168320175455,0.08139519500000003,0.18318822199999996,0.3148915315000025
54542.0,-0.7218675064999999,1.0118501469999999,13.4191256605,0.6655603662970137,0.031426398511409895,-0.18826168509562036,13.476567326630844,0.6923876672673015,0.2561496980000001,0.20231118949999993,0.32440398199999976
54552.0,-0.4788587195,1.2416199565,13.790209296499999,0.6143995299333038,0.1332140004877192,-0.18399959106225022,13.854270036017603,0.6550485492078294,0.2430087869999999,0.22976980950000003,0.37108363599999805
54562.0,-0.38902980549999994,1.6199605135,14.2067957885,0.5368580419256997,0.25072352836599343,-0.12697619374109145,14.30414844830016,0.6059717803937447,0.08982891400000004,0.378340557,0.4165864920000004
54572.0,-0.46571780849999994,2.0340953429999997,14.5851363455,0.45665318147955236,0.3325288557362196,-0.027052603405912107,14.73365667980605,0.5655434655299927,-0.076688003,0.4141348294999998,0.37834055700000135
54582.0,-0.532697228,2.1789395634999997,14.949061127,0.4116219414488467,0.33785734594255834,0.09951692861946468,15.116414010501531,0.5417414770638472,-0.06697941950000003,0.1448442205,0.36392478149999974
54592.0,-0.5949694555,2.1646218545,15.282977559499999,0.4118872314951498,0.2491248067711666,0.23328070782156207,15.446973150431043,0.5349150862139141,-0.062272227500000055,-0.014317708999999734,0.3339164324999988
54602.0,-0.7110801915,2.2483706455,15.352408641499999,0.43107363596232345,0.10443701178083668,0.3563875066109821,15.532458166494239,0.5689847308319277,-0.11611073599999999,0.0837487910000001,0.06943108199999948
54612.0,-0.7781576775,2.20649625,15.5020581205,0.44386340872093794,-0.02160019482268182,0.45764278316543316,15.677626129094806,0.6379014116626109,-0.06707748599999996,-0.04187439550000027,0.1496494790000007
54622.0,-0.8678885249999999,2.1717807089999996,15.6038511475,0.4342710791519771,-0.14364059743913332,0.5298540356374465,15.778150480114844,0.6999780643004339,-0.08973084749999993,-0.03471554100000018,0.10179302700000115
54632.0,-0.9720351479999999,2.1550113375,15.6181688565,0.388438732994606,-0.27447396882713226,0.5935393547134676,15.796079406734048,0.7605981688433466,-0.104146623,-0.016769371499999686,0.014317709000000178
54642.0,-1.120507829,2.1299063135,15.496076063999999,0.32288940227745494,-0.4178300775981905,0.6513603675027878,15.681849765904888,0.8385164686529233,-0.148472681,-0.025105024000000142,-0.12209279250000193
54652.0,-1.1874872484999999,2.0437058599999998,15.132151282499999,0.24828006741320136,-0.5412021664339137,0.7030552746176079,15.315641091512127,0.9213194321163022,-0.06697941949999997,-0.08620045350000005,-0.36392478149999974
54662.0,-1.027148521,1.834235816,14.553951198499998,0.16754113621594366,-0.5611861863692487,0.7435573852393882,14.704997470289113,0.9465080840860401,0.1603387274999999,-0.2094700439999997,-0.5782000840000006
54672.0,-0.9097629205,1.545724173,14.151780481999998,0.07987499321752049,-0.4668598669452152,0.7824607742663418,14.264985895584662,0.9146491202483529,0.11738560050000002,-0.2885116430000001,-0.4021707165000006
54682.0,-1.005573891,1.3912694355,13.954274551,-0.03257133450071818,-0.3149760794489127,0.8272267242507444,14.05946612560746,0.8857623133610859,-0.09581097050000009,-0.15445473750000005,-0.19750593099999847
54692.0,-1.157576966,1.1662068179999998,13.841694208999998,-0.2031074557130841,-0.19346800225431943,0.8600005169446939,13.938885226230523,0.9045901810254523,-0.15200307499999988,-0.22506261750000012,-0.11258034200000111
54702.0,-1.2522111384999999,0.807087295,13.640559817499998,-0.411215279733132,-0.13831036190354265,0.8725249996570051,13.721672448062936,0.9744370875137829,-0.09463417249999995,-0.35911952299999983,-0.20113439150000012
54712.0,-1.2198491935,0.5484859344999999,13.095898476499999,-0.6150592643905577,-0.13298187169720396,0.8725249996570051,13.164020122364668,1.0757703992670566,0.03236194499999989,-0.25860136050000004,-0.5446613409999994
54722.0,-1.1276666835,0.4527730305,12.231638411999999,-0.790124515011849,-0.09727592585990395,0.879986282209281,12.291851520748935,1.1866487314496752,0.09218251,-0.09571290399999993,-0.8642600644999998
54732.0,-1.107366918,0.3127340685,11.433180968999999,-0.9055029958734381,-0.022931881041953497,0.8922437295460371,11.490939524624832,1.2714402933752398,0.0202997654999999,-0.140038962,-0.7984574430000002
54742.0,-1.1623822245,0.1403331615,10.821442141999999,-0.9436070241029784,0.05833937557716246,0.9098296670891319,10.884596265581175,1.3120928784940236,-0.05501530649999986,-0.17240090700000002,-0.6117388269999999
54752.0,-1.2318133064999999,-0.0416782625,10.427607078,-0.9270857374035999,0.13028359267362072,0.9370079342011877,10.500194782611947,1.324554886659326,-0.06943108199999992,-0.182011424,-0.39383506399999924
54762.0,-1.3635166159999998,-0.24036099149999998,10.208526517,-0.8921791523637134,0.19210315477925988,0.9617898642502551,10.301988381697734,1.3258683965473732,-0.13170330949999998,-0.19868272899999997,-0.21908056100000017
54772.0,-1.5322890624999999,-0.38638200999999994,9.960712471499999,-0.8929785131611268,0.23633503401255218,0.9703157976462475,10.085286003312172,1.339693106808811,-0.1687724465,-0.14602101849999996,-0.2478140455000002
54782.0,-1.7166540825,-0.6126214255,9.66739557,-0.9476038280900453,0.2624486502808913,0.933545200965231,9.837720434978888,1.355853587704212,-0.1843650200000002,-0.22623941550000004,-0.293316901499999
54792.0,-1.8063849299999999,-0.780217074,9.2687552475,-1.022213162954299,0.2845654625621635,0.8501411520001779,9.475314719625466,1.3596459948547048,-0.08973084749999982,-0.16759564849999997,-0.39864032250000037
54802.0,-1.7309717914999998,-0.8831868989999999,8.8270637315,-1.088029529047005,0.34025542833479855,0.7235716199748011,9.038436621534537,1.350236239264264,0.07541313850000009,-0.10296982499999996,-0.44169151600000056
54812.0,-1.598091684,-0.9107435854999999,8.460687287499999,-1.1378586791914433,0.4156641239964655,0.584479350566365,8.658324334758051,1.3450335122321395,0.1328801074999999,-0.027556686499999983,-0.36637644400000013
54822.0,-1.442558215,-0.8424893014999999,8.142265362,-1.1701001464635343,0.5134566673149599,0.45044853598871254,8.311873895339783,1.3548712062548767,0.15553346899999987,0.068254284,-0.31842192549999915
54832.0,-1.31801376,-0.8042433665,7.7640228715,-1.2161977826672088,0.5896647237740402,0.35025791027797804,7.916060814147634,1.3962528913991357,0.12454445500000011,0.03824593499999995,-0.3782424904999999
54842.0,-1.1600286285,-0.7910043889999999,7.4336368329999996,-1.2676256544064735,0.6360293953532696,0.2825775325441419,7.5650717727785715,1.4461183400267148,0.15798513149999982,0.013238977500000026,-0.33038603850000037
54852.0,-1.157576966,-0.7587405104999999,7.0924634795,-1.2870773489199505,0.6312332305687892,0.2412760611249481,7.226251435047691,1.4536979160572143,0.0024516625000001735,0.03226387850000001,-0.34117335349999944
54862.0,-1.3683218744999999,-0.6713632589999999,6.8625956035,-1.2511043677070954,0.5592872681430789,0.231149660804877,7.029811647188552,1.389782196206632,-0.21074490849999994,0.08737725149999997,-0.22986787600000014
54872.0,-1.5526868944999999,-0.7682529610000001,6.677053785499999,-1.1629058992868138,0.41033563379012683,0.2226237274088847,6.89812267641691,1.2531108438440086,-0.18436502,-0.09688970200000013,-0.1855418180000008
54882.0,-1.699884711,-0.859258673,6.462778483,-1.054189340180087,0.21421822173128002,0.19411202874830535,6.737613762909318,1.0931075387059694,-0.14719781650000008,-0.09100571199999996,-0.21427530249999904
54892.0,-1.8136418509999999,-0.7838455344999999,6.1239587255,-0.9657238363842504,0.0021153390534171274,0.1464139256205523,6.434794562166059,0.9767620183215797,-0.11375713999999992,0.07541313850000009,-0.3388197575000005
54902.0,-1.7083184299999998,-0.7994381079999999,5.732575323999999,-0.9065693920464066,-0.14790269147250348,0.09711884622722447,6.0348879850527455,0.9236749098209333,0.10532342100000003,-0.015592573499999984,-0.3913834015000006
54912.0,-1.5370943209999999,-0.9311414175,5.445240479,-0.8636674537031339,-0.2182499323033869,0.0499548138505817,5.734137002651272,0.8922163341720069,0.17122410899999996,-0.1317033095000001,-0.2873348449999993
54922.0,-1.3910733025,-0.9944923765,5.131623811999999,-0.83782087281035,-0.24409651319617093,0.009719738604356421,5.409035308419633,0.872709227629548,0.14602101849999993,-0.06335095899999998,-0.3136166670000007
54932.0,-1.2186723955,-0.999297635,4.8012377735,-0.8292949394143576,-0.24489587399358434,-0.009998991284675513,5.053280353251098,0.864756651008858,0.17240090699999988,-0.00480525850000002,-0.3303860384999995
54942.0,-0.9612478329999999,-1.0735339755,4.5390079524999996,-0.8098432449008808,-0.22864162266976115,-0.009199630487262111,4.762254275640714,0.8415507745405215,0.2574245625000001,-0.07423634049999994,-0.26222982100000003
54952.0,-0.635667053,-1.1537523725,4.3295379085,-0.7653443302920334,-0.1932027122080163,0.02091078976814406,4.5254961761620836,0.789630605437392,0.3255807799999999,-0.08021839700000011,-0.2094700439999997
54962.0,-0.4009939185,-1.0245007254999998,4.033867410999999,-0.7237758234972844,-0.13298187169720396,0.09578716000795279,4.181206063894944,0.7420989158472426,0.23467313450000005,0.12925164700000025,-0.29567049750000063
54972.0,-0.35196066849999996,-0.792181187,3.8878463925,-0.6808756304832638,-0.03972020311688695,0.21436308405919555,3.983312304713624,0.7149271644922989,0.04903325000000003,0.23231953849999987,-0.14602101849999904
54982.0,-0.635667053,-0.490528633,3.9619846664999994,-0.6262503155543454,0.07246083455504858,0.35345535346763163,4.04252562634347,0.7227521824050479,-0.2837063845000001,0.30165255399999996,0.07413827399999917
54992.0,-0.9816456649999998,-0.6629295399999999,4.1918525424999995,-0.5726913967983954,0.13028359267362072,0.49334872900273313,4.355999486304103,0.7670346921068534,-0.3459786119999998,-0.17240090699999994,0.22986787600000014
55002.0,-1.3610649535,-1.0854980884999998,4.418091958,-0.5188654426668903,0.09324421528779706,0.5839452798152548,4.748719875621996,0.7867070109621886,-0.37941928850000006,-0.4225685484999999,0.22623941550000026
