timestamp,ax,ay,az,gx,gy,gz,acc_mag,gyro_mag,dax,day,daz
122512.0,-2.9017877349999996,0.9423209984999998,12.1226865305,-0.8924461877392685,-0.19186928065949263,0.5357165965948955,12.500714765163494,1.0584263274967998,0.0,0.0,0.0
122522.0,-2.77724328,0.8082640929999999,11.5684146725,-0.8905804307688865,-0.2289086580453163,0.5226597884607259,11.924537270487754,1.0576889579977724,0.12454445499999967,-0.13405690549999993,-0.5542718579999999
122532.0,-2.626417003,0.795123182,11.143394461499998,-0.8892487445496149,-0.1932027122080163,0.5170642628788321,11.476302857313854,1.0466355954361717,0.15082627700000018,-0.013140910999999922,-0.4250202110000014
122542.0,-2.4660782755,0.8442544984999999,10.8848911675,-0.8836532189677211,-0.0967418551087937,0.5301210710130017,11.192638806262357,1.0350025835010646,0.16033872749999967,0.04913131649999991,-0.2585032939999987
122552.0,-2.4217522175,0.8789700395,10.790256995,-0.9009738664645128,0.004513421445657336,0.5735535894488806,11.093562013683938,1.0680533689824938,0.044326058000000224,0.03471554100000007,-0.09463417249999928
122562.0,-2.4971653559999996,1.0896168815,10.740046947,-0.9340146945340174,0.05567425780936712,0.6399022809634449,11.080239536554272,1.1335598800991138,-0.07541313849999964,0.21064684200000006,-0.050210048000000285
122572.0,-2.6312222614999996,1.1123683094999999,10.6095204355,-0.988640009462936,0.050878093024886696,0.7145133611569506,10.98738448024302,1.2208714067961972,-0.13405690550000005,0.02275142799999985,-0.1305265114999994
122582.0,-2.507952671,0.7412846735,10.407209245999999,-1.079768885697316,0.027961919946201154,0.7707356523514439,10.730765762850753,1.3269198021330102,0.12326959049999964,-0.37108363599999983,-0.20231118950000138
122592.0,-2.3666388444999997,0.32469818149999996,10.0887873205,-1.2098028962879013,0.03622256329589032,0.7824607742663418,10.367740251744701,1.4412425143686964,0.14131382650000024,-0.4165864920000001,-0.31842192549999915
122602.0,-2.3212340549999997,0.0744324735,9.448315009,-1.3803390175002672,0.08445124651624963,0.7571465187954162,9.729559303508958,1.5766225506429143,0.04540478950000004,-0.250265708,-0.6404723115
122612.0,-2.2254230844999996,-0.1960349335,8.5852317425,-1.548210020944838,0.20116315892636244,0.7073173686509779,8.871140945369284,1.7139774635212075,0.09581097050000009,-0.270467407,-0.8630832665000003
122622.0,-2.129612114,-0.37088750299999995,7.680176013999999,-1.6641208272282852,0.41193435538495365,0.6486969950642444,7.978590658881933,1.8329745857940174,0.09581097049999965,-0.17485256949999994,-0.9050557285000007
122632.0,-2.0686147509999997,-0.7359890825000001,6.9679190245,-1.719013177532759,0.7130368126097634,0.5810148720011564,7.3056650928990035,1.949616906511247,0.06099736300000025,-0.3651015795000001,-0.7122569894999993
122642.0,-2.2230694884999997,-0.996944039,6.5046528785,-1.6960970044540733,1.0287947995635696,0.5032080939472492,6.945966055011759,2.0465537310173776,-0.15445473750000005,-0.2609549564999999,-0.4632661459999996
122652.0,-2.437344791,-1.159734429,6.2520335745,-1.6185572617757216,1.2456955923551647,0.4139432293539991,6.809813315554108,2.08394676409644,-0.21427530250000038,-0.16279039000000006,-0.25261930399999954
122662.0,-2.568950034,-1.4410872174999998,6.234087405,-1.4925200551722029,1.3925161796914318,0.3038932386987487,6.894931647145614,2.063751081482568,-0.1316052430000001,-0.2813527884999998,-0.017946169500000053
122672.0,-2.6611325439999995,-1.5440570425,6.365790714499999,-1.3630183700034757,1.4276898001068736,0.19117987560495486,7.070292072329415,1.9830953046014865,-0.09218250999999933,-0.10296982500000018,0.13170330949999887
122682.0,-2.6647610045000003,-1.6038776074999999,6.5166169915,-1.2793490309921194,1.3528134298670647,0.10404780335764195,7.220780539862036,1.864849609087209,-0.003628460500000763,-0.05982056499999988,0.15082627700000106
122692.0,-2.5893478659999998,-1.505713041,6.520245452,-1.242578434311103,1.1694875358960843,0.056883770980999185,7.1753393569449315,1.7073189583180837,0.07541313850000053,0.09816456649999994,0.003628460499999875
122702.0,-2.518739986,-1.3153659645,6.327544779499999,-1.2252577868143113,0.9056897461034015,0.05714906102730233,6.936285870277983,1.5247283612244678,0.07060787999999985,0.19034707649999993,-0.1927006725000009
122712.0,-2.4911832995,-1.0519593455,5.9229224005,-1.1924822487911098,0.6075176966926902,0.1067111757961853,6.511038508459091,1.3425643152253444,0.027556686500000094,0.26340661899999995,-0.4046223789999992
122722.0,-2.4541141625,-1.0771624359999998,5.38777351,-1.1221367532894784,0.34105478913221193,0.19117987560495486,6.017562515767514,1.1883008908140207,0.03706913700000003,-0.025203090499999803,-0.5351488905000004
122732.0,-2.437344791,-1.307030312,4.8012377735,-1.0051595508330624,0.1630591306968222,0.266855606642177,5.540835859722329,1.0526850989402725,0.016769371499999686,-0.22986787600000014,-0.5865357365000001
122742.0,-2.5007938165,-1.460210185,4.266088883,-0.8407530259537004,0.06473426195646968,0.3049596348717172,5.1561320633473455,0.8966920063335256,-0.06344902549999976,-0.15317987300000002,-0.5351488904999995
122752.0,-2.355949596,-1.4314767004999998,3.9117746185,-0.700859650418599,0.04581489286485115,0.3337383689078517,4.785562110025086,0.7776146557739071,0.1448442205,0.02873348450000024,-0.35431426450000014
122762.0,-2.5474734705,-1.6648749704999999,3.7154454854999996,-0.5990703031130377,0.09217956444408051,0.31615068603550484,4.802703916131101,0.6836179901478366,-0.19152387450000008,-0.23339827000000013,-0.19632913300000032
122772.0,-2.6312222614999996,-1.6948833195,3.758496679,-0.5377848117585088,0.15826122058308983,0.27671497158669295,4.891038472777181,0.6251642129863229,-0.08374879099999966,-0.030008349000000045,0.043051193500000196
122782.0,-2.579737349,-1.5834797754999999,3.8495023909999997,-0.49408525794707475,0.20622461375714599,0.24260774734421978,4.8970523427422945,0.5877987346969609,0.051484912499999425,0.11140354400000008,0.09100571199999985
122792.0,-2.519916784,-1.4949257259999997,3.9320743839999994,-0.44079162923742793,0.21315357088756348,0.23781158255973936,4.903671327265981,0.5443216457091096,0.059820565000000325,0.08855404950000012,0.08257199299999973
122802.0,-2.5629679775,-1.2794736254999999,3.974046846,-0.36751572592169796,0.1713180287172594,0.2745839245700079,4.898867822899807,0.48970808385770814,-0.043051193500000196,0.21545210049999985,0.04197246200000038
122812.0,-2.7461561994999997,-1.2351475675,4.000328668,-0.25933149223682944,0.05220977924415837,0.33080621576450125,5.006954447323852,0.4235698718073964,-0.18318822199999962,0.04432605799999978,0.026281822000000066
122822.0,-2.9903417844999995,-1.321348021,4.1547834055,-0.095722582825629,-0.1417748404687514,0.381967052128211,5.286807139223582,0.41852329345481454,-0.24418558499999987,-0.08620045349999983,0.15445473750000005
123302.0,-2.5486502685,2.3740918984999997,16.061135237,0.5176733827877781,-0.01573763386523287,-0.6207315844595392,16.434475824767016,0.8084188916102021,0.4416915159999997,3.6954399194999996,11.906351831499999
123312.0,-2.1476563499999997,1.8114843879999998,15.968952726999998,0.5078140178432622,-0.19346800225431943,-0.6367188004078073,16.21423308956744,0.8370876748627657,0.4009939185000002,-0.5626075104999999,-0.09218251000000066
123322.0,-1.8651267635,1.6701705614999998,16.1234074645,0.5584425287851137,-0.317639451887456,-0.6710930600258357,16.31663065141574,0.9290418583498355,0.2825295864999997,-0.14131382650000002,0.1544547375000036
123332.0,-1.632807225,2.4232232149999997,16.0910455195,0.5778942232985905,-0.41543199520595026,-0.6780202718270012,16.354198729817007,0.9829837053436027,0.23231953849999987,0.7530526535,-0.03236194500000167
123342.0,-1.213867137,3.142639059,15.905503701499999,0.5283321085297075,-0.4013087908988122,-0.6151343135483934,16.258373279017526,0.9047506762974905,0.41894008800000004,0.7194158440000002,-0.1855418180000008
123352.0,-0.8260141295,3.512545897,15.8001802805,0.4265427612241462,-0.23237139128127304,-0.4960260640752925,16.206973033758224,0.6942456675275256,0.38785300750000007,0.3699068379999999,-0.10532342099999958
123362.0,-0.6667541334999999,3.6070820029999995,15.830090562999999,0.321023645307073,0.01144063324682283,-0.34973780216088374,16.249534420520714,0.4748721924851519,0.15925999600000007,0.09453610599999962,0.029910282499999497
123372.0,-0.7002928764999999,3.5640308094999997,16.0192608415,0.2576053616066071,0.22674270444359135,-0.21783977992916823,16.425877256084593,0.40648117553762936,-0.03353874300000004,-0.04305119349999975,0.18917027850000068
123382.0,-0.7565830474999999,3.422716983,16.361610993,0.21950133337706684,0.3991445826263392,-0.08221024375668891,16.732893465857583,0.4628776915912009,-0.056290171,-0.1413138264999998,0.3423501514999998
123392.0,-0.8499423555,3.3736837329999996,16.7027843465,0.16887456776446735,0.4796164784480418,0.04622504523906982,17.06127629644591,0.5105754996510219,-0.09335930800000003,-0.04903325000000036,0.34117335350000033
123402.0,-0.9804688669999999,3.4251686455,16.921864907499998,0.05216265535435453,0.5094598633278928,0.17146289104517493,17.292848562251173,0.5400646423913178,-0.13052651149999994,0.05148491250000031,0.2190805609999984
123412.0,-1.1527717075,3.4000636215,16.994826383499998,-0.13569236802555115,0.509992188749751,0.29003706976716565,17.369900375222876,0.6021843182658172,-0.1723028405,-0.025105023999999698,0.07296147599999969
123422.0,-1.4365761585,3.2408036254999995,16.8655747365,-0.34646530981339435,0.47695136068024646,0.3910270562753136,17.23409905944293,0.7074058029859291,-0.2838044510000002,-0.15925999600000074,-0.1292516469999967
123432.0,-1.7849083664999998,3.0288819190000003,16.6476709735,-0.520464164261717,0.3975458610315124,0.457375747789878,17.014845647197664,0.798823029569306,-0.34833220799999975,-0.2119217064999992,-0.21790376300000247
123442.0,-2.0314475475,2.7835195359999996,16.410644242999997,-0.6171903114072428,0.2645796972975764,0.48242296788524863,16.76854211360804,0.8268362695602184,-0.24653918100000016,-0.24536238300000068,-0.237026730500002
123452.0,-2.229051545,2.655444687,16.0575067765,-0.6427716022537237,0.08391892109439136,0.4789602346492919,16.427525107371675,0.8059780545131303,-0.1976039974999999,-0.12807484899999944,-0.353137466499998
123462.0,-2.244546052,2.5968009199999997,15.6038511475,-0.6363749705451645,-0.09008167868318333,0.47629511688149656,15.976906228397246,0.7999655307173539,-0.015494507000000102,-0.0586437670000004,-0.45365562899999823
123472.0,-2.1440278895,2.5464928055,15.0244742655,-0.6403735198614835,-0.17268462152157096,0.4781608738518785,15.388837128064253,0.8176405351574897,0.10051816250000023,-0.050308114499999945,-0.579376882
123482.0,-1.9883963539999998,2.388507674,14.489325375,-0.673147312555433,-0.10953337319666014,0.4864215172015677,14.818881158575241,0.837693712905329,0.15563153549999997,-0.15798513149999982,-0.5351488905000004
123492.0,-1.9548576109999998,2.287891445,14.004484599,-0.7437598434326196,0.08658403886218669,0.5056061763394893,14.32415807044229,0.9035004737360364,0.03353874300000004,-0.10061622899999989,-0.4848407760000004
123502.0,-2.0494917835,2.2209120255,13.678903818999999,-0.8548744849315866,0.33279414578252275,0.5298540356374465,14.008757135631171,1.0593902149517207,-0.09463417250000039,-0.06697941949999997,-0.325580780000001
123512.0,-2.2732795364999996,2.1754091695,13.376074466999999,-0.9843761701003138,0.5422336560218423,0.5461082869612698,13.741163453381363,1.2494991168752174,-0.22378775299999942,-0.04550285600000015,-0.30282935199999983
123522.0,-2.506775873,1.9874156889999999,13.063536531499999,-1.0824340034651112,0.6701366195957428,0.5535695695135454,13.449525385981964,1.3882311511676035,-0.23349633650000046,-0.1879934805000001,-0.3125379355
123532.0,-2.6946712870000002,1.685763135,12.74276101,-1.1261335572765452,0.7079736124497278,0.5522378832942738,13.13320253595,1.4402673725717676,-0.1878954140000002,-0.3016525539999999,-0.3207755214999981
123542.0,-2.8096052249999994,1.4296134369999998,12.397959196,-1.133327804453266,0.6696042941738845,0.5423785183497578,12.79246138650726,1.4237191718489448,-0.11493393799999918,-0.2561496980000002,-0.3448018140000002
123552.0,-2.8838415654999996,1.2308326415,12.113076013499999,-1.1242678003061635,0.5755415194669021,0.5250578708529662,12.51231799768198,1.367812814379285,-0.07423634050000016,-0.19878079549999983,-0.28488318250000155
123562.0,-2.936503276,1.0632369929999999,11.768274199499999,-1.1104116313745802,0.45829902696418306,0.5082712941072847,12.175623270611641,1.304374063534601,-0.052661710500000236,-0.16759564850000008,-0.3448018140000002
123572.0,-2.9652367605000003,0.9208444349999999,11.366103482999998,-1.1144101806908993,0.35304520109341303,0.4858874464504574,11.78256728839499,1.2659532279909702,-0.02873348450000046,-0.14239255799999995,-0.4021707165000006
123582.0,-3.0107396165,0.7879643275,10.937552878,-1.1447858909926085,0.2787029016047145,0.46643575193698056,11.371697488889739,1.2671907331825165,-0.0455028559999997,-0.1328801074999999,-0.4285506049999981
123592.0,-3.0370214385,0.6610662764999999,10.406032448,-1.2023416137356258,0.24166526954814282,0.4517802222079842,10.860295536893231,1.3069555569354534,-0.026281822000000066,-0.12689805100000007,-0.5315204300000005
123602.0,-3.00475756,0.462285481,9.893634985499999,-1.2713554230179855,0.23313759082289853,0.4336619592430311,10.35018304604465,1.3633636502365942,0.03226387850000023,-0.19878079549999994,-0.512397462500001
123612.0,-2.9855365259999997,0.38687234249999997,9.364566218,-1.339304581456629,0.24006654795331603,0.4277993982855821,9.836574556662416,1.4263172979847238,0.01922103400000008,-0.07541313850000003,-0.5290687674999983
123622.0,-2.9101233875,0.30076995549999996,8.8976716115,-1.3822047744706494,0.23367166157400884,0.4347266100867476,9.366314152466751,1.4676783399334241,0.07541313849999964,-0.086102387,-0.46689460650000036
123632.0,-2.8514796204999997,0.25644389749999996,8.500208086999999,-1.3787402959054404,0.20036379812894903,0.4656363911395672,8.969405611354189,1.4689750521733034,0.0586437670000004,-0.044326058,-0.3974635245000009
123642.0,-2.807251629,0.23486926749999998,8.042923997499999,-1.329710506558416,0.1505346479845109,0.5128004235162099,8.521998105544291,1.4330928043410394,0.044227991499999675,-0.021574629999999984,-0.4572840894999999
123652.0,-2.7353688845,0.10198916,7.621532246999999,-1.2524377992556188,0.11855847075872282,0.562629573660648,8.098172541697858,1.3781177704211158,0.07188274449999987,-0.13288010749999998,-0.4213917504999998
123662.0,-2.6982997474999997,-0.1230734575,7.359400492499999,-1.1682343894931524,0.11056486278458878,0.5996672057172198,7.839435197277211,1.3178000361548454,0.037069137000000474,-0.2250626175,-0.26213175450000037
123672.0,-2.717422715,-0.3564717275,7.16669982,-1.0986882547889345,0.12628678868655369,0.6087272098643223,7.672877205748365,1.262383875941514,-0.01912296750000042,-0.23339827000000002,-0.19270067249999911
123682.0,-2.6971229494999998,-0.64135491,7.0218555995,-1.058186144167154,0.17664826425285007,0.5770180680140893,7.549322114304713,1.2181594213343365,0.020299765500000344,-0.2848831825,-0.14484422049999957
123692.0,-2.673096657,-0.8976026745,6.926044629,-1.0408654966703623,0.2541880069312022,0.5037404193691074,7.478049913034405,1.1839623875498162,0.02402629249999988,-0.2562477645,-0.09581097050000054
123702.0,-2.6443631725,-1.0866748865,6.751290126,-1.032072527898815,0.34931543248190106,0.4051502605824517,7.331673564913344,1.162472239609831,0.028733484500000017,-0.18907221200000002,-0.17475450299999995
123712.0,-2.5702248985,-1.184839453,6.6435150425,-1.0278086885361928,0.4652262387653485,0.2927021875349611,7.221232074804025,1.1655473924530024,0.07413827400000006,-0.09816456649999994,-0.10777508349999998
123722.0,-2.5510038644999997,-1.2100425435,6.613604759999999,-1.0192827551402004,0.5744768686231856,0.19117987560495486,7.1910772207833045,1.185542387409925,0.01922103400000008,-0.025203090500000025,-0.029910282500000385
123732.0,-2.5606143814999998,-1.1381597989999999,6.6315509294999995,-0.9995640252511685,0.6482868426900258,0.10964332893953577,7.199279232628545,1.1964220536927026,-0.00961051700000004,0.0718827445000001,0.017946169500000053
123742.0,-2.5642428419999996,-1.0747107735,6.674700189499999,-0.9694536049957623,0.6594778938538134,0.058482492575825995,7.23062702807554,1.1739555301028326,-0.003628460499999875,0.06344902549999976,0.043149259999999856
123752.0,-2.5737552925,-1.0484289515,6.751290126,-0.9286844589984268,0.6077847320682453,0.03396759790231364,7.300913500202578,1.1104102406893241,-0.00951245050000038,0.026281822000000066,0.07658993650000046
123762.0,-2.579737349,-0.9789978695,6.683035842,-0.8913797915663,0.5043966631678573,0.03529928412158531,7.230245478804142,1.0248024034354846,-0.005982056500000166,0.06943108200000003,-0.068254284
123772.0,-2.5749320905,-1.0484289515,6.4963172259999995,-0.8551415203071417,0.37462968795282686,0.05315225704023531,7.066230681052977,0.9351147444443988,0.004805258500000242,-0.06943108200000003,-0.18671861600000028
123782.0,-2.615629688,-1.1381597989999999,6.2353622694999995,-0.821833656862082,0.2443286419866862,0.08166395570081468,6.856870206202745,0.8612642141103188,-0.040697597499999905,-0.08973084749999982,-0.2609549565
123792.0,-2.7245815695,-1.2567221974999998,5.9133118835,-0.7869270718221953,0.1332140004877192,0.10910925818842551,6.630984304165606,0.8055464086662079,-0.10895188150000035,-0.11856239849999994,-0.3220503859999999
123802.0,-2.8539312829999997,-1.4482460719999999,5.5769437885,-0.7410947256648241,0.06473426195646968,0.12483118409039044,6.4299799745596555,0.754317401098953,-0.12934971349999946,-0.19152387450000008,-0.3363680949999992
123812.0,-2.9915185825,-1.599072349,5.319519226,-0.6920666816470515,0.043416810472610944,0.11870333308663833,6.309001553539421,0.703513889389153,-0.13758729950000026,-0.15082627700000018,-0.2574245625000007
123822.0,-3.0921348115,-1.7798089085,5.144764723,-0.6470336962870938,0.05673890865308366,0.0888582028775353,6.2608003879928456,0.655566692339313,-0.10061622899999989,-0.1807365594999999,-0.17475450299999995
123832.0,-3.156760635,-1.8636557659999997,4.9652049615000005,-0.5988050130667345,0.08818276045701351,0.0414288804545894,6.171840149463924,0.6066794829655868,-0.06462582350000012,-0.08384685749999976,-0.1795597614999993
123842.0,-3.3087637099999996,-1.9151406784999998,4.887340160499999,-0.5439126627622609,0.10230421943489962,-0.018524924680667812,6.20497985101439,0.5537601564411632,-0.15200307499999965,-0.05148491250000009,-0.07786480100000137
123852.0,-3.3914337695,-1.979766502,4.8371301125,-0.46930332789800727,0.05567425780936712,-0.07714704359665336,6.230499670219119,0.4788495618610007,-0.08267005950000028,-0.06462582350000012,-0.050210047999999396
123862.0,-3.3374971945,-2.0910719795,4.820360740999999,-0.3728442161280367,-0.05490805826774161,-0.132039393901127,6.2247367189399645,0.3993270663311477,0.05393657499999982,-0.1113054775000002,-0.016769371500000574
123872.0,-3.1854941195,-2.0540028424999996,4.661100745,-0.2659934139916918,-0.19346800225431943,-0.18266615951372653,6.007675142466236,0.3762303682781695,0.1520030750000001,0.037069137000000474,-0.1592599959999994
124282.0,-1.9824142974999999,3.315039966,16.9373594145,1.0639212960892073,-0.0650344585878127,-0.6074077409498146,17.372207699629357,1.226826054843027,1.203079822,5.3690428085,12.276258669500002
124292.0,-2.5594375835,3.364073216,17.263038261,1.0527302449254197,-0.33522713475980287,-0.4914969346663671,17.77301885857298,1.209209426545475,-0.577023286,0.04903324999999992,0.3256788464999971
124302.0,-1.9872195559999997,2.8840376985,17.486826014,0.9741241060740992,-0.5550583353654966,-0.4592554673942759,17.8341189592877,1.2115787692201088,0.5722180275000002,-0.4800355175000002,0.22378775299999987
124312.0,-1.6771332829999999,2.7691037604999997,17.5718496695,0.8456888170783404,-0.6246044700697146,-0.48776542072560325,17.86758552499103,1.158980338495031,0.3100862729999998,-0.11493393800000007,0.08502365550000235
124322.0,-1.3922501005,3.1594084305,17.423475054999997,0.6594307699640096,-0.551860892175843,-0.5335977668829744,17.762255064187766,1.01199108766379,0.2848831824999998,0.39030467000000035,-0.14837461450000333
124332.0,-0.9851760589999998,3.4490968715,17.332469343,0.4342710791519771,-0.339489228793173,-0.5224067157191867,17.699755213625206,0.7594426135547789,0.40707404150000026,0.289688441,-0.09100571199999763
124342.0,-0.7361852154999999,3.6980877149999998,17.273825575999997,0.22589621975637408,-0.0525099758755014,-0.4352728981426218,17.68057893422685,0.49320269212986156,0.2489908434999999,0.24899084349999967,-0.058643767000003066
124352.0,-0.705098135,3.8429319355,17.340804995499997,0.0753458638085952,0.20009676275339391,-0.30497359750573316,17.775511445042135,0.3724575262134467,0.031087080499999975,0.1448442205,0.06697941950000086
124362.0,-0.8703401874999999,3.8656833634999996,17.544292983,-0.014453071535765041,0.3455856638703892,-0.1560202178235291,17.986195155789932,0.3794478234477792,-0.1652420524999999,0.02275142799999985,0.20348798750000086
124372.0,-1.1396307964999999,3.7962522814999997,17.727481205,-0.07360751587360885,0.36157287981865727,-0.011065387457644049,18.16518317030559,0.3691550576831212,-0.269290609,-0.06943108199999992,0.18318822200000184
124382.0,-1.340765188,3.568836068,17.853202458,-0.1455517329700671,0.29895395691560467,0.10857693276656724,18.255713630969005,0.34978239757752616,-0.20113439150000012,-0.22741621349999974,0.12572125299999826
124392.0,-1.5454299734999999,3.338968192,17.717870688,-0.2678574256328217,0.20888973152494134,0.199440518954644,18.095855992653945,0.39390232419230836,-0.2046647854999999,-0.22986787600000014,-0.13533176999999696
124402.0,-1.6663459679999997,3.117534035,17.398271964499997,-0.42960057807364027,0.11269765513052585,0.2585949632924878,17.75374875047971,0.5139346001130571,-0.12091599449999979,-0.22143415700000002,-0.31959872350000396
124412.0,-1.8100133905,2.9223817,16.960110842499997,-0.5777545969584309,0.020233602018370263,0.29909707391426826,17.30496527197238,0.6508984810101449,-0.1436674225000003,-0.19515233499999995,-0.43816112200000035
124422.0,-1.933282981,2.785873132,16.4956678985,-0.6774111519180552,-0.0626346308663205,0.3188158038033002,16.840597721275426,0.7513005274066106,-0.12326959050000008,-0.136508568,-0.4644429439999982
124432.0,-1.908177957,2.5692442334999996,15.994057751,-0.7331011176906902,-0.11992506356303437,0.3134873135969615,16.311101814079784,0.806283799549623,0.025105024000000142,-0.21662889850000022,-0.5016101474999992
124442.0,-1.8626751009999998,2.4662744085,15.628956171499999,-0.7568166515667891,-0.1364463502624127,0.2913705013156893,15.9316144505375,0.8223659888551178,0.04550285600000015,-0.10296982499999974,-0.365101579500001
124452.0,-1.790890423,2.5345286925,15.299746931,-0.7754689852828526,-0.1292503577564401,0.27032008520738576,15.611322184649921,0.8313427395378594,0.07178467799999977,0.068254284,-0.3292092404999991
124462.0,-1.6771332829999999,2.574049492,14.8675678655,-0.8189032490479834,-0.07595847437604522,0.2671226420177321,15.181669245226628,0.8647119329634657,0.11375714000000015,0.03952079949999998,-0.43217906549999974
124472.0,-1.583773975,2.5476696035,14.403124921499998,-0.8879170583303432,0.023165755161720734,0.27351752839703936,14.712204726580564,0.9293789286543181,0.09335930799999992,-0.026379888499999726,-0.46444294400000175
124482.0,-1.550235232,2.4423461824999997,13.866799233,-0.9555974360641794,0.152665695001196,0.28923770896975226,14.165324038582238,1.010015706082189,0.03353874300000004,-0.10532342100000047,-0.5363256884999981
124492.0,-1.4927682629999999,2.2436634535,13.4885567425,-0.99663361743707,0.2944248275066794,0.3134873135969615,13.755127981056148,1.0854671078592284,0.057466969000000034,-0.19868272899999972,-0.3782424904999999
124502.0,-1.604171807,2.127454651,13.313802239499998,-1.0107550764149562,0.39647946485854385,0.3457287808690528,13.577803966435454,1.1394517016856496,-0.11140354400000008,-0.1162088025000001,-0.17475450300000261
124512.0,-1.7764746475,2.042529062,13.2359374385,-1.0059589116304757,0.39328202166889026,0.37077600096442337,13.509915877540125,1.141971507239962,-0.1723028405,-0.08492558900000002,-0.07786480099999693
124522.0,-1.9201420699999998,2.0030082625,13.123455163,-0.9918374526525896,0.26164928948347793,0.403816829033928,13.413577564687897,1.1023928131943728,-0.14366742249999986,-0.03952079949999998,-0.11248227550000145
124532.0,-2.002714063,1.9898673515,12.766689236,-0.974783840531353,0.0322257593088233,0.44778341822091716,13.075121022128316,1.0731971044303528,-0.08257199300000018,-0.01314091099999981,-0.35676592699999965
124542.0,-2.013501378,1.9586822044999999,12.0436449315,-0.9598612754268016,-0.20759120656145755,0.5066725725124579,12.366891566334626,1.1050542397737768,-0.010787314999999964,-0.03118514700000019,-0.7230443045000001
124552.0,-1.87110882,1.5912270289999997,11.266762118499999,-0.9177604432101942,-0.36000731947961834,0.5636942245043646,11.53139108299465,1.1356234763071118,0.14239255800000006,-0.3674551755000002,-0.7768828130000003
124562.0,-1.758528478,1.2176917305,10.580786951,-0.8410183160000035,-0.39011773973502456,0.60206528810946,10.794825059301191,1.105434878158715,0.112580342,-0.3735352984999998,-0.6859751674999988
124572.0,-1.6867437999999997,0.9028982655,10.1929339435,-0.76640898113575,-0.3152413694952158,0.6036640097042868,10.37093208449635,1.0252658601645794,0.07178467800000021,-0.31479346499999994,-0.3878530075000004
124582.0,-1.6591871135,0.6634198725,10.185775088999998,-0.7344345492392138,-0.18307631188794518,0.5682250992425418,10.341326895931939,0.9464622583599918,0.02755668649999965,-0.23947839299999996,-0.0071588545000018655
124592.0,-1.6842921375,0.6035993075,10.299434162499999,-0.7733379382661675,-0.07169463501342307,0.5162649020814186,10.453684335971259,0.9325884068401297,-0.02510502399999992,-0.05982056499999999,0.11365907350000093
124602.0,-1.617312718,0.5245577084999999,10.303062623,-0.8876500229547881,-0.018135716257473077,0.45817510858729144,10.442411629063995,0.999087532493917,0.06697941949999997,-0.07904159900000007,0.003628460500001651
124612.0,-1.4927682629999999,0.4563034245,10.089964118500001,-1.0259446768950629,-0.016536994662646274,0.4182070687166213,10.20999244930416,1.1080311839322647,0.12454445500000011,-0.06825428399999994,-0.21309850449999956
124622.0,-1.3658702119999997,0.48150651499999997,9.626697972499999,-1.1410561223810969,-0.03625572455167821,0.4251342805177868,9.735027674010587,1.2182211246147097,0.12689805100000018,0.02520309049999997,-0.46326614600000227
124632.0,-1.2617235889999998,0.518575652,8.946802928,-1.2106022570853148,-0.03438996758129627,0.4696331951266342,9.05020164164068,1.2989595192673067,0.10414662299999988,0.03706913700000003,-0.6798950444999985
124642.0,-1.1600286285,0.38814720699999994,8.337417697,-1.2095358609123463,0.01730319420427178,0.5383817143626909,8.426675413678295,1.324058635303872,0.10169496049999971,-0.13042844500000006,-0.609385231000001
124652.0,-1.167187483,0.12954584649999998,7.920831204999999,-1.145052926368164,0.11163125895755732,0.6071284882694955,8.007413797532822,1.3008507767723199,-0.007158854499999867,-0.25860136049999993,-0.4165864920000004
124662.0,-1.2773161625,-0.212804305,7.620355448999999,-1.0715082423476268,0.24806015592745007,0.6385705947441733,7.729595035984372,1.2717846354039581,-0.11012867950000005,-0.3423501515,-0.300475756
124672.0,-1.412549866,-0.6150730879999999,7.518660488499999,-1.0427312536407443,0.4074052259760284,0.6116576176784208,7.6748855085173435,1.2756929594286464,-0.13523370349999997,-0.4022687829999999,-0.10169496049999971
124682.0,-1.514342893,-0.8987794724999999,7.3450827835,-1.0800359210728712,0.573410472450217,0.5258572316503796,7.5532297750191,1.3310909017803056,-0.10179302700000004,-0.28370638449999996,-0.17357770499999958
124692.0,-1.4927682629999999,-1.092656943,7.1618945615,-1.1565110129075065,0.7431472328651696,0.4051502605824517,7.39695815806399,1.433154655416342,0.02157463000000015,-0.19387747050000004,-0.18318822200000007
124702.0,-1.4987503194999998,-1.1728753399999998,7.073340512,-1.209003535490488,0.9016929421163346,0.2982977131168549,7.324891472375675,1.5374398317793307,-0.005982056499999944,-0.08021839699999989,-0.0885540494999999
124712.0,-1.5777919185,-1.0352880405,7.0145986785,-1.2212609828272443,0.9933558891018247,0.22395541362815638,7.264010138022949,1.5900912985998013,-0.07904159900000018,0.13758729949999982,-0.05874183350000006
124722.0,-1.6831153395,-1.0041028934999998,7.0218555995,-1.2047396961278658,1.0061456618604392,0.18691603624233272,7.290237028178493,1.5807164302655263,-0.10532342100000003,0.03118514700000019,0.007256921000000638
124732.0,-1.814818649,-1.0125366125,6.8302336585,-1.177029103593952,0.9512550568852174,0.17839010284634044,7.139389956440078,1.5238460298699497,-0.13170330949999998,-0.008433719000000117,-0.19162194100000018
124742.0,-1.9106296194999999,-1.0962854035,6.593206928,-1.1362599575966164,0.8481340233603845,0.18878179321271465,6.951454871051459,1.4304043408307825,-0.09581097049999987,-0.0837487910000001,-0.23702673050000023
124752.0,-1.9644681279999998,-1.1753270025,6.2820419235,-1.0792365602754577,0.7490097938226186,0.2154277349029121,6.68614831703164,1.3312311344176122,-0.05383850849999994,-0.07904159899999996,-0.3111650045000003
124762.0,-2.0578274359999997,-1.2100425435,5.9599915375,-1.0251453160976494,0.6757321451776366,0.24900263372352702,6.420308079874819,1.252812501033005,-0.09335930799999992,-0.03471554099999996,-0.3220503859999999
124772.0,-2.2134589714999997,-1.310560706,5.6271538365,-0.9806446561595499,0.60511961430045,0.2777813677596615,6.187231229092842,1.1853253467043703,-0.15563153549999997,-0.10051816250000001,-0.3328377009999999
124782.0,-2.3475158769999998,-1.5583747515,5.201054894,-0.9438740594785334,0.5552904641560119,0.2921698621131028,5.915262857158684,1.1334059149599822,-0.13405690550000005,-0.24781404549999997,-0.42609894249999947
124792.0,-2.4755907259999996,-1.703218972,4.7592653115,-0.8967100271018906,0.5350394088451217,0.2839092187634136,5.628508738065984,1.082109276469462,-0.12807484899999988,-0.1448442205,-0.4417895825000002
124802.0,-2.5868962035000003,-1.8349222815,4.5282206375,-0.8255634254735937,0.5243806831031923,0.2591290340435981,5.528449501325737,1.0117697003645802,-0.11130547750000064,-0.13170330949999998,-0.2310446740000005
124812.0,-2.7485097955,-2.0216408974999998,4.3977921925,-0.7077868622197644,0.49960049838337683,0.22315605283074297,5.566139971543835,0.8946292663616675,-0.1616135919999997,-0.18671861599999984,-0.13042844499999973
124822.0,-2.892177218,-2.1018592944999996,4.2504963095,-0.5836154125866279,0.46949007812797067,0.17625905582965534,5.554207453027603,0.7694771848672509,-0.14366742250000009,-0.08021839699999989,-0.14729588299999996
124832.0,-2.9376800739999998,-2.144910488,4.114085808,-0.4818278106103186,0.46176350552939177,0.10751053659359872,5.491475872140025,0.675974917874154,-0.0455028559999997,-0.043051193500000196,-0.13641050150000034
124842.0,-2.9316980174999996,-2.1605030615,3.8950052469999994,-0.40828312658978155,0.5017315454000619,0.02863736236672296,5.332325254400919,0.6474949834792428,0.005982056500000166,-0.015592573500000206,-0.21908056100000017
124852.0,-2.8754078465,-2.1809008935,3.7884069615,-0.3445995528430124,0.5523600563419134,-0.05130046270386932,5.232239128415723,0.6530560627811957,0.05629017099999967,-0.020397832000000005,-0.10659828549999961
124862.0,-2.796464314,-2.1222571264999996,3.7980174785,-0.2689238218057903,0.5451658091651929,-0.11764915421843376,5.171955600877392,0.6191664597712676,0.07894353249999986,0.0586437670000004,0.00961051700000004
124872.0,-2.7365456825,-1.8767966769999997,3.7621251395,-0.1743304670062016,0.4535028621797026,-0.14855893527125333,5.01643634510252,0.508060739460068,0.059918631499999986,0.2454604494999999,-0.03589233899999966
124882.0,-2.680353578,-1.6170185185,3.8566612455,-0.04376238566450582,0.2739067368202341,-0.14163172347008784,4.9671803022248895,0.31144757499082465,0.056192104500000006,0.25977815849999986,0.09453610599999962
124892.0,-2.603665575,-1.4482460719999999,3.9704183855,0.12091117459041116,0.031426398511409895,-0.09393536567158682,4.963941303784718,0.15630413810288443,0.07668800300000012,0.1687724465,0.11375714000000015
124902.0,-2.49481176,-1.2590757934999999,4.0373978049999995,0.28718345644015497,-0.21771586155227665,-0.01719323846139614,4.910187227329602,0.36079099416858357,0.1088538149999998,0.1891702785,0.06697941949999953
124912.0,-2.2840668515,-1.181309059,4.092511178,0.4358698007468039,-0.414899669784092,0.05315225704023531,4.833332206361521,0.6041104051566057,0.21074490850000016,0.07776673449999993,0.05511337300000019
124922.0,-2.1631508569999998,-1.181309059,4.14036763,0.5600412503799405,-0.5241485543126772,0.10484716415505535,4.818439252970522,0.7741904397152898,0.12091599450000023,0.0,0.04785645200000044
125302.0,-1.1348255379999999,3.6214977784999998,16.189210086,0.7353735363767868,-0.15829612716812969,-0.7992613136460393,16.62809665506012,1.0975657380635215,1.028325319,4.8028068374999995,12.048842456
125312.0,-0.7864933299999999,3.6238513745,16.399856928,0.5597742150043853,-0.17481566853825603,-0.6662951499121033,16.81386861496989,0.8876130443761208,0.348332208,0.002353596000000291,0.21064684199999917
125322.0,-0.6595952789999999,3.5161743574999997,16.4585987615,0.37778000725267663,-0.10367081223921118,-0.5485203319875259,16.84292199223368,0.6740474210275386,0.12689805099999996,-0.10767701700000032,0.05874183350000095
125332.0,-0.8834810985,3.6705310284999997,16.7255357745,0.2703968796944735,-0.07942295294125397,-0.46884779696323675,17.146337329781755,0.547029007201352,-0.22388581950000008,0.15435667099999995,0.2669370129999997
125342.0,-0.806891162,3.6250281724999995,16.8979366815,0.22962773369713796,-0.12338954212824312,-0.4174199252239718,17.30121864756109,0.49213135356679666,0.07658993650000001,-0.04550285600000015,0.1724009070000001
125352.0,-0.49798168699999995,3.6514080609999997,17.035523980999997,0.1803309089745581,-0.15429932318106268,-0.36066356327836824,17.429568092633538,0.43174729152870656,0.30890947500000004,0.02637988850000017,0.13758729949999804
125362.0,-0.27174227149999997,3.9422733,17.042780902,0.06975033822670139,-0.11353017718372715,-0.2559438081587085,17.494906216027246,0.2885505913161321,0.22623941549999999,0.2908652390000004,0.007256921000003302
125372.0,-0.18201142399999998,4.1075153525,16.927846963999997,-0.10211921453418822,-0.0061453042962720346,-0.10485938145981932,17.4200118646944,0.14649774272018407,0.08973084749999999,0.16524205250000001,-0.11493393800000362
125382.0,-0.312439869,4.0332790119999995,16.803302508999998,-0.2838463869103418,0.13694551442848307,0.05555033943247552,17.283400518108294,0.32001357079849063,-0.130428445,-0.07423634050000061,-0.12454445499999878
125392.0,-0.5913409949999999,3.7711472575,16.709943200999998,-0.41787720148799434,0.2334046261984537,0.1805211498630255,17.140403658921322,0.5115534777539359,-0.27890112599999994,-0.2621317544999995,-0.09335930800000014
125402.0,-0.8571012100000001,3.5316688645,16.606973376,-0.4791626928425232,0.24646143433262327,0.2615271164358383,16.999966828315724,0.5989462058120385,-0.26576021500000013,-0.23947839300000018,-0.10296982499999885
125412.0,-1.051076747,3.4215401849999996,16.375928702,-0.49621630496375985,0.19769868036115368,0.3198821999762687,16.762539796183674,0.6226074295975645,-0.19397553699999992,-0.11012867950000027,-0.23104467399999962
125422.0,-1.1552233699999999,3.364073216,15.965324266499998,-0.5100724738953428,0.15453145197157792,0.37397344415407696,16.35674504819637,0.6510837390125956,-0.10414662299999988,-0.05746696899999959,-0.4106044355000016
125432.0,-1.1600286285,3.2084416805,15.476953096499997,-0.5444467335133711,0.18917100163590939,0.4246019550959285,15.848528057437072,0.7158873750560195,-0.004805258500000242,-0.15563153549999997,-0.48837117000000063
125442.0,-1.168364281,3.0133874119999997,15.057914941999998,-0.5990703031130377,0.3181386160535264,0.46057319097953164,15.400856508273282,0.8198933292480602,-0.00833565249999979,-0.1950542685000003,-0.41903815449999904
125452.0,-1.235441767,2.7883247945000003,14.878355180499998,-0.663287947610917,0.47695136068024646,0.48402343480932747,15.18770964946271,0.9495852712343744,-0.06707748600000007,-0.22506261749999945,-0.1795597615000002
125462.0,-1.5131660949999999,2.690160228,14.858055414999997,-0.7368326316314541,0.5670155860709098,0.5000106507575954,15.175257638622854,1.0556702386424017,-0.2777243279999999,-0.09816456650000038,-0.020299765500000788
125472.0,-1.7884387604999998,2.5860136049999998,14.732334161999999,-0.81810388825057,0.5270458008709877,0.5080042587317295,15.064117943847096,1.0977884928691939,-0.27527266549999996,-0.1041466230000001,-0.12572125299999826
125482.0,-1.8770908764999998,2.335747897,14.3301634455,-0.8828538581703076,0.40287435123785104,0.5098700157021114,14.640108359289007,1.096223567838052,-0.088652116,-0.2502657079999997,-0.4021707164999988
125492.0,-1.838746875,2.202965856,13.8141375225,-0.9246876550113597,0.2787029016047145,0.5183959490981037,14.109019956168696,1.0961099063208117,0.038344001499999836,-0.13278204100000002,-0.5160259230000008
125502.0,-1.758528478,2.1561881355,13.2479015515,-0.9516006320771123,0.1878393154166377,0.546640612383128,13.536929681498833,1.1133927117115292,0.08021839700000011,-0.046777720500000175,-0.5662359709999993
125512.0,-1.6962562505,2.1669754505,12.67215313,-0.9694536049957623,0.1396088868670264,0.6052627312991136,12.96751837556434,1.1513791327930138,0.06227222749999983,0.010787314999999964,-0.5757484215000002
125522.0,-1.6568335174999997,2.0186008359999996,12.242327660499999,-0.9862401817414437,0.1396088868670264,0.6668152580291976,12.517764704085737,1.1986671455054532,0.03942273300000032,-0.14837461450000022,-0.4298254695000008
125532.0,-1.6580103154999999,1.7899097579999999,11.7767079185,-1.0347376456666102,0.19343484099853156,0.7198418513632893,12.02678779000231,1.2752534352221658,-0.0011767980000001454,-0.22869107799999977,-0.46561974199999945
125542.0,-1.6819385414999999,1.546900971,11.2595051975,-1.1184069846779663,0.26911057203575367,0.747021863804597,11.489050316018004,1.3716035682222343,-0.023928225999999997,-0.24300878699999995,-0.5172027210000003
125552.0,-1.766962197,1.2882996104999997,10.6214845485,-1.2066054530982477,0.374896723328382,0.7646078013476918,10.844252178277014,1.4768443934587476,-0.08502365550000013,-0.25860136050000015,-0.6380206489999996
125562.0,-1.9141600134999999,1.0572549365,10.046912924999999,-1.2660269328116467,0.5003998591807902,0.7678052445373454,10.282132846864409,1.5629296552345768,-0.14719781649999986,-0.23104467399999984,-0.5745716235000007
125572.0,-1.9932016124999998,0.8142461495000001,9.611105399,-1.2897424666877457,0.6357623599777144,0.763009079752865,9.849324669779909,1.6278243960966852,-0.07904159899999996,-0.24300878699999984,-0.4358075259999996
125582.0,-2.1571688005,0.5916351945,9.3011171925,-1.2993347962567066,0.7482104330252052,0.7518180285890774,9.566304953629732,1.6772954757474274,-0.1639671880000002,-0.22261095500000005,-0.3099882064999999
125592.0,-2.3810546199999996,0.34862640749999996,9.065267259999999,-1.3017328786489466,0.7751234100909576,0.7278354593374233,9.379234082304247,1.6807942301470533,-0.22388581949999953,-0.24300878700000006,-0.23584993250000075
125602.0,-2.5330576949999997,0.087671451,8.7001656805,-1.2812147879625013,0.7106387302175232,0.6905307919052965,9.061840344966864,1.6196763603721351,-0.1520030750000001,-0.26095495649999995,-0.3651015794999992
125612.0,-2.464803411,-0.061978028,8.218953364999999,-1.2409797127162763,0.5939285631366624,0.6462989126720042,8.580809492517405,1.520027654355001,0.06825428399999955,-0.149649479,-0.48121231550000054
125622.0,-2.3606567879999996,-0.10267562549999999,7.629965965999999,-1.1919499233692514,0.4772183960558016,0.6231157042177635,7.987466644507544,1.4271493258229273,0.10414662300000055,-0.040697597499999995,-0.5889873989999996
125632.0,-2.2362103995,-0.141019627,7.070888849499999,-1.1349265260480927,0.3951477786392722,0.6236497749688739,7.417411449287048,1.3539346469862827,0.12444638849999956,-0.038344001500000016,-0.5590771165000001
125642.0,-2.176291768,-0.2415377895,6.5717303645,-1.0648480659220163,0.35970712284827533,0.638038269322315,6.926920408587962,1.2924331514029876,0.059918631499999986,-0.10051816249999998,-0.4991584849999997
125652.0,-2.1189228655,-0.37324109899999997,6.2041771225,-0.9958342566396565,0.37436265257727175,0.6425673987312404,6.5666549167193065,1.2428701156009752,0.05736890249999993,-0.13170330949999998,-0.3675532419999996
125662.0,-2.140399429,-0.5217137799999999,5.896542512,-0.9606606362242149,0.44337646185963153,0.6295105905970708,6.294657145526568,1.2311519518709912,-0.021476563499999823,-0.14847268099999994,-0.30763461050000007
125672.0,-2.1966896,-0.68450417,5.669126298499999,-0.9571961576590061,0.5211832399135387,0.598335519497948,6.118250088533474,1.2433269271180518,-0.05629017100000011,-0.16279039000000006,-0.22741621350000063
125682.0,-2.35947999,-0.8221895359999999,5.513494763000001,-0.938810859318498,0.5366381304399485,0.5535695695135454,6.053244250643346,1.2148191556391559,-0.16279039000000006,-0.13768536599999992,-0.15563153549999864
125692.0,-2.5031474124999997,-0.938300272,5.2896089435,-0.881520426621784,0.4793494430724866,0.5042744901202176,5.926729042591361,1.1230079752661424,-0.14366742249999964,-0.1161107360000001,-0.22388581950000042
125702.0,-2.613276092,-1.030482782,5.155552038,-0.7978528329396798,0.37542904875024025,0.45551173614874807,5.871185869442663,0.9924752165392491,-0.11012867950000027,-0.09218251,-0.1340569055000005
125712.0,-2.5953299225,-1.079516032,5.0047257609999996,-0.6973951718533902,0.24006654795331603,0.4067489821772785,5.740067265527983,0.8422806584938856,0.017946169500000053,-0.04903324999999992,-0.15082627700000018
125722.0,-2.5055010085,-1.08069283,4.8479174275,-0.590012044295187,0.11003253736273051,0.36597983617994295,5.563068908459264,0.7029670064677035,0.08982891399999993,-0.0011767980000001454,-0.1568083334999999
125732.0,-2.4360699264999996,-0.987333522,4.767699030499999,-0.4850252537999722,0.0061121430404841425,0.3353370905026785,5.444283076392453,0.5896929873952007,0.06943108200000037,0.09335930800000003,-0.08021839700000033
125742.0,-2.404982846,-0.9705641505,4.6467830359999995,-0.3827035810725526,-0.07062998416970653,0.3150860351917883,5.321515746800664,0.5007293033191184,0.031087080499999864,0.01676937150000002,-0.12091599449999979
125752.0,-2.276907997,-0.9825282635,4.4899747025,-0.28251295536181814,-0.11885866739006584,0.30522667024727235,5.129283053650757,0.4325555143461335,0.12807484899999988,-0.011964112999999998,-0.1568083334999999
126252.0,-0.8763222439999999,2.885312563,15.311711043999999,0.7191192850529636,0.43831326169959595,-0.6111375095613264,15.605815081452374,1.0405479888547402,1.400585753,3.8678408264999997,10.8217363415
126262.0,-1.0594123995,3.5555970904999996,16.1808744335,0.6431765186401864,0.626702355830612,-0.5383939316674548,16.60076271545619,1.0470434100791088,-0.18309015550000007,0.6702845274999998,0.8691633895000024
126272.0,-0.9433016634999999,3.987776156,17.0403292395,0.5483161284650425,0.6392268385429232,-0.4587213966431657,17.526123281812286,0.9590030487890692,0.1161107360000001,0.4321790655000002,0.8594548059999987
126282.0,-1.0198915999999998,4.0476947875,17.8040711415,0.44972596967838685,0.565416864476083,-0.3153652878721074,18.286852139723184,0.7882924224117518,-0.0765899364999999,0.05991863150000043,0.7637419019999996
126292.0,-1.1180561665,4.0296505515,18.326079121,0.3314153356734473,0.39727882565595724,-0.1733408653203208,18.797162262102358,0.5456314192054172,-0.09816456650000016,-0.018044236000000602,0.5220079794999997
126302.0,-1.2282829124999999,3.8896115894999994,18.5164261975,0.18219666594494005,0.2187490964694573,-0.03957534078897142,18.96037437282757,0.28742477256878757,-0.11022674599999993,-0.1400389620000002,0.19034707650000016
126312.0,-1.316836962,3.8190037094999996,18.3559894035,-0.018982200944690327,0.08232019949956454,0.07926587330857447,18.79524397019279,0.11584480078848462,-0.08855404950000012,-0.07060787999999985,-0.16043679399999888
126322.0,-1.4018606175,3.938742906,17.97166679,-0.2441436370859748,0.012239994044236233,0.1805211498630255,18.451550506156703,0.303881257289159,-0.0850236554999999,0.11973919650000031,-0.3843226135000002
126332.0,-1.4365761585,3.838126677,17.563514017,-0.43599546445294746,0.0061121430404841425,0.28044474019820487,18.03529850247079,0.5184386710315187,-0.03471554100000018,-0.10061622899999989,-0.4081527730000012
126342.0,-1.4556991259999998,3.5962946879999995,17.158891638,-0.5564371454745721,0.0391529711099888,0.3793036796896677,17.59204245313774,0.6745565457667368,-0.019122967499999755,-0.24183198900000047,-0.4046223789999992
126352.0,-1.5861275709999998,3.3796657894999997,16.7051379425,-0.6390400883129598,0.10150485863748622,0.4688338343292208,17.117230360024838,0.7990498326199004,-0.13042844499999995,-0.21662889849999978,-0.45375369550000144
126362.0,-1.8088365924999998,3.256396199,16.239518200499997,-0.7232417527461742,0.20276188052118924,0.5389140397845491,16.661271182223743,0.9244562484967851,-0.22270902150000005,-0.12326959049999964,-0.4656197420000012
126372.0,-1.9584860714999999,3.0074053555,15.826462102499999,-0.8093091741497705,0.3389237421155269,0.5716895778077506,16.228279555960892,1.0472247207293093,-0.14964947900000003,-0.24899084350000011,-0.41305609799999843
126382.0,-2.0183066364999998,2.7954836489999995,15.397911497499999,-0.8831208935458628,0.49400497280148303,0.5666263776477151,15.779225868071252,1.159745177880041,-0.05982056499999988,-0.21192170650000053,-0.42855060499999986
126392.0,-2.0207582989999997,2.6745676544999997,15.056738144,-0.9305502159688087,0.6293674735984072,0.5567670127031992,15.425373246001524,1.2538008724265919,-0.0024516624999999515,-0.12091599449999979,-0.34117335349999856
126402.0,-2.0638094925,2.6458341699999997,14.7287057015,-0.9662561618061087,0.7388833935025474,0.5812819073767115,15.106108688801074,1.3481425352185952,-0.043051193500000196,-0.028733484500000017,-0.3280324425000014
126412.0,-2.209830511,2.6482858325,14.3803734935,-1.01635060199685,0.8084295282067655,0.6367048377737914,14.788235545545119,1.4463470879081974,-0.14602101849999993,0.0024516625000003955,-0.34833220799999864
126422.0,-2.4564677584999997,2.496184691,14.017625509999998,-1.0893612152662766,0.8345431444751047,0.6910631173271548,14.448494620504086,1.5364694430566264,-0.24663724749999982,-0.1521011415000002,-0.36274798350000204
126432.0,-2.63602752,2.2711220735,13.6166315915,-1.1562439775319515,0.8238861640624272,0.7115812080136001,14.05415570063076,1.5880920510192422,-0.1795597615000002,-0.2250626174999999,-0.4009939184999993
126442.0,-2.8263745965,1.9659391255,13.268299383499999,-1.1740969504506014,0.7857803905036351,0.6977250390820171,13.707701431498233,1.5756822970762379,-0.19034707650000016,-0.3051829479999999,-0.3483322080000004
126452.0,-2.9173803084999994,1.834235816,12.845730835,-1.1701001464635343,0.6954508750666686,0.6553571714898547,13.299937202046877,1.5107214483842355,-0.0910057119999994,-0.13170330949999998,-0.42256854849999925
126462.0,-2.8514796204999997,1.743230104,12.37403097,-1.1708995072609478,0.5936615277611073,0.6249814611881455,12.817426795895415,1.4539743782049435,0.06590068799999971,-0.09100571200000007,-0.4716998649999997
126472.0,-2.6683894649999997,1.685763135,11.862908372,-1.1959467273563185,0.5467645307600196,0.6263131474074172,12.275613822808035,1.4565397987651754,0.18309015549999996,-0.057466969000000034,-0.511122598
126482.0,-2.602488777,1.617508851,11.260780061999998,-1.2673586190309185,0.5686143076657366,0.6593557208061738,11.670237800585342,1.53761830981358,0.06590068799999971,-0.068254284,-0.6021283100000012
126492.0,-2.715069119,1.467859372,10.655023291500001,-1.381937739095094,0.6378951523236515,0.7027882392420528,11.093048850488453,1.6764764982874705,-0.11258034199999978,-0.14964947900000003,-0.6057567704999975
126502.0,-2.992793447,1.0645118574999999,10.124679659499998,-1.480529643211002,0.6981142475052119,0.7201088867388444,10.61127401958206,1.788264056496278,-0.27772432800000013,-0.40334751450000006,-0.5303436320000028
126512.0,-3.1484249825,0.5939887905,9.5896288355,-1.5311564088236016,0.7282246677606181,0.6825371839311625,10.110706392548586,1.8277330555815126,-0.15563153549999997,-0.4705230669999999,-0.5350508239999989
126522.0,-3.2345273695,0.2815489215,9.017410808,-1.5538055465267318,0.7308897855284133,0.6244491357662872,9.584108449901722,1.827142106724671,-0.08610238699999995,-0.312439869,-0.5722180275
126532.0,-3.246589549,0.0971839015,8.427246611,-1.5418151345655309,0.6762644705994949,0.5754193464192625,9.03151559003237,1.7792231359793276,-0.012062179499999992,-0.18436502,-0.590164197
126542.0,-3.169901546,0.007453054,7.8705230905,-1.4720019644857576,0.6003234495159696,0.5591650950954392,8.484896291495895,1.685183560049698,0.07668800299999967,-0.0897308475,-0.5567235204999994
126552.0,-3.0670297874999997,-0.0644296905,7.390487572999999,-1.379539656702854,0.5667485506953546,0.5690244600399552,8.00188287024358,1.5962839409875913,0.10287175850000052,-0.0718827445,-0.48003551750000106
126562.0,-3.0346678424999998,-0.24036099149999998,6.942814000499999,-1.323582655554664,0.6101828144604856,0.5810148720011564,7.580873865596055,1.5690036311731645,0.03236194499999989,-0.17593130099999998,-0.4476735724999994
126572.0,-3.181865659,-0.5491724,6.613604759999999,-1.3105258474204942,0.7077083224034246,0.5727542286514672,7.359730111786703,1.5957369685491438,-0.1471978165000003,-0.3088114085,-0.3292092405
126582.0,-3.3770179939999996,-0.8436660994999999,6.3083237455,-1.310258812044939,0.8089635989578757,0.5221274630388677,7.2049268904885135,1.6259819638113142,-0.1951523349999995,-0.29449369949999993,-0.30528101449999934
126592.0,-3.5218622145,-1.1321777425,6.015006844,-1.2886760705147773,0.8598573999460304,0.43392724928933424,7.06156124606323,1.6088298917645592,-0.14484422050000045,-0.288511643,-0.2933169014999999
126602.0,-3.5757007229999997,-1.3440994489999998,5.822306171499999,-1.220993947451689,0.8563929213808217,0.3411979061308755,6.963582996127195,1.529918647070141,-0.053838508499999715,-0.21192170649999986,-0.1927006725000009
126612.0,-3.4871466735,-1.345276247,5.6224466445,-1.1447858909926085,0.8217533717164901,0.2561968809002476,6.7514343937783945,1.4322884422930235,0.0885540494999999,-0.0011767980000001454,-0.1998595269999992
126622.0,-3.3734875999999994,-1.3261532794999997,5.550563899999999,-1.0842997604354931,0.7836493434869499,0.195443714967577,6.6293182693294765,1.3520393891260427,0.11365907350000048,0.0191229675000002,-0.07188274450000076
126632.0,-3.2967995969999997,-1.356063562,5.6463748705,-1.0432635790626026,0.7231632129298344,0.15893840833286363,6.677525375854245,1.279306587795473,0.07668800299999967,-0.029910282500000163,0.09581097050000054
126642.0,-3.4021230179999997,-1.3381173924999998,5.6810904115,-1.0278086885361928,0.5869996060062448,0.14454991397942235,6.755722570484497,1.1924151606355202,-0.10532342100000003,0.017946169500000053,0.03471554099999974
126652.0,-3.5482421029999998,-1.3620456185,5.5757669905,-1.0195480451865035,0.361040554396799,0.1384203176464183,6.74791581310306,1.0904075764135648,-0.14611908500000004,-0.02392822600000022,-0.10532342099999958
126662.0,-3.6284604999999996,-1.3824434505,5.185462320499999,-0.9846414601466169,0.07779107009063925,0.13202543126711105,6.478108903932986,0.9964943402382049,-0.08021839699999989,-0.020397832000000005,-0.3903046700000008
126672.0,-3.5661882724999994,-1.391955901,4.641977777499999,-0.8908474661444418,-0.19266864145690601,0.12296542712000849,6.016909315591277,0.9197015328918553,0.06227222750000028,-0.009512450499999936,-0.5434845429999999
126682.0,-3.4236976479999996,-1.505713041,4.226568083499999,-0.7301707098765918,-0.38798669271833947,0.11550414456773272,5.6438245110225616,0.8348797199001332,0.14249062449999972,-0.11375713999999992,-0.41540969400000005
126692.0,-3.283658686,-1.5272876709999998,3.9596310705,-0.5465777805300562,-0.48391347906645177,0.10910925818842551,5.365976165675806,0.7381221820361369,0.14003896199999977,-0.021574629999999928,-0.2669370129999993
126702.0,-3.1388144655,-1.508066637,3.8578380435,-0.4104159189357186,-0.46952323938375856,0.09445372845942913,5.197050663630329,0.6307256183612302,0.1448442205,0.01922103399999986,-0.10179302699999981
126712.0,-3.0466319554999997,-1.484138411,3.862643302,-0.35152676464417787,-0.38558861032609926,0.07153930070999558,5.138545161207092,0.5266569226930288,0.09218251000000022,0.023928225999999997,0.004805258499999798
126722.0,-2.962785098,-1.5379769195,3.9189334729999996,-0.33687123491518156,-0.2947250241380225,0.04329289209571935,5.147961548773011,0.44968805106701354,0.08384685749999976,-0.05383850849999994,0.05629017099999967
126732.0,-2.8826647674999997,-1.528464469,4.0290621525,-0.32541314837583873,-0.2731405372786086,0.019312068173317258,5.184525207141847,0.4252909900501696,0.08012033050000023,0.009512450499999936,0.11012867950000027
126742.0,-2.7737128859999998,-1.4171589915,4.072113346,-0.2889078417411254,-0.34135498576355494,0.011850785621041499,5.1267855312879105,0.44736049048277365,0.1089518814999999,0.11130547749999997,0.043051193500000196
126752.0,-2.7066354,-1.277021963,3.9715951835,-0.22762235038659648,-0.4948374948546843,0.029171433117833222,4.972949686465562,0.5454604048138842,0.06707748599999963,0.1401370285000001,-0.10051816250000023
126762.0,-2.669566263,-1.2482884784999997,3.933251182,-0.11863875590431455,-0.7199989309959687,0.07367034772668066,4.914801422113412,0.7334172994769289,0.03706913700000003,0.02873348450000024,-0.03834400150000006
126772.0,-2.5642428419999996,-1.1992552285,3.851855987,0.03963991797129521,-0.9779341598312028,0.13602223525417806,4.780203865989458,0.9881440140713673,0.10532342100000047,0.049033249999999695,-0.08139519499999981
126782.0,-2.40262925,-1.101090662,3.7345684529999996,0.2136387724196179,-1.1727181403415259,0.1906475501830966,4.57515349349527,1.2071685259970393,0.1616135919999997,0.09816456649999994,-0.11728753400000036
127252.0,-1.04146623,3.0624206619999996,13.652523930499997,0.6660926917188719,-0.05011189348326119,-0.5064177544416667,14.030484022019698,0.8382419804826706,1.36116302,4.163511324,9.917955477499998
127262.0,-0.6500828285,3.3808425874999997,14.422247889,0.6687578094866673,0.14467208702706197,-0.3886411911878373,14.827472423077683,0.7868983390515402,0.39138340149999995,0.31842192550000004,0.769723958500002
127272.0,-0.4250202109999999,3.7136802885,15.133328080499998,0.5925497530275868,0.3847543429436459,-0.24048891763229865,15.588126322845914,0.7463149695209157,0.22506261750000006,0.3328377010000003,0.7110801914999989
127282.0,-0.6787182464999999,4.039261068499999,16.0000398075,0.4662455110485132,0.4846779332788253,-0.09286896949861827,16.515978998509787,0.6789125282951096,-0.2536980355,0.32558077999999924,0.8667117270000002
127292.0,-0.8966220094999999,4.030925416,16.6476709735,0.3263538808426637,0.4260575596920918,0.021177825143699196,17.152178858068993,0.5371037143696411,-0.21790376300000003,-0.008335652499999568,0.647631166
127302.0,-0.97085835,3.9015757024999997,17.160068436,0.19605283487652306,0.2763048192124743,0.10591181499877189,17.624778229138276,0.35496250469520496,-0.07423634050000005,-0.1293497134999999,0.512397462500001
127312.0,-0.9648762935,3.9148146799999997,17.2833380265,0.056958820138834944,0.12335463554320324,0.18984818938568318,17.74740920750865,0.23345879361169258,0.005982056499999944,0.013238977499999915,0.12326959050000141
127322.0,-0.9205502354999999,3.9435481644999997,17.216358606999997,-0.10851410091349543,0.027961919946201154,0.26738793206403527,17.686208993072352,0.28991979111061594,0.04432605800000011,0.028733484500000017,-0.06697941950000441
127332.0,-1.0391126339999999,3.9447249624999996,17.219889001,-0.24707404490007326,-0.04105188933615863,0.3409326160845723,17.696473866357383,0.4230436029437415,-0.11856239849999994,0.0011767979999999234,0.0035303940000019907
127342.0,-1.1851336525,3.9459017605,17.278532767999998,-0.3203516935450552,-0.1425742012661648,0.40301746823651463,17.762949560606614,0.5342056627626105,-0.14602101850000015,0.0011767980000003675,0.058643766999999514
127352.0,-1.2437774195,3.9902278184999993,17.241463631,-0.34326786662374076,-0.24489587399358434,0.4467170220479486,17.740827727360553,0.6142987181680287,-0.05864376699999996,0.044326057999999335,-0.037069136999999586
127362.0,-1.1623822245,4.0332790119999995,17.206748089999998,-0.3640512473564892,-0.3045826437532864,0.48935192501566616,17.71131423291879,0.6817398360768536,0.08139519500000003,0.043051193500000196,-0.03471554100000063
127372.0,-0.9373196069999999,4.065640956999999,17.090637354,-0.44132569998853816,-0.256086925157372,0.5509044517457501,17.592552106014708,0.7508958660561503,0.2250626175,0.03236194499999989,-0.11611073599999955
127382.0,-0.8164036125,4.2475543145,16.8404697125,-0.6233199077402468,-0.08262039613090756,0.628178904377799,17.387054168281654,0.8887983872326894,0.1209159944999999,0.18191335750000093,-0.25016764149999915
127392.0,-0.9230018979999999,4.219997628,16.5160657305,-0.8575396026993819,0.12628678868655369,0.7163773727980806,17.07163553085157,1.1245083652208443,-0.10659828549999983,-0.027556686500000538,-0.32440398199999976
127402.0,-1.1839568544999999,3.9482553565,16.105461295,-1.0517912577878468,0.29975331771301816,0.8053769473450274,16.62457090328023,1.3582153469732616,-0.2609549565,-0.27174227149999997,-0.41060443549999803
127412.0,-1.5442531755,3.4957765254999997,15.648079139,-1.1639722954597824,0.4034066766597093,0.8647966817291743,16.107996527398612,1.5051384494794282,-0.3602963210000001,-0.4524788310000001,-0.4573821560000013
127422.0,-1.9428934979999999,3.0348639755,15.1297976865,-1.202875684486736,0.41220139076050877,0.8850477370400646,15.553006543070028,1.5492351002072187,-0.3986403224999999,-0.46091254999999975,-0.5182814525000001
127432.0,-2.287695312,2.739193478,14.618577021999998,-1.2002105667189404,0.3546439226882398,0.8709262780621784,15.04790765849561,1.5247263027123068,-0.344801814,-0.2956704975000002,-0.5112206645000015
127442.0,-2.542668212,2.5201129169999996,14.0224307685,-1.1860873624118027,0.26884353666019856,0.8477430696079378,14.472204234605073,1.4824804857215623,-0.2549729000000003,-0.21908056100000017,-0.5961462534999988
127452.0,-2.6779019154999997,2.194532137,13.4191256605,-1.1866214331629128,0.18863867621405112,0.8376184146171186,13.85857364455859,1.4646704695292692,-0.13523370349999952,-0.3255807799999997,-0.6033051079999989
127462.0,-2.7904822575,1.8450231309999998,12.849261229,-1.2068724884738031,0.11775910996130941,0.8365520184441502,13.277590734558357,1.4731692675917494,-0.11258034200000022,-0.3495090060000001,-0.569864431500001
127472.0,-2.902964533,1.663011707,12.1370042395,-1.2774850193509897,0.06713234434870989,0.8298900966892877,12.589665719434965,1.5248581241895613,-0.11248227550000012,-0.18201142399999992,-0.7122569895000002
127482.0,-2.9245391629999995,1.3769517265,11.287061884,-1.4019217590304294,0.07938979168546607,0.8123041591461929,11.740813061550622,1.6221977081826489,-0.021574629999999484,-0.2860599804999999,-0.8499423554999996
127492.0,-3.0227037295,0.95909037,10.473011867499999,-1.532489840372125,0.1332140004877192,0.7773975741063064,10.942603426559685,1.7235481046365062,-0.09816456650000038,-0.4178613565,-0.8140500165000013
127502.0,-3.0442783595,0.565255306,9.722508943,-1.6206883087924064,0.19396716642038983,0.7219728983799744,10.203642704338296,1.7847965491620401,-0.021574629999999928,-0.393835064,-0.7505029244999992
127512.0,-3.0645781249999997,0.2336924695,9.0233928645,-1.6438697719173954,0.2427299203918594,0.6449654811234806,9.532464006836797,1.7824719108917342,-0.0202997654999999,-0.33156283649999996,-0.6991160784999995
127522.0,-2.9783776714999997,0.0971839015,8.320648325499999,-1.6222870303872332,0.2861641841569903,0.568490389288845,8.838176668377162,1.7426664832866459,0.08620045350000005,-0.136508568,-0.7027445390000011
127532.0,-2.7162459169999997,0.11277647499999999,7.537783456,-1.6102966184260321,0.38582073911661446,0.5128004235162099,8.013044979561759,1.7334581380596443,0.2621317544999999,0.015592573499999984,-0.7828648694999991
127542.0,-2.4433268475,0.05295591,6.842295838,-1.6007042888570715,0.5520930209663583,0.49228233282976464,7.265649506192157,1.7633498856952632,0.2729190694999999,-0.059820564999999985,-0.6954876179999996
127552.0,-2.268474278,-0.014121576,6.3214646565,-1.5586017113112123,0.7471440368522365,0.5034751293228042,6.716181234320215,1.8002640673392085,0.17485256950000005,-0.067077486,-0.5208311815000002
127562.0,-2.229051545,-0.281058589,5.9707788525,-1.4834600510251001,0.9072884676982284,0.5157308313303084,6.379487818483453,1.81378178869186,0.03942273299999988,-0.266937013,-0.35068580400000027
127572.0,-2.323587651,-0.5946752559999999,5.8319166885,-1.381937739095094,0.9832294887817535,0.5085365841535878,6.305866355512395,1.7706218116153114,-0.09453610600000006,-0.3136166669999999,-0.13886216399999984
127582.0,-2.4684318714999995,-0.8976026745,5.8079884625,-1.2649605366386782,0.9632454688464185,0.45844214396284655,6.3742902699861155,1.65473145611837,-0.14484422049999957,-0.30292741850000005,-0.023928225999999775
127592.0,-2.499518952,-1.254270535,5.73492892,-1.1714318326828062,0.8907671809988499,0.36491344000697445,6.380454473141293,1.516205964921969,-0.031087080500000308,-0.3566678605000001,-0.07305954250000024
127602.0,-2.3810546199999996,-1.4278482399999999,5.6140129255,-1.1309297220610257,0.8329444228802779,0.23941030415456618,6.263011482312284,1.4248213016318116,0.11846433200000028,-0.1735777049999998,-0.12091599449999979
127612.0,-2.2158125675,-1.342922651,5.2728395720000005,-1.1487826949796758,0.8150914499616279,0.12296542712000849,5.875040743085018,1.4139293646968796,0.16524205249999957,0.0849255889999998,-0.34117335349999944
127622.0,-1.9728037804999998,-1.184839453,4.778486345499999,-1.1882201547577396,0.8374752976184552,0.043027602049416205,5.303746886859361,1.4543326252380333,0.24300878700000017,0.15808319800000015,-0.49435322650000124
127632.0,-1.8315880205,-0.995767241,4.3283611104999995,-1.19488033118335,0.8577263529293453,0.011850785621041499,4.804266539023064,1.4709092233982843,0.1412157599999999,0.1890722119999999,-0.4501252349999998
127642.0,-1.734600252,-0.8544534144999999,4.013469579,-1.1258665219009902,0.817224242307565,0.036632715670108985,4.454982237152872,1.391679863765361,0.09698776850000002,0.14131382650000013,-0.3148915314999998
127652.0,-1.6842921375,-0.7874739949999999,3.7872301634999994,-1.0032937938626802,0.7199640244109289,0.10404780335764195,4.219012634322136,1.2392629174767158,0.050308114499999945,0.06697941949999997,-0.22623941550000026
127662.0,-1.7178308804999998,-0.8413125035,3.6196345149999996,-0.867666003019453,0.594993213980379,0.187450106993443,4.0939594141520415,1.0686434204589985,-0.033538742999999815,-0.05383850850000005,-0.16759564849999986
127672.0,-1.8555162464999997,-0.893974214,3.5299036674999997,-0.724840474341001,0.43538285388549747,0.26632328122031873,4.086850907257606,0.8864987494747665,-0.13768536599999992,-0.052661710500000014,-0.08973084749999982
127682.0,-1.9716269825,-0.9861567239999999,3.4975417225,-0.5790862831777026,0.2504582383196903,0.3196151646007136,4.13432172708423,0.7072652302704484,-0.11611073600000021,-0.09218250999999988,-0.03236194499999989
127692.0,-1.9943784104999998,-1.065198323,3.399377156,-0.4008235893667577,0.03568849254478005,0.360117275222494,4.082641027610089,0.540016361054592,-0.02275142799999985,-0.07904159900000007,-0.09816456649999994
127702.0,-1.9428934979999999,-1.067551919,3.3071946459999997,-0.23428427214145883,-0.14017611887392456,0.3801030404870811,3.9814618761030878,0.46799229252513697,0.05148491249999987,-0.002353596000000069,-0.09218251000000022
127712.0,-1.8818961349999999,-1.0256775235,3.2066764835,-0.09918706139083774,-0.2624818115366792,0.3995547350005579,3.856983473515664,0.48824047435284657,0.06099736300000003,0.04187439550000005,-0.10051816249999979
127722.0,-1.9380882394999999,-0.9693873524999999,3.0845836909999997,0.015924384095196264,-0.34828394289397246,0.4360600416352713,3.7696889009649523,0.5583042636390463,-0.056192104500000006,0.05629017100000011,-0.12209279250000016
127732.0,-2.0279171535,-0.9047615289999998,3.2557097335,0.13476734352199415,-0.414899669784092,0.4808242462904218,3.9408992977015536,0.6492271780260558,-0.08982891399999993,0.06462582350000001,0.17112604250000008
127742.0,-2.3199591905,-0.8879921575,3.5980598849999996,0.255474314589922,-0.46952323938375856,0.524790835477411,4.372273510819415,0.7490825179762826,-0.2920420370000003,0.016769371499999797,0.3423501514999998
128242.0,-1.1276666835,3.2384500295,15.2710134465,-0.056019833001262,0.2483254459737532,0.06114586501436934,15.651295231571995,0.2618063513666316,1.1922925070000001,4.126442187,11.6729535615
128252.0,-1.0809870295,3.2431572214999997,15.4110524085,-0.17912663179068203,0.3026854708563686,0.14454991397942235,15.785662420654019,0.38026243847594854,0.04667965400000007,0.004707191999999694,0.1400389620000002
128262.0,-1.089322682,3.2348215689999997,15.330932078,-0.3206169835913584,0.450305418990049,0.24500582973646,15.706309969850865,0.6046470682504598,-0.008335652500000013,-0.008335652500000013,-0.08012033049999978
128272.0,-1.4532474635,3.3808425874999997,15.394381103499999,-0.44105866461298304,0.5347741187988185,0.34279662772570224,15.828107731229931,0.7733211698559367,-0.36392478149999996,0.14602101849999993,0.06344902549999887
128282.0,-1.6915490585,3.0001484345,15.340444528499999,-0.5151356740553784,0.5379715619884722,0.40541555062875484,15.72232384790272,0.8480211865775654,-0.23830159500000003,-0.38069415299999987,-0.05393657499999982
128292.0,-1.7297949934999999,2.5561033225,15.354860303999999,-0.5289918429869613,0.500132823805235,0.40488322520689657,15.66197911728234,0.8330039840529447,-0.03824593499999995,-0.44404511199999996,0.014415775499999839
128302.0,-1.8111901885,2.68898343,15.332108875999998,-0.4876903715677675,0.4425771010622181,0.3907600208997584,15.671139217403793,0.7657739763390524,-0.08139519500000003,0.13288010750000012,-0.022751428000001184
128312.0,-1.7777495119999998,2.9044355305,15.247085220499999,-0.4511850649330541,0.3732980017335552,0.3840998444741481,15.622731732940835,0.7003228194496981,0.033440676500000155,0.21545210049999985,-0.0850236554999988
128322.0,-1.6435945399999998,2.9260101605,15.053207749999999,-0.4634407669405583,0.36690137002499595,0.4011534565953847,15.422775432324983,0.714365491556736,0.13415497199999993,0.021574630000000372,-0.19387747050000037
128332.0,-1.5562172884999999,2.8505970219999996,14.9322917555,-0.5535067376604736,0.44284413643777326,0.41767299796551105,15.281395639869901,0.8227583916572078,0.08737725149999997,-0.07541313850000053,-0.1209159944999989
128342.0,-1.6711512265,2.793130053,14.721546846999999,-0.7096526191901464,0.5523600563419134,0.44218789263902336,15.077077418492612,1.002117061107143,-0.11493393800000007,-0.05746696899999959,-0.2107449085000006
128352.0,-1.8531626504999998,2.6135702915000003,14.395966067,-0.8772583325884138,0.6477527719389156,0.46403766954474035,14.74817956495089,1.185114675635597,-0.18201142399999992,-0.17955976149999975,-0.32558077999999924
128362.0,-2.0518453795,2.358499325,14.145798425499999,-1.0134201941827514,0.700247039851149,0.4677691834855043,14.487104666643338,1.3176397139644804,-0.19868272900000017,-0.2550709665000004,-0.2501676415000009
128372.0,-2.1930611394999997,2.172957507,13.8680740975,-1.1266676280276555,0.6826593569788021,0.46430470492029546,14.207559278868525,1.396775787564811,-0.1412157599999997,-0.18554181799999991,-0.2777243279999997
128382.0,-2.3391802244999997,2.0628288275,13.414320402,-1.2431107597329611,0.6221732264216866,0.46403766954474035,13.772110177520737,1.465522037840559,-0.14611908500000004,-0.11012867949999983,-0.45375369549999967
128392.0,-2.4456804434999997,1.8450231309999998,12.824156205,-1.3315762635287978,0.5430330168192556,0.4651040657177089,13.185008363891296,1.5113907485810143,-0.10650021899999995,-0.21780569650000037,-0.590164197
128402.0,-2.5222703799999997,1.6007394794999998,12.247132919,-1.3611543583623458,0.46576030951645875,0.4669698226880909,12.606207974117702,1.512525923252565,-0.07658993650000001,-0.24428365149999998,-0.5770232859999993
128412.0,-2.6312222614999996,1.3960746939999997,11.7790615145,-1.353960111185625,0.37756009576692534,0.47176598747257126,12.149841369458919,1.4826741906208827,-0.1089518814999999,-0.2046647855000001,-0.46807140449999984
128422.0,-2.6850607699999998,1.2236737869999998,11.340998459,-1.3443660362874121,0.2845654625621635,0.45284661838095275,11.718582462167696,1.4468474701174998,-0.05383850850000016,-0.17240090699999988,-0.4380630555000007
128432.0,-2.683883972,1.0896168815,10.895678482500001,-1.3750087819646768,0.21528461790424855,0.42326852354740485,11.274143325220848,1.4547002647322789,0.0011767979999999234,-0.13405690549999982,-0.44531997649999866
128442.0,-2.5965067205,0.8944645465,10.3545475355,-1.4301681676447056,0.18917100163590939,0.39688961723276256,10.712542585188459,1.4962245900503428,0.08737725149999997,-0.19515233500000007,-0.541130947000001
128452.0,-2.499518952,0.726868898,9.8697067595,-1.4720019644857576,0.20675868450825624,0.3774379227192857,10.207205538481475,1.5336226141317046,0.09698776850000002,-0.16759564849999997,-0.4848407760000004
128462.0,-2.4755907259999996,0.6155634205,9.4052638155,-1.4903872628262658,0.24539503815965474,0.3646481499606713,9.74507338127674,1.5538472226116335,0.02392822600000022,-0.11130547749999997,-0.46444294399999997
128472.0,-2.4720603320000003,0.412075433,8.906007264,-1.4973162199566834,0.28829523117367534,0.35905087904952543,9.251910820687305,1.566520838230086,0.003530393999999326,-0.20348798750000002,-0.49925655150000026
128482.0,-2.4468572415,0.16190779149999998,8.421264554499999,-1.504510467133404,0.3317294949388062,0.3374681375193636,8.771033074279647,1.577174989456502,0.025203090500000247,-0.25016764150000004,-0.48474270950000076
128492.0,-2.440875185,-0.0297141495,7.9591752065,-1.5042434317578488,0.36370392683534236,0.3009628308846502,8.325096069547403,1.5765809443083412,0.005982056500000166,-0.191621941,-0.46208934799999835
128502.0,-2.4325395325,-0.1254270535,7.5557296255,-1.4714696390638993,0.36903416237093306,0.26578921046920845,7.938641615325847,1.5401470761214666,0.008335652500000013,-0.095712904,-0.4034455810000006
128512.0,-2.4133184985,-0.17808876399999998,7.202592159,-1.4109817631775319,0.3445192676974207,0.23594582558935745,7.598233715275782,1.4714732394601633,0.01922103400000008,-0.052661710499999986,-0.3531374664999998
128522.0,-2.3906651369999996,-0.16612465099999998,6.888975491999999,-1.339304581456629,0.3042841924511954,0.22741989219336514,7.293892001278449,1.3921370044114314,0.02265336150000019,0.011964112999999998,-0.3136166670000007
128532.0,-2.2960309645,-0.282235387,6.4687605395,-1.268425015203887,0.2739067368202341,0.2396773395301213,6.869954724815162,1.3196106042142608,0.09463417249999972,-0.11611073600000002,-0.4202149524999994
128542.0,-2.1583455985,-0.42953126999999997,6.085712790499999,-1.1986118451241137,0.26724481506537173,0.25539752010283423,6.471387254903497,1.2543197517881295,0.13768536599999992,-0.14729588299999996,-0.38304774900000105
128552.0,-2.0578274359999997,-0.568393434,5.767290865,-1.125334196479132,0.2917597097388841,0.26259176727955486,6.14974542348552,1.1918285188042999,0.10051816250000023,-0.138862164,-0.31842192549999915
128562.0,-2.0614558965,-0.6893094285,5.5553691585000005,-1.058186144167154,0.3048165178730537,0.27111944600479915,5.965473525936279,1.134097341182648,-0.003628460500000319,-0.12091599450000001,-0.2119217064999992
128572.0,-2.072145145,-0.7861991305,5.33874026,-1.0099557156175427,0.291492674363329,0.2791130539789332,5.780488053658695,1.087604074844093,-0.01068924849999986,-0.09688970200000002,-0.21662889850000067
128582.0,-2.0626326945,-0.871222786,5.0442465604999995,-0.9833097739273453,0.2741737721957892,0.2801794501519017,5.518868193604736,1.0585697393882643,0.009512450499999936,-0.08502365550000002,-0.29449369950000026
128592.0,-2.0470401209999998,-0.975369409,4.7424959399999995,-0.9465374319170767,0.2680441758627851,0.27671497158669295,5.256708711914061,1.0219354019380866,0.015592573500000206,-0.104146623,-0.3017506205
128602.0,-1.9872195559999997,-1.0567646039999998,4.4444718465,-0.887382987579233,0.2885622665492305,0.26232647723325175,4.981879463249511,0.9692945522278984,0.0598205650000001,-0.08139519499999981,-0.2980240934999996
128612.0,-1.9357346435,-1.146593518,4.2122503745,-0.8213013314402237,0.3128101258471877,0.2335477431971172,4.775436998122903,0.9093572456468823,0.05148491249999965,-0.08982891400000015,-0.23222147199999998
128622.0,-1.905824361,-1.1872911154999999,4.0278853544999995,-0.7520204867823088,0.3242682123865305,0.20850052310174658,4.6114734214697455,0.8450781941562323,0.02991028249999994,-0.040697597499999905,-0.18436502000000043
128632.0,-1.87110882,-1.2327939714999998,3.905792562,-0.6758124303232284,0.32400117701097536,0.1813205106604389,4.50289292897611,0.7710877584750312,0.03471554100000018,-0.045502855999999925,-0.12209279249999971
