timestamp,ax,ay,az,gx,gy,gz,acc_mag,gyro_mag,dax,day,daz
55912.0,-1.804031334,-0.015298373999999998,8.2955433015,0.16727584616964053,0.15692953436381815,-0.12697619374109145,8.489452382890335,0.2621660566213506,0.0,0.0,0.0
55922.0,-1.7849083664999998,-0.075118939,8.9192462415,0.24454855347243748,0.16199273452385368,-0.17680359855627759,9.096400070814282,0.34249839927571446,0.0191229675000002,-0.059820565,0.6237029399999994
55932.0,-1.709495228,0.0385401345,9.2328629085,0.31729387669556114,0.20196251972377585,-0.19945448158865997,9.389867771362765,0.42573037686718523,0.07541313849999987,0.1136590735,0.3136166669999998
55942.0,-1.5550404904999997,0.34617474499999995,9.7655601365,0.38311024278826733,0.2304724730551032,-0.19332488525565591,9.89465273068076,0.48709909692436604,0.15445473750000027,0.30763461049999996,0.532697228
55952.0,-1.5060072405,0.49229383,10.303062623,0.4443957341427962,0.28802994112737224,-0.15308981000943062,10.424179125329445,0.5512579300462497,0.049033249999999695,0.14611908500000004,0.5375024865000011
55962.0,-1.546704838,0.6645966704999999,10.972268418999999,0.4827667977478915,0.3455856638703892,-0.10565874225723272,11.100660288870975,0.6030398012535089,-0.040697597499999905,0.17230284049999994,0.6692057959999982
55972.0,-1.7513696234999998,0.8429796339999999,11.6401993505,0.49289145273871066,0.3700988132146496,-0.06302558461876723,11.801362257842861,0.6195864266123864,-0.2046647854999999,0.17838296349999994,0.6679309315000008
55982.0,-1.9166116759999998,0.9495779194999999,12.389623543499999,0.4870306371105137,0.3210707691968769,-0.028118999578880643,12.572902214342994,0.5840170874677076,-0.16524205250000001,0.10659828550000006,0.7494241929999994
55992.0,-2.079402066,0.9746829435,13.075598711,0.4888946487516436,0.19530059796891347,-0.0033370695298131584,13.275737322029979,0.5264707372476223,-0.16279039000000028,0.02510502400000003,0.6859751675000005
56002.0,-2.148833148,0.9997879675,13.632224164999998,0.5120778572058843,0.01090830782496456,0.010519099401769825,13.836711876840944,0.512302034421491,-0.06943108199999992,0.02510502400000003,0.5566254539999989
56012.0,-2.0601810319999996,1.119527164,14.0547927135,0.5493825246380111,-0.17854718247901993,0.02703864077189615,14.249031025827657,0.5783003915298891,0.08865211600000045,0.11973919649999998,0.42256854850000103
56022.0,-1.8495341899999997,1.2907512729999997,14.314570872000001,0.5840220743023427,-0.3336284131649761,0.062479296562893014,14.491161265345195,0.6754949028988931,0.21064684199999983,0.17122410899999974,0.2597781585000014
56032.0,-1.607702201,1.5169906885,14.466573946999999,0.6056065611617565,-0.410901120467773,0.13042670967228426,14.634470570543886,0.7433775382131059,0.2418319889999998,0.22623941550000026,0.15200307499999788
56042.0,-1.3814627855,1.7492121605,14.434310068499999,0.5933491138250002,-0.3893183789376111,0.23141669618043215,14.60539248920627,0.7464486977191325,0.22623941550000004,0.23222147199999998,-0.03226387850000023
56052.0,-1.3012443885,1.9646642609999998,14.301429960999998,0.5280650731541524,-0.26567925472633286,0.34706046708832444,14.494276164970842,0.6854846137535152,0.08021839699999989,0.21545210049999985,-0.13288010750000012
56062.0,-1.3012443885,1.939559237,14.102649165499999,0.4292078789919415,-0.05490805826774161,0.46057319097953164,14.29474870284933,0.6319509177939082,0.0,-0.025105023999999698,-0.19878079549999939
56072.0,-1.4257888435,1.7899097579999999,13.9182841455,0.317026841320006,0.19849804115856712,0.5538366048891007,14.105150985470143,0.6683131566684994,-0.12454445499999989,-0.14964947900000025,-0.18436501999999955
56082.0,-1.6028969425,1.7588226775,13.817765983,0.209909003808106,0.45829902696418306,0.61991826102811,14.021176576169207,0.79899839696469,-0.17710809900000002,-0.031087080499999864,-0.10051816250000023
56092.0,-1.87110882,1.7001789104999998,13.769909530999998,0.12304222160709626,0.6874572670925344,0.679606776117064,14.000073751088433,0.974475372967719,-0.2682118775,-0.05864376700000018,-0.047856452000001326
56102.0,-2.2277766805,1.740876508,13.7303887315,0.045502478928744164,0.8446695447951758,0.7352967418896991,14.018459782457844,1.1208025758922742,-0.3566678605,0.04069759750000013,-0.039520799499998205
56112.0,-2.5606143814999998,1.624765772,13.676452156499998,-0.020313887163962,0.9262060914605948,0.7771305387307511,14.008638528195409,1.20921555237202,-0.3328377009999999,-0.11611073599999999,-0.053936575000001596
56122.0,-2.8155872814999996,1.2631945865,13.797368151,-0.058951986144612466,0.910751200934185,0.7931195000082712,14.138265812939599,1.2091243227918398,-0.25497289999999984,-0.3615711854999999,0.12091599450000245
56132.0,-3.108904183,1.1004041965,13.9637870015,-0.08826304560260524,0.7769874217320876,0.7819284488444836,14.347944871583877,1.1058534793819952,-0.29331690150000034,-0.16279039000000006,0.1664188504999995
56142.0,-3.3231794855,0.980665,13.947017629999998,-0.1431536505778269,0.5305102794361964,0.7483535500238686,14.370961224170212,0.9284218653686247,-0.21427530249999993,-0.11973919649999998,-0.01676937150000235
56152.0,-3.4117335349999998,0.7999284405,13.815412386999999,-0.2113680990627733,0.22780910061655987,0.7121152787647104,14.25290955021596,0.776969516696297,-0.0885540494999999,-0.1807365595,-0.1316052429999992
56162.0,-3.3937873654999997,0.7424614715,13.563969881,-0.27265533574655415,-0.07702487054901375,0.6668152580291976,14.001797050791893,0.7245111118089935,0.017946169500000053,-0.057466969000000034,-0.2514425059999983
56172.0,-3.1986350304999998,0.832192319,13.019308539999999,-0.3294116976921577,-0.3221703266256333,0.6343067553815511,13.432282195288382,0.7839967129122212,0.19515233499999995,0.08973084750000004,-0.5446613410000012
56182.0,-2.9209107025,0.8932877485,12.478177593,-0.3890984674518599,-0.44980625482397857,0.6212499472473816,12.846579248035118,0.860043476347001,0.2777243279999997,0.06109542950000002,-0.5411309469999992
56192.0,-2.5833658094999996,0.8597490054999999,12.115527676000001,-0.4439890724270815,-0.4817806867205147,0.6119246530539758,12.417687309884792,0.8964879851658804,0.33754489300000046,-0.03353874300000015,-0.3626499169999988
56202.0,-2.3307465054999996,0.864554264,11.775531120499998,-0.5090060777223743,-0.4609973059877662,0.6132563392732476,12.035072352012055,0.9207002991989948,0.252619304,0.004805258500000131,-0.33999655550000263
56212.0,-2.0948965729999998,0.8155210139999999,11.487019477499999,-0.5924101266874273,-0.4135662382355683,0.6217840179984918,11.704925572266877,0.9532062508442133,0.23584993249999986,-0.04903325000000014,-0.28851164299999965
56222.0,-1.8902317874999999,0.714904785,11.191348979999999,-0.675013069525815,-0.3458858605017322,0.6356401869300748,11.372350550973987,0.9896050322053677,0.2046647854999999,-0.10061622899999989,-0.29567049749999974
56232.0,-1.7286181955,0.6645966704999999,10.762798375,-0.768274738106132,-0.23956738378724568,0.6492293204861026,10.920972413716463,1.0339909647407746,0.16161359199999992,-0.050308114500000056,-0.42855060499999986
56242.0,-1.6244715724999998,0.5317165629999999,10.325814051,-0.87166280700652,-0.08395208235017924,0.65562420686541,10.466330121349039,1.093931945724831,0.1041466230000001,-0.1328801075,-0.4369843239999991
56252.0,-1.5909328295,0.40491657849999996,9.9391378415,-0.974783840531353,0.09004677209814345,0.6494963558616579,10.073801950398979,1.1748010355817373,0.033538742999999815,-0.12679998449999996,-0.3866762095000009
56262.0,-1.698707913,0.24202812199999998,9.6710240305,-1.0472603830496694,0.2110207785416264,0.6348408261326615,9.822061493598792,1.2427014739696958,-0.10777508349999998,-0.16288845649999997,-0.2681138109999992
56272.0,-1.782456704,-0.084729456,9.4997999215,-1.066446787516843,0.2605828933105094,0.6028646489068734,9.665946902961965,1.252460769761943,-0.08374879099999988,-0.326757578,-0.17122410900000062
56282.0,-1.848357392,-0.24398945199999997,9.2532607405,-1.058186144167154,0.24939184214672172,0.5517038125431636,9.439215551777961,1.2191518787301878,-0.06590068800000015,-0.15925999599999996,-0.24653918099999927
56292.0,-1.7980492775,-0.3911872685,8.99465938,-1.0389997396999804,0.21475229248239028,0.49894425458462693,9.180953438808888,1.1724267036391136,0.050308114499999945,-0.14719781650000005,-0.25860136050000015
56302.0,-1.6902741940000001,-0.5420135454999999,8.708501333,-1.0155512411994365,0.19023739780887794,0.4656363911395672,8.887564402088493,1.1332924775980335,0.10777508349999998,-0.1508262769999999,-0.2861580470000007
56312.0,-1.574163458,-0.6186034819999999,8.303878954,-1.012353798009783,0.20036379812894903,0.45497766539763784,8.474377059296405,1.1278344470515944,0.11611073600000021,-0.07658993650000001,-0.4046223789999992
56322.0,-1.5490584339999998,-0.686857766,8.003403197999999,-1.0214138021568855,0.24539503815965474,0.453378943802811,8.180820152797496,1.144140440100653,0.025105024000000142,-0.06825428400000011,-0.30047575600000087
56332.0,-1.641240944,-0.7587405104999999,7.719696813499999,-1.0376680534807088,0.29868692154004955,0.45817510858729144,7.9286239594836285,1.1729847809935519,-0.09218251000000022,-0.07188274449999987,-0.2837063845000003
56342.0,-1.7525464215,-0.8401357054999999,7.317526096999999,-1.0645810305464614,0.3578431112071454,0.45844214396284655,7.571224150918032,1.2130761155834477,-0.11130547749999997,-0.08139519500000003,-0.4021707164999997
56352.0,-1.8171722449999999,-1.0747107735,6.958406574,-1.0749727209128355,0.4135330769797805,0.4325955630700625,7.271625696071115,1.2303312064850727,-0.0646258234999999,-0.23457506800000016,-0.3591195229999995
56362.0,-1.9201420699999998,-1.218378196,6.578889219,-1.0549887009775003,0.44630861500298197,0.391826417072727,6.9608314412393675,1.2106694347063216,-0.10296982499999996,-0.14366742249999986,-0.37951735499999995
56372.0,-1.9787858369999998,-1.3237016169999998,6.2520335745,-1.004627225411204,0.46496094871904536,0.3467951770420213,6.689970341954847,1.1600566540866597,-0.05864376699999996,-0.1053234209999998,-0.32685564449999926
56382.0,-2.01232458,-1.4351051609999999,6.0186353045,-0.9302831805932535,0.4668249603601753,0.3094905096098945,6.5063774842053865,1.085880617401642,-0.03353874300000026,-0.11140354400000008,-0.23339827000000035
56392.0,-2.021935097,-1.5200307499999999,5.811518856499999,-0.8487466339278346,0.4561662346182459,0.28177817174672853,6.338175323930463,1.0039210229308613,-0.00961051700000004,-0.08492558900000002,-0.20711644800000073
56402.0,-2.0434116605,-1.5224824124999998,5.5889079015,-0.774402589109884,0.4351158185099423,0.2665885712666219,6.1424242316929165,0.9274128594469928,-0.021476563499999823,-0.0024516624999999515,-0.2226109549999995
56412.0,-2.1320637765,-1.4206893855,5.339917058,-0.7160475055694536,0.4233924419242964,0.2620594418576966,5.922733191986212,0.8721584381163912,-0.088652116,0.10179302699999981,-0.24899084349999967
56422.0,-2.303189819,-1.4254946439999998,5.220177861499999,-0.6531632926200979,0.40474010820823303,0.25726327707321617,5.881069224903975,0.8103216865845256,-0.17112604250000008,-0.004805258499999798,-0.1197391965000012
56432.0,-2.4636266129999997,-1.529641267,5.157905634,-0.5761558753636041,0.34824903630893256,0.23594582558935745,5.9171994239876815,0.7133746677722336,-0.16043679399999977,-0.1041466230000001,-0.06227222749999939
56442.0,-2.6228866089999996,-1.6385931484999998,5.196249635499999,-0.48342653220514537,0.24779312055189492,0.18478498922564765,6.0469440169739075,0.5738014768853955,-0.15925999599999985,-0.1089518814999999,0.038344001499999614
56452.0,-2.7210511755,-1.7690215934999998,5.204585288,-0.38803207127889133,0.13374807123882945,0.11044268973694918,6.13361760448312,0.42503531925879484,-0.09816456650000038,-0.13042844499999995,0.008335652500000457
56462.0,-2.819215742,-1.7151830849999998,5.098085069,-0.3110246540223975,0.025830872929516076,0.029970793915246628,6.072915427187461,0.3135312072090481,-0.09816456649999994,0.05383850849999994,-0.10650021899999995
56472.0,-2.7557667164999997,-1.6648749704999999,4.961576500999999,-0.2550676528742073,-0.05544038368959987,-0.04730365871680232,5.91466822725011,0.26527491365450084,0.0634490255000002,0.050308114499999945,-0.13650856800000088
56482.0,-2.6551504875,-1.5967187529999998,4.6850289709999995,-0.2113680990627733,-0.08501847852314778,-0.10219426369202397,5.616834637637348,0.24969638067732622,0.10061622899999989,0.06815621750000012,-0.2765475299999993
56492.0,-2.529527301,-1.577497719,4.485169443999999,-0.15780918030682328,-0.04851317188843438,-0.1333710801203987,5.38551319386981,0.21223833359756206,0.12562318649999993,0.01922103399999986,-0.1998595270000001
56502.0,-2.427734274,-1.5260128064999998,4.4253488789999995,-0.07840368065808928,0.026096162975819216,-0.1490930060223636,5.273169966123116,0.17046076178282413,0.10179302699999981,0.05148491250000009,-0.05982056499999988
56512.0,-2.3858598785,-1.4206893855,4.554600526,0.02018822345781841,0.10203892938859649,-0.1490930060223636,5.334329540002931,0.18179172676977998,0.04187439550000027,0.1053234209999998,0.12925164700000025
56522.0,-2.4325395325,-1.3392941905,4.853899484,0.12357454702895453,0.12868487107879392,-0.13230468394743014,5.592074544089862,0.22211482191066512,-0.04667965400000007,0.08139519500000003,0.2992989580000005
56532.0,-2.5258988405,-1.2135729375,5.2417524915,0.2192360433307637,0.06420019120535941,-0.11125426783912654,5.943811353771086,0.2540937216039651,-0.09335930800000014,0.12572125300000003,0.3878530074999995
56542.0,-2.5893478659999998,-1.2088657455,5.6044024085,0.32049131988521473,-0.08182103533349416,-0.1045923460842642,6.290898593857846,0.3469134283999719,-0.06344902549999976,0.004707191999999916,0.3626499170000006
56552.0,-2.5222703799999997,-1.2914377385,5.9276295925,0.4454621303157647,-0.2787360628605024,-0.11738386417213063,6.570118103057894,0.5384322370107629,0.06707748600000007,-0.08257199299999995,0.3232271839999994
56562.0,-2.3008362229999997,-1.2268119149999999,6.2353622694999995,0.586954227445693,-0.4769845219360343,-0.13097299772815849,6.758598777243628,0.7675828459631037,0.22143415700000002,0.06462582350000012,0.30773267699999973
56572.0,-2.0147762425,-0.995767241,6.5142633954999996,0.7175205634581369,-0.6192759798633761,-0.12484340139515439,6.891045152336643,0.9559939189623219,0.2860599804999997,0.23104467399999984,0.27890112600000005
56582.0,-1.702238307,-0.8029685019999999,6.823074804,0.7958596669339023,-0.6656406514426053,-0.07474896120441314,7.07790388815799,1.0402199255475817,0.3125379355,0.1927987390000001,0.30881140850000044
56592.0,-1.5921096275,-0.476210924,6.994298912999999,0.7883983843816266,-0.6192759798633761,0.032101840931931705,7.189005994886086,1.0030479948250346,0.11012867950000005,0.32675757799999994,0.17122410899999885
56602.0,-1.7214593409999999,-0.43904372049999996,7.203768956999999,0.7225837636181724,-0.5174866325578147,0.17732370667337188,7.419600315182988,0.9062910168753818,-0.1293497134999999,0.03716720350000002,0.20947004400000058
