timestamp,ax,ay,az,gx,gy,gz,acc_mag,gyro_mag,dax,day,daz
97652.0,-2.2996594249999998,2.2220888235,13.59986222,0.17926625813084157,-0.10287145144179778,-0.0323810936122508,13.970768218444476,0.2092067447514564,0.0,0.0,0.0
97662.0,-1.965644926,2.1083316835,13.7423528445,0.10598860948585966,-0.08501847852314778,0.025174629130766207,14.041406060843647,0.13818642836041686,0.3340144989999998,-0.11375714000000015,0.14249062449999883
97672.0,-1.9106296194999999,2.113136942,13.780696846,0.04257032578539369,-0.053576372048469934,0.07846651251116107,14.072080828360464,0.10411365839799705,0.05501530650000008,0.004805258500000242,0.0383440015000005
97682.0,-1.9679985219999998,2.2209120255,13.889550660999998,0.00046949356878647465,-0.027195720404575643,0.13442351365935126,14.202995668945695,0.13714776212924795,-0.05736890249999993,0.10777508349999998,0.10885381499999802
97692.0,-2.0434116605,2.3441816159999997,14.039200139999998,-0.04429645641561608,-0.008276351312957111,0.21329668788622702,14.379494401196299,0.21800493367185664,-0.07541313850000009,0.12326959049999964,0.1496494790000007
97702.0,-2.1452046874999997,2.3501636725,14.112259682499998,-0.09705601437415268,-0.00214850030920502,0.2889724189234491,14.46654920100594,0.30484347603031253,-0.10179302699999981,0.005982056500000166,0.07305954249999935
97712.0,-2.1787434305,2.263963219,14.114613278499998,-0.14981557233268927,0.0021153390534171274,0.3451964554471945,14.460109280172825,0.37631074024798855,-0.03353874300000026,-0.08620045350000005,0.002353596000000735
97722.0,-2.197866398,2.1909036765,14.157762538499998,-0.18925128678150113,0.014372786390173304,0.37530513037334867,14.493892359187459,0.4205669594982799,-0.019122967499999977,-0.0730595424999998,0.043149259999999856
97732.0,-2.221794624,2.137065168,14.233175676999998,-0.21349914607945836,0.024232151334689273,0.3896953700560419,14.563197064376302,0.44500737519515404,-0.02392822600000022,-0.05383850850000016,0.07541313850000009
97742.0,-2.1895307455,2.06528049,14.314570872000001,-0.23774875070666757,0.03568849254478005,0.39768897803017594,14.627589262669884,0.4647092211366004,0.03226387850000023,-0.07178467799999977,0.08139519500000247
97752.0,-2.2003180605,2.0353702075,14.3899840105,-0.27265533574655415,0.039420006485543925,0.40248514281465636,14.698835711422408,0.4877388227411478,-0.010787314999999964,-0.02991028249999994,0.07541313849999831
97762.0,-2.268474278,2.019777634,14.478538059999998,-0.3038304068456769,0.022631684410610472,0.4091470645695187,14.793699388443134,0.5101239356363559,-0.0681562174999999,-0.015592573500000206,0.08855404949999901
97772.0,-2.3091718755,2.0137955775,14.42950481,-0.329944023114016,-0.006677629718130304,0.4171406725436528,14.751212032927052,0.5318965969222643,-0.04069759750000035,-0.005982056500000166,-0.04903324999999903
97782.0,-2.2840668515,2.0149723755,14.248670184,-0.35898804719645366,-0.023465951793063763,0.4285987590829955,14.570575728795339,0.559571233366192,0.025105024000000142,0.0011767980000003675,-0.18083462599999933
97792.0,-2.2601386254999998,2.0006546665,13.988990091999998,-0.40162295016417116,0.01090830782496456,0.4488498143938857,14.31092902278323,0.6024003163674486,0.02392822600000022,-0.014317709000000178,-0.25968009200000175
97802.0,-2.286518514,1.8653228964999997,13.706460505499999,-0.4535831473252943,0.10976550198717538,0.47309767369184297,14.020508407754093,0.6645355865690338,-0.02637988850000017,-0.1353317700000003,-0.28252958649999904
97812.0,-2.345162281,1.663011707,13.505326113999999,-0.5039446228915907,0.25578672852602896,0.49601384677052845,13.807940741013285,0.7519419988399991,-0.05864376699999996,-0.20231118949999982,-0.20113439150000012
97822.0,-2.4792191864999995,1.502574913,13.394020636499999,-0.5532397022849186,0.39887754725078406,0.5141321097354816,13.704161702011346,0.854113161206502,-0.1340569054999996,-0.160436794,-0.1113054775000002
97832.0,-2.6647610045000003,1.39842829,13.4765926295,-0.6028018170538015,0.507861141733066,0.5210610668658991,13.808515553631024,0.9448796776993391,-0.1855418180000008,-0.10414662299999988,0.08257199300000195
97842.0,-2.9017877349999996,1.3338024665,13.556811026499998,-0.6726149871335747,0.5558245349071221,0.5255901962748244,13.927904590672275,1.0186249991737026,-0.23702673049999934,-0.06462582350000012,0.08021839699999767
97852.0,-3.1017453285,1.2655481825,13.513661766499999,-0.7850613148518134,0.5499619739496732,0.5242585100555527,13.922696959442321,1.0925321167970976,-0.1999575935000002,-0.068254284,-0.043149259999999856
97862.0,-3.2333505715,1.117173568,13.239565899,-0.9284191689521236,0.49613601981816813,0.5101353057484146,13.674382541570969,1.169765418197082,-0.1316052430000001,-0.1483746145,-0.27409586749999804
97872.0,-3.3399488569999995,0.9519315155,12.868482262999999,-1.0528559086315632,0.4135330769797805,0.4898842504375244,13.328888465686976,1.2326807165375366,-0.10659828549999961,-0.1652420524999999,-0.3710836360000016
97882.0,-3.456059593,0.7891411254999999,12.405216116999998,-1.1120120982986592,0.3077469256871522,0.4728306383162878,12.901801367863298,1.2469353991137908,-0.11611073600000044,-0.16279039000000006,-0.4632661460000005
97892.0,-3.481164617,0.668225131,11.893995452499999,-1.117073553129443,0.20888973152494134,0.45364597917836613,12.410969331218388,1.2236351243170893,-0.025105024000000142,-0.1209159944999999,-0.5112206644999997
97902.0,-3.4763593585,0.5090632015,11.422393653999999,-1.095757846974836,0.1340133612851326,0.42753236291002694,11.950535407231401,1.183819564606574,0.004805258500000242,-0.15916192950000008,-0.47160179850000006
97912.0,-3.3961409615,0.34617474499999995,10.9651095645,-1.0725746385205952,0.10203892938859649,0.4003540957979713,11.484216914789764,1.1493962329547491,0.08021839699999989,-0.1628884565,-0.4572840894999981
97922.0,-3.2082455475,0.1893664115,10.566469242,-1.0741733601154222,0.13374807123882945,0.3787696089385574,11.044409054946762,1.1468231645712565,0.1878954140000002,-0.15680833349999995,-0.39864032250000037
97932.0,-3.0645781249999997,0.134351105,10.235985136999998,-1.12346843950875,0.2195484572668707,0.3654475107580847,10.685741950305935,1.2016383577348757,0.14366742250000009,-0.0550153065,-0.3304841050000018
97942.0,-3.017898471,0.16063292699999998,9.9595356735,-1.211401617882728,0.31467588281756964,0.3593179144250806,10.407971221627193,1.3021613397205039,0.046679653999999626,0.026281821999999982,-0.27644946349999877
97952.0,-3.063401327,0.078060934,9.736826652,-1.2974690392863246,0.3727639309824449,0.3577191928302538,10.207659597125085,1.396546410638469,-0.0455028559999997,-0.08257199299999998,-0.22270902150000005
97962.0,-3.2118740079999997,-0.1254270535,9.5429491815,-1.3547577266537865,0.3583754366290037,0.3513243064509466,10.069744071708435,1.4447249633789827,-0.14847268099999988,-0.2034879875,-0.19387747050000037
97972.0,-3.3064101139999997,-0.3576485255,9.2783657645,-1.3787402959054404,0.2733744113983758,0.3273434825285445,9.856385319659509,1.4431951108269268,-0.09453610600000006,-0.23222147199999998,-0.264583416999999
97982.0,-3.3112153725,-0.5180853195,8.903653667999999,-1.3664828485686844,0.15213336957933773,0.2951002699272013,9.51354866919025,1.4062375712812742,-0.004805258500000242,-0.16043679400000005,-0.3747120965000015
97992.0,-3.2058919514999995,-0.664106338,8.467944208499999,-1.3246490517276324,0.047945939881536226,0.26738793206403527,9.078813774449442,1.352216783510514,0.10532342100000047,-0.14602101849999993,-0.43570945949999995
98002.0,-3.0537908099999997,-0.68450417,7.965157263,-1.2753522270050524,-0.00721170046924057,0.2495349591453853,8.557915312405791,1.2995549266522342,0.15210114149999976,-0.020397832000000005,-0.5027869454999987
98012.0,-2.8610901374999997,-0.8461177619999999,7.610744931999999,-1.23112034777176,0.006911503837897545,0.2404767003275347,8.174667605599344,1.25440588446618,0.1927006725,-0.16161359199999992,-0.3544123310000007
98022.0,-2.7760664819999996,-0.8976026745,7.349789975499999,-1.1983448097485587,0.06313554036164287,0.24527286511201513,7.9076955149849875,1.2248163772044864,0.08502365550000013,-0.05148491250000009,-0.2609549565
98032.0,-2.6790787134999996,-0.9897851845,7.1630713595,-1.1815582330028773,0.14893592638968411,0.2436741435171883,7.711467354912013,1.2155816946488092,0.09698776850000002,-0.09218251,-0.1867186159999994
98042.0,-2.5510038644999997,-1.0771624359999998,7.0469606234999995,-1.1855550369899444,0.2552544031041707,0.23674518638677083,7.571496130843817,1.2356147616929807,0.12807484899999988,-0.08737725149999986,-0.11611073600000044
98052.0,-2.5342344929999996,-1.0280311195,6.8829934354999995,-1.205006731503421,0.35251287567155476,0.2404767003275347,7.406402033464526,1.278333131027748,0.01676937150000013,0.0491313164999998,-0.16396718799999999
98062.0,-2.529527301,-1.0866748865,6.738149215,-1.2191299358105592,0.4260575596920918,0.26232647723325175,7.278875292176617,1.3178080380760493,0.004707191999999694,-0.05864376699999996,-0.14484422049999957
98072.0,-2.5617911795,-1.2555453994999999,6.6435150425,-1.2169971434646223,0.45083774441190727,0.2881730581260357,7.230177066814712,1.329428610500458,-0.03226387850000023,-0.1688705129999999,-0.09463417250000017
98082.0,-2.7102638605,-1.4015664179999998,6.5717303645,-1.1994112059215272,0.4188615671861191,0.3092234742343393,7.245519898619354,1.3075363896937244,-0.14847268099999988,-0.14602101849999993,-0.07178467800000021
98092.0,-2.9448389285,-1.5213056145,6.344216084499999,-1.1738299150750462,0.33945606753738516,0.3169500468329183,7.157899469421651,1.2623646159095339,-0.23457506799999983,-0.11973919650000009,-0.2275142800000003
98102.0,-3.1340092069999996,-1.771473256,6.158674266499999,-1.1189393100998246,0.23527038316883564,0.30549196029357545,7.133680671794422,1.1835128519315259,-0.1891702784999998,-0.25016764150000004,-0.18554181799999991
98112.0,-3.2860122819999997,-1.992907413,6.013830046,-1.0152859511531334,0.12042422772910474,0.27591561078927956,7.136925703439651,1.0589792167508745,-0.1520030750000001,-0.22143415700000002,-0.14484422049999957
98122.0,-3.390158905,-2.1269643185,5.920470738,-0.8905804307688865,0.0037140606482439333,0.2372775118086291,7.1462667437507,0.9216549872512427,-0.1041466230000001,-0.13405690549999982,-0.09335930800000014
98132.0,-3.4177155914999995,-2.258667628,5.8319166885,-0.7736032283124705,-0.09567720426507716,0.19597604038943528,7.1269636999049,0.8037553674335116,-0.02755668649999965,-0.1317033095000002,-0.0885540494999999
98142.0,-3.3602486225,-2.3999814544999998,5.666674636,-0.6694175439439211,-0.15563100940033436,0.1509448003587296,7.0115892076791555,0.7036513284164361,0.05746696899999959,-0.1413138264999998,-0.16524205250000001
98152.0,-3.3220026875,-2.445386244,5.485938076499999,-0.5886786127466634,-0.17348398231898435,0.10644588574988217,6.863754972119428,0.6228723206401668,0.03824593499999995,-0.04540478950000004,-0.18073655950000056
98162.0,-3.3112153725,-2.4598020194999997,5.329129743,-0.5225969566076542,-0.17188526072415755,0.0608805749680662,6.739020480451431,0.5534966723641943,0.010787314999999964,-0.014415775499999839,-0.156808333499999
98172.0,-3.2668893144999998,-2.4490147045,5.193797973,-0.45464779816901085,-0.1860067197020437,0.01451590338883684,6.606495001162902,0.49144056772456046,0.044326058000000224,0.01078731499999952,-0.13533177000000052
98182.0,-3.1831405234999997,-2.3591857904999998,5.0609178655,-0.3680480513435562,-0.2166512107085601,-0.020923007072908024,6.427365776722376,0.4275919637040047,0.0837487910000001,0.08982891400000037,-0.13288010750000012
98192.0,-3.065754923,-2.2191468285,4.890968621,-0.26865678643023516,-0.24276482697689927,-0.036112607553014674,6.184257428822557,0.3638892009065711,0.11738560049999958,0.14003896199999977,-0.1699492444999997
98202.0,-2.9125750499999996,-2.097054036,4.776034683,-0.16047429807461863,-0.2571533213303405,-0.02918365042259718,5.974214286833482,0.30451849938181963,0.15317987300000047,0.12209279250000016,-0.11493393800000007
98212.0,-2.7533150539999998,-1.9988894695,4.756911715499999,-0.05362175060902178,-0.27207414110564004,-0.0028047441079548877,5.84846235919512,0.2773220095597516,0.15925999599999985,0.09816456649999994,-0.01912296750000042
98762.0,-2.788030595,0.9746829435,12.765512438,0.5765607917500668,-0.006944665093685437,-0.41049271342280635,13.102726023379203,0.7077957634303456,-0.03471554100000018,2.973572413,8.0086007225
98772.0,-2.2637670859999997,1.132668075,13.1210035005,0.5323289125167745,0.028228955321756285,-0.40276439549497545,13.362945455546633,0.6681243172481319,0.5242635090000003,0.15798513150000004,0.3554910625000005
98782.0,-2.1571688005,1.3565538945,13.352048174499998,0.5139436141762662,0.06446722658091456,-0.3675907750795337,13.593042564367348,0.635151194424737,0.10659828549999961,0.22388581949999997,0.23104467399999784
98792.0,-2.0434116605,1.6977272479999999,13.6717449645,0.5256669907619121,0.06499955200277283,-0.31669697409137904,13.927469956786844,0.617128593030562,0.11375714000000015,0.3411733534999999,0.31969679000000184
98802.0,-1.9345578454999999,1.9312235844999999,13.966238664,0.5344599595334596,0.04661425366226455,-0.23276234503371976,14.231231886619062,0.5848065032594915,0.10885381500000002,0.2334963365,0.29449369950000026
98812.0,-1.8351184145,2.080774997,14.279855330999998,0.5160746611929513,0.0322257593088233,-0.1397659664997059,14.546874319167895,0.5356361459797561,0.09943943099999997,0.14955141249999993,0.313616666999998
98822.0,-1.7752978494999998,2.1777627655,14.501289488,0.44732788728614664,0.04874530067894963,-0.0433068547297353,14.770975930249728,0.4520551147246883,0.0598205650000001,0.09698776850000002,0.2214341570000009
98832.0,-1.7980492775,2.216106767,14.721546846999999,0.3298166140786204,0.09031380747369858,0.044626323644243016,14.99560108750153,0.3448580744374164,-0.022751428000000296,0.03834400150000006,0.22025735899999965
98842.0,-1.9033726985,2.1634450565,14.898753012499999,0.1973845210957947,0.12175591394837641,0.1221660663225951,15.174852996631211,0.26212535075867305,-0.1053234209999998,-0.05266171049999979,0.17720616549999946
98852.0,-2.0398812664999997,2.041352264,15.007704893999998,0.07694458540342201,0.11962486693169135,0.17998882444116723,15.282651629627205,0.22940478402823836,-0.13650856799999977,-0.12209279250000016,0.10895188149999946
98862.0,-2.176291768,1.8928795829999998,15.013686950499999,-0.018182840147276925,0.08471828189180476,0.21462837410549868,15.288231906365652,0.23145872619905825,-0.13641050150000034,-0.1484726810000001,0.00598205650000061
98872.0,-2.2601386254999998,1.8209968385,14.988483859999999,-0.09066112799484544,0.038353610312575385,0.22608646064484145,15.266921906978645,0.24658776782358463,-0.08384685749999976,-0.07188274449999987,-0.025203090499999803
98882.0,-2.298482627,1.7947150164999999,14.9322917555,-0.14528469759451196,-0.009075712110370514,0.22768518223966827,15.214380087550222,0.27024165873704603,-0.03834400150000006,-0.026281822000000066,-0.05619210449999912
98892.0,-2.3199591905,1.813837984,14.854426954499997,-0.1860538435918475,-0.055175093643296744,0.23381477857267235,15.143520694487218,0.3038579838556723,-0.021476563500000267,0.0191229675000002,-0.07786480100000226
98902.0,-2.266120682,1.8269788949999999,14.823339873999998,-0.21429850687687174,-0.10393784761476631,0.24793623755055846,15.10644100535536,0.34380125669807254,0.05383850850000016,0.01314091099999981,-0.031087080499998976
98912.0,-2.1859022849999996,1.8880743245,14.823339873999998,-0.2433442762885614,-0.1511001346621571,0.2796453794007915,15.102132249272705,0.4003114109259669,0.08021839700000033,0.06109542950000013,0.0
