timestamp,ax,ay,az,gx,gy,gz,acc_mag,gyro_mag,dax,day,daz
72112.0,-0.4070740415,0.8010071719999999,10.442513186,-0.0404445147564646,0.01607273708161578,0.05679824984765147,10.481097433219597,0.0715551035002876,0.0,0.0,0.0
72122.0,-0.9744868105,0.46816947099999995,9.673966025499999,-0.10386279845693056,0.011011282250832225,0.05946162228619481,9.73418850546583,0.12018491488127189,-0.5674127689999999,-0.332837701,-0.7685471605000007
72132.0,-0.43345393,0.29341496799999994,9.7781126485,-0.15102683083357332,0.017671458676442587,0.06852162643329739,9.792112214411892,0.16678308479114526,0.5410328805,-0.174754503,0.10414662300000188
72142.0,-0.389127872,0.317343194,9.5937476285,-0.1475623522683646,0.056576593032648184,0.0671899402140257,9.606878825242605,0.17172666290392755,0.044326058,0.023928226000000052,-0.18436502000000132
72152.0,-0.45257689749999996,0.501708214,9.4560622625,-0.12411385376782076,0.09654463290331833,0.05972865766174995,9.4801714379236,0.16820412416350264,-0.06344902549999998,0.18436502,-0.13768536599999948
72162.0,-0.559175183,0.6250758710000001,9.380649124,-0.09506982968538312,0.1303865670994884,0.05679824984765147,9.418066400137103,0.1710700750632716,-0.10659828550000006,0.12336765700000007,-0.07541313850000009
72172.0,-0.5651572395,0.628606265,9.414187867,-0.05882981309697286,0.1538350656000322,0.053333771282442724,9.452062300732393,0.17312037857051632,-0.005982056499999944,0.0035303939999999923,0.03353874300000115
72182.0,-0.5806517465,0.5998727805,9.530298603,-0.013264502315156905,0.16209570894972136,0.045340163308308694,9.566796499656615,0.1688392616970522,-0.01549450699999999,-0.028733484500000017,0.11611073599999955
72192.0,-0.6560648849999999,0.675285919,9.6978942515,0.03629586712447408,0.15037058703482348,0.0392105669753046,9.743489370805843,0.1595812394300776,-0.07541313849999998,0.07541313849999998,0.16759564849999897
72202.0,-0.6716574584999999,0.766291631,9.8475437305,0.06880436977212047,0.12239121379610236,0.03974463772641487,9.900123440109683,0.14592219413860896,-0.015592573499999984,0.09100571199999996,0.1496494790000007
72212.0,-0.6944088865,0.7842378004999999,10.015139379,0.07360227988585287,0.07309613440277453,0.05200033973391906,10.069769084253112,0.11603609697618625,-0.022751428000000073,0.017946169499999942,0.16759564850000075
72222.0,-0.6764627169999999,0.7244172355,10.174399375,0.05761331860833282,0.016606807832726046,0.06425778707067524,10.222562534931292,0.08788710796629161,0.017946169500000053,-0.05982056499999988,0.1592599959999994
72232.0,-0.7410885405,0.7051962015,10.256971367999999,0.033098423934820466,-0.04920955825998012,0.07171906962295099,10.307859891919477,0.09306294234921421,-0.06462582350000001,-0.01922103400000008,0.0825719929999984
72242.0,-0.8009091055,0.6800911774999999,10.2402019965,0.01524545101617047,-0.13820913280692698,0.07678226978298654,10.293965044340725,0.15883861344445363,-0.0598205650000001,-0.02510502400000003,-0.016769371499998798
72252.0,-0.7195139105,0.6190938145,10.104968292999999,0.014180800172453928,-0.22294312266199967,0.07784866595595508,10.149451296552463,0.23656953698001013,0.08139519500000003,-0.060997362999999916,-0.13523370350000086
72262.0,-0.6106600955,0.5867318695,9.910992755999999,0.031499702339993656,-0.2725052374308827,0.07651523440743141,9.947106988889155,0.2847910054253718,0.10885381500000002,-0.032361945,-0.19397553700000003
72272.0,-0.5447594075,0.6968605489999999,9.750555962,0.06027843637612816,-0.2804988454050167,0.07891331679967162,9.79059339391163,0.29755739569673567,0.06590068800000004,0.11012867949999994,-0.16043679399999888
72282.0,-0.49445129299999996,0.8046356324999999,9.6176758545,0.07946309551404983,-0.24452760952141356,0.09303652110680972,9.663933434397732,0.27342993549827305,0.0503081145,0.10777508349999998,-0.13288010750000012
72292.0,-0.513672327,0.8465100279999999,9.615322258499999,0.08186117790629004,-0.1736480432686718,0.10902373705507779,9.66617093899315,0.22077379966993033,-0.019221034000000026,0.04187439549999994,-0.002353596000000735
72302.0,-0.5279900359999999,0.80218397,9.705151172499999,0.06640628737988026,-0.09690591605848116,0.11488629801252674,9.752550019400994,0.16431498118472262,-0.014317708999999956,-0.04432605799999989,0.08982891399999993
72312.0,-0.6034031745,0.730399292,9.81645665,0.04375714967674983,-0.027892106776121382,0.11515333338808188,9.862068732171764,0.1263049799439071,-0.07541313850000009,-0.07178467799999999,0.1113054775000002
72322.0,-0.6560648849999999,0.6669502665,9.9995468055,0.019509290378792614,0.013142329267517301,0.10609332924097932,10.043215625819238,0.1086698106149759,-0.0526617104999999,-0.06344902549999998,0.1830901555000004
72332.0,-0.7075497975,0.560351981,10.084570461,-0.005270894341022875,0.022469368790175002,0.09037140333901439,10.124879379105051,0.0932718896691063,-0.05148491250000009,-0.10659828549999995,0.08502365550000057
72342.0,-0.6847983695,0.474249594,10.104968292999999,-0.028454102795263555,0.00488168591782814,0.06798930101143912,10.139242855697576,0.07386482163593047,0.022751428000000073,-0.08610238700000006,0.020397831999998672
72352.0,-0.6465524345,0.44669290749999996,10.0450496615,-0.03777939698866926,-0.01883384795827081,0.043474406337926756,10.075742518850406,0.06059720020081703,0.03824593499999995,-0.02755668650000004,-0.059918631499998654
72362.0,-0.6189957479999999,0.5041598764999999,9.944531498999998,-0.03404962837715737,-0.0428146718806729,0.028551841233375237,9.976524427460584,0.06170640938093927,0.027556686500000094,0.05746696899999998,-0.100518162500002
72372.0,-0.5339720925,0.5651572395,9.7985104805,-0.018861773226302718,-0.058269562407082684,0.025089107997418487,9.829310074333621,0.06618588771376797,0.0850236554999999,0.06099736300000003,-0.14602101849999904
72382.0,-0.48846923649999996,0.651357693,9.736238253,0.004853760649796231,-0.05427275842001567,0.031216959001170577,9.77022028198022,0.06279800815506537,0.045502856000000036,0.08620045350000005,-0.06227222749999939
72392.0,-0.492097697,0.7028426054999999,9.839208077999999,0.036030577078170936,-0.04041658948843269,0.04747121032499377,9.876546130792848,0.07200846478145677,-0.0036284605000000414,0.05148491249999987,0.10296982499999885
72402.0,-0.5399541489999999,0.730399292,9.948159959499998,0.0613448325490967,-0.0366868208769208,0.0741171520151912,9.989540539412983,0.10296826467108662,-0.04785645199999994,0.027556686500000094,0.10895188149999946
72412.0,-0.585457005,0.733929686,10.095357775999998,0.06667332275543539,-0.04601211507032651,0.10023076828353035,10.138918153044695,0.12887456541615253,-0.045502856000000036,0.0035303939999999923,0.1471978165000003
72422.0,-0.6045799725,0.6932320885,10.189893882,0.056014597013506015,-0.06546380958380331,0.11408693721511333,10.231325671587978,0.14296494216043018,-0.019122967499999977,-0.040697597500000016,0.0945361060000014
72432.0,-0.620172546,0.6202706124999999,10.217450568499999,0.03709522792188748,-0.09370847286882755,0.12208054518924737,10.25503026515691,0.1583066433719332,-0.015592573500000095,-0.07296147600000003,0.02755668649999876
72442.0,-0.6381187155,0.5867318695,10.219902231,0.01791056878396581,-0.11822336754233989,0.11835077657773548,10.256600381849589,0.16823929215189123,-0.017946169499999942,-0.033538742999999926,0.002451662500002172
72452.0,-0.6249778045,0.559175183,10.151647946999999,0.005387831400906495,-0.14753442700033265,0.10502693306801077,10.186227475431227,0.18117972443734837,0.013140911000000033,-0.027556686499999983,-0.06825428400000177
72462.0,-0.5879086675,0.5735909585,10.048678122,0.005387831400906495,-0.172049321673845,0.08770628557121905,10.08219099147383,0.19319003686612574,0.03706913699999992,0.01441577549999995,-0.10296982499999885
72472.0,-0.5579003185,0.614288556,9.9050106995,0.014180800172453928,-0.18403973363504608,0.07198610499850612,9.939710265024049,0.19812551063112932,0.030008349000000045,0.040697597500000016,-0.14366742250000009
72482.0,-0.47895678599999997,0.7136299205,9.8236155045,0.026171212133654972,-0.1712499608764316,0.06239377542954529,9.861140342097412,0.18413165034039272,0.07894353250000002,0.09934136449999997,-0.0813951950000007
72492.0,-0.4178613565,0.7279476295,9.7553612205,0.029900980745166856,-0.13500994428802135,0.06932098723071078,9.791403801651013,0.15468404241167813,0.061095429499999965,0.014317709000000067,-0.068254284
72502.0,-0.40952570399999993,0.7136299205,9.7757590525,0.025104815960686436,-0.08544957484839039,0.0826448307404355,9.810323339126251,0.12149917561163055,0.008335652500000068,-0.014317709000000067,0.02039783200000045
72512.0,-0.432277132,0.71000146,9.854702584999998,0.012315043202071989,-0.04254763650511777,0.09383588190422314,9.889698106153592,0.10376480325227741,-0.022751428000000073,-0.003628460499999986,0.07894353249999853
72522.0,-0.47895678599999997,0.6441988384999999,9.8906929905,-0.0018081611050661255,-0.02256361656978269,0.09356884652866801,9.92321518353331,0.09626793484850225,-0.04667965399999996,-0.06580262150000005,0.03599040550000154
72532.0,-0.47297472949999997,0.5890854655,9.9756185795,-0.008468337530676487,-0.013770647798235261,0.08850739169788445,10.004183766008827,0.08997167257798007,0.005982056499999999,-0.055113372999999966,0.08492558900000091
72542.0,-0.48974410099999993,0.5998727805,10.0068037265,-0.014330898488125441,-0.013503612422680129,0.08717396014936078,10.036723442336317,0.08937013778696584,-0.016769371499999963,0.010787315000000075,0.031185146999998636
72552.0,-0.5316184964999999,0.6094832975,10.011608984999999,-0.020193459445574394,-0.028159142151676513,0.08850739169788445,10.044222348409313,0.09504878471743407,-0.041874395499999995,0.00961051699999993,0.004805258499999354
72562.0,-0.512495529,0.5639804414999999,9.992387951,-0.02792003204415329,-0.04761083666515332,0.08903971711974272,10.021404221411762,0.10475872842902523,0.019122967499999977,-0.045502856000000036,-0.019221033999999193
72572.0,-0.5268132379999999,0.5388754175,9.9301157235,-0.033250267579743975,-0.07372445293349247,0.08690692477380564,9.958670452696975,0.11871684306831627,-0.014317708999999956,-0.02510502399999992,-0.06227222749999939
72582.0,-0.48013358399999995,0.5269113045,9.840384876,-0.031651545984917165,-0.09690591605848116,0.07971267759708502,9.86617140987851,0.1294089946644573,0.04667965399999996,-0.011964112999999998,-0.08973084750000027
72592.0,-0.45375369549999994,0.5616268455,9.7865463675,-0.015664330036649108,-0.09504190441735122,0.0733177912177778,9.813144599617068,0.12105301871422972,0.026379888500000004,0.03471554099999996,-0.05383850850000016
72602.0,-0.4717979315,0.628606265,9.7530076245,0.0024556782575560214,-0.08864701803804399,0.075715873610018,9.784625534384036,0.11660710818500795,-0.018044236000000047,0.06697941950000008,-0.03353874299999937
72612.0,-0.46218741449999995,0.6573397495000001,9.768600198,0.016578882564694135,-0.07345741755793735,0.07971267759708502,9.801594899849746,0.10965839006237461,0.00961051700000004,0.028733484500000017,0.015592573499999318
72622.0,-0.44777163899999994,0.6430220405,9.824792302499999,0.022174408146587957,-0.055339154592984205,0.0850429131326757,9.855989071246212,0.10385770785940492,0.014415775500000005,-0.014317709000000067,0.05619210449999912
72632.0,-0.42864867149999997,0.5998727805,9.885887732,0.015512486391725602,-0.038018507096192485,0.08557523855453397,9.913342689833316,0.09491662430545088,0.019122967499999977,-0.04314925999999997,0.061095429500001686
72642.0,-0.4118793,0.567608902,9.948159959499998,5.759586531581287e-05,-0.02469466358646777,0.0826448307404355,9.972848690479424,0.0862554217139291,0.016769371499999963,-0.03226387850000001,0.06227222749999761
72652.0,-0.4250202109999999,0.5843782734999999,9.97924704,-0.021259855618542926,-0.019366173380129078,0.07838099137781335,10.005374137514604,0.08349017871390241,-0.013140910999999922,0.016769371499999908,0.03108708050000253
72662.0,-0.43463072799999997,0.5963423865,9.969636523,-0.04151091092943313,-0.023895302789054367,0.0741171520151912,9.996908547765846,0.08824677583013943,-0.00961051700000004,0.01196411300000011,-0.009610517000000485
72672.0,-0.4610106165,0.6214474105,9.95767241,-0.04870515810615376,-0.031089549965774996,0.07145377957664786,9.987690799049503,0.09189339018127492,-0.02637988850000006,0.02510502399999992,-0.011964112999999443
72682.0,-0.48248717999999996,0.6071297015,9.966106128999998,-0.047106436511326955,-0.03775147172063734,0.0749165128126046,9.99623287682911,0.09621160984970009,-0.021476563499999934,-0.014317708999999956,0.008433718999997453
72692.0,-0.52563644,0.6250758710000001,9.9756185795,-0.04071155013201973,-0.047343801289598184,0.07438418739074633,10.008994932321022,0.0971178313621272,-0.04314926000000002,0.017946169500000053,0.0095124505000026
72702.0,-0.513672327,0.5723160939999999,9.9493367575,-0.03564834997198418,-0.059868284001909494,0.07012034802812418,9.979013322223675,0.09885281732274309,0.011964112999999998,-0.05275977700000012,-0.026281822000001398
72712.0,-0.5004333495,0.5663340375,9.914621216499999,-0.03245090678233057,-0.07425677835535074,0.06079505383471848,9.943383812666328,0.10130730009963504,0.013238977500000026,-0.005982056499999944,-0.03471554100000063
72722.0,-0.47650512349999996,0.5747677565,9.8463669325,-0.031651545984917165,-0.08438317867542185,0.04667184952758037,9.874631986867321,0.10149188511860738,0.023928225999999997,0.008433719000000006,-0.06825428399999822
72732.0,-0.43463072799999997,0.6405703779999999,9.7781126485,-0.0319185813604723,-0.08091870011021311,0.03867824155344634,9.808706400216522,0.09519788985717297,0.041874395499999995,0.06580262149999994,-0.068254284
72742.0,-0.34725347649999994,0.6848964359999999,9.666807170999999,-0.036714746144952716,-0.0630657271915631,0.04160864936754481,9.69725883877933,0.08400320370605081,0.08737725150000003,0.044326058,-0.11130547750000197
72752.0,-0.284981249,0.6897016945,9.6620019125,-0.04231027172684654,-0.027892106776121382,0.05200033973391906,9.690778281275009,0.07260966909753237,0.062272227499999944,0.00480525850000002,-0.004805258499999354
72762.0,-0.32214845249999996,0.706471066,9.6978942515,-0.04604004033835842,0.01287529389196217,0.06932098723071078,9.728927685301194,0.0842072311491266,-0.03716720349999997,0.01676937150000002,0.035892339000000106
72772.0,-0.41070250199999997,0.695683751,9.8008640765,-0.04870515810615376,0.03472507079767918,0.08344419153784889,9.83410336902062,0.10266915831667502,-0.08855404950000001,-0.010787314999999964,0.10296982500000063
72782.0,-0.4394359865,0.629783063,9.861959506,-0.04604004033835842,0.026731462823545153,0.08850739169788445,9.891813584507982,0.10328511414626501,-0.028733484500000017,-0.06590068800000004,0.06109542949999991
72792.0,-0.45973575199999994,0.5759445544999999,9.90863916,-0.039112828537192924,0.0006178465552059926,0.0842435523352623,9.936005187931954,0.09288256672061616,-0.020299765499999955,-0.05383850850000005,0.04667965400000007
72802.0,-0.45022330149999995,0.537600553,9.877454013,-0.034581953799015644,-0.02975786374650332,0.07918035217522675,9.902313525370182,0.0913836427042917,0.009512450499999991,-0.03834400149999995,-0.031185147000000413
72812.0,-0.39991518699999995,0.567608902,9.760166479,-0.03138451060936204,-0.05320636224704714,0.07678226978298654,9.784833249484539,0.09854654455017937,0.0503081145,0.030008349000000045,-0.11728753399999903
72822.0,-0.35441233099999997,0.580749813,9.665630372999999,-0.023390902635228007,-0.059335958580051223,0.07758163058039995,9.689545342952087,0.10043306084262253,0.04550285599999998,0.013140910999999922,-0.0945361060000014
72832.0,-0.30420228299999996,0.637039984,9.58894237,-0.00873537290623162,-0.050008919057393526,0.08077907377005356,9.614893381903844,0.09540679998955849,0.05021004800000001,0.056290171,-0.07668800299999923
72842.0,-0.25987622499999996,0.6525344909999999,9.555501693499998,0.009117600012418377,-0.038550832518050755,0.08717396014936078,9.581281204971818,0.09575278923323118,0.044326058,0.01549450699999999,-0.03344067650000149
72852.0,-0.22633748199999998,0.6693038625,9.606986606,0.027237608306623508,-0.01856681258271568,0.09543460349904993,9.632932469605448,0.10096720943339778,0.03353874299999998,0.01676937150000002,0.0514849125000012
72862.0,-0.2778223945,0.7136299205,9.711133229,0.04162610266006476,0.005148721293383272,0.10556100381912104,9.741281308827217,0.11358858781111628,-0.051484912500000035,0.044326058,0.1041466230000001
72872.0,-0.31616639599999996,0.7159835165,9.834402819500001,0.04722162824195858,0.024068090385001805,0.11888310199959375,9.865499095436018,0.13016277151954075,-0.03834400149999995,0.002353596000000069,0.12326959050000141
72882.0,-0.34244821799999997,0.6789143795,9.956495612,0.040559706487096225,0.032326988405438975,0.12794310614669632,9.985489491681342,0.13805637392076317,-0.02628182200000001,-0.03706913700000003,0.12209279249999838
72892.0,-0.340094622,0.626252669,10.0319087505,0.025904176758099837,0.03366041995396264,0.12767607077114118,10.057188967882697,0.13455567357993292,0.002353595999999958,-0.052661710500000014,0.07541313850000009
72902.0,-0.320873588,0.592713926,10.0785884045,0.0021886428820008896,0.025932102026131748,0.1215482197673891,10.101099637409394,0.1243029919261003,0.019221034000000026,-0.03353874300000004,0.04667965400000007
72912.0,-0.2766455965,0.5184775855,10.104968292999999,-0.013531537690712038,0.01980425102237966,0.11035716860360147,10.122042086222724,0.11293367758572422,0.04422799150000001,-0.07423634049999994,0.026379888499999282
72922.0,-0.19162194099999996,0.466992673,10.0570137745,-0.012732176893298634,0.02033657644423793,0.08903971711974272,10.069673638474637,0.09221581152209411,0.08502365550000002,-0.05148491249999998,-0.04795451849999921
72932.0,-0.063547092,0.46463907699999996,9.9948396135,-0.0012740903539558606,0.03632379239250599,0.05919633223989168,10.005835627490884,0.06946399751424875,0.12807484899999996,-0.002353596000000069,-0.06217416099999973
72942.0,0.0573689025,0.46816947099999995,9.9709113875,0.014446090218757066,0.06883229504015237,0.033348006017855654,9.982061297243552,0.0778374194617858,0.1209159945,0.0035303939999999923,-0.023928226000000663
72952.0,0.23692866399999998,0.48493884249999997,10.00082167,0.0256388867117967,0.11173423338342499,0.003239331091701475,10.015374927976069,0.11468384667216082,0.17955976149999997,0.01676937150000002,0.029910282500001273
72962.0,0.36980877149999997,0.544857474,10.118109204,0.026970572931068373,0.15649843803857555,-0.031134928526326846,10.139514882799942,0.1618287881901222,0.13288010749999998,0.059918631499999986,0.11728753399999903
72972.0,0.5337759595,0.629783063,10.2617766265,0.016844172610997275,0.18527717207471006,-0.06231174495470155,10.294930937775325,0.19619915953502595,0.16396718800000004,0.08492558900000002,0.14366742250000009
72982.0,0.7636438354999999,0.6573397495000001,10.404169184499999,0.0021886428820008896,0.1935378154243992,-0.08202872951448151,10.452845730874882,0.21021510084357337,0.22986787599999992,0.027556686500000094,0.14239255799999917
72992.0,1.0378377694999998,0.626252669,10.488016042,-0.015664330036649108,0.1847448466528518,-0.0913557690371392,10.557830276078494,0.20669278201391048,0.2741939339999999,-0.031087080500000086,0.08384685750000109
73002.0,1.3310566044999999,0.555644789,10.515572728499999,-0.039645153959051195,0.15756483421154407,-0.09108873366158407,10.61403422946708,0.18626747599250718,0.293218835,-0.07060787999999996,0.02755668649999876
73012.0,1.6627175075,0.488567303,10.514297864,-0.07108726043372905,0.1258556923613111,-0.08869065126934385,10.656161930649452,0.1695850391936098,0.3316609030000002,-0.06707748600000002,-0.0012748644999991399
73022.0,2.0074212549999997,0.45267496399999996,10.453300501000001,-0.11212344180661972,0.10187486843890901,-0.08256280026559176,10.65392632235952,0.17253049298516324,0.34470374749999966,-0.03589233900000005,-0.06099736299999847
73032.0,2.3402589559999996,0.4478697055,10.3192435955,-0.15182619163098673,0.09920975067111368,-0.08229576489003664,10.59075954016097,0.19916415343186092,0.3328377009999999,-0.004805258499999965,-0.13405690550000138
73042.0,2.4982440875,0.5687857,10.338366563,-0.17234428231743204,0.11120016263231472,-0.08016471787335154,10.651129699905528,0.22021446321410865,0.15798513150000026,0.12091599449999996,0.019122967499999532
73052.0,2.512659863,0.7674684289999999,10.435354331499997,-0.1726095723637352,0.12079249220127555,-0.05111894846166192,10.760998438834505,0.21679030775293623,0.014415775500000283,0.19868272899999995,0.09698776849999824
73062.0,2.4814747159999997,0.8848540295,10.601773182,-0.1686127683766682,0.11759504901162195,0.0029722957161463434,10.924206059125948,0.20559108870161164,-0.031185147000000413,0.11738560050000013,0.16641885050000305
73072.0,2.4144952965,0.8656329955,10.775350887,-0.1734089331611486,0.08881806030473943,0.06745523026032885,11.076429693619268,0.2061783548917248,-0.06697941949999953,-0.01922103400000008,0.17357770499999958
73082.0,2.3653639799999997,0.7483454615,10.9680515595,-0.18060318033786923,0.04485147111775028,0.13433799252600354,11.245137735905214,0.22951222068878135,-0.049131316500000466,-0.11728753399999992,0.19270067249999911
73092.0,2.3246663825,0.6010495785,11.068569721999998,-0.19925551405393263,-0.017235126363444004,0.19775627622646952,11.326012982356843,0.2812602962535248,-0.040697597499999905,-0.14729588300000007,0.10051816249999845
73102.0,2.339082158,0.5316184964999999,11.042287899999998,-0.2402916954268233,-0.09504190441735122,0.23559326908045458,11.299825026706442,0.3496816422438982,0.014415775500000283,-0.06943108200000003,-0.02628182199999962
73112.0,2.3977259249999996,0.48493884249999997,10.884204702,-0.29198485721239137,-0.156062105725577,0.24545263402497053,11.155723521467412,0.41213776002040614,0.058643766999999514,-0.04667965399999996,-0.15808319799999815
73122.0,2.446759175,0.49219576349999994,10.695132489999999,-0.3490082545335501,-0.1907016553899084,0.2481177517927659,10.982474498431927,0.46876038853096713,0.04903325000000036,0.007256920999999972,-0.18907221200000102
73132.0,2.3570283275,0.6538093554999999,10.5323421,-0.3871122827630903,-0.1781771726775971,0.26330560694362054,10.812644418522657,0.500931998356445,-0.08973084749999982,0.16161359199999992,-0.16279038999999962
73142.0,2.1535403399999997,0.8225818019999999,10.431725870999998,-0.41615630684552796,-0.12301953232682031,0.3091379531009916,10.683411508721338,0.5328096762528715,-0.2034879875000004,0.1687724465,-0.10061622900000167
73152.0,1.8602234384999998,0.786689463,10.520377987,-0.440138876097182,-0.06119997022118116,0.3632291972787999,10.712500387010222,0.5739365089998765,-0.2933169014999999,-0.035892338999999884,0.08865211600000222
73162.0,1.6064273365,0.5998727805,10.641195914999999,-0.4601228960325171,-0.03002489912205845,0.405064739449104,10.77847422605129,0.6137524070548407,-0.2537961019999999,-0.18681668249999994,0.12081792799999924
73172.0,1.3969572924999998,0.43825918849999995,10.750147796499999,-0.4790422651241356,-0.02735978135426311,0.4253157947599942,10.849388850989136,0.6411891879027135,-0.20947004400000013,-0.16161359200000008,0.10895188149999946
73182.0,1.1933712385,0.42148981699999993,10.8866563645,-0.4819726729382341,-0.08065166473465797,0.4197202691781004,10.959976066462103,0.6441796743476425,-0.20358605399999985,-0.01676937150000002,0.13650856800000177
73192.0,1.1347274715,0.428746738,10.885479566499999,-0.46891586480406455,-0.1835074082131878,0.39014217434455245,10.95285787329551,0.6369991941410604,-0.05864376699999996,0.007256921000000083,-0.0011767980000012557
73202.0,1.2125922724999998,0.6071297015,10.642470779499998,-0.4545273704506233,-0.29728716747995015,0.3541691931316973,10.728521369987641,0.6483907832477013,0.07786480099999982,0.1783829635,-0.24300878700000084
73212.0,1.288005411,0.8513152864999999,10.4029923865,-0.44120352694089854,-0.3617701020241327,0.3539039030853942,10.516936162655492,0.6714060854078667,0.07541313850000031,0.24418558499999987,-0.23947839299999885
73222.0,1.256820264,1.0332286439999998,10.164788858,-0.42734735800931556,-0.3617701020241327,0.4045306686979937,10.294177535602543,0.690759316284145,-0.03118514700000019,0.18191335749999993,-0.2382035284999997
73232.0,1.222104723,1.1170755015,10.037890806999998,-0.4158910167992248,-0.33379247411466356,0.4855348899415545,10.173526894999858,0.7211982272443818,-0.03471554099999996,0.0838468575000002,-0.1268980510000013
73242.0,1.1754250689999999,1.156596301,9.924133667,-0.42175183242742176,-0.27357163360385117,0.5931867982045648,10.060207161724026,0.7775516860201326,-0.04667965400000007,0.03952079949999998,-0.11375713999999881
73252.0,1.0701016479999998,1.022441329,9.8451901345,-0.45346097427765475,-0.20588951054076307,0.7136267338969374,9.9558160184264,0.8702186283204728,-0.10532342100000003,-0.13415497199999993,-0.0789435325000003
73262.0,0.9300626859999999,0.7399117425,9.691912194999999,-0.5080862892065733,-0.1616576313074708,0.8143496850295302,9.764509612989718,0.9733705751394701,-0.140038962,-0.28252958650000004,-0.15327793950000057
73272.0,0.790023724,0.36402284799999995,9.39869336,-0.5611128825406649,-0.1483337877977461,0.8719054077725472,9.438860471140408,1.0474109125164455,-0.14003896199999988,-0.37588889450000007,-0.29321883499999934
73282.0,0.569766365,0.0911037785,9.168825484,-0.5896245812012444,-0.16139059593191565,0.8767033178862796,9.186963283108849,1.0687903343522587,-0.22025735899999999,-0.27291906949999994,-0.22986787600000014
73292.0,0.2093719775,0.01569064,9.0382989725,-0.5552503215832161,-0.2000269495833141,0.8324696933237354,9.040737311604646,1.0204506310843189,-0.36039438749999997,-0.0754131385,-0.1305265114999994
73302.0,-0.15092434349999997,0.16534011899999998,9.095765941499998,-0.4358750367345599,-0.2796994846076033,0.7653216410117575,9.098520405811222,0.9240866104099995,-0.360296321,0.14964947899999997,0.05746696899999826
73312.0,-0.365199646,0.4359055925,9.2585563315,-0.25547955057767796,-0.38202115733502284,0.7202886556517999,9.276003978576659,0.854415421721565,-0.21427530250000001,0.27056547350000004,0.1627903900000014
73322.0,-0.343625016,0.7890430589999999,9.360349358499999,-0.08707622171124908,-0.46062729618634346,0.7426725033086271,9.399830169409894,0.8782495212353666,0.021574629999999984,0.35313746649999994,0.10179302699999937
73332.0,-0.159259996,1.0296982499999998,9.399870158,0.005653121447209634,-0.4678215433630641,0.8332690541211488,9.45744157897039,0.9556287306128098,0.18436502000000002,0.24065519099999988,0.03952079950000176
73342.0,-0.033636809499999996,1.123057558,9.356720897999999,-0.004206243497306334,-0.40546965583556666,0.9619713784924626,9.423938437649312,1.043940739374827,0.12562318649999998,0.09335930800000014,-0.04314926000000163
73352.0,0.13042844499999998,0.9614439659999999,9.3483852455,-0.0932040727150012,-0.29968524987219036,1.101597718652009,9.398600575474257,1.1454325741399758,0.16406525449999998,-0.16161359200000003,-0.008335652499999568
73362.0,-0.024026292499999997,0.6430220405,9.33396947,-0.25521251520212285,-0.18537141985431774,1.1921942694645307,9.356123164761788,1.2332165938547315,-0.15445473749999997,-0.3184219254999999,-0.014415775499999839
73372.0,-0.40952570399999993,0.258699427,9.1508793145,-0.3172991126833171,-0.13287889727133628,1.2193742819058382,9.163690791613977,1.2669684951185824,-0.38549941149999994,-0.3843226135,-0.1830901555000004
73382.0,-0.8930916154999999,-0.0165732385,9.0706609175,-0.3524727330987588,-0.15446338413075014,1.188996826274877,9.114536564531008,1.2497237364741707,-0.4835659115,-0.27527266549999996,-0.08021839699999944
73392.0,-1.4330457645,-0.20456671899999998,9.015547544499999,-0.31916486965369906,-0.23893033861026775,1.1250462171525528,9.131022135161746,1.1936008174673596,-0.5399541490000002,-0.18799348049999998,-0.055113373000001076
73402.0,-1.9597609359999997,-0.28713871199999996,8.994070980999998,-0.25441315440470946,-0.36150306664857745,1.0504368822882992,9.20958329010965,1.1396614251618953,-0.5267151714999996,-0.08257199299999998,-0.021476563500000267
73412.0,-2.3679137089999998,-0.250069575,8.9186578425,-0.16514828981145946,-0.4750175358690367,0.9872838886341364,9.231035036072475,1.107991468273688,-0.4081527730000001,0.037069136999999974,-0.07541313849999831
73422.0,-2.5642428419999996,-0.182992089,8.954550181499998,-0.08973959414979245,-0.5488275099358769,0.934791366051155,9.316265153503654,1.0877038790334292,-0.19632913299999988,0.06707748599999999,0.03589233899999833
73432.0,-2.5618892460000002,-0.1650459195,8.931798753499999,-0.053768358266189316,-0.5752064162505192,0.8924234984589926,9.29341410017536,1.0630960249423353,0.0023535959999994027,0.017946169499999998,-0.022751427999999407
73442.0,-2.3787010239999997,-0.10522535449999999,8.841969839499999,-0.06096260544290994,-0.5597515257241094,0.8545865056050075,9.156949359881594,1.0234042726972727,0.1831882220000005,0.059820565000000006,-0.08982891399999993
73452.0,-2.154913271,0.0791396655,8.630146199499999,-0.10146471606469036,-0.5256443014816362,0.8146167204050854,8.895467256807349,0.9747807042867347,0.22378775299999987,0.18436502,-0.21182364000000042
73462.0,-2.0016353315,0.267133146,8.443329516999999,-0.13663833648013207,-0.47395113969606817,0.7994288652542307,8.681458255998493,0.9393541549473908,0.15327793949999968,0.18799348049999998,-0.18681668249999994
73472.0,-1.962114532,0.3138128,8.142853761,-0.10945832403882437,-0.3897494752628537,0.8063560770553962,8.381792128367373,0.902272631289028,0.0395207995000002,0.046679654000000015,-0.3004757559999991
73482.0,-2.0602790984999997,0.487390505,8.233859472999999,-0.09080599032276097,-0.2778354729664733,0.8415296974708378,8.501690495965608,0.8908481967441821,-0.09816456649999972,0.17357770499999997,0.0910057119999994
73492.0,-2.2961290309999995,0.166516917,8.309272611499999,-0.09746791207762334,-0.142205936793994,0.8631124390009998,8.622293647450903,0.8801622604397914,-0.23584993249999986,-0.320873588,0.07541313850000009
73502.0,-2.5308021655,-0.461893215,8.134518108499998,-0.042575561773149674,0.0030176742766981957,0.8700413961314173,8.531628789420981,0.8710877199229968,-0.23467313450000038,-0.628410132,-0.17475450300000084
73512.0,-2.803721235,-0.8198359399999999,7.811290924499999,0.0791978054677467,0.12718912390983478,0.8063560770553962,8.33961927424038,0.8201582095157168,-0.2729190694999999,-0.3579427249999999,-0.3232271839999994
73522.0,-2.9975987054999997,-0.6701864609999999,7.762257674499999,0.21056350227760387,0.1903403722347456,0.6736586940262673,8.34789746565308,0.7310146933072195,-0.19387747049999993,0.14964947900000003,-0.04903324999999992
73532.0,-2.8359851135,-0.226141349,8.0446891945,0.28357411554703066,0.19993270180370643,0.5462898012034771,8.532934765356302,0.6471629710959559,0.1616135919999997,0.4440451119999999,0.28243152000000116
73542.0,-2.3787010239999997,0.1366066345,8.3763500975,0.3664440937609734,0.21085671759193897,0.48233744675190093,8.708623363658365,0.6413978809951673,0.4572840895000003,0.3627479835,0.3316609029999995
73552.0,-2.1142156735,0.35568719549999994,8.810882759,0.4562412837760817,0.22977608668355748,0.486601286114523,9.06796979968279,0.705502636906174,0.26448535049999977,0.21908056099999995,0.43453266150000047
73562.0,-2.2650419505,0.45022330149999995,9.3148465025,0.5164621242868941,0.19833398020887963,0.5497525344394338,9.596847473200503,0.7799341912309066,-0.15082627700000018,0.09453610600000001,0.5039637435
73572.0,-2.5007938165,0.24555851599999998,9.6751428235,0.5407099835848512,0.0954799820596018,0.6342212342482034,9.996132119602477,0.8388803772253506,-0.23575186599999975,-0.20466478549999997,0.36029632099999986
73582.0,-2.6540717559999996,-0.1650459195,9.888241328000001,0.5329834109862724,-0.00018151424220741027,0.7019033573112915,10.239563154857132,0.8813283567086926,-0.15327793949999968,-0.4106044355,0.21309850450000134
73592.0,-2.8623650019999998,-0.653515156,9.9181516105,0.4938129865837636,-0.04920955825998012,0.7384086639460049,10.343594483189097,0.8896742107836119,-0.2082932460000002,-0.48846923649999996,0.029910282499999497
73602.0,-3.0251553919999994,-0.9168237085,9.8092977955,0.4322604598536796,-0.025761059759436305,0.7386756993215601,10.30603969034738,0.8562444312934476,-0.16279038999999962,-0.26330855249999996,-0.10885381500000157
73612.0,-3.152053443,-0.89044382,9.6249327755,0.35445368179977244,0.06243740866084514,0.7051008005009451,10.166988838245002,0.7916457423676132,-0.1268980510000004,0.02637988849999995,-0.18436501999999955
73622.0,-3.172451275,-0.797084512,9.4274268445,0.2976955745249168,0.19593589781663942,0.6480774031797865,9.978785884060175,0.7396065519295975,-0.020397832000000005,0.09335930800000003,-0.19750593100000025
73632.0,-3.1137094415,-0.6522402915,9.529121804999999,0.28117603315479045,0.35687968946004456,0.5806623154922534,10.046131905289155,0.7372867820614899,0.05874183349999962,0.1448442205,0.10169496049999971
73642.0,-3.207166816,-0.517006588,9.839208077999999,0.2915677235211647,0.49597195886848067,0.5031225728139014,10.361622961672916,0.7642854471060088,-0.0934573744999998,0.13523370349999997,0.3100862729999996
73652.0,-3.3734875999999994,-0.49906041849999994,10.282076392,0.3043574962797792,0.5279481360942687,0.4178545122077184,10.832847032040602,0.7388945211053188,-0.1663207839999994,0.017946169500000053,0.4428683140000018
73662.0,-3.4884215379999994,-0.56486304,10.752599458999999,0.3136845358024368,0.4509407188377749,0.3259245298466731,11.318416417786871,0.6387271084456133,-0.11493393800000007,-0.06580262150000005,0.47052306699999846
73672.0,-3.50881937,-0.5900661305,11.062587665499999,0.3216781437765709,0.30678350394005127,0.25318095195280144,11.620707261889146,0.5115599093996738,-0.02039783200000045,-0.025203090500000025,0.3099882064999999
73682.0,-3.3615234869999995,-0.562509444,11.0829854975,0.31954709675988585,0.14690610846961472,0.21747500611550144,11.59520696520925,0.4135059008506353,0.1472958830000004,0.027556686499999983,0.02039783200000045
73692.0,-3.1389125319999995,-0.588791266,10.9919797855,0.30942069643981474,0.024068090385001805,0.22013837855404478,11.446530768896974,0.3805014403027727,0.22261095499999994,-0.026281821999999955,-0.0910057119999994
73702.0,-2.918655173,-0.6187015484999999,10.859099678,0.30649028862571626,-0.05134235060591719,0.24092350461604525,11.261500141710059,0.39321300724174085,0.22025735899999965,-0.02991028249999994,-0.13288010750000012
73712.0,-2.72232604,-0.5432884099999999,10.7250427725,0.3054238924527477,-0.07532317452831927,0.25238159115538805,11.078482018600603,0.4033036105171099,0.19632913299999988,0.07541313849999998,-0.1340569054999996
73722.0,-2.6157277545,-0.481114249,10.558623922,0.29050132734819617,-0.05320636224704714,0.2547796735476282,10.888436147238185,0.39004438238188205,0.10659828550000006,0.06217416099999995,-0.1664188504999995
73732.0,-2.482847647,-0.495431958,10.435354331499997,0.2478681697097307,0.006747442888210078,0.24731839099535247,10.738091324214789,0.35021499691662483,0.13288010750000012,-0.014317709000000012,-0.12326959050000319
73742.0,-2.4086113064999997,-0.6055606375,10.330030910499998,0.17432348568919362,0.08029038157949514,0.21774029616180457,10.624389428262429,0.29025171766871904,0.07423634050000016,-0.11012867949999999,-0.10532342099999958
73752.0,-2.4182218234999997,-0.6211532109999999,10.306004618,0.09678374301084156,0.15196930862965027,0.16178329501361438,10.604119920362301,0.24214788502488455,-0.00961051700000004,-0.015592573499999873,-0.024026292499998547
73762.0,-2.420673486,-0.554075725,10.2857048525,0.041359067284509624,0.19860101558443474,0.09703332509387674,10.58122792248611,0.22487419153070337,-0.0024516625000003955,0.06707748599999985,-0.020299765499999012
73772.0,-2.400275654,-0.414036763,10.314438336999999,0.031234412293690523,0.21565462770567134,0.04480609255719843,10.59813133831035,0.2224636889302346,0.020397832000000005,0.14003896200000004,0.02873348449999824
73782.0,-2.3703653715,-0.23565379949999998,10.401815588499998,0.05708099318647455,0.1980669448333245,0.020025907837382936,10.67107924461189,0.20709850652158968,0.02991028249999994,0.1783829635,0.08737725149999953
73792.0,-2.2662187484999996,-0.1315071765,10.489192840000001,0.0941186252430462,0.13944482591733895,0.01069886831472524,10.732017889857955,0.16857532700835484,0.10414662300000055,0.104146623,0.08737725150000308
73802.0,-2.016051107,-0.1075789505,10.4808571875,0.12796055943921628,0.06670124802346729,0.006702064327658226,10.67353749613487,0.1444571871736999,0.2501676414999996,0.023928225999999983,-0.008335652500001345
73812.0,-1.6868418664999998,-0.06688135299999999,10.4951748965,0.15567115197313022,0.0022165681500327986,0.006969099703213358,10.630080183426657,0.15584283455352857,0.3292092405000002,0.040697597500000016,0.014317709000000178
73822.0,-1.4126479325,0.06599875449999999,10.440159589999999,0.16366650527651624,-0.037486181674334214,0.02668782959224529,10.535504842268406,0.17001229077420796,0.2741939339999997,0.13288010749999998,-0.055015306500001415
73832.0,-1.2271061144999997,0.22643554849999997,10.363471587,0.14661289315527967,-0.04707851124329505,0.05972865766174995,10.438323898424692,0.16516427945025228,0.18554181800000036,0.160436794,-0.07668800299999923
73842.0,-1.1241362895,0.29822022649999996,10.2725639415,0.10530967640683386,-0.02602809513499144,0.1020965252539123,10.338190733057239,0.1489674130479246,0.10296982499999974,0.07178467799999999,-0.09090764549999975
73852.0,-1.207983147,0.2886097095,10.227061085499999,0.06480756578505345,0.01047721149972196,0.14446439284607465,10.302198663120516,0.15868129487806343,-0.08384685749999998,-0.009610516999999985,-0.04550285600000059
73862.0,-1.3671450765,0.21084297499999996,10.290510111,0.04109377723820649,0.03366041995396264,0.17857161708854785,10.3830698141204,0.18630497800327134,-0.15916192949999997,-0.07776673450000002,0.06344902550000064
73872.0,-1.52395341,0.1007142955,10.362294788999998,0.033897784732233864,0.029396580591340492,0.19349243686384734,10.474241292776542,0.19862663941104675,-0.15680833350000012,-0.11012867949999997,0.07178467799999844
73882.0,-1.593384492,-0.0261837555,10.4388847255,0.04189313803561989,8.552113334772214e-05,0.18070266410523292,10.559823579997698,0.18549526986708956,-0.06943108199999992,-0.12689805099999998,0.07658993650000134
73892.0,-1.498848386,-0.1758332345,10.499980155,0.054682910794234346,-0.04254763650511777,0.15458904783689376,10.60787665209034,0.16940571364691112,0.09453610600000006,-0.149649479,0.06109542949999991
73902.0,-1.3337044,-0.21417723599999997,10.5263600435,0.05361651462126581,-0.07185869596311055,0.12128118439183397,10.612676150735652,0.1508228381682867,0.1651439859999999,-0.038344001499999975,0.02637988850000106
73912.0,-1.2546628009999998,-0.192602606,10.508315807499999,0.03629586712447408,-0.08678126106766205,0.08770628557121905,10.584704795987724,0.12861092399758048,0.07904159900000018,0.021574629999999956,-0.01804423600000149
73922.0,-1.184054921,-0.1519050085,10.472423468499999,0.004054399852382828,-0.11049679494376101,0.05786290069136801,10.54024262012698,0.1247962143954122,0.07060787999999985,0.040697597500000016,-0.035892339000000106
73932.0,-1.0068487554999999,-0.21770762999999999,10.4604593555,-0.03991218933460633,-0.1406072151991672,0.03174928442302885,10.511058507908686,0.1495706819029744,0.17720616550000012,-0.06580262149999999,-0.011964112999999443
73942.0,-0.9804688669999999,-0.23330020349999997,10.501156953,-0.08041429995638674,-0.17418036869053008,0.013363986082520582,10.54940972451301,0.19231187326490928,0.02637988849999995,-0.015592573499999984,0.04069759750000124
73952.0,-1.0199896665,-0.24889277699999998,10.452123703,-0.1057285554273125,-0.22747399740017696,0.008035495876181893,10.504723529775735,0.25097313824379325,-0.03952079949999998,-0.015592573500000012,-0.049033250000000805
