timestamp,ax,ay,az,gx,gy,gz,acc_mag,gyro_mag,dax,day,daz
106922.0,1.2881034774999998,-1.5926980265,9.925506597999998,-0.12817348960795957,0.13343914796122647,0.11408344655660936,10.134672111090032,0.21736946065428453,0.0,0.0,0.0
106932.0,1.351552503,-1.2646655839999998,10.0440689965,-0.09140289292694304,0.15369194860136864,0.11061896799140061,10.213197110316248,0.21026711578319246,0.0634490255000002,0.3280324425000001,0.11856239850000172
106942.0,1.4653096429999999,-1.355671296,10.409170576,-0.029583330821303887,0.11612024579368674,0.12820490553449548,10.598858858053129,0.17548670248419918,0.11375713999999992,-0.09100571200000007,0.3651015794999992
106952.0,1.547881636,-1.4167667254999998,10.765936502999999,0.043427282448122904,0.03698003619125585,0.15058875319132276,10.968525621074962,0.16102926605202159,0.08257199300000018,-0.06109542949999991,0.35676592699999965
106962.0,1.5454299734999999,-1.2335785035,10.9215680385,0.09778556200148629,-0.08292757407925858,0.15938172196287018,11.099131414073547,0.20455202754914725,-0.0024516625000001735,0.18318822199999985,0.1556315355000013
106972.0,1.6771332829999999,-1.054018742,10.919116376,0.11510620949827803,-0.16286714447910286,0.1548525925539449,11.0973345443879,0.25249647846359463,0.13170330949999998,0.17955976149999997,-0.0024516625000003955
106982.0,1.7812799059999997,-0.867300126,10.884400835000001,0.0884602678080806,-0.16739627388802816,0.15431852180283462,11.06324315691505,0.24425588562752182,0.10414662299999988,0.18671861600000006,-0.03471554099999885
106992.0,1.8925853835,-0.6852887019999999,10.856844148499999,0.027173031124299717,-0.1266271278906926,0.16151276897955524,11.041855138686858,0.2070245823127562,0.1113054775000002,0.18201142400000003,-0.027556686500002314
107002.0,2.100976696,-0.579965281,10.856844148499999,-0.0623571235152534,-0.0629435541439235,0.17776702030337843,11.073460510116933,0.1986238036311543,0.2083913125000001,0.10532342099999992,0.0
107012.0,2.2613154234999997,-0.544072942,10.8556673505,-0.1633471100234013,-0.007518878417591572,0.2161380839084738,11.102030284388851,0.27102487561344285,0.16033872749999967,0.035892338999999995,-0.0011767979999994793
107022.0,2.393018733,-0.49621648999999995,10.788687930999998,-0.23555836249541467,0.014597933863680574,0.2792893322333846,11.062032215372628,0.36565471816179185,0.1317033095000002,0.04785645200000005,-0.06697941950000086
107032.0,2.460096219,-0.47219019749999996,10.6138353615,-0.27046494753530126,0.010067059125503293,0.35896186725767376,10.905436170570209,0.449562293425311,0.06707748600000007,0.02402629249999999,-0.17485256949999872
107042.0,2.448132106,-0.5535853924999999,10.478601657999999,-0.26540174737526573,-0.003522074430524557,0.4503595241968608,10.775012775039189,0.5227563424320755,-0.011964112999999887,-0.08139519499999998,-0.13523370350000086
107052.0,2.3583031919999997,-0.6661657345,10.3445447525,-0.22463434670718216,-0.0248395259143833,0.5462845652157212,10.630850241993562,0.5911889866710505,-0.08982891400000037,-0.11258034200000011,-0.1340569054999996
107062.0,2.2158125675,-0.7822764704999999,10.246380186,-0.16414647082081468,-0.04722162824195858,0.6339507082141443,10.512377881651814,0.6565572682576635,-0.14249062449999972,-0.11611073599999988,-0.0981645664999995
107072.0,1.9644681279999998,-0.9031924649999999,10.29305984,-0.10099522249590387,-0.05361651462126581,0.7016328312772324,10.517698062056231,0.7108891584018108,-0.2513444395000002,-0.12091599450000001,0.04667965400000007
107082.0,1.6591871135,-0.9941981769999999,10.422311487,-0.058627354903741526,-0.059479075578714756,0.7354730201441505,10.600278705053313,0.7401996288398595,-0.3052810144999998,-0.09100571199999996,0.12925164700000025
107092.0,1.38862164,-1.074416574,10.5744126285,-0.04343949975288687,-0.08612501726891218,0.7320102869081937,10.719181100781087,0.7383383837223739,-0.27056547350000004,-0.08021839700000011,0.15210114149999931
107102.0,1.2282829124999999,-1.064806057,10.649825767,-0.04930031538108383,-0.1306239318777596,0.6955049802734803,10.773174078219496,0.7093802296801724,-0.1603387275000001,0.00961051700000004,0.07541313850000009
107112.0,1.1947441694999998,-0.9882161205,10.641392048,-0.06875375522381262,-0.18791436457447347,0.6483409478968376,10.75375327272334,0.6785166703851675,-0.03353874300000004,0.07658993650000001,-0.008433718999999229
107122.0,1.3012443885,-0.925943893,10.5096887385,-0.09513266153845493,-0.23587775774852965,0.6110362804647108,10.6303417833925,0.6618563861866206,0.10650021900000017,0.062272227499999944,-0.13170330950000064
107132.0,1.4844326104999999,-0.8277793265,10.3325806395,-0.10792243429706938,-0.2550624168864513,0.6019762763176082,10.471436456392544,0.6626307611194764,0.18318822199999985,0.09816456650000005,-0.1771080989999998
107142.0,1.6400641459999998,-0.7762944139999999,10.225982354,-0.09886243014996679,-0.24600241273934878,0.6299539042270773,10.385718970033883,0.6834712054063987,0.15563153549999997,0.05148491250000009,-0.1065982855000005
107152.0,1.6975311149999999,-0.7499145254999999,10.1350747085,-0.08340753962355701,-0.21669135328135597,0.6851115445778541,10.303578166288903,0.7233877167652306,0.057466969000000034,0.02637988849999995,-0.09090764549999975
107162.0,1.620843112,-0.716473849,10.123012528999999,-0.0708848022404977,-0.18178476824146939,0.7525266322653871,10.276957226353998,0.7774102452514787,-0.0766880029999999,0.03344067649999993,-0.01206217950000088
107172.0,1.478450554,-0.775117616,10.1278177875,-0.06422288048563535,-0.14634585777972453,0.8167442767632664,10.264468641681255,0.8322336823829631,-0.14239255800000006,-0.05864376699999996,0.0048052585000011305
107182.0,1.3204654224999999,-0.8385666414999999,10.1493924175,-0.05836031952818639,-0.11570311210246008,0.8599115051528422,10.269225354848396,0.869621143797604,-0.15798513150000004,-0.06344902549999998,0.021574629999999928
107192.0,1.1276666835,-0.8397434395,10.181754362499998,-0.05249950389998943,-0.09065414667783747,0.8782968034933505,10.278371616727375,0.8845222706332888,-0.19279873899999989,-0.0011767980000000344,0.032361944999998116
107202.0,0.9744868105,-0.7882585269999999,10.231964410499998,-0.05836031952818639,-0.06560692658246685,0.8804295958392875,10.308446621434543,0.8847974168931328,-0.15317987300000002,0.05148491250000009,0.050210048000000285
107212.0,0.8416067029999998,-0.754719784,10.291883041999998,-0.08287521420169874,-0.03229906313740706,0.8806966312148427,10.35378000273826,0.8851768675477824,-0.13288010750000012,0.033538742999999926,0.05991863150000043
107222.0,0.7206907084999999,-0.7643303009999999,10.301395492500001,-0.10845650504817964,-0.020041615800650888,0.8910883215812169,10.354822306502623,0.8978880090020118,-0.1209159944999999,-0.00961051699999993,0.0095124505000026
107232.0,0.6847983695,-0.8337613829999999,10.287077783500001,-0.12471075637200284,-0.025904176758099837,0.9081419337024534,10.343504056867346,0.9170308451067626,-0.035892338999999995,-0.06943108200000003,-0.014317709000000178
107242.0,0.5878106009999999,-0.9450668604999999,10.2188234995,-0.1268418033886879,-0.03469714552964727,0.9355872361900645,10.27925222899977,0.9447836850393658,-0.09698776850000002,-0.11130547749999997,-0.06825428400000177
107252.0,0.46924820249999993,-1.0563723379999999,10.1948952735,-0.12044691700938066,-0.05574756163795088,0.9662299818673288,10.26021471654827,0.9753028392786418,-0.1185623985,-0.11130547749999997,-0.023928225999998887
107262.0,0.30410421649999997,-1.21798593,10.163808192999998,-0.10419266568555749,-0.06880436977212047,0.9928759235575262,10.241043212693956,1.0006961339300815,-0.16514398599999996,-0.16161359200000014,-0.03108708050000253
107272.0,0.082571993,-1.3006559894999998,10.130269449999998,-0.08394161037466728,-0.06267651876836837,0.9928759235575262,10.213759506991218,0.9983872693185869,-0.22153222349999996,-0.08267005949999984,-0.03353874299999937
107282.0,-0.0981645665,-1.3269378115000001,10.190090015,-0.07701265324424979,-0.027237608306623508,0.954771895327986,10.276591592133416,0.9582599898640133,-0.1807365595,-0.026281822000000288,0.05982056500000077
107292.0,-0.23584993249999997,-1.263488786,10.258344298999999,-0.09300161452176985,0.004206243497306334,0.8918876823786303,10.33855197113376,0.8967333108381438,-0.13768536599999998,0.0634490255000002,0.068254284
107302.0,-0.25732649599999996,-1.1510065105,10.3002186945,-0.11698243844417194,0.00926769832808989,0.8271359671296407,10.36752323688181,0.8354188705410783,-0.02147656349999999,0.1124822754999999,0.041874395500000716
107312.0,-0.1795597615,-1.0707881135,10.2966883005,-0.12497604641830595,-0.008850564636863244,0.7757098407196277,10.353773169700812,0.7857627515109201,0.07776673449999996,0.08021839700000011,-0.0035303940000002143
107322.0,-0.080218397,-1.0623543944999998,10.2859009855,-0.09779777930625026,-0.054415875418679205,0.7525266322653871,10.340927953246776,0.7608034078548153,0.0993413645,0.008433719000000117,-0.010787314999999964
107332.0,0.06227222749999999,-1.0289137179999999,10.224805556,-0.05009967617849723,-0.10824182955018434,0.7610543109906315,10.276633200003534,0.7703440370996495,0.1424906245,0.03344067649999993,-0.06109542949999991
107342.0,0.1760293675,-1.064806057,10.155374474,-0.005867796945204936,-0.1514090579397601,0.7916970566678958,10.21256231238846,0.8060665998562434,0.11375714,-0.035892339000000106,-0.06943108199999948
107352.0,0.18318822199999998,-1.146201252,10.126640989499998,0.029038788094681654,-0.17965372122478432,0.8369953320741567,10.192948197895808,0.8565511640747727,0.007158854499999978,-0.08139519500000003,-0.028733484500001794
107362.0,0.13288010749999998,-1.2096502775,10.1278177875,0.04982216882743013,-0.17832203500551264,0.8724359878651535,10.200666843575789,0.891866329444846,-0.0503081145,-0.06344902549999998,0.0011767980000012557
107372.0,0.014415775499999998,-1.2659404485,10.145763957,0.03863111766364249,-0.13462073586482662,0.8836270390289412,10.224448117374939,0.89465739245802,-0.11846433199999998,-0.05629017100000011,0.017946169500000053
107382.0,-0.17240090699999996,-1.3149736984999998,10.222451959999999,0.005590289594137837,-0.07839844467033329,0.8785638388689057,10.308123106317126,0.8820725516829906,-0.18681668249999997,-0.049033249999999695,0.07668800299999923
107392.0,-0.393835064,-1.403527748,10.2859009855,-0.03784397417099305,-0.03629586712447408,0.8604438305747004,10.388684001381105,0.8620401045922609,-0.22143415700000005,-0.08855404950000012,0.06344902550000064
107402.0,-0.5984998495,-1.5064975729999999,10.340916292000001,-0.08287521420169874,-0.025904176758099837,0.8258042809103691,10.46720052189015,0.8303565727278758,-0.2046647855,-0.10296982499999996,0.055015306500001415
107412.0,-0.752954587,-1.632218826,10.2990418965,-0.09912946552552195,-0.054682910794234346,0.7754428053440726,10.454728255286959,0.7836634583979217,-0.15445473749999994,-0.12572125300000003,-0.041874395500000716
107422.0,-0.8487655574999999,-1.77108099,10.241574927499999,-0.058627354903741526,-0.13302201426999982,0.7210845257907093,10.428182384305247,0.735591541793589,-0.09581097049999998,-0.13886216400000007,-0.05746696900000181
107432.0,-0.8164036125,-1.8584582415,10.1397819005,0.03223623128433527,-0.24547008731749048,0.669124328629586,10.34096508473023,0.7134578512701839,0.03236194499999989,-0.08737725149999997,-0.10179302699999937
107442.0,-0.6332153905,-1.7866735634999997,10.024946028999999,0.12469853906723886,-0.3078219748449879,0.6150330844517777,10.202583351173304,0.6989776740449152,0.18318822200000007,0.07178467800000021,-0.11483587150000041
107452.0,-0.39148146799999994,-1.6788984799999997,10.01651231,0.16440128889160585,-0.28410644096888893,0.5753303346274108,10.16378259814304,0.6623814969726423,0.24173392250000003,0.10777508349999998,-0.008433718999999229
107462.0,-0.21182364,-1.575928655,10.107518021999999,0.14255151198588886,-0.20709902371239514,0.5692007382944068,10.231829794575736,0.622254304659267,0.17965782799999994,0.10296982499999974,0.0910057119999994
107472.0,-0.20711644799999998,-1.4562875249999998,10.222451959999999,0.07806857744170635,-0.1282258494855194,0.5883871427615803,10.32773908718702,0.6072363633933586,0.004707192000000027,0.1196411300000002,0.11493393800000007
107482.0,-0.30165255399999996,-1.4550126605,10.316988066,-0.0032026791774095948,-0.0722688483373292,0.6083711626969155,10.423449470282687,0.6126569310757156,-0.09453610599999998,0.001274864499999806,0.0945361060000014
107492.0,-0.4788587195,-1.5483719685,10.316988066,-0.06688799825343068,-0.0621441933465101,0.6158324452491911,10.443514934161973,0.6225636559410108,-0.1772061655,-0.09335930799999992,0.0
107502.0,-0.6200744794999999,-1.7159676169999998,10.203230926,-0.0887377751591477,-0.09385333519674308,0.6091705234943289,10.36508362494016,0.6227130703318362,-0.14121575999999997,-0.16759564849999986,-0.11375714000000059
107512.0,-0.7709007564999999,-1.8620867019999998,10.0668204245,-0.05889439027929666,-0.1468781832015828,0.5897188289808521,10.26657334855539,0.6105817284864619,-0.15082627699999995,-0.14611908500000004,-0.13641050150000034
107522.0,-0.865534929,-1.8860149279999998,9.959045341000001,-0.005335471523346666,-0.18897901541819,0.5489496829835165,10.172943877071756,0.5805921890384922,-0.09463417250000006,-0.023928225999999997,-0.1077750834999982
107532.0,-0.8929935489999999,-1.759116877,9.920799406,0.029038788094681654,-0.18311819978999305,0.49485843880570823,10.115047727005138,0.5284509445213988,-0.02745861999999999,0.12689805099999973,-0.03824593500000084
107542.0,-0.8355265799999999,-1.58671597,9.893242719499998,0.018647097728307416,-0.1327567242236967,0.44343056706644335,10.05445293102908,0.46325233932400517,0.057466969000000034,0.1724009070000001,-0.027556686500002314
107552.0,-0.635667053,-1.5064975729999999,9.895596315499999,-0.04743630373995389,-0.0730682091347426,0.4087910174021119,10.029777364381612,0.4179704080521986,0.19985952699999987,0.08021839700000011,0.002353596000000735
107562.0,-0.359119523,-1.5807339134999998,9.780662377499999,-0.16201542380412962,0.020725784867432664,0.40372781724207635,9.914083068026649,0.4355165968408715,0.27654753000000004,-0.07423634049999994,-0.11493393800000007
107572.0,-0.2740958675,-1.553177227,9.540105253,-0.29124832826804975,0.13876938349681714,0.41012270362138353,9.669596490100824,0.5218075914939659,0.08502365550000002,0.027556686499999872,-0.24055712449999866
107582.0,-0.38304774899999994,-1.5471951704999998,9.354563435,-0.3965021541388198,0.23522849526678777,0.40399485261763146,9.48938330625713,0.6129912268244493,-0.10895188149999996,0.005982056500000166,-0.1855418180000008
107592.0,-0.624879738,-1.495710258,9.335342401,-0.4210170488123321,0.25228210738802437,0.37575018933260723,9.475032538559317,0.6181341455398484,-0.24183198900000002,0.05148491249999987,-0.019221033999999193
107602.0,-0.775706015,-1.3604765545,9.471850969,-0.3216257838990111,0.1827359726838063,0.31659399966551144,9.600446711273264,0.4868956163342981,-0.15082627700000006,0.13523370349999997,0.136508568
107612.0,-0.730203159,-1.2563299315,9.729177465,-0.13510244673837707,0.05936388384808313,0.2545091475135691,9.837095897451654,0.29419661450857726,0.045502856000000036,0.10414662299999988,0.25732649599999924
107622.0,-0.542307745,-1.2060218169999999,10.002194601,0.05301961201708374,-0.08505862109594364,0.2193355270981274,10.08922609270109,0.24115165711352426,0.18789541399999998,0.05030811450000017,0.273017136
107632.0,-0.3184219255,-1.275452899,10.236769669,0.1974438622903625,-0.1740581956428905,0.21667040933033208,10.32083455328904,0.3409199326909004,0.22388581950000003,-0.06943108200000014,0.23457506799999983
107642.0,-0.0742363405,-1.5579824855,10.376808631,0.24700597705924549,-0.176988603456989,0.21747151545699744,10.493377808111727,0.3736720199477222,0.24418558499999998,-0.28252958649999993,0.1400389620000002
107652.0,0.065900688,-1.5197365504999998,10.465460747,0.20836787807859503,-0.12209799848176732,0.24651553953943509,10.57543430458543,0.3451014417278616,0.14013702849999998,0.038245935000000175,0.08865211600000045
107662.0,0.056290171,-1.610644196,10.489388972999999,0.11510620949827803,-0.06614099733357712,0.2731614812296325,10.612474939256803,0.3037124722840809,-0.009610516999999999,-0.09090764550000019,0.023928225999998887
107672.0,-0.07060788,-1.6837037385,10.5192992555,0.03623303527140228,-0.026171212133654972,0.289948057975314,10.65342670592518,0.2933728711267957,-0.126898051,-0.07305954250000002,0.029910282500001273
107682.0,-0.217903763,-1.701649908,10.492919366999999,-0.002670353755551324,-0.0024556782575560214,0.2867506147856604,10.632236420513307,0.2867735626323295,-0.14729588300000002,-0.017946169500000053,-0.02637988850000106
107692.0,-0.385401345,-1.724401336,10.4498681735,-0.012795008746370429,0.0028728119487826664,0.26969700266442376,10.598199800336594,0.27001562648018534,-0.167497582,-0.02275142799999985,-0.04305119349999842
107702.0,-0.5147510585,-1.7447011015,10.419957891,-0.0018709929581379214,-0.02084097659806429,0.24225170017681297,10.577545700020178,0.24315372330845963,-0.12934971350000002,-0.020299765500000122,-0.029910282500001273
107712.0,-0.5350508239999999,-1.8416888699999998,10.375631832999998,0.028239427297268253,-0.07893077009219156,0.20494703274468612,10.551390108043009,0.22142903592861424,-0.0202997654999999,-0.0969877684999998,-0.04432605800000111
107722.0,-0.3986403225,-1.957799606,10.203230926,0.04715879638888679,-0.16872796010729982,0.16604364371773253,10.397009893871385,0.24137847505086352,0.13641050149999995,-0.11611073600000021,-0.17240090699999833
107732.0,-0.23339827,-1.9805510339999999,9.9507096885,0.04076391000957956,-0.2449360165663802,0.12127769373332997,10.148580218706714,0.27633969596847746,0.1652420525,-0.02275142799999985,-0.2525212374999999
107742.0,-0.005982056499999999,-1.9171020085,9.609536335,0.04609240021591825,-0.2691856211935894,0.07518005752965574,9.798903227896473,0.28326215607667277,0.2274162135,0.06344902549999998,-0.34117335350000033
107752.0,0.21309850449999998,-1.7459759659999998,9.4335069675,0.08606218541584039,-0.228681765242557,0.030414107545253186,9.596087575274666,0.24622564336554523,0.21908056099999998,0.17112604250000008,-0.17602936749999998
107762.0,0.404622379,-1.5735750589999997,9.520884219,0.13029406464913268,-0.15753690894351216,-0.0020943951023931952,9.658524423921994,0.204447566513064,0.1915238745,0.1724009070000001,0.08737725149999953
107772.0,0.5459362055,-1.4622695814999997,9.772326725,0.16120384570195226,-0.10291159401459364,-0.006623524511318481,9.89619362631942,0.19136704817882158,0.14131382650000002,0.11130547749999997,0.25144250600000007
107782.0,0.60212831,-1.33174307,9.990230488,0.18332065798322442,-0.0901218212559792,0.01202880920474492,10.096573840148013,0.20462917328861288,0.056192104500000006,0.13052651149999983,0.2179037630000007
107792.0,0.729026361,-1.367635409,10.088296988,0.19984194468260275,-0.10984055114501114,0.040805797911627424,10.206646959950822,0.2316610944322953,0.12689805099999996,-0.035892339000000106,0.09806649999999983
107802.0,0.8834810985,-1.4167667254999998,10.1350747085,0.1987755485096342,-0.13142329267517303,0.06984982199406507,10.271684679387656,0.24831995122320058,0.15445473750000005,-0.0491313164999998,0.04677772049999973
107812.0,0.9373196069999999,-1.4322612325000001,10.131446248,0.17692577160391718,-0.14021626144672045,0.10688919937988872,10.275025224295185,0.24977715983614301,0.05383850849999994,-0.015494507000000324,-0.003628460499999875
107822.0,0.9205502354999999,-1.3747942635000001,10.041617334,0.13482493938730997,-0.11516904135134982,0.1495223570183542,10.177010891490728,0.2319452685762417,-0.01676937150000002,0.057466969000000034,-0.08982891399999993
107832.0,0.9181966395,-1.3221325529999999,10.0224943665,0.06714281632422185,-0.044556510474163244,0.17563597328669336,10.150936552014086,0.19323932188337464,-0.002353595999999958,0.052661710500000236,-0.019122967499999532
107842.0,0.8020859035,-1.2563299315,10.1158536745,-0.010663961729685353,0.04870515810615376,0.18576237360676448,10.225077127204047,0.19233713098082952,-0.11611073599999999,0.06580262149999982,0.09335930800000014
107852.0,0.702744539,-1.1701294779999998,10.2439285235,-0.06608863745601729,0.10785960244399757,0.19002446764013464,10.33446295058218,0.22827768209373137,-0.09934136449999997,0.08620045350000027,0.128074848999999
107862.0,0.6775414485,-1.2563299315,10.338562696,-0.09166818297324618,0.1158532104181316,0.200683193382064,10.436632882799943,0.2491962404207321,-0.025203090500000025,-0.08620045350000027,0.09463417250000106
107872.0,0.6871519654999999,-1.4179435235,10.351703607,-0.09779777930625026,0.09693384132651306,0.21214127992140677,10.47093640639188,0.2529120358508869,0.00961051699999993,-0.16161359199999992,0.013140910999998923
107882.0,0.6751878524999999,-1.5903444305,10.27148521,-0.09060353212952964,0.076949821391178,0.21507168773550522,10.415780453861087,0.24573584580170546,-0.011964112999999998,-0.1724009070000001,-0.08021839699999944
107892.0,0.5866338029999999,-1.7064551664999998,10.1278177875,-0.08314224957725387,0.06655813102480375,0.21533872311106037,10.287313623628775,0.24023610082871236,-0.08855404950000001,-0.11611073599999977,-0.14366742250000009
107902.0,0.529166834,-1.7842219009999998,10.082314931500001,-0.07408224543015131,0.05190260129580738,0.200683193382064,10.252635744439647,0.2201267889541562,-0.05746696899999992,-0.07776673449999993,-0.045502855999998815
107912.0,0.49199963049999995,-1.8117785874999999,10.0224943665,-0.04716926836439875,0.020460494821129525,0.17456957711372484,10.196813159662183,0.1819838151595434,-0.03716720350000002,-0.027556686500000094,-0.05982056500000077
107922.0,0.495628091,-1.77108099,9.9530632845,-0.01519309113861064,-0.006452482244623036,0.14206107446607846,10.121553429340263,0.14301682916328412,0.0036284605000000414,0.040697597499999905,-0.06943108199999948
107932.0,0.5733948255,-1.815407048,9.895596315499999,0.00638965039155124,-0.006187192198319898,0.11195065421067228,10.077068562591773,0.11230341917155824,0.07776673449999999,-0.044326058,-0.05746696900000181
107942.0,0.621349344,-1.842865668,9.887260662999998,0.016249015336067207,0.018594737850747587,0.08610407331788825,10.076713367744935,0.08957514285259079,0.04795451849999999,-0.02745861999999999,-0.008335652500001345
107952.0,0.5853589385,-1.826194363,9.902755169999999,0.026108380280583175,0.04630707571391355,0.071715578964447,10.086733410539633,0.0892699112145604,-0.03599040549999999,0.016671305000000025,0.015494507000001434
107962.0,0.5099457999999999,-1.8584582415,9.937470710999998,0.04875751798371359,0.050570915076535695,0.06718644955552172,10.122610132091411,0.09720458844873016,-0.07541313850000009,-0.03226387850000001,0.03471554099999885
107972.0,0.39981712049999996,-1.7961860139999999,9.905206832499998,0.09325643259256103,0.01646369083406251,0.05572836301617894,10.07468413010248,0.10987932371576326,-0.11012867949999994,0.062272227500000055,-0.03226387850000023
107982.0,0.3758888945,-1.7147908189999999,9.892065921499999,0.1667993712838461,-0.03229906313740706,0.038940040941245486,10.046629694043506,0.17430314549297846,-0.02392822599999994,0.08139519500000003,-0.013140910999998923
107992.0,0.37353529849999995,-1.6298652299999998,9.969832656,0.23448149434693416,-0.052017793026438996,0.02615026818263104,10.10908267232158,0.24160144558453348,-0.002353596000000069,0.08492558900000002,0.07776673450000082
108002.0,0.40579917699999996,-1.42392558,10.143410360999999,0.2749836049687146,-0.02856929452589518,0.005099852074327432,10.250902925161,0.276510752200484,0.03226387850000001,0.20593964999999992,0.17357770499999958
108012.0,0.5710412294999999,-1.3149736984999998,10.360039259499999,0.25073574567075735,0.01939409864816099,-0.025809928978492144,10.458759839097413,0.252805651941012,0.16524205249999996,0.10895188150000013,0.21662889849999978
108022.0,0.73746008,-1.2108270755,10.501353086,0.15400959852523163,0.07668278601562287,-0.040997784129346806,10.596620509067936,0.1768615967714228,0.16641885050000005,0.10414662299999988,0.14131382650000113
108032.0,0.730203159,-1.1317854765,10.47742486,0.013051572146413597,0.14010106971608882,-0.029539697590004025,10.563643628747418,0.1437749874101692,-0.007256920999999972,0.07904159899999996,-0.023928226000000663
108042.0,0.6560648849999999,-1.143847656,10.381613889499999,-0.12044691700938066,0.19099661603349546,-0.0020943951023931952,10.465023437342415,0.22581309449222836,-0.07413827400000006,-0.012062179499999992,-0.09581097050000054
108052.0,0.5315204299999999,-1.167775882,10.2392213315,-0.20171817362849664,0.20858255357659033,0.02934771137228465,10.31929590396229,0.29164737508048727,-0.124544455,-0.023928225999999997,-0.14239255799999917
108062.0,0.45846088749999997,-1.1940577039999998,10.041617334,-0.21663899340379614,0.20884958895214548,0.056260688438037214,10.122748582689304,0.30613047762679896,-0.07305954249999996,-0.026281821999999844,-0.1976039974999999
108072.0,0.38902980549999994,-1.146201252,9.990230488,-0.16601222779119662,0.21098063596883054,0.06345493561475783,10.063291047317396,0.2758612284897633,-0.06943108200000003,0.04785645199999977,-0.051386845999999764
108082.0,0.381870951,-1.088734283,10.0583867055,-0.07994480638760026,0.19365998847203883,0.05759237465730888,10.124342491222643,0.21728378867740902,-0.007158854499999923,0.057466969000000034,0.06815621750000034
108092.0,0.49199963049999995,-1.0085158859999999,10.2092129825,-0.008265879337445145,0.14516426987612435,0.056260688438037214,10.27069606456997,0.15590463454757,0.11012867949999994,0.08021839700000011,0.15082627700000018
108102.0,0.6500828285,-1.068336451,10.279918928999999,0.017580701555338883,0.09746791207762334,0.08077558311154956,10.355707780893507,0.1278036375810957,0.15808319800000004,-0.0598205650000001,0.07070594649999862
108112.0,0.6560648849999999,-1.1820935909999999,10.255892636499999,0.007189011188964643,0.07881557836155993,0.12420810154742845,10.344616965486361,0.1472794274987466,0.005982056499999944,-0.11375713999999992,-0.024026292500000324
108122.0,0.487194372,-1.3161504965,10.160179732499998,-0.014128440294894098,0.07748214681303627,0.16391085137179548,10.25664968117023,0.18185121142667737,-0.16887051299999994,-0.13405690550000005,-0.09571290400000088
108132.0,0.25497289999999995,-1.355671296,10.1027127635,-0.03331309943281577,0.09133831574461924,0.18069917344672892,10.196453355177894,0.20519415635250302,-0.23222147200000004,-0.03952079949999998,-0.05746696899999826
108142.0,0.058643767,-1.352140902,10.072802480999998,-0.05942671570115493,0.1089259986169661,0.16257916515252377,10.163320025046394,0.204519907723969,-0.19632913299999993,0.0035303939999999923,-0.029910282500001273
108152.0,-0.026281822,-1.2443658185,10.109871618,-0.0700854414430843,0.10306343765951716,0.11168536416436914,10.186198562607188,0.16735489790560934,-0.084925589,0.10777508349999998,0.03706913700000136
108162.0,0.12689805099999998,-1.207198615,10.099084303,-0.061025437295981734,0.06389301325700841,0.054394931467655276,10.171771496180325,0.10375562495400896,0.153179873,0.03716720349999991,-0.010787314999999964
108172.0,0.3543142645,-1.179739995,10.057209907499999,-0.04450415059660341,0.01939409864816099,0.020821777976292352,10.132363800088651,0.052823261171512016,0.2274162135,0.02745861999999999,-0.041874395500000716
108182.0,0.532697228,-1.0719649115,9.944727632000001,-0.021589722847169857,-0.024040165116969894,0.01815666020849701,10.016510509297659,0.03706359374636522,0.1783829635,0.10777508349999998,-0.1124822754999979
108192.0,0.678816313,-1.089911081,9.8465630655,0.0077213366108229145,-0.04748866361751371,0.04773475504204491,9.929929604692585,0.06777461951320005,0.14611908500000004,-0.01794616949999983,-0.09816456650000127
108202.0,0.7996342409999999,-1.2611351899999999,9.7100544975,0.03063750968950846,-0.03736226329744261,0.09516407746499081,9.824206595509683,0.10672767850208738,0.12081792799999991,-0.17122410899999996,-0.136508568
108212.0,0.7242211024999999,-1.3784227239999998,9.704072441,0.034634313676575476,0.010866419922916697,0.14392683143646037,9.828202651122004,0.14843364703842543,-0.07541313849999998,-0.11728753399999992,-0.00598205650000061
108222.0,0.5183795189999999,-1.3245842154999998,9.775857119,0.019713493901275952,0.06948853883890223,0.17776702030337843,9.878796641331038,0.19188119339659898,-0.20584158350000004,0.05383850849999994,0.07178467800000021
108232.0,0.34833220800000003,-1.352140902,9.9614970035,-0.006134832320760068,0.09853256292133988,0.19348894620534338,10.058878809128332,0.21721941540089346,-0.17004731099999987,-0.027556686500000094,0.18563988450000046
108242.0,0.1579851315,-1.3174253609999997,10.114676876499999,-0.023188444441996664,0.08787558250866251,0.20041790333576087,10.201336049733134,0.22006171392220572,-0.19034707650000005,0.03471554100000018,0.15317987299999913
108252.0,0.05266171049999999,-1.249171077,10.1505692155,-0.0335801348083709,0.0420432363512914,0.20015086796020573,10.227280040852621,0.20725739823191505,-0.105323421,0.06825428399999978,0.035892339000000106
108262.0,0.035892338999999995,-1.2539763355,10.054856311499998,-0.04930031538108383,0.013798573066267169,0.20201662493058767,10.132812065507988,0.20840258746878643,-0.016769371499999998,-0.00480525850000002,-0.09571290400000088
108272.0,0.014415775499999998,-1.2299500429999999,10.021317568499999,-0.05729566868446985,0.03138451060936204,0.21027552295102483,10.09652369539069,0.22018986513578837,-0.021476563499999997,0.0240262925000001,-0.03353874299999937
108282.0,-0.11846433199999999,-1.2012165584999999,10.0668204245,-0.06715328829973383,0.07375237820152437,0.22812849586967482,10.138926396690191,0.24898109977989916,-0.13288010749999998,0.028733484500000017,0.04550285600000059
108292.0,-0.24899084349999998,-1.1653242195,10.1038895615,-0.10366034026369922,0.11265576722847799,0.2489136219316753,10.173915728355961,0.2922238512109645,-0.1305265115,0.035892338999999884,0.03706913700000136
108302.0,-0.359119523,-1.1390423975,10.1864615545,-0.17400583576533066,0.16408363896774292,0.2755595636218727,10.256236318280154,0.36487606739928113,-0.11012867950000002,0.026281822000000066,0.0825719929999984
108312.0,-0.4668946065,-1.124626622,10.235592870999998,-0.24168621349916677,0.18220190193269603,0.3088674270669325,10.307770711136133,0.43244519463904724,-0.10777508349999998,0.014415775499999839,0.04913131649999869
108322.0,-0.5626075104999999,-1.171306276,10.225982354,-0.2805913478553724,0.1267789715356161,0.3400442434953072,10.30821035424614,0.4587314025104657,-0.09571290399999993,-0.04667965399999985,-0.009610516999998708
108332.0,-0.5841821405,-1.2108270755,10.105066359499999,-0.29418048141140024,0.025256659605609945,0.36988762837515826,10.194103055685753,0.4732831204711151,-0.02157463000000004,-0.03952079949999998,-0.12091599450000068
108342.0,-0.635667053,-1.3174253609999997,9.7351595215,-0.28112367327723065,-0.09038885663153433,0.3975999662383242,9.844440720179476,0.4952639682358851,-0.05148491250000009,-0.10659828549999983,-0.3699068379999986
108352.0,-0.5350508239999999,-1.5304257989999999,9.368881144,-0.23449196632244615,-0.1514090579397601,0.40985741357508043,9.508123705595473,0.4958772878025645,0.10061622900000011,-0.21300043800000013,-0.3662783775000005
