timestamp,ax,ay,az,gx,gy,gz,acc_mag,gyro_mag,dax,day,daz
15372.0,0.7992419749999999,-1.7176347475,9.5910017665,-0.07983310531547262,-0.22343356018181007,-0.10086432280200429,9.776316880371024,0.2578167801640087,0.0,0.0,0.0
15382.0,0.6447872375,-1.201706891,9.094294944,-0.050255010481924725,-0.2127748344398807,-0.03531499208485327,9.19598013057791,0.2214629651102194,-0.15445473749999994,0.5159278565000001,-0.4967068225000002
15392.0,0.7285360284999999,-1.3585152244999998,9.207954017499999,-0.03160267676586132,-0.1933231399264039,0.04036073895236887,9.336099054124007,0.20000388710860775,0.08374879099999988,-0.1568083334999999,0.11365907349999915
15402.0,0.8027723689999999,-1.6134881245,9.282190358,-0.025474825762109233,-0.17120632764513177,0.10564477962321676,9.45551930073016,0.20278410399974667,0.07423634050000005,-0.25497290000000006,0.07423634050000061
15412.0,0.861416136,-1.771473256,9.4007527565,-0.012150982252384522,-0.0992621105486735,0.16080241997399358,9.604910600569207,0.18936216947893117,0.05864376700000007,-0.15798513150000004,0.11856239849999994
15422.0,0.8207185385,-1.874443081,9.460573321499998,-0.0033580134808370897,-0.038508944616002884,0.19490964421646675,9.679336927435878,0.1987057736417478,-0.040697597500000016,-0.10296982499999996,0.05982056499999899
15432.0,0.8015955709999999,-1.8912124524999998,9.441450353999999,0.004902629868852071,-0.015859806912872473,0.21062982478917966,9.662309495508028,0.21128296747647474,-0.019122967500000088,-0.016769371499999908,-0.019122967499999532
15442.0,0.78845466,-1.9031765655,9.418698926,0.01716007720560825,-0.029981265890758592,0.21409430335438842,9.641350073977069,0.2168633562474668,-0.013140910999999922,-0.01196411300000011,-0.022751427999999407
15452.0,0.8087544255,-1.874443081,9.353975036,0.044338344317663946,-0.04357214477603844,0.20583366000469927,9.574156336658902,0.21501608351038745,0.02029976550000001,0.028733484500000017,-0.06472388999999978
15462.0,0.9009369354999999,-1.8468863944999998,9.249828413,0.08137772170348762,-0.04916767035793226,0.18878004788346267,9.475336531536989,0.21137100055816319,0.09218250999999988,0.027556686500000094,-0.1041466230000001
15472.0,1.0637273255,-1.760685941,9.146956654499999,0.11841535376005928,-0.04303807402492817,0.1719934711377812,9.37541182269623,0.21320465739734196,0.16279039000000006,0.08620045349999983,-0.10287175850000096
15482.0,1.2218105235,-1.668503431,9.1049841925,0.15785281353812314,-0.00999724595542352,0.16133474539585183,9.336887157948789,0.22593440583616084,0.15808319800000015,0.09218251,-0.0419724619999986
15492.0,1.389406172,-1.5643568079999999,9.0224121995,0.1978208534087933,0.02730742147670328,0.16932835336998586,9.261834787514516,0.26182222320895604,0.16759564849999986,0.1041466230000001,-0.08257199300000018
15502.0,1.5126757624999998,-1.4638386455,8.991325118999999,0.24231976801764074,0.05182231615021563,0.19171220102681313,9.234443076768331,0.3133017562125073,0.12326959049999986,0.10051816249999979,-0.031087080500000752
15512.0,1.726951065,-1.388425507,9.00446603,0.29374763975690565,0.062481041892145,0.2170247111684869,9.273105944332611,0.3705283817961128,0.21427530250000015,0.07541313850000009,0.013140911000000699
15522.0,2.002321797,-1.3392941905,9.014076547,0.3478406292639659,0.0872612266119605,0.2340783232897235,9.33041143265525,0.42825259657205117,0.27537073200000006,0.04913131650000002,0.009610517000000485
15532.0,2.2883817774999997,-1.2663327144999998,9.077525572499999,0.3950029163113567,0.13602398058343007,0.24607048058017655,9.446785708525331,0.48485101691261523,0.2860599804999997,0.07296147600000014,0.06344902549999887
15542.0,2.5398242835,-1.146593518,9.16725642,0.42351461497193604,0.18158929136524601,0.25459641397616883,9.581439054578759,0.5264585775185776,0.25144250600000007,0.11973919649999987,0.08973084750000027
15552.0,2.769594093,-1.0532342099999998,9.2618905925,0.4331069445408969,0.1922480171071754,0.2631240927014131,9.724328824578837,0.5420103445978999,0.22976980950000003,0.09335930800000014,0.09463417250000106
15562.0,2.9899495184999996,-0.9610517,9.423406117999999,0.4395035762494561,0.1789241735974507,0.27724555167929926,9.932975453408263,0.5495837964856234,0.22035542549999976,0.09218250999999988,0.1615155254999987
15572.0,3.2209941925,-0.836507245,9.460573321499998,0.44669782342617675,0.14615038090350116,0.292700442205709,10.028808280674914,0.5536898302834719,0.2310446740000005,0.124544455,0.037167203499999246
15582.0,3.4603745189999997,-0.6856809679999999,9.5084297735,0.4570895137925509,0.09925338390241353,0.3228108624611152,10.14172504849166,0.5683211334783175,0.23938032649999963,0.15082627700000006,0.047856452000001326
15592.0,3.6914191929999998,-0.5361295555,9.5431453145,0.4640167255937165,0.045694465146463546,0.3771691420144786,10.246249706716732,0.5997133210657186,0.23104467400000006,0.14955141249999993,0.03471554100000063
15602.0,3.948745689,-0.4343365285,9.4976424585,0.4608192824040628,-0.010796606752836923,0.4461829512968384,10.294972219772495,0.6415217874559894,0.2573264960000001,0.10179302699999998,-0.04550285600000059
15612.0,4.202541791,-0.406779842,9.385160183,0.44483206645579476,-0.06542192168175545,0.5138650743599265,10.29116412295167,0.6827978542956906,0.2537961019999999,0.027556686499999983,-0.11248227549999967
15622.0,4.388083609,-0.392462133,9.283367156,0.4253803719423179,-0.08913571022860241,0.586341616878243,10.275709709723845,0.7298562374571683,0.18554181799999991,0.014317709000000012,-0.10179302699999937
15632.0,4.377394360499999,-0.3876568745,9.2414927605,0.40859379519663647,-0.06062401156802304,0.683334799399324,10.233134792528544,0.7984801865556246,-0.010689248500000303,0.004805258499999965,-0.041874395500000716
15642.0,4.196559734499999,-0.338525558,9.338480529,0.3934041947165299,0.028906143071530083,0.8115030530195275,10.243677647659458,0.9022968638911737,-0.18083462600000022,0.04913131650000002,0.09698776850000002
15652.0,3.796742614,-0.381674818,9.5874713725,0.3656936021826159,0.18238865216265945,0.9559255579635543,10.318940714151132,1.039611034706222,-0.3998171204999994,-0.04314926000000002,0.24899084349999967
15662.0,3.321512355,-0.660575944,9.933449984500001,0.31559741666262264,0.31695179216217023,1.0827621253644861,10.494867007102673,1.1715092778474918,-0.47523025899999993,-0.27890112599999994,0.34597861200000146
15672.0,2.8378483770000003,-0.9394770699999999,10.2709948775,0.25750936849774736,0.3459975615738599,1.1629669858106335,10.697164874373422,1.2403699438331435,-0.4836639779999996,-0.27890112599999994,0.3375448929999987
15682.0,2.4835341124999997,-1.1118779769999998,10.503216349499999,0.21380981468631335,0.249004379052779,1.1861484489356222,10.849966267601612,1.2307176607800987,-0.3543142645000006,-0.17240090699999988,0.2322214719999991
15692.0,2.350654005,-1.1849375195,10.632566062999999,0.18609747682314737,0.053953363166900706,1.1560397740094681,10.953589012757446,1.1721651740982684,-0.13288010749999968,-0.07305954250000024,0.1293497134999999
15702.0,2.3470255444999997,-1.1513987765,10.6312911985,0.17357299411083607,-0.1682759198310333,1.10621062386503,10.947995277509248,1.1323189982648174,-0.003628460500000319,0.03353874300000004,-0.0012748644999991399
15712.0,2.351830803,-0.9394770699999999,10.539108688499999,0.16984322549932418,-0.34121012343563945,1.0971506197179275,10.83912068569271,1.1614691351604705,0.004805258500000242,0.21192170650000008,-0.09218251000000066
15722.0,2.268082012,-0.6354709199999999,10.496057495,0.15545298581663095,-0.41368841128320794,1.1634993112324918,10.75710194437467,1.2446020969240785,-0.0837487910000001,0.30400615,-0.04305119349999842
15732.0,2.1232377915,-0.545642006,10.417015896,0.10829069876924018,-0.39636776378641625,1.298596521983113,10.645190655666163,1.3620525711277125,-0.1448442205,0.08982891399999993,-0.07904159899999996
15742.0,1.8837593985,-0.6856809679999999,10.4002465245,0.02648537139901395,-0.31749458955954046,1.4544771134664827,10.5916871003485,1.4889620421271714,-0.23947839299999973,-0.14003896199999988,-0.016769371500000574
15752.0,1.540232449,-0.9886083864999999,10.366805848,-0.0702390304172598,-0.24128653310046008,1.5733200728932804,10.527123350134056,1.5932635576760403,-0.3435269495000002,-0.30292741850000005,-0.03344067649999971
15762.0,1.193077039,-1.2998714574999999,10.332090307,-0.15044563619265922,-0.23595804289412137,1.6279436424929468,10.48165963667088,1.651820386903201,-0.34715540999999983,-0.31126307099999995,-0.03471554100000063
15772.0,0.8829907659999999,-1.5093415014999998,10.184794423999998,-0.18508518585699066,-0.3108326678046781,1.62634492089812,10.333819328792863,1.666094617700148,-0.31008627300000013,-0.2094700439999999,-0.14729588300000174
15782.0,0.7225539719999999,-1.6050544055,10.0160219775,-0.16456709517054532,-0.46325052605209094,1.544274303481591,10.169512286281527,1.6206376840904209,-0.160436794,-0.09571290400000021,-0.16877244649999845
15792.0,0.8267005949999999,-1.5883831005,9.7861541015,-0.09661968206115408,-0.6455100238501028,1.4366241405478326,9.94862839018689,1.5779440658836288,0.104146623,0.016671305000000025,-0.22986787600000014
15802.0,1.0829483595,-1.3477279094999999,9.5192170885,-0.0036250488563922224,-0.7523608259864477,1.3556199193042717,9.674949180506292,1.5504081137148185,0.2562477645000001,0.2406551910000001,-0.2669370129999997
15812.0,1.3043825164999998,-0.9311414175,9.3456393835,0.08937132967762162,-0.7441019279660104,1.328439906862964,9.482057454748997,1.5252630920327026,0.2214341569999998,0.41658649199999986,-0.17357770499999958
15822.0,1.5018884475,-0.6031089749999999,9.2307054455,0.16318130374446185,-0.6471087454449296,1.3596167232913388,9.371517079216304,1.514574362841432,0.19750593100000025,0.3280324425000001,-0.11493393800000007
15832.0,1.7257742669999998,-0.35892339,9.2630673905,0.20688085755589586,-0.4944255971512136,1.42756413640073,9.429291611858918,1.5248592472352849,0.22388581949999975,0.24418558499999993,0.03236194499999989
15842.0,1.8586543745,-0.218884428,9.4138936675,0.21620789707855356,-0.3425418096549111,1.5194941187617752,9.598119631452063,1.5725594179783526,0.13288010750000012,0.14003896200000002,0.15082627700000018
15852.0,1.9232801979999998,-0.312243736,9.6137531945,0.20821254377516754,-0.20904506582836882,1.6170196267047143,9.809217774901784,1.6437167566465845,0.0646258234999999,-0.093359308,0.1998595269999992
15862.0,1.8598311725,-0.47385732799999997,9.9106985565,0.2034163789906871,-0.0875369886337756,1.7102812952850315,10.09482335830168,1.7245588005697567,-0.06344902549999976,-0.16161359199999997,0.29694536200000066
15872.0,1.6252561044999998,-0.5755522885,10.140468366,0.1855634060720371,0.001993166005777524,1.7816931869596315,10.286000997659821,1.7913314497440587,-0.23457506800000028,-0.10169496049999999,0.22976980950000048
15882.0,1.240933491,-0.5839860075,10.3500364765,0.139732805243918,0.059016563326936264,1.8211289014084433,10.440508160569665,1.827435002169265,-0.38432261349999974,-0.008433719000000006,0.20956811049999935
15892.0,0.857885742,-0.568393434,10.405051783,0.06698748202079435,0.05848423790507799,1.822462332956967,10.455818554711662,1.824630560929465,-0.38304774900000005,0.015592573499999984,0.05501530649999964
15902.0,0.5969307855,-0.37324109899999997,10.4302548735,-0.006023131248632432,0.003326597554301192,1.7928842381234191,10.453987373573343,1.7928974414820051,-0.2609549565,0.195152335,0.025203090499999803
15912.0,0.5334817599999999,-0.154160538,10.3404259595,-0.04412715947817264,-0.07101744726364927,1.7473189273416032,10.355326034636988,1.7493181865703187,-0.06344902550000009,0.21908056099999995,-0.08982891399999993
15922.0,0.6100716964999999,-0.023732092999999996,10.18126403,-0.04519181032188918,-0.1560184724942771,1.7100142599094763,10.199553320399888,1.7177115102872693,0.07658993650000001,0.130428445,-0.15916192949999974
15932.0,0.81002929,0.040893730499999996,9.971695919499998,-0.01934522942910515,-0.2343575759700426,1.6948264047586215,10.00462589299695,1.7110623172705468,0.19995759350000009,0.06462582349999998,-0.20956811050000113
15942.0,0.8985833395,0.162986523,9.731138795,0.022488567411946936,-0.29404609105899665,1.7145451346476535,9.773897834142765,1.7397223508581068,0.08855404950000001,0.12209279249999999,-0.24055712449999866
15952.0,0.88063717,0.24918697649999996,9.6449383415,0.07364940377565672,-0.31189906397764666,1.765438935635808,9.688263600139067,1.7942909173948178,-0.017946169500000053,0.08620045349999997,-0.08620045350000005
15962.0,0.7333412869999999,0.218099896,9.6437615435,0.11708366754078761,-0.2900492870719297,1.8301889055555458,9.674062937346621,1.8567252365803464,-0.14729588300000007,-0.031087080499999975,-0.0011767979999994793
15972.0,0.42570667649999994,0.22888721099999998,9.689166333,0.1341372796620242,-0.26979823176103945,1.8850812558600194,9.701214344519798,1.9090089672003376,-0.30763461049999996,0.010787314999999992,0.045404789499999154
15982.0,0.070215614,0.218099896,9.685635938999999,0.1341372796620242,-0.2684648002125158,1.9271820880766266,9.68834564515186,1.9504094337732425,-0.35549106249999995,-0.010787314999999992,-0.0035303940000002143
15992.0,-0.344017282,0.2217283565,9.599435485499999,0.13546896588129587,-0.2892499262745163,1.9333099390803787,9.60815658670629,1.9595164406336933,-0.41423289599999996,0.0036284605000000136,-0.08620045350000005
16002.0,-0.6576339489999999,0.30067188899999997,9.510881436,0.14825873863991032,-0.3193603465299224,1.8949388754752836,9.538330655065465,1.9273725707050886,-0.31361666699999996,0.07894353249999997,-0.08855404949999901
16012.0,-0.851609486,0.34019268849999995,9.455768062999999,0.17890322964642677,-0.32522290748737137,1.838449548905235,9.50013260134851,1.875546066883542,-0.19397553700000003,0.03952079949999998,-0.055113373000001076
16022.0,-1.024010393,0.36294411649999997,9.492837199999999,0.2226027834578608,-0.28072224754927194,1.7915525519041473,9.554804227318202,1.827024226907395,-0.172400907,0.022751428000000018,0.037069136999999586
16032.0,-1.258585461,0.34019268849999995,9.6484687355,0.25990745088998757,-0.20478122646574667,1.7643725394628396,9.736155163506302,1.7951316641827408,-0.23457506800000005,-0.022751428000000018,0.1556315355000013
16042.0,-1.5781841844999998,0.2587974935,9.873531353,0.286553392580185,-0.13843253495118224,1.7465195665441897,10.002212897230384,1.775276600942492,-0.31959872349999974,-0.08139519499999998,0.22506261750000078
16052.0,-1.9133754815,0.183384355,10.164494658499999,0.29961020071435457,-0.10272658911388224,1.7355955507559573,10.344640506926238,1.7642593177554549,-0.33519129700000017,-0.07541313849999998,0.29096330549999827
16062.0,-2.2821055214999997,0.124740588,10.394264468,0.29694508294655925,-0.09366658496677968,1.7363949115533706,10.642570162149868,1.7640910124746727,-0.36873003999999976,-0.058643767,0.22976980950000048
16072.0,-2.6149432225,0.06246836049999999,10.564311779,0.27349658444601543,-0.10032850672164205,1.733197468363717,10.883313544912708,1.7575095036178408,-0.3328377010000003,-0.062272227500000006,0.17004731100000114
16082.0,-3.02437086,-0.0405014645,10.6301144005,0.2327274384486799,-0.12404229526848899,1.7041516989520273,11.05204920524521,1.7244365934018684,-0.4094276374999999,-0.10296982499999999,0.0658026214999996
16092.0,-3.397808092,-0.196133,10.650512232499999,0.1954227710165531,-0.15814951951096218,1.6428662075974985,11.181099176663347,1.6619899837300836,-0.3734372320000001,-0.1556315355,0.020397831999998672
16102.0,-3.7222120739999998,-0.31577413,10.700722280499999,0.16531235076114692,-0.195454186943089,1.538678777899697,11.334021058273967,1.5598278411628208,-0.32440398199999976,-0.11964112999999998,0.050210048000000285
16112.0,-3.895789779,-0.4702288675,10.676794054499998,0.13839937369539435,-0.2354239721430111,1.409978198857635,11.375070306252956,1.436181518664229,-0.17357770500000003,-0.1544547375,-0.023928226000000663
16122.0,-3.964044063,-0.6294888634999999,10.5691170375,0.11681663216523247,-0.26127055303579516,1.2858067492244984,11.305579884068258,1.3172727218709608,-0.068254284,-0.1592599959999999,-0.10767701699999854
16132.0,-3.950903152,-0.8030665685,10.4804649215,0.09683261222989739,-0.27432736116996476,1.1826857156996655,11.229189489928375,1.2179398827519248,0.01314091099999981,-0.17357770500000014,-0.08865211600000045
16142.0,-3.9532567479999994,-0.9120184499999999,10.265012821,0.08270940792275928,-0.2695311963854843,1.0960842235449588,11.037685662494756,1.1317634634004048,-0.0023535959999994027,-0.1089518814999999,-0.2154521005000003
16152.0,-3.9688493215,-0.9442823284999999,10.078294205,0.08004429015496393,-0.26366863542803537,1.018811516242162,10.872692772962225,1.0554170471062836,-0.01559257350000065,-0.03226387850000001,-0.1867186159999985
16162.0,-3.949726354,-0.9634052959999999,9.9609086045,0.09070301589689332,-0.24315229007084202,0.9519287539764872,10.75863319678876,0.9866703734818,0.019122967499999977,-0.019122967499999977,-0.11738560050000046
16172.0,-3.9688493215,-0.9514411829999999,9.971695919499998,0.10855598881554332,-0.19678761849161266,0.8869117486811945,10.774586988486027,0.9149438340401311,-0.019122967499999977,0.011964112999999998,0.010787314999998188
16182.0,-4.067013888,-0.8185610755,10.059073171,0.13227152269164225,-0.15548614707241884,0.8216294533395986,10.880974095136914,0.8466089157584623,-0.09816456649999994,0.1328801074999999,0.08737725150000131
16192.0,-4.0741727425,-0.855728279,10.1297791175,0.16424769991743038,-0.18399784573299818,0.7582111696391327,10.951875610713872,0.7973184382215753,-0.007158854500000089,-0.03716720350000002,0.0707059465000004
16202.0,-3.8922593849999996,-1.0568626705,10.193228142999999,0.2058144613829273,-0.27059759255845284,0.6852005563697058,10.96214129628259,0.7649068257390107,0.18191335750000048,-0.2011343914999999,0.06344902549999887
16212.0,-3.6959302519999997,-1.146593518,10.226668819499999,0.24978105056991648,-0.33801268024598585,0.5935376093842156,10.934319012490073,0.7272757654318037,0.19632913299999988,-0.08973084750000004,0.03344067649999971
16222.0,-3.452921465,-1.206414083,10.1776355695,0.2777604238086376,-0.3638592611387698,0.49574506606572133,10.814914117489332,0.6747648371687072,0.2430087869999995,-0.0598205650000001,-0.04903324999999903
16232.0,-3.1572509675,-1.1992552285,10.140468366,0.282556588593118,-0.34653861364197813,0.4040821190802312,10.688102986812533,0.602668727795507,0.2956704975000002,0.007158854500000089,-0.037167203499999246
16242.0,-2.8448110985,-1.133452607,10.078294205,0.2601727409362907,-0.29377905568344154,0.3292057488404225,10.533265357001145,0.5122230117381883,0.31243986899999987,0.06580262150000005,-0.06217416099999973
16252.0,-2.611314762,-1.0352880405,10.0171987755,0.23059639143199478,-0.2143735560347075,0.27724555167929926,10.403607904035992,0.4195185492852284,0.2334963365,0.09816456649999994,-0.06109542949999991
16262.0,-2.5239375104999997,-0.8640639314999999,10.000429404,0.20901364990183294,-0.13336933479114668,0.2359440802601054,10.350142767083746,0.34226261016609166,0.08737725150000042,0.17122410900000007,-0.016769371500000574
16272.0,-2.4461707759999998,-0.7911024555,9.995624145499999,0.20101829659844692,-0.07687826289184622,0.19384324804349823,10.32095424941692,0.2896443123637372,0.07776673449999993,0.07296147599999991,-0.0048052585000011305
16282.0,-2.3120158039999996,-0.8185610755,10.0530911145,0.18742916304241905,-0.04303807402492817,0.14987665885650908,10.34795150108022,0.24381341194558454,0.13415497200000015,-0.02745861999999999,0.05746696900000181
16292.0,-2.1169615354999998,-0.8640639314999999,10.127327455,0.16691107235597372,-0.032646383658553935,0.09978221866576782,10.382239353882309,0.19718413628602505,0.19505426849999985,-0.045502855999999925,0.07423634049999883
16302.0,-1.9170039419999998,-0.8545514809999999,10.139291567999999,0.14346257385542988,-0.0518310427964756,0.0467556253316761,10.354245305585469,0.15954327185673117,0.19995759349999997,0.009512450500000047,0.011964112999999443
