timestamp,ax,ay,az,gx,gy,gz,acc_mag,gyro_mag,dax,day,daz
133112.0,-1.3468453109999998,0.671755525,10.087022123499999,0.0019233528356977514,-0.5168513327100888,0.033348006017855654,10.198689283290728,0.517929617723965,0.0,0.0,0.0
133122.0,-1.5335639269999999,0.1821094905,9.818810245999998,0.006986552995733301,-0.48007899069982024,0.042942080916068485,9.939517937590352,0.48204633755223414,-0.18671861600000006,-0.4896460345,-0.26821187750000064
133132.0,-1.1098185805,0.559175183,10.0068037265,0.007251843042036439,-0.43398135449614605,0.06345842627326183,10.083674676803115,0.43865633147476046,0.42374534649999984,0.3770656925,0.1879934805000012
133142.0,-0.9865489899999998,0.6825428399999999,10.0091573225,0.008585274590560106,-0.38202115733502284,0.07518354818815973,10.080792327226103,0.3894437539742381,0.12326959050000019,0.12336765699999985,0.002353596000000735
133152.0,-0.991256182,0.7579559785,10.0211214355,0.021907372771032826,-0.33965328974286046,0.05839697144247827,10.098512806781734,0.3453324434346274,-0.004707192000000138,0.07541313850000009,0.011964112999999443
133162.0,-0.944576528,0.742363405,10.084570461,0.030700341542580254,-0.30847821864373776,0.027752480435961836,10.15587955940821,0.31124190353934217,0.04667965399999996,-0.015592573499999984,0.06344902550000064
133172.0,-0.875145446,0.6118368934999999,10.1827350275,0.03523121628075754,-0.25092249590072074,-0.006087708430956221,10.238570045478895,0.25345689523784726,0.06943108200000003,-0.13052651150000005,0.0981645664999995
133182.0,-0.8009091055,0.520929248,10.2880584485,0.04162610266006476,-0.17791188263129398,-0.021809634332921143,10.332326423243067,0.18401366947543138,0.07423634049999994,-0.09090764549999997,0.10532342099999958
133192.0,-0.7063729994999999,0.48493884249999997,10.401815588499998,0.04695459286640345,-0.08304974712689818,-0.01861219114326753,10.437044410777863,0.09720292150056481,0.09453610600000018,-0.03599040549999999,0.11375713999999881
133202.0,-0.6980373469999999,0.4514981659999999,10.444866782,0.04855331446123025,0.0232687295875884,-0.008752826198751562,10.477898111044754,0.054547869694947515,0.008335652500000013,-0.033440676500000044,0.04305119350000197
133212.0,-0.7003909429999999,0.40952570399999993,10.3994619925,0.03656290250002921,0.10027614684408222,0.006969099703213358,10.431062673990851,0.10696130055209646,-0.002353596000000069,-0.04197246199999999,-0.04540478950000093
133222.0,-0.781786138,0.453851762,10.259324964,0.01711120798655241,0.11919377060644874,0.030150562828202044,10.299073730408626,0.1241330126477205,-0.08139519500000003,0.04432605800000006,-0.14013702849999987
133232.0,-0.8045375659999999,0.45267496399999996,10.110950349499998,-0.0012740903539558606,0.09361422508921985,0.04454080251089529,10.153005086583564,0.10367800891992351,-0.022751427999999962,-0.0011767980000000344,-0.14837461450000156
133242.0,-0.7962019134999999,0.41795942299999994,10.119286001999999,-0.014065608441822301,0.0675006088208807,0.05253441048502932,10.159162207416943,0.08668354986407616,0.008335652500000013,-0.034715541000000016,0.008335652500001345
133252.0,-0.6944088865,0.3915795345,10.1803814315,-0.023657938010783135,0.07309613440277453,0.0663905794166123,10.211547596927677,0.10154039556168787,0.10179302699999992,-0.02637988849999995,0.061095429500001686
133262.0,-0.6812679755,0.352058735,10.1599835995,-0.024190263432641405,0.10240719386076728,0.09330355648236487,10.188883066825365,0.1406341205100498,0.013140911000000033,-0.03952079949999998,-0.02039783200000045
133272.0,-0.7088246619999999,0.3676513085,10.094180977999999,-0.013264502315156905,0.129587206302075,0.12128118439183397,10.125714271236285,0.1779829113885133,-0.027556686499999983,0.015592573499999984,-0.06580262150000138
133282.0,-0.8081660264999999,0.46218741449999995,9.9756185795,0.004853760649796231,0.14077825746586264,0.1378024710912123,10.01896778995604,0.1970573464918642,-0.09934136449999997,0.09453610599999995,-0.11856239849999817
133292.0,-0.975761675,0.6010495785,9.914621216499999,0.015779521767280733,0.12372464534462602,0.13380566710414526,9.980635516282806,0.1829227643625662,-0.16759564850000008,0.138862164,-0.060997363000002025
133302.0,-1.1468877174999998,0.6549861535,9.819987044,0.01737824336210754,0.08055741695505027,0.10262885067577057,9.908405716469069,0.1316213575368833,-0.17112604249999985,0.05393657500000004,-0.09463417249999928
133312.0,-1.1708159434999998,0.7112763244999999,9.751830826499999,0.013646729421343663,0.0123429684701039,0.05839697144247827,9.847584904534903,0.06122734983818072,-0.023928225999999997,0.05629017099999989,-0.06815621750000034
133322.0,-1.0643157245,0.786689463,9.748202366,0.009117600012418377,-0.0537404329981574,0.010433578268422101,9.83763679148103,0.05549796684833766,0.10650021899999995,0.07541313850000009,-0.003628460499999875
133332.0,-0.8990736719999999,0.7411866069999999,9.7757590525,0.006986552995733301,-0.09584126521476462,-0.027937485336673232,9.844955871237588,0.10007428804476139,0.16524205250000001,-0.045502856000000036,0.027556686500000538
133342.0,-0.6249778045,0.6704806605,9.8799056755,0.008318239215004975,-0.11555824977454457,-0.04445877203605156,9.922332272656428,0.12409465985910786,0.2740958674999999,-0.07070594649999995,0.1041466230000001
133352.0,-0.435807526,0.616642152,9.8595078435,0.013381439375040525,-0.11555824977454457,-0.043392375863083026,9.888380588315735,0.12415985781945381,0.18917027849999996,-0.05383850849999994,-0.02039783200000045
133362.0,-0.29812215999999997,0.5424058115,9.829597561,0.015779521767280733,-0.1360763404609899,-0.03033556772891344,9.849064376774537,0.14030684377426078,0.13768536600000003,-0.07423634050000005,-0.029910282499999497
133372.0,-0.087475318,0.592713926,9.8475437305,0.016311847189139004,-0.1664537960919512,-0.015413002624361924,9.865752847778186,0.16795982627414593,0.21064684199999997,0.050308114499999945,0.017946169500000053
133382.0,0.05854570049999999,0.5747677565,9.873923619000001,0.015779521767280733,-0.20109334575628268,0.0059027035302448225,9.890811554508819,0.20179784172192206,0.1460210185,-0.017946169499999942,0.02637988850000106
133392.0,0.27164420499999997,0.6789143795,10.022298233499999,0.013913764796898796,-0.2178799225019641,0.022956315651481415,10.048939107687893,0.2195273238313986,0.21309850449999998,0.104146623,0.148374614499998
133402.0,0.491901564,0.8225818019999999,10.119286001999999,0.004853760649796231,-0.19150101618732185,0.028818876608930368,10.1645736339465,0.19371816084772012,0.22025735900000004,0.14366742249999986,0.09698776850000002
133412.0,0.6332153905,0.9518334489999999,10.14203743,-0.012199851471440364,-0.15126419561184457,0.03068463357931231,10.206266304428977,0.15482648348367356,0.14131382649999996,0.12925164700000003,0.022751428000001184
133422.0,0.8211108045,1.0703958475,10.097711372,-0.02445729880819654,-0.11369423813341462,0.019493582415524666,10.187430744590609,0.117917509323772,0.18789541399999998,0.11856239850000005,-0.04432605800000111
133432.0,1.0652963895,1.191311842,10.0319087505,-0.023657938010783135,-0.08891230808434712,-0.006354743806511354,10.158409003418283,0.0922251556174036,0.2441855850000001,0.12091599450000001,-0.0658026214999996
133442.0,1.349002774,1.2139652035,10.0187678395,-0.014065608441822301,-0.08438317867542185,-0.03220132469929538,10.181808730346882,0.09140726172791898,0.28370638449999985,0.02265336149999997,-0.013140910999998923
133452.0,1.693804588,1.2486807444999999,10.094180977999999,-0.004738568919164605,-0.07052700974383885,-0.054318136980567526,10.311191356998082,0.08914579711825404,0.3448018140000002,0.03471554099999996,0.07541313849999831
133462.0,1.993103546,1.17091401,10.181558229499998,-0.008468337530676487,-0.04867723283812185,-0.06870663133400877,10.440671881856607,0.08462734148357484,0.29929895799999984,-0.07776673449999993,0.08737725149999953
133472.0,2.2289534785,1.0093004179999998,10.2509893115,-0.015130259285538843,-0.03135658534133012,-0.05937959181135108,10.538961182563463,0.06883382972055548,0.23584993249999986,-0.16161359200000014,0.06943108200000125
133482.0,2.4862799744999995,0.926728425,10.313261538999999,-0.03005282439009036,-0.026560420556849706,-0.035398767888948995,10.649120961709437,0.05349486855796564,0.2573264959999997,-0.08257199299999984,0.06227222749999939
133492.0,2.7400760765,0.926728425,10.4006387905,-0.038578757786082656,-0.006309365245959501,0.0021729349187329405,10.795375386208852,0.039151632000278144,0.25379610200000036,0.0,0.08737725150000131
133502.0,2.8166660129999994,0.8920128839999999,10.565782776499999,-0.06122789548921308,0.022734658836478135,0.0530667359068876,10.971101134079264,0.08415342154814863,0.07658993649999957,-0.03471554100000007,0.16514398599999858
133512.0,2.7736148195,1.006946822,10.697486086,-0.09213767654203264,0.0706980520105343,0.09410291727977826,11.096985610040662,0.14947549978914015,-0.04305119349999931,0.11493393800000007,0.13170330950000064
133522.0,2.5688519675,1.1780728645,10.684345174999999,-0.12491321456523416,0.13384930033544512,0.11168885482287313,11.051791163587268,0.2144605946670699,-0.204762852,0.17112604250000008,-0.013140911000000699
133532.0,2.3378072934999996,1.344491715,10.629231802,-0.13743769727754548,0.19433717622181262,0.08317715616229376,10.966018858906526,0.25213983818918556,-0.2310446740000005,0.16641885049999994,-0.0551133729999993
133542.0,2.215714501,1.4295153705,10.472423468499999,-0.12651193616006096,0.25455801673262496,0.011232939065835505,10.799285080412822,0.2844841520961607,-0.12209279249999971,0.08502365550000013,-0.15680833350000078
133552.0,2.4492108375,1.4127459989999998,10.236573536,-0.10759256706844245,0.2793382014524404,-0.06097831340617788,10.619883367634198,0.30549033697471273,0.2334963365,-0.016769371500000352,-0.23584993249999897
133562.0,2.769986359,1.1661087515,10.062995831,-0.08307767239493008,0.2518928989648296,-0.058847266389492815,10.50221496371572,0.27168903724843424,0.3207755214999999,-0.24663724749999982,-0.17357770499999958
133572.0,3.0058362915,0.9327104814999999,10.090552517499999,-0.05163556592025224,0.22338120030425024,0.030417598203757175,10.569969288603634,0.23128039821341861,0.2358499325000003,-0.23339827000000002,0.02755668649999876
133582.0,2.9626870315,0.930258819,10.177929768999999,-0.03644771076939758,0.2121901491404626,0.15165864002279525,10.641106629464904,0.2633504093525302,-0.0431492600000003,-0.0024516624999999515,0.08737725149999953
133592.0,2.5832677429999995,0.9697796185,10.3204203935,-0.05589940528287438,0.1762171679276075,0.2585094421591401,10.682921971027074,0.317811839724129,-0.3794192885000003,0.03952079950000009,0.1424906245000006
133602.0,2.134319306,1.1051113885,10.453300501000001,-0.11079001025809605,0.133584010289142,0.3123353962906452,10.72604686942788,0.3573129076229307,-0.4489484369999994,0.13533176999999985,0.1328801075000019
133612.0,1.672229958,1.273883835,10.551465067499999,-0.17820509794562903,0.08908335035104258,0.30540643916022775,10.758835816582561,0.3646450237204777,-0.4620893480000001,0.1687724465,0.09816456649999772
133622.0,1.3657721455,1.5468029045,10.6112856325,-0.24748594260354392,0.06430316563122708,0.2489171125901793,10.810056223410413,0.3568527957530859,-0.3064578124999999,0.2729190695000001,0.05982056500000077
133632.0,1.1754250689999999,1.6330033579999998,10.5179263245,-0.30610806151952946,0.0682999696182941,0.15991928337248443,10.708645956781044,0.3520528488330593,-0.19034707650000016,0.08620045349999983,-0.09335930800000014
133642.0,1.1778767314999998,1.4893359355,10.278545997999998,-0.34021528576200266,0.06270444403640027,0.06905395185515566,10.452464922513855,0.3527700897678959,0.0024516624999999515,-0.14366742249999986,-0.23938032650000096
133652.0,1.3645953474999999,1.1720908079999999,9.9385494425,-0.35060697612837693,0.042720424101065205,0.03894527692900147,10.100033779430333,0.3553407110652194,0.18671861600000006,-0.3172451275000001,-0.3399965554999991
133662.0,1.6064273365,0.847686826,9.81645665,-0.34021528576200266,-0.007641051465231175,0.10396053689504224,9.983085840748723,0.35582667067706,0.24183198900000002,-0.32440398199999987,-0.12209279250000016
133672.0,1.7943227505,0.605854837,9.877454013,-0.3114365517258682,-0.050808279854806924,0.26010816375396695,10.057373016618604,0.4089382152650498,0.18789541399999998,-0.24183198900000002,0.06099736300000025
133682.0,1.7273433309999997,0.38079221950000003,9.958849207999998,-0.2866563670060527,-0.10303551239148524,0.46741662697660136,10.114711822156087,0.5579126210555448,-0.06697941950000019,-0.22506261749999995,0.08139519499999892
133692.0,1.3801879209999999,0.5543699244999999,9.990034354999999,-0.29464997498018675,-0.1944314240014203,0.6624658975332277,10.100150054555856,0.750655214988579,-0.34715540999999983,0.17357770499999986,0.031185147000000413
133702.0,0.95516771,0.8860308275,10.0103341205,-0.34021528576200266,-0.33778927810173054,0.8004935160979473,10.09476028370924,0.9330797963633464,-0.42502021099999987,0.33166090300000006,0.020299765500000788
133712.0,0.5541737914999999,1.1074649845,10.150471149,-0.4132258990314295,-0.5005970813862656,0.8604490665624565,10.22573478190005,1.0778337894457488,-0.4009939185000001,0.22143415700000002,0.14013702849999987
133722.0,0.247715979,1.2571144635,10.224609423,-0.48090627676526554,-0.6319627781961228,0.8500556308668302,10.304578488880233,1.1632894633864768,-0.3064578124999999,0.14964947900000003,0.07413827400000095
133732.0,0.1160126695,1.2989888589999998,10.252166109500001,-0.5246075759059516,-0.7225610743378965,0.8087541594476364,10.334783061684025,1.2047368614224878,-0.1317033095,0.04187439549999983,0.027556686500000538
133742.0,-9.80665e-05,1.239168294,10.087022123499999,-0.5344651955212155,-0.7694580713389841,0.7610578016491354,10.162851636743023,1.2070326201984996,-0.11611073599999999,-0.05982056499999988,-0.16514398600000213
133752.0,-0.0216726965,1.157773099,9.830774358999998,-0.5038224498439511,-0.7897091266498742,0.7152272008210163,9.898738947568697,1.1785701143653415,-0.02157463,-0.08139519500000003,-0.2562477645000012
133762.0,0.0106892485,1.022441329,9.5015651185,-0.4289460796041424,-0.7897091266498742,0.681118231249291,9.556424029540375,1.1276334904844008,0.032361945,-0.13533176999999985,-0.32920924049999734
133772.0,-0.062370294,0.8860308275,9.2824845575,-0.3343527248045537,-0.7787833655323898,0.676856137215921,9.324883926413237,1.084633350723203,-0.0730595425,-0.13641050150000011,-0.21908056100000017
133782.0,-0.3148915315,0.9099590535,9.264538388,-0.23362977367196094,-0.7705244675119526,0.6784548588107477,9.31444328440421,1.0528968713148033,-0.2525212375,0.023928225999999997,-0.017946169500000053
133792.0,-0.5771213525,0.972231281,9.3711366735,-0.16941212917408158,-0.7550695769855429,0.6491437993527549,9.43909451550746,1.0100585170367864,-0.262229821,0.062272227500000055,0.1065982855000005
133802.0,-0.733929686,0.742363405,9.493229465999999,-0.16514828981145946,-0.7422780588976764,0.619300414472904,9.55045349201837,0.9807057039269542,-0.1568083335,-0.22986787600000003,0.12209279249999838
133812.0,-0.756681114,0.23839966149999997,9.579429919499999,-0.21657616155072434,-0.7340191608772392,0.6339559442019004,9.612225459772537,0.9937753777770382,-0.022751428000000073,-0.5039637435,0.08620045350000005
133822.0,-0.8787739064999999,-0.056094038,9.5482447725,-0.30024550056208055,-0.7262908429494083,0.7184246440106699,9.58876260814804,1.0647909270283036,-0.12209279249999982,-0.2944936995,-0.031185146999998636
133832.0,-0.733929686,-0.4176652235,9.656019855999999,-0.3977710085050197,-0.6956480972721439,0.8980190240408864,9.692874521130436,1.2035722736856316,0.1448442204999999,-0.3615711855,0.1077750834999982
133842.0,-1.5634742094999998,-0.9264342254999999,9.492052668,-0.4795745905459939,-0.6479517394736428,1.0552330470727795,9.664460452091225,1.3279119052929604,-0.8295445234999999,-0.5087690019999999,-0.1639671879999991
133852.0,-2.005263792,-0.6846022365,8.870703323999999,-0.4374737583293867,-0.5935934599202795,1.1722102495291955,9.120259895427962,1.3848513833578915,-0.4417895825000002,0.24183198899999991,-0.6213493440000004
133862.0,-2.8814879694999997,-0.1770100325,7.851988521999999,-0.22723488729265373,-0.5432319843539831,1.195124677278629,8.365884843792593,1.3323136556638675,-0.8762241774999997,0.5075922039999999,-1.0187148019999999
133872.0,-3.2753230335,0.31861805849999997,7.9513298865,0.0024556782575560214,-0.5299081408442583,1.1735419357484673,8.605399781818742,1.2876371162128648,-0.3938350640000001,0.49562809099999994,0.09934136450000075
133882.0,-3.778109979,-0.014219642499999997,8.411065638499998,0.13488777124038176,-0.6037181149110985,1.1138534206595132,9.2206476121153,1.2741034949394443,-0.5027869455,-0.332837701,0.4597357519999985
133892.0,-3.9002027715,-0.49425515999999997,9.032316916,0.19137709781043022,-0.6753970419612537,1.0693545060506657,9.850818173789557,1.2791815420288153,-0.12209279250000016,-0.48003551749999995,0.6212512775000008
133902.0,-3.9816960329999995,-0.946733991,9.6284631695,0.1668639484661699,-0.7310870077338887,1.088006839766729,10.462194394836139,1.3213972429039635,-0.08149326149999947,-0.452478831,0.5961462535000006
133912.0,-4.0390649355,-1.325074548,10.085747258999998,0.10664310795535752,-0.7505387022473655,1.1738089711240225,10.944960752938723,1.3973219373990997,-0.057368902500000374,-0.3783405569999999,0.4572840894999981
133922.0,-4.055834307,-1.440008486,10.387497879499998,0.05361651462126581,-0.7004442620566244,1.295847628411222,11.24382179519967,1.4740142370232283,-0.016769371499999686,-0.11493393800000007,0.3017506205
133932.0,-4.1181065345,-1.328604942,10.592162665,0.030435051496277118,-0.6053168365059254,1.4122925054457796,11.441936131757524,1.5368490120553286,-0.06227222750000028,0.11140354400000008,0.2046647855000021
133942.0,-4.121734995,-1.0988351324999999,10.9680515595,0.03469714552964727,-0.4718200926793831,1.494096087486754,11.768359827489737,1.5672080941620719,-0.003628460499999875,0.22976980950000003,0.3758888944999992
133952.0,-4.260597159,-0.7887488595,11.147611321,0.050419071431612186,-0.29568844588512333,1.5356645942815026,11.960102469407559,1.5646851075931405,-0.13886216399999984,0.3100862729999999,0.1795597615000002
133962.0,-4.355133265,-0.38049802,11.126036691,0.09358629982118795,-0.09557422983920949,1.5199426683795376,11.954106279794056,1.5258173364083554,-0.09453610600000051,0.40825083949999996,-0.021574629999999928
133972.0,-4.496447091499999,-0.124348322,11.0398362375,0.1351548066159369,0.12398993539092916,1.4325435607566697,11.92105209713728,1.444237300202095,-0.14131382649999935,0.256149698,-0.08620045350000005
133982.0,-4.715429586,-0.052563644,10.764563572,0.167129238512473,0.2953254174007085,1.2977133853816039,11.752185669603085,1.3413460832787505,-0.2189824945000005,0.07178467799999999,-0.2752726654999993
133992.0,-4.655609021,0.10189109349999999,10.4126029035,0.17752092887884727,0.3614088188689698,1.1399670369278523,11.406462044706405,1.2089891892934113,0.05982056499999988,0.1544547375,-0.3519606685000003
134002.0,-4.4999774855,0.13542983649999998,10.3551359345,0.11676776294617662,0.3163758335090121,0.9779585944407306,11.291456010302413,1.034471551533664,0.15563153550000042,0.033538742999999996,-0.057466969000000034
134012.0,-4.2546151025,-0.0836507245,10.167142453999999,0.016578882564694135,0.19300374467328893,0.8047573554605694,11.021775392107187,0.8277437441460341,0.2453623829999998,-0.21908056099999998,-0.1879934805000012
134022.0,-3.8847082644999995,-0.24045905799999998,9.9385494425,-0.076949821391178,0.05257804371632918,0.6584690935461607,10.673497265651305,0.6650317833372124,0.36990683800000035,-0.15680833349999998,-0.22859301149999922
134032.0,-3.450175603,-0.45355756249999996,9.705151172499999,-0.15022747003615994,-0.047343801289598184,0.5673402173117807,10.310159331218673,0.5887993295286543,0.4345326614999996,-0.21309850449999998,-0.23339827000000035
134042.0,-3.1796101295,-0.7061768665,9.6596483165,-0.1976567924591058,-0.09850463765330797,0.5273704321118586,10.19398901023834,0.5717437747018151,0.27056547350000004,-0.25261930400000004,-0.045502855999998815
134052.0,-2.8563829454999996,-0.805518231,9.5099988375,-0.18833149826570011,-0.0918444612276976,0.5057859452524447,9.962322070735716,0.5474701642209541,0.3232271840000003,-0.09934136449999997,-0.1496494790000007
134062.0,-2.5906227305,-0.5864376699999999,9.4668495775,-0.11052472021179292,-0.030824259919471853,0.4908651254771452,9.832419651112854,0.5040976296186799,0.2657602149999998,0.21908056100000006,-0.043149259999999856
134072.0,-2.4469553079999997,-0.32303105099999996,9.521962950499999,-0.00633729051399141,0.026731462823545153,0.45595854043725864,9.836651756057758,0.4567854233153905,0.14366742250000009,0.26340661899999995,0.0551133729999993
134082.0,-2.3117216044999997,-0.226141349,9.6596483165,0.0682720443502622,0.04298571414736834,0.38721176653045397,9.93498879138275,0.3955272377474884,0.13523370349999997,0.09688970199999997,0.13768536600000125
134092.0,-2.136869035,-0.149453346,9.760166479,0.08639205264446732,0.029396580591340492,0.30274306672168444,9.992466926298414,0.3161978971445539,0.1748525694999996,0.076688003,0.10051816250000023
134102.0,-2.0339972765,-0.2009382585,9.8236155045,0.0690714051476756,0.01047721149972196,0.20921436276581226,10.033989370374638,0.2205703528523023,0.10287175850000008,-0.05148491250000001,0.06344902549999887
134112.0,-1.915434878,-0.284785116,9.8595078435,0.03789458871930088,0.0030176742766981957,0.10929077243063291,10.04787978880082,0.11571334906020826,0.11856239850000017,-0.08384685750000001,0.035892339000000106
134122.0,-1.750290892,-0.39373699749999996,9.948159959499998,0.008585274590560106,0.0030176742766981957,0.020558233259241207,10.108631638833096,0.022482309769615183,0.1651439859999999,-0.10895188149999996,0.08865211599999867
134132.0,-1.4402046189999997,-0.5816324115,9.9516903535,-0.007136651311404813,0.01047721149972196,-0.05245238001018559,10.072170893041935,0.053962541836753745,0.31008627300000025,-0.18789541400000004,0.0035303940000019907
134142.0,-1.1541446385,-0.8377821095,9.9134444185,-0.025256659605609945,0.024600415806860076,-0.09881705158941495,10.015503429596805,0.10491848739440135,0.2860599804999997,-0.256149698,-0.03824593500000084
134152.0,-0.7865913965,-1.0915782115,9.7769358505,-0.03005282439009036,0.031794662983580704,-0.10521193796872218,9.869080182147751,0.1139457096129351,0.36755324200000006,-0.2537961019999999,-0.136508568
134162.0,-0.605854837,-1.201706891,9.6512145975,-0.008203047484373348,0.043252749522923475,-0.08576024345524538,9.744593513450946,0.09639973903920383,0.1807365595,-0.11012867950000005,-0.12572125300000003
134172.0,-0.31969678999999995,-1.1873891819999998,9.553050031,0.01284736862393026,0.021935298039064733,-0.023673645974051086,9.63186710881416,0.03473692119814953,0.286158047,0.014317709000000178,-0.0981645664999995
134182.0,-0.235947999,-1.1155064375,9.5447143785,0.04615523206899004,0.022734658836478135,0.03974463772641487,9.6125750263642,0.06501389380553468,0.08374879099999996,0.07188274449999987,-0.008335652499999568
134192.0,-0.2778223945,-0.8844617635,9.555501693499998,0.09172054285080601,0.03152762760802557,0.07944738755078187,9.600368248586124,0.12537358841510843,-0.04187439550000002,0.23104467399999984,0.010787314999998188
134202.0,-0.284981249,-0.8066950289999999,9.5590320875,0.1428813792145158,0.05737595383006159,0.10182948987835716,9.597242605662812,0.18459776166854805,-0.007158854499999978,0.07776673450000016,0.0035303940000019907
134212.0,-0.397561591,-0.7408924075,9.5590320875,0.19271052935895389,0.08988445647770797,0.10049780365908549,9.595940351418626,0.2351943285506717,-0.112580342,0.06580262149999994,0.0
134222.0,-0.329307307,-0.5145549255,9.514804095999999,0.22202158881694667,0.10134079768779874,0.07864802675336847,9.53439599864922,0.25641578595905373,0.068254284,0.22633748199999992,-0.04422799150000145
134232.0,-0.331660903,-0.4092315045,9.519511288,0.2356107223729745,0.0861529425369441,0.04454080251089529,9.534073869087313,0.2547913363778357,-0.0023535960000000133,0.10532342100000003,0.00470719200000147
134242.0,-0.34244821799999997,-0.3984441895,9.549519637,0.2457353773637936,0.055777232235234786,0.008300785922485033,9.563961200862657,0.252122744652045,-0.010787314999999964,0.01078731500000002,0.030008348999999157
134252.0,-0.26340661899999995,-0.388931739,9.679948082,0.25213200907235284,0.04511850649330541,-0.024740042147019622,9.691338700858104,0.2573291652970642,0.07904159900000002,0.009512450499999991,0.13042844499999973
134262.0,-0.2095681105,-0.43796498899999997,9.926585329499998,0.25985858167093173,0.0690993304157075,-0.0369974894837758,9.93845201368769,0.27142220646076387,0.053838508499999965,-0.04903324999999997,0.24663724749999894
134272.0,-0.1258193195,-0.519360184,10.132426913,0.26998498199100285,0.115731037370492,-0.02980324230705517,10.146508791164115,0.2952520901933556,0.08374879099999999,-0.08139519499999998,0.2058415835000016
134282.0,-0.0444241245,-0.5995785809999999,10.316791933,0.24467072652007707,0.1546344263974456,0.008834856673595296,10.334295513795094,0.2895749038428095,0.081395195,-0.080218397,0.18436501999999955
134292.0,0.035794272499999995,-0.5684915005,10.385046217,0.1740581956428905,0.17728356410057602,0.08397651695970716,10.4006561689785,0.2622551676732906,0.080218397,0.031087080499999975,0.068254284
134302.0,0.11365907349999999,-0.481114249,10.3431718215,0.09465269599415647,0.1964682232384977,0.16578009900068139,10.354979122849613,0.273937833871355,0.07786480099999998,0.08737725149999997,-0.04187439549999894
