timestamp,ax,ay,az,gx,gy,gz,acc_mag,gyro_mag,dax,day,daz
170632.0,-1.6676208325,0.10787314999999999,9.8332260215,-0.07961493915897334,-0.10543359478372545,0.0663905794166123,9.9742132445313,0.1478596986388764,0.0,0.0,0.0
170642.0,-0.9649743599999999,0.5316184964999999,9.6500377995,-0.07348534282596925,-0.172049321673845,0.0671899402140257,9.712724811969972,0.19878519251856958,0.7026464725,0.42374534649999995,-0.18318822200000007
170652.0,-0.769822025,0.8812255689999999,9.458513925,-0.08814087255496562,-0.24159545637806307,0.022156954854068014,9.530617510059534,0.2581242115836491,0.19515233499999995,0.3496070725,-0.19152387449999964
170662.0,-0.9254535604999999,0.7292224939999999,9.339951526499998,-0.1089259986169661,-0.3732281885634754,-0.03406533634042532,9.41397494450497,0.39028784384485093,-0.15563153549999997,-0.152003075,-0.11856239850000172
170672.0,-0.8668097934999999,0.6741091209999999,9.3160233005,-0.11318809265033626,-0.47608218671275326,-0.09828298083830468,9.380515575413849,0.4991245707691423,0.05864376700000007,-0.05511337300000008,-0.023928225999998887
170682.0,-0.6955856845,0.510141933,9.356720897999999,-0.0902736649009027,-0.5416332627591562,-0.15104253879684126,9.396398788863541,0.5694995824651365,0.17122410899999985,-0.16396718799999987,0.04069759749999946
170692.0,-0.385597478,0.352058735,9.580606717499998,-0.047638761933185225,-0.5339049448313253,-0.17582446884590874,9.594824430042264,0.5641260369800469,0.30998820650000003,-0.15808319799999998,0.22388581949999953
170702.0,-0.11022674599999999,0.208489379,9.841561674,0.0011239920382843482,-0.45822921379410325,-0.15663980970798708,9.84438692554469,0.4842636737541011,0.275370732,-0.143569356,0.2609549565000009
170712.0,0.07776673449999999,0.08394492399999999,10.115755607999999,0.0442912204278601,-0.3361905565069037,-0.10761002036096239,10.116402816023271,0.35576076086816777,0.18799348049999998,-0.12454445500000001,0.2741939339999995
170722.0,0.10404855649999999,0.1377834325,10.243830457,0.06427524036319518,-0.19603014559624712,-0.056716219372807734,10.245285394177268,0.2139529248366958,0.026281821999999996,0.05383850850000001,0.12807484900000077
170732.0,-0.0024516625,0.3233252505,10.243830457,0.05334947924571067,-0.08384910792431158,-0.024473006771464488,10.248932025339066,0.10235119880063696,-0.10650021899999998,0.185541818,0.0
170742.0,-0.10189109349999999,0.382067084,10.1456658905,0.0248395259143833,-0.010838494654884786,-0.018078120392157268,10.153368574678359,0.03257749915123348,-0.099439431,0.05874183350000001,-0.0981645664999995
170752.0,-0.1605348605,0.42747187349999993,10.097711372,-0.00580496509213314,0.026466172777242013,-0.01647939879733046,10.108030401432687,0.031713191354973524,-0.058643767,0.04540478949999993,-0.04795451850000099
170762.0,-0.039618866,0.3832438819999999,9.986405894499999,-0.01619665545850738,0.057641243876364726,-0.019943877362539206,9.993835510820551,0.0631078670841295,0.12091599449999998,-0.04422799150000001,-0.1113054775000002
170772.0,-0.0263798885,0.29822022649999996,9.835579617499999,-0.001541125729510993,0.08588590716138896,-0.011950269388405174,9.840135040444943,0.08672700303771794,0.013238977500000002,-0.08502365549999996,-0.15082627700000018
170782.0,-0.039618866,0.18809154699999997,9.8679415625,0.021907372771032826,0.09094910732142451,0.0029722957161463434,9.869813512195199,0.09359758354849342,-0.013238977500000002,-0.11012867949999999,0.03236194500000167
170792.0,-0.003726527,0.189268345,9.888241328000001,0.03096737691813539,0.07309613440277453,0.018694221618111264,9.890053233132253,0.08155671167798148,0.035892339,0.0011767980000000344,0.020299765500000788
170802.0,0.050210048,0.20368412049999998,9.962477668499998,0.013114403999485392,0.028864255169482222,0.04320737096237162,9.96468612477208,0.05359113475408683,0.053936575,0.014415775499999978,0.07423634049999706
170812.0,0.028635417999999996,0.25634583099999997,10.022298233499999,-0.023657938010783135,-0.015102334017506934,0.07251843042036439,10.025616941288567,0.07776053802753448,-0.021574630000000004,0.052661710499999986,0.05982056500000077
170822.0,-0.0072569209999999995,0.3078307435,10.036714008999999,-0.0606955700673548,-0.05160764065222033,0.09143779951198293,10.041436178555486,0.1212772525211693,-0.035892338999999995,0.051484912500000035,0.014415775499999839
170832.0,-0.0599186315,0.29586663049999995,9.980423837999998,-0.08387877852159549,-0.06812892735159866,0.10156245450280203,9.984988096716133,0.14829744567249972,-0.0526617105,-0.011964113000000054,-0.056290171000000555
170842.0,-0.07786480099999998,0.279097259,9.9277621275,-0.08067959000268989,-0.06599613500566158,0.10475989769245564,9.931989683212493,0.1477813325262072,-0.017946169499999984,-0.016769371499999963,-0.052661710499998904
170852.0,-0.099439431,0.29341496799999994,9.8906929905,-0.06575877022739035,-0.043881068053641434,0.10129716445649889,9.895543864599352,0.12849466729119155,-0.02157463000000001,0.014317708999999956,-0.037069136999999586
170862.0,-0.12101406099999999,0.30665394549999997,9.876277215,-0.04923748352801203,-0.012971287000821856,0.0951675681234948,9.881777809320477,0.10793261830034964,-0.021574629999999997,0.013238977500000026,-0.014415775499999839
170872.0,-0.1389602305,0.36402284799999995,9.8332260215,-0.03484898917457078,0.00994488607786369,0.08770628557121905,9.840942869940427,0.09489860554450348,-0.01794616950000001,0.057368902499999985,-0.043051193500000196
170882.0,-0.17132217549999998,0.4251182775,9.761343277,-0.023923228057086274,0.014474015486788975,0.07358482659333293,9.772098004477632,0.07871813431321936,-0.032361944999999975,0.06109542950000002,-0.07188274449999987
170892.0,-0.13297817399999998,0.49690295549999997,9.683576542499999,-0.021525145664846066,-0.002045525883337354,0.05360080665799785,9.697229006082162,0.05779759983269471,0.0383440015,0.07178467799999999,-0.07776673450000082
170902.0,-0.0946341725,0.557998385,9.648861001499998,-0.027654741997850153,-0.027092745978707977,0.03628015916120613,9.665445486398179,0.05305705974134737,0.038344001499999975,0.06109542950000002,-0.03471554100000063
170912.0,-0.0610954295,0.6190938145,9.6296399675,-0.032717942157885704,-0.051874676027775464,0.012032299863248908,9.649713762922262,0.062499775935858815,0.033538743,0.06109542950000002,-0.019221033999999193
170922.0,0.032263878499999996,0.7051962015,9.6512145975,-0.029785789014535227,-0.06066764479932289,-0.028469810758531503,9.676997770355378,0.07333680165743399,0.093359308,0.08610238699999995,0.021574629999999928
170932.0,0.21662889849999997,0.7674684289999999,9.733884656999999,-0.022858577213369737,-0.06199933101859457,-0.0767002393081428,9.766496116057029,0.10123911452052128,0.18436502,0.062272227499999944,0.08267005949999984
170942.0,0.5098477335,0.7842378004999999,9.792528424,-0.0068696159358496815,-0.05347339762260227,-0.1366540444434,9.837102549731608,0.14690447147432154,0.293218835,0.01676937150000002,0.05864376700000129
170952.0,0.8594548059999999,0.756681114,9.88706453,0.02030865117620602,-0.03988426406657442,-0.19341040638900361,9.953153967071188,0.19852148783516757,0.3496070724999999,-0.027556686499999872,0.09453610599999962
170962.0,1.314287233,0.6669502665,10.034262346499998,0.05921204020315962,-0.004443608275577563,-0.24164083493861493,10.141922619858567,0.2488294686514407,0.45483242700000004,-0.08973084750000004,0.14719781649999852
170972.0,1.6602658449999999,0.5651572395,10.155178341,0.08585798189335705,0.04591786729071882,-0.26988549822363916,10.30550981363602,0.28691152946988735,0.3459786119999999,-0.10179302700000004,0.12091599450000068
170982.0,2.019385368,0.475426392,10.358764395,0.10157990779532197,0.09894271529555854,-0.2877384711422892,10.564466257687718,0.3207827401109138,0.35911952300000016,-0.08973084749999999,0.20358605400000052
170992.0,2.4168488925,0.4251182775,10.6101088345,0.10131287241976684,0.15756483421154407,-0.30132760469831704,10.890192541868945,0.35480882239775346,0.3974635245,-0.0503081145,0.2513444395000004
171002.0,2.7939145849999996,0.46463907699999996,10.811243226,0.08026245631146324,0.22098311791201006,-0.30798952645317934,11.176082867976687,0.38747019072454664,0.37706569249999955,0.03952079949999998,0.20113439150000012
171012.0,3.1003723974999997,0.571139296,10.92853076,0.0442912204278601,0.2830697153932043,-0.3221127307603175,11.37415023950719,0.43109950973951217,0.30645781250000015,0.10650021900000006,0.11728753399999903
171022.0,3.3757431294999996,0.7255940335,10.974033616,-0.0012740903539558606,0.3448875321695915,-0.3487586724505149,11.504414030402213,0.4904912280170835,0.27537073199999984,0.15445473749999994,0.04550285600000059
171032.0,3.5325514629999994,0.8872076254999999,10.800455910999998,-0.058030452299559464,0.39738180008182494,-0.37780269653295256,11.398065848859778,0.5513752859332137,0.1568083334999999,0.16161359199999992,-0.17357770500000136
171042.0,3.5624617455,0.9350640775,10.440159589999999,-0.10066535526727693,0.4280245457590894,-0.4108435246024572,11.070790883304172,0.6017731526340567,0.029910282500000385,0.047856452000000105,-0.36029632099999986
171052.0,3.5612849474999995,1.0033183614999999,9.8906929905,-0.09640151590465479,0.43655047915508166,-0.45028098438052105,10.56007604348278,0.6345254431572763,-0.0011767980000003675,0.06825428399999989,-0.5494665994999988
171062.0,3.4332100985,0.9830185959999999,9.354367301999998,-0.03538131459642905,0.42535942799129406,-0.47959204383851384,10.012863963984078,0.6420210346373827,-0.12807484899999944,-0.02029976550000001,-0.5363256885000016
171072.0,3.162644625,0.9483030549999999,9.0228044655,0.055482271591647744,0.3718005092353441,-0.4953122244112268,9.607944636123298,0.6218103414867173,-0.27056547350000004,-0.03471554099999996,-0.33156283649999807
171082.0,2.9603334355,1.0943240735,9.073014513499999,0.12103160230879877,0.2673477894912394,-0.5251573546203299,9.606285004587491,0.601592666523712,-0.20231118950000004,0.14602101850000004,0.05021004799999851
171092.0,2.990243718,1.242698688,9.415364664999998,0.10584374715794412,0.11626336279235028,-0.5629943474743149,9.95665351898548,0.5845363150637007,0.02991028249999994,0.1483746145,0.3423501514999998
171102.0,3.0908599469999998,1.3217402870000001,9.821261908499999,-0.0004747295565424576,-0.057470201609669286,-0.5923054069323076,10.380635725888888,0.5950871738850153,0.10061622899999989,0.07904159900000018,0.4058972435000001
171112.0,3.3613273539999997,1.2486807444999999,10.1792046335,-0.17500765475597543,-0.24319417797288986,-0.6008313403283,10.792308935214075,0.671393615507176,0.27046740699999994,-0.07305954250000024,0.3579427250000009
171122.0,3.5504976324999995,1.133844873,10.425743814499999,-0.37938396483525944,-0.3761585963775739,-0.5563324257194525,11.071936222721005,0.7713191624157655,0.1891702784999998,-0.11483587149999996,0.24653918099999927
171132.0,3.6211055125,1.184054921,10.325225652,-0.5507194468450387,-0.4425090332213903,-0.479857333884817,11.005665629725494,0.8540311554614852,0.07060788000000029,0.05021004800000006,-0.10051816249999845
171142.0,3.554126093,1.300165657,9.934920982,-0.622665409270749,-0.41159925216857074,-0.39245822626194893,10.631316848780752,0.8432968727848521,-0.06697941949999997,0.11611073599999999,-0.3903046700000008
171152.0,3.0812494299999997,1.44746154,9.3927113035,-0.5794981808811733,-0.346582246873278,-0.29146823975380104,9.990609020002292,0.735453010244365,-0.4728766630000001,0.14729588299999996,-0.542209678499999
171162.0,2.7041837374999997,1.7874580954999997,8.9114009215,-0.4630533038466155,-0.28662844173802077,-0.21179745005876388,9.482651660429113,0.5843221591449588,-0.3770656925,0.33999655549999974,-0.4813103820000002
171172.0,2.549729,1.7790243764999998,8.709089731999999,-0.2696027548848161,-0.19656421634735738,-0.13931916221119536,9.247393668793928,0.3615701391832051,-0.1544547374999996,-0.008433718999999895,-0.20231118950000138
171182.0,2.361833586,1.4306921684999998,8.7042844735,-0.020460494821129525,-0.08304974712689818,-0.04445877203605156,9.131796436878016,0.0963974831472316,-0.1878954140000002,-0.348332208,-0.004805258499999354
171192.0,2.096073371,1.1924886399999999,8.8862958975,0.19537390179749725,0.009145525280450288,0.07198610499850612,9.207703704565525,0.20841449433542142,-0.2657602149999998,-0.23820352849999993,0.1820114240000006
171202.0,1.9260260599999999,1.115800637,9.2214871945,0.32594198313919304,0.03952298091141159,0.18043562872967778,9.486327715383661,0.37464284126072384,-0.17004731100000026,-0.0766880029999999,0.3351912969999997
171212.0,1.6542837885,1.137375267,9.594924426499999,0.34299559526042966,-0.009506808435613112,0.2667700855088293,9.802696164888696,0.4346293090635698,-0.27174227149999997,0.021574629999999928,0.3734372319999988
171222.0,1.48668814,1.3014405214999998,9.9038339015,0.2793102761844085,-0.11182848116303268,0.3467079105794216,10.099005644375072,0.4590492509957831,-0.16759564849999986,0.16406525449999987,0.3089094750000019
171232.0,1.218574329,1.3612610864999999,10.043872863499999,0.18924605079374515,-0.25518458993409093,0.42957788879336434,10.208689300741238,0.5342943058100311,-0.2681138110000001,0.0598205650000001,0.14003896199999843
171242.0,1.0988351324999999,1.413922797,10.227061085499999,0.06267651876836837,-0.44863688422514236,0.5148459493995473,10.382648735791895,0.6857621683246217,-0.11973919650000009,0.052661710500000014,0.18318822200000007
171252.0,1.0425449615,1.4654077095,10.440159589999999,-0.09693384132651306,-0.6362266175587449,0.6003810453812853,10.593925241216308,0.8801351476549951,-0.05629017099999989,0.05148491250000009,0.21309850449999956
171262.0,1.079712165,1.310952972,10.467618209999998,-0.19632510623983415,-0.7158991525830342,0.6947091101345709,10.604499377357149,1.0166985254799752,0.03716720349999991,-0.15445473750000005,0.0274586199999991
171272.0,1.082065761,1.203275955,10.4245670165,-0.16221788199736095,-0.6316974881498197,0.821810967581806,10.549423530056483,1.049156625205334,0.002353596000000069,-0.10767701699999987,-0.04305119349999842
171282.0,0.8749493129999999,1.1170755015,10.443689983999999,-0.01619665545850738,-0.4422419978458352,0.9811560376303843,10.539642046021893,1.0763398564046922,-0.20711644800000006,-0.08620045350000005,0.019122967499999532
171292.0,0.6679309315,1.3373328604999999,10.4484952425,0.12955928103404307,-0.26611035105157543,1.1468959940582697,10.55488719700844,1.1844706612769087,-0.20701838149999985,0.22025735899999987,0.0048052585000011305
171302.0,0.326757578,1.630649762,10.616090891,0.14954330096937812,-0.17657845108277032,1.284124251825576,10.745565362839885,1.3048058255457797,-0.34117335350000005,0.2933169015000001,0.16759564850000075
171312.0,0.0058839899999999995,1.630649762,10.592162665,0.09651670763528643,-0.18244101204021926,1.4061629091127754,10.716947475352713,1.4212298634251668,-0.320873588,0.0,-0.023928226000000663
171322.0,-0.353235533,1.4750182264999998,10.493998098499999,0.013646729421343663,-0.23919737398582286,1.531933080340739,10.603039668019854,1.55055492633698,-0.359119523,-0.1556315355000002,-0.09816456650000127
171332.0,-0.941046134,1.124234356,10.161160397499998,-0.07108726043372905,-0.33539119570949033,1.6531741221597769,10.266384530946102,1.6883498840388989,-0.587810601,-0.3507838704999997,-0.33283770100000076
171342.0,-1.5586689509999998,0.930258819,10.054660178499999,-0.16328427817032948,-0.4782149790586903,1.7848068543451892,10.21719245557469,1.854962756772027,-0.6176228169999998,-0.19397553700000014,-0.10650021899999906
171352.0,-2.2961290309999995,0.8380763089999999,9.893046586499999,-0.29731509274798207,-0.6844570461083563,1.8943227742493294,10.190532429140655,2.036009942358532,-0.7374600799999997,-0.0921825100000001,-0.16161359200000014
171362.0,-2.691140893,0.8428815675,9.808022931,-0.42255119322483514,-0.8891003915631953,1.9614708265613072,10.205390852771389,2.194633641550374,-0.3950118620000005,0.004805258500000131,-0.0850236554999988
171372.0,-2.8527544849999997,0.5915371279999999,9.79488202,-0.4771765081537537,-0.963975016473752,2.0272871926540135,10.218993987238145,2.2949593926295018,-0.1616135919999997,-0.25134443950000007,-0.013140911000000699
171382.0,-3.095763272,0.258699427,9.6476842035,-0.40309949871135836,-0.8651178223115412,2.0808461114099632,10.135506209373942,2.2892877913692673,-0.2430087870000004,-0.33283770099999993,-0.14719781649999852
171392.0,-3.408203141,0.0791396655,9.415364664999998,-0.21897424394296458,-0.6226374840027171,2.1005648412989952,10.013550994123326,2.2018173876361997,-0.31243986899999987,-0.17955976149999997,-0.2323195385000023
171402.0,-3.8260644974999996,-0.205743517,9.207071419,-0.013531537690712038,-0.3497796900629316,2.125612061394366,9.972525459901524,2.154241297913955,-0.41786135649999956,-0.2848831825,-0.20829324599999843
171412.0,-4.204306988,-0.1877973475,9.009565488,0.1562052227242405,-0.14780146237588782,2.080313785988105,9.944030137506338,2.091399242626559,-0.37824249050000036,0.017946169499999998,-0.19750593100000025
171422.0,-4.491641832999999,0.013337044000000001,8.880313841,0.21775774945432452,-0.07718893149870122,1.9830553134207212,9.95163293873696,1.9964681176215857,-0.2873348449999993,0.20113439149999998,-0.12925164700000025
171432.0,-4.71307599,0.1330762405,8.6564280215,0.20363454514718643,-0.142205936793994,1.8362347260844543,9.857207549032864,1.8529564284448812,-0.2214341570000009,0.11973919649999999,-0.22388581949999953
171442.0,-4.5825494785,0.152199208,8.71026653,0.14554649698231112,-0.2781007630127765,1.681153495398498,9.843356508094924,1.7102049269788395,0.13052651150000028,0.019122967500000004,0.05383850850000016
171452.0,-4.444962179,0.046875787,8.627694537,0.08745670348818387,-0.42971751513352385,1.5236741823203017,9.705513852235075,1.5855247811582733,0.13758729949999982,-0.105323421,-0.08257199300000018
171462.0,-3.9912084835,-0.1183662655,8.579838085,0.08852309966115239,-0.5661464121034167,1.4072293052857439,9.463475962688724,1.5194250283466397,0.4537536955000001,-0.16524205250000001,-0.04785645199999955
171472.0,-3.9756159099999997,-0.48464464299999993,9.029963319999998,0.056014597013506015,-0.6732642496153166,1.3371490998304156,9.878291342857787,1.4981288663082197,0.015592573500000206,-0.3662783774999999,0.450125234999998
171482.0,-3.9672802575,-0.653515156,9.052714748,0.07893077009219156,-0.7382812549106095,1.2705333729402961,9.905455012735542,1.4715788560504586,0.008335652499999568,-0.16887051300000006,0.022751428000001184
171492.0,-4.1061424215,-0.5002372165,8.985637262,0.22122222801953328,-0.753470855390716,1.2393583018411736,9.892033151109857,1.4671968526533108,-0.1388621640000003,0.15327793950000002,-0.06707748600000052
171502.0,-4.0474986545,0.08992698049999999,9.044281028999999,0.38056555273885956,-0.7340191608772392,1.1836665907392865,9.909054019003552,1.4438423966966498,0.0586437670000004,0.590164197,0.058643766999999514
171512.0,-3.9289362559999996,0.8501384885,9.1173405715,0.49408002195931877,-0.7140333956126521,1.0477717645205038,9.964194631281561,1.3608028617973527,0.11856239850000039,0.7602115079999999,0.07305954250000113
171522.0,-3.7721279224999997,1.146985784,9.3160233005,0.536180854175926,-0.731621078484999,0.8455265014579049,10.11596834652329,1.2400299897728373,0.1568083334999999,0.2968472955,0.19868272899999972
171532.0,-3.4178136579999996,1.042839161,9.553050031,0.5452408583230285,-0.7785180754860866,0.6089069787772777,10.19949648812703,1.1287806236142899,0.35431426450000014,-0.10414662299999988,0.23702673050000023
171542.0,-2.9748472775,0.742363405,9.969636523,0.5100672379075868,-0.8264814686601428,0.3882764173741705,10.430458865757915,1.045943966718209,0.4429663804999997,-0.3004757560000001,0.4165864920000004
171552.0,-2.364383315,0.19044514299999998,10.328756045999999,0.4293283067103292,-0.842735719983966,0.21907372771032824,10.597630832904315,0.9708344796372609,0.6104639624999999,-0.551918262,0.3591195229999986
171562.0,-1.8064829965,-0.5014140145,10.617267688999998,0.3387317558978075,-0.8150233821208,0.14819416145758652,10.78151983768819,0.8949658235638703,0.5579003185,-0.6918591574999999,0.28851164299999965
171572.0,-1.4569739905,-1.082065761,10.7513245945,0.2899690019263379,-0.7348185216746526,0.16444841278140973,10.903422401082267,0.8068974918418097,0.3495090059999999,-0.5806517465,0.13405690550000138
171582.0,-1.2726089704999999,-1.399212822,10.869886993,0.2766451584166132,-0.6399563861702569,0.23612733983156484,11.033212286258108,0.7360929564201653,0.1843650200000002,-0.317147061,0.11856239849999994
171592.0,-1.037935836,-1.386071911,10.892638421,0.2729153898051013,-0.535236631050597,0.31446644330733037,11.029418747729254,0.6781225591124556,0.23467313449999994,0.013140911000000033,0.022751427999999407
171602.0,-0.678816313,-1.017341871,10.9009740735,0.26039090709279,-0.4107998913711573,0.3656272796710401,10.969366974461375,0.608476197469388,0.35911952299999994,0.36873004,0.008335652500001345
171612.0,-0.2527173705,-0.5457400724999999,10.7848633375,0.24467072652007707,-0.22507591500793672,0.37122280525293394,10.801619114958477,0.4983265024784253,0.4260989425,0.47160179850000006,-0.11611073600000132
171622.0,-0.046777720499999995,-0.38412648050000003,10.666399005499999,0.23614304779483278,-0.017235126363444004,0.3509717499420437,10.673415997359415,0.4233695287334423,0.20593964999999997,0.16161359199999986,-0.11846433200000028
171632.0,0.2285930115,-0.31351860049999997,10.5036086155,0.24440369114452193,0.18527717207471006,0.3219277258596061,10.510772694020737,0.4446327196846925,0.275370732,0.07060788000000007,-0.16279038999999962
171642.0,0.14356935599999998,-0.3984441895,10.411426105499999,0.24653473816120705,0.33236479478653214,0.3051411491139246,10.4200366353682,0.51415644974684,-0.08502365550000002,-0.08492558900000002,-0.09218251000000066
171652.0,0.028635417999999996,-0.5301474989999999,10.245007254999999,0.22894880061811218,0.42109558862867186,0.30220899597057416,10.258754798359428,0.5666297956448657,-0.11493393799999999,-0.13170330949999992,-0.1664188504999995
171662.0,0.035794272499999995,-0.41040830249999993,10.101339832499999,0.1855162821822333,0.42589349874240434,0.293948352620885,10.10973702013835,0.5497337512235323,0.007158854499999999,0.11973919649999998,-0.14366742250000009
171672.0,0.023830159499999996,-0.06452775699999999,10.034262346499998,0.11490375130504668,0.3550139324896626,0.276095379702235,10.034498121296995,0.46418360916631696,-0.011964112999999998,0.3458805454999999,-0.06707748600000052
171682.0,0.088455983,0.17975589449999999,10.104968292999999,0.02803696910403691,0.24576330263182555,0.24012414381863187,10.106954083455179,0.3447394334880679,0.06462582350000001,0.24428365149999998,0.0707059465000004
171692.0,0.22496455099999998,0.325776913,10.256971367999999,-0.06416004863256354,0.13571505730582706,0.1839001072948865,10.264609164026764,0.23739068659727916,0.136508568,0.14602101850000002,0.15200307499999965
171702.0,0.48709630549999994,0.281450855,10.454477298999999,-0.12224809679743882,0.10187486843890901,0.14313096129755096,10.469602331985598,0.21403167539409212,0.2621317544999999,-0.044326058,0.19750593100000025
171712.0,0.7852184655,-0.06452775699999999,10.5395009545,-0.10439512387878883,0.1615616381986111,0.147127765284618,10.568907807332412,0.2421716006156218,0.29812216,-0.345978612,0.08502365550000057
171722.0,1.1419843925,-0.356569794,10.6675758035,-0.013798573066267169,0.3086492609104332,0.19535819383422928,10.734451261900883,0.3655401356587182,0.356765927,-0.292042037,0.12807484900000077
171732.0,1.453149397,-0.5780039509999999,10.735830087499998,0.11010758652056626,0.5527283208140842,0.27876049747003034,10.84913726547154,0.6287604410179444,0.31116500450000006,-0.2214341569999999,0.06825428399999822
