timestamp,ax,ay,az,gx,gy,gz,acc_mag,gyro_mag,dax,day,daz
185862.0,-1.4119614669999998,2.9291482885,10.761131244499998,-0.0015341444125030158,0.5458639408659905,0.2002852583126093,11.241685395956841,0.5814498948612654,0.0,0.0,0.0
185872.0,-1.3438052495000001,3.236782899,10.9311785555,-0.12996768807900974,0.5221484069898915,0.25677458488265775,11.479252619228557,0.5962078046355527,0.06815621749999967,0.30763461050000007,0.17004731100000292
185882.0,-1.0217548635,3.2631627874999998,10.951478321,-0.2293589529923308,0.5005656654597297,0.33191799049802156,11.472885068462233,0.6429160654168824,0.32205038600000013,0.026379888499999726,0.020299765499999012
185892.0,-0.9247670949999999,3.2834625529999997,10.928726892999999,-0.2778546715882453,0.47818356313215443,0.4326391963013624,11.448728838553624,0.7021676528789,0.09698776850000013,0.0202997654999999,-0.022751428000001184
185902.0,-0.9272187574999999,3.259534327,10.787511132999999,-0.2922449112709385,0.439545464151504,0.5624079168456447,11.3072850453922,0.7713040698392414,-0.0024516625000000625,-0.023928225999999775,-0.1412157599999997
185912.0,-0.9750752095,3.0596748,10.604322910999999,-0.2722591460063514,0.37985869439180187,0.671923836749785,11.079893769648516,0.8184737703077013,-0.047856452000000105,-0.1998595270000001,-0.18318822200000007
185922.0,-1.062452461,2.8142143505,10.464283948999999,-0.21790086645298806,0.3081797673416467,0.7531950933689009,10.88805979997098,0.8424716050257729,-0.08737725149999986,-0.2454604494999999,-0.1400389620000002
185932.0,-1.222889255,2.635831387,10.287077783500001,-0.1544825827525221,0.24449444826562566,0.7987586588214649,10.689575976364456,0.849504442983595,-0.160436794,-0.17838296349999982,-0.17720616549999768
185942.0,-1.3186021589999999,2.4826515139999996,10.076430941499998,-0.10598686415660766,0.19173489030708907,0.8038218589815004,10.461201207916062,0.8331416833356123,-0.09571290399999999,-0.15317987300000047,-0.21064684200000272
185952.0,-1.361751419,2.356930261,9.863332436999999,-0.07454475768192981,0.1709515095743406,0.7822391174513386,10.232048374843737,0.8041637746097822,-0.04314926000000008,-0.1257212529999996,-0.21309850449999956
185962.0,-1.3258590799999999,2.2575888964999997,9.622775312499998,-0.05455899241734274,0.1872057608981638,0.7390718890617628,9.972583147834765,0.7643624387477309,0.035892339000000106,-0.0993413645000003,-0.24055712450000044
185972.0,-1.2276945135,2.3030917525,9.4144820665,-0.036706019498692746,0.237300201088905,0.6873787272761948,9.76954134129958,0.728112787977326,0.09816456649999994,0.04550285600000015,-0.20829324599999843
185982.0,-1.0815754284999999,2.45754649,9.3115122415,-0.009527752386637046,0.2919255160178235,0.6452778950595875,9.690902970397062,0.7083042049997625,0.14611908500000004,0.15445473750000005,-0.10296982500000063
185992.0,-0.922413499,2.5305079659999996,9.321024692,0.02324778563656447,0.34042123461373797,0.6418134164943788,9.7023614928532,0.7268779389313809,0.15916192949999985,0.07296147599999969,0.009512450500000824
186002.0,-0.8613180695,2.610726363,9.5078413745,0.06561565322872683,0.3641367684898369,0.6777863977072339,9.89731319914473,0.7722016582679697,0.06109542950000002,0.08021839700000033,0.18681668249999994
186012.0,-0.841018304,2.6765289845,9.7543805555,0.11411137182464126,0.3412205954111514,0.7438680538462432,10.149830501739824,0.8263126414653473,0.02029976550000001,0.06580262150000005,0.24653918099999927
186022.0,-0.8518056190000001,2.7268370989999995,9.997389342499998,0.1527477254760397,0.28179911569775246,0.8296684398742844,10.39754812648517,0.8894337127462439,-0.010787315000000075,0.0503081144999995,0.24300878699999906
186032.0,-0.9380060724999999,2.7292887615,10.1590029345,0.17566389855472528,0.19866384743750656,0.9197326652649479,10.56097595674172,0.9572007652992566,-0.08620045349999983,0.0024516625000003955,0.16161359200000192
186042.0,-1.0768682365,2.7208550424999998,10.186559620999999,0.1812594241366191,0.11686026539653233,1.0023373534325875,10.598523211904002,1.025276289861972,-0.13886216400000007,-0.008433719000000117,0.02755668649999876
186052.0,-1.1714043425,2.5939569915000003,10.151844079999998,0.17486453775731187,0.04331558137599527,1.0532311544207422,10.543279339560847,1.068526888195832,-0.09453610600000006,-0.1268980509999995,-0.03471554100000063
186062.0,-1.1725811405,2.461076884,10.068095288999999,0.17219941998951654,-0.0030490902032340936,1.0726828489342188,10.430646610272989,1.0864209274463676,-0.0011767979999999234,-0.13288010750000012,-0.08374879099999966
186072.0,-1.1976861644999999,2.3964510605,9.933940317,0.17486453775731187,-0.02116735316818723,1.0817428530813216,10.288858054017673,1.0959896275046324,-0.02510502399999992,-0.06462582350000012,-0.13415497199999926
186082.0,-1.1857220515,2.380858487,9.877748212499998,0.17539686317917014,-0.007045894190301109,1.0865390178658019,10.22958130463218,1.1006274308696902,0.011964112999999887,-0.015592573500000206,-0.056192104500000895
186092.0,-1.156988567,2.4539180295,9.908835293000001,0.1711347691458,0.025197318411042134,1.090535821852869,10.273526809400765,1.1041695489416496,0.028733484500000017,0.07305954250000024,0.03108708050000253
186102.0,-1.130706745,2.458723288,9.975912779,0.16074133345017375,0.054241342493479776,1.106523037801137,10.336472015361796,1.1194521573964167,0.026281822000000066,0.004805258499999798,0.06707748599999874
186112.0,-1.179739995,2.4288130055,10.1207569995,0.149284992240083,0.06543239365726741,1.1430283444358504,10.47476211254541,1.1545913576809772,-0.04903325000000014,-0.02991028249999994,0.14484422049999957
186122.0,-1.279179426,2.403609915,10.232062477,0.14208899973411035,0.05903750727796019,1.190459412188048,10.58814162922934,1.2003617467989174,-0.09943943099999997,-0.025203090499999803,0.1113054775000002
186132.0,-1.348610508,2.3270199785,10.302670357,0.1237037013936021,0.04305029132969213,1.2309615228098285,10.647947631709721,1.2379104183907415,-0.06943108199999992,-0.07658993650000001,0.07060788000000073
186142.0,-1.491003066,2.2779867284999997,10.379260293499998,0.09572607348413299,0.020399408297309726,1.2626706646600616,10.730394117564797,1.266458378469917,-0.14239255800000006,-0.04903325000000036,0.07658993649999779
186152.0,-1.5772035194999998,2.194139871,10.394852866999999,0.08320159077182168,-0.031560788863813465,1.286918523958019,10.740334577750042,1.2899914245478354,-0.08620045349999983,-0.08384685749999976,0.015592573500001095
186162.0,-1.5987781495,2.125885587,10.352978471499998,0.09146223412151085,-0.09257924484278722,1.2938474810884364,10.689230296502897,1.300375930708136,-0.02157463000000015,-0.068254284,-0.041874395500000716
186172.0,-1.628688432,2.111567878,10.303847155,0.11357904640278299,-0.14747159514726088,1.2914493986961963,10.643336464921779,1.304794857649972,-0.02991028249999994,-0.014317709000000178,-0.04913131649999869
186182.0,-1.5820087779999998,2.1330444415,10.218921566,0.1423560351096655,-0.19223754513166344,1.2839881161439204,10.558361062927474,1.3060803944969108,0.04667965400000007,0.021476563500000267,-0.08492558899999914
186192.0,-1.511400898,2.1498138129999997,10.168613451499999,0.17326581616248507,-0.21088987884772684,1.285319802363192,10.502701158800413,1.3139796719880472,0.07060787999999985,0.016769371499999686,-0.05030811450000172
186202.0,-1.4527571309999998,2.194139871,10.167436653500001,0.19484855769264695,-0.20103051390321086,1.2949121319321528,10.502453101924262,1.3248308033028848,0.05864376700000018,0.044326058000000224,-0.001176797999997703
186212.0,-1.3845028469999998,2.2863223809999997,10.169790249499998,0.1961819892411706,-0.17225177986707638,1.304771496876669,10.51516770584463,1.3306339495262332,0.068254284,0.09218250999999977,0.0023535959999971823
186222.0,-1.2851614825,2.3725228345,10.258344298999999,0.17726262014955207,-0.13201670462085108,1.3202263874030786,10.607267904279183,1.3385993279531472,0.09934136449999986,0.08620045350000005,0.08855404950000079
186232.0,-1.210925142,2.447935973,10.2823705915,0.13835923112259849,-0.09684308420540937,1.348738086063658,10.638885054759227,1.3592704972130867,0.07423634049999994,0.07541313850000009,0.024026292500000324
186242.0,-1.1905273099999998,2.5329596285,10.369747842999999,0.09785712050081806,-0.07792371511379083,1.3825782749305762,10.740805839548065,1.3882257769253008,0.020397832000000227,0.08502365550000013,0.08737725149999953
186252.0,-1.191704108,2.5688519675,10.393676069,0.07147646885692378,-0.07206289948559387,1.424146781725325,10.772542009166452,1.4277590843630188,-0.0011767980000001454,0.035892339000000106,0.023928226000000663
186262.0,-1.210925142,2.5904265974999996,10.464283948999999,0.058419660722754195,-0.07472627192413722,1.4665146493174872,10.847943962883573,1.4695788815635022,-0.01922103400000008,0.021574629999999484,0.07060787999999896
186272.0,-1.2431890204999998,2.5904265974999996,10.543325548,0.057087974503482526,-0.0808558682571413,1.5102142031289214,10.9278333858472,1.5134542106046187,-0.03226387849999979,0.0,0.07904159900000174
186282.0,-1.2695689089999997,2.562869911,10.6403133165,0.05735500987903766,-0.10030756277061811,1.5571112001300091,11.018002308435765,1.561392485532553,-0.02637988849999995,-0.02755668649999965,0.09698776850000002
186292.0,-1.3796975885,2.5281543699999998,10.677382453499998,0.04936140190490362,-0.13867862637571346,1.606408024852589,11.059006556312934,1.6131382618121324,-0.11012867950000027,-0.03471554100000018,0.03706913699999781
186302.0,-1.4263772424999999,2.415574028,10.603146113,0.031241393610698498,-0.183442831030864,1.6386494921246801,10.96796505356837,1.6491814499841517,-0.04667965399999985,-0.11258034199999978,-0.07423634049999883
186312.0,-1.4275540405,2.330648439,10.464283948999999,0.004595451920501069,-0.20955644729920317,1.6610315944522556,10.815316511783648,1.6742045814510305,-0.0011767980000001454,-0.08492558900000002,-0.13886216400000073
186322.0,-1.5006135829999998,2.2396427269999997,10.315811268,-0.027113689929731913,-0.21035580809661658,1.6834154421090828,10.662260679006298,1.6967239813572816,-0.0730595424999998,-0.0910057120000003,-0.14847268099999944
186332.0,-1.5640626084999998,2.1773704995,10.168613451499999,-0.05562538859031128,-0.18584091342310421,1.6884768969398662,10.516079766787023,1.699583849198808,-0.06344902549999998,-0.06227222749999983,-0.1471978165000003
186342.0,-1.6693860294999998,2.0971521025,10.083589796,-0.06575178891038237,-0.14613816359873721,1.6890109676909766,10.433775914332513,1.696595918180088,-0.10532342100000003,-0.08021839699999989,-0.0850236554999988
186352.0,-1.7484276285,1.9941822775,10.054856311499998,-0.06175323959406336,-0.1141637317022011,1.6876775361424527,10.398744999898236,1.6926613028708355,-0.07904159900000018,-0.10296982499999996,-0.028733484500001794
186362.0,-1.826194363,1.936813375,10.0883950545,-0.056691784763279816,-0.09337860564020062,1.6866128852987363,10.43369285903567,1.6901469011025883,-0.07776673449999993,-0.05736890249999993,0.03353874300000115
186372.0,-1.8453173305,1.9534846799999999,10.125562258,-0.05589242396586641,-0.08378627607123978,1.669824563223803,10.476082735730584,1.6728592813085714,-0.019122967499999977,0.016671304999999803,0.03716720350000102
186382.0,-1.8453173305,1.985846625,10.0991823695,-0.05189561997879939,-0.08645139383903512,1.6549037434485034,10.456685297009141,1.6579726773833054,0.0,0.032361945000000114,-0.02637988850000106
186392.0,-1.8238407669999999,2.0552777069999997,10.1446852255,-0.03777241567166128,-0.10083988819247638,1.6517063002588497,10.510242619499339,1.6552127176744145,0.021476563500000045,0.0694310819999997,0.04550285600000059
186402.0,-1.7711790564999998,2.043313594,10.2009753965,-0.012725195576290656,-0.13015094765046914,1.6652954338148775,10.553298286962601,1.6704221267875528,0.052661710500000014,-0.011964112999999887,0.056290171000000555
186412.0,-1.7735326525,2.0288978185,10.230885679,0.007260569688296411,-0.1498696775395011,1.686078814547626,10.579832995098034,1.6927419782661266,-0.002353596000000069,-0.014415775499999839,0.029910282499999497
186422.0,-1.8573795100000001,1.9439722294999997,10.2392213315,0.009391616704981488,-0.15439880694842636,1.7129917916133786,10.586337428434806,1.7199616484637799,-0.0838468575000002,-0.08492558900000025,0.008335652499999568
186432.0,-2.034487609,1.8170741785,10.255990702999998,-0.002333505209916419,-0.1413419988142568,1.7124594661915202,10.612551234334202,1.718284152643072,-0.17710809900000002,-0.12689805099999973,0.016769371499998798
186442.0,-2.2176758309999998,1.625550304,10.288352648,-0.02524793295934997,-0.12695350446081555,1.7023330658714493,10.649445999292388,1.7072470581532393,-0.18318822199999962,-0.19152387450000008,0.03236194500000167
186452.0,-2.3170171955,1.4255927105,10.2859009855,-0.06122091417220509,-0.1088334961666104,1.6474424608962275,10.639579049190964,1.6521680883565526,-0.0993413645000003,-0.19995759349999997,-0.0024516625000003955
186462.0,-2.358891591,1.3226228854999997,10.232062477,-0.10039133857471383,-0.08671842921459026,1.5643054473067297,10.58342115615599,1.5699203926632,-0.04187439549999983,-0.10296982500000018,-0.05383850850000016
186472.0,-2.348104276,1.3310566044999999,10.167436653500001,-0.1297023980327066,-0.061404173743664504,1.487565065425791,10.519604245326335,1.4944708121886539,0.010787314999999964,0.008433719000000117,-0.06462582349999835
186482.0,-2.266709081,1.3190924914999997,10.0668204245,-0.15421729270621895,-0.035557592850880476,1.4292099818853605,10.402828870944186,1.4379459266953458,0.08139519499999981,-0.01196411300000011,-0.10061622900000167
186492.0,-2.149421547,1.2855537485000001,9.9818948355,-0.18992323854351895,0.004679227724596798,1.3897725221072967,10.291301469395009,1.4026975422076684,0.11728753399999992,-0.03353874299999959,-0.08492558899999914
186502.0,-2.0500801825,1.2388740944999999,9.893242719499998,-0.23815192176387825,0.053974307117924634,1.3729859453616153,10.179090788653088,1.3945321688040104,0.0993413645000003,-0.04667965400000029,-0.08865211600000222
186512.0,-2.057239037,1.18856598,9.8310685585,-0.2818514755753123,0.10193770029198082,1.3713872237667886,10.114090692993479,1.4037572676697272,-0.007158854500000089,-0.050308114499999945,-0.06217416099999795
186522.0,-2.1793318295,1.0533322765,9.744868105,-0.3007708446669308,0.12378747719769782,1.3657916981848945,10.040988521636441,1.4039848301685485,-0.12209279250000016,-0.13523370349999997,-0.08620045350000005
186532.0,-2.300247824,0.8797545714999999,9.736434385999999,-0.28478362871866275,0.11312875145576845,1.3386116857435868,10.043070382645691,1.3732374429796899,-0.12091599449999979,-0.17357770500000003,-0.008433719000001005
186542.0,-2.368502108,0.7540333185,9.702895643,-0.23522151394977978,0.07689048019661018,1.2866514885824638,10.016214471543476,1.310234085818699,-0.068254284,-0.12572125299999992,-0.03353874299999937
186552.0,-2.405571245,0.738440745,9.7053473055,-0.16753939088669167,0.041716859781168465,1.219770471646041,10.02625723134127,1.231929278566059,-0.03706913700000003,-0.015592573499999984,0.0024516625000003955
186562.0,-2.369678906,0.7815900049999999,9.737611183999999,-0.10065837395026896,0.030792843992935956,1.1427630543895473,10.052230231357573,1.1476008478409263,0.035892339000000106,0.043149259999999856,0.032263878499998455
186572.0,-2.2080653139999997,0.8928954825000001,9.805865468,-0.05375963161992934,0.05077686392827103,1.0724158135586637,10.090976778789738,1.0749623551887717,0.16161359200000014,0.1113054775000002,0.06825428400000177
186582.0,-2.0632210934999997,1.050880614,9.919622608,-0.03190985471421233,0.09394409231784678,1.0284509697009265,10.186272332442769,1.033225594141029,0.1448442205,0.15798513149999993,0.11375713999999881
186592.0,-2.0248770919999997,1.105993987,10.1015359655,-0.032709215511625735,0.13977469314596588,0.9978064786944102,10.361678377525358,1.0080796727183687,0.03834400150000006,0.055113372999999966,0.18191335750000093
186602.0,-1.9351462444999998,1.1287454149999998,10.245203388,-0.035107297903865936,0.1773463959536478,0.9743579801938663,10.487280374862335,0.9909882643560062,0.08973084749999982,0.02275142799999985,0.14366742250000009
186612.0,-1.8645383644999998,1.2376972964999997,10.369747842999999,-0.04230154508058657,0.19839681206195142,0.9684954192364174,10.608490384491983,0.9895120478470557,0.07060788000000007,0.1089518814999999,0.12454445499999878
186622.0,-1.8537510495,1.2508382075,10.460655488499999,-0.05296027082251594,0.1957316942941561,0.9668966976415906,10.697023063635477,0.98792960799192,0.010787314999999742,0.013140911000000255,0.09090764549999975
186632.0,-1.859733106,1.2448561509999998,10.487035377,-0.06921452214633912,0.18001151372144317,0.9679630938145591,10.723161150550917,0.9869890304027115,-0.005982056499999944,-0.005982056500000166,0.02637988850000106
186642.0,-1.8788560735,1.163460956,10.429568408,-0.09586046383653656,0.15976045841055297,0.9589030896674565,10.661127459992958,0.9768355890180804,-0.019122967499999977,-0.08139519499999981,-0.057466969000000034
186652.0,-1.929164188,1.0772605025,10.3086524135,-0.12117471930746232,0.13897533234855247,0.9375856381835979,10.542792762682366,0.9555439731005462,-0.050308114499999945,-0.08620045350000005,-0.1209159944999989
186662.0,-1.954269212,0.9611497665,10.204505790499999,-0.12623791946749785,0.11845898699135914,0.898149923734786,10.43431432605718,0.9146812720370431,-0.025105024000000142,-0.11611073599999999,-0.10414662300000188
186672.0,-1.9231821315,0.9671318229999999,10.076430941499998,-0.11131535436294634,0.10220473566753595,0.844858040354391,10.303806771907105,0.8582668725176809,0.031087080500000086,0.005982056499999944,-0.12807484900000077
186682.0,-1.8512993869999999,0.9958653074999999,9.965125464,-0.0915983698031664,0.10700090045201636,0.8014237765892602,10.184438258649804,0.8137072715238155,0.0718827445000001,0.028733484500000017,-0.11130547749999842
186692.0,-1.7843199674999999,1.0341112424999999,9.786742500499999,-0.07960621251271335,0.13497852836148547,0.7761095211183344,10.00167548860575,0.7917716469789645,0.06697941949999997,0.03824593499999995,-0.1783829635000007
186702.0,-1.789125226,1.028129186,9.6741621585,-0.07854156166899683,0.19067023946337253,0.765452540705657,9.891786095866001,0.7927430284771795,-0.00480525850000002,-0.005982056499999944,-0.11258034199999933
186712.0,-1.8944486469999997,1.0353861069999999,9.6239521105,-0.08360476182903237,0.27034277448766164,0.7507970109766606,9.863134100877172,0.8023534904327791,-0.1053234209999998,0.007256920999999972,-0.050210048000000285
186722.0,-2.057239037,0.9839011945,9.639446617499999,-0.0899996482083396,0.34095530536484825,0.7233499631597978,9.905514883514506,0.8047270507056058,-0.16279039000000028,-0.05148491249999987,0.015494506999999658
186732.0,-2.1769782335,0.9276110234999999,9.6274825045,-0.0892002874109262,0.3827891022059004,0.6815161663187458,9.91403630286399,0.7867327837300232,-0.11973919649999987,-0.05629017100000011,-0.011964112999999443
186742.0,-2.2020832575,0.9862547905,9.662198045499998,-0.07640876932305976,0.3942471887452431,0.6354185301150715,9.958912604055223,0.7516820167308714,-0.025105024000000142,0.05864376700000007,0.03471554099999885
186752.0,-2.148244749,1.0353861069999999,9.6598444495,-0.05562538859031128,0.3857195100199988,0.6042417136866969,9.949852997944776,0.719014445491137,0.05383850850000016,0.04913131649999991,-0.0023535959999989586
186762.0,-2.2140473705,1.097560268,9.644251875999998,-0.028712411524558716,0.36200572147315185,0.5893191485821454,9.955814308656008,0.6922207768049422,-0.06580262150000005,0.06217416100000017,-0.015592573500001095
186772.0,-2.2559217659999997,1.0413681635,9.59874902,0.004860741966804208,0.33136123046663546,0.5693351286468102,9.915120443807774,0.6587612470236167,-0.04187439549999983,-0.056192104500000006,-0.045502855999998815
186782.0,-2.3278045105,1.037739703,9.5329463985,0.03950203696038766,0.31404232829909573,0.5275013318057582,9.867757828755263,0.6151753001741743,-0.07188274450000032,-0.003628460500000097,-0.0658026214999996
186792.0,-2.2571966305,1.1418863259999998,9.531769600499999,0.06454925705575829,0.30018615936751275,0.47740514628576497,9.861717534347768,0.5676213619679943,0.07060787999999985,0.10414662299999988,-0.0011767980000012557
186802.0,-2.173349773,1.2436793529999999,9.469497373,0.07334222582730572,0.3023172063841978,0.4483611222033273,9.79497667511932,0.5457128102479143,0.0838468575000002,0.10179302700000004,-0.06227222749999939
186812.0,-2.127846917,1.3693025395,9.406048347499999,0.06774670024541189,0.3241669832899148,0.4281100668924371,9.740455197903998,0.5412504760497422,0.04550285600000015,0.12562318650000015,-0.06344902550000064
186822.0,-2.1457930865,1.4687419704999998,9.353386637,0.06215117466351808,0.35960763908091165,0.41372157253899583,9.708113747128717,0.5516755950570424,-0.017946169500000053,0.09943943099999974,-0.052661710499998904
186832.0,-2.1505983449999997,1.512969962,9.3030785225,0.0685460610428253,0.39451422412079823,0.39906604280999947,9.66754474224101,0.5653262262111626,-0.004805258499999798,0.04422799150000012,-0.050308114499999945
186842.0,-2.1829602899999996,1.6171165849999998,9.330635208999999,0.08826479093185723,0.4283544129877163,0.38414347770544793,9.718082891220336,0.582103416849559,-0.03236194499999989,0.10414662299999988,0.02755668649999876
186852.0,-2.23199354,1.7632356699999998,9.489895205,0.12317137597174382,0.43688034638370865,0.370287308773865,9.907012980330855,0.5857886273683653,-0.04903325000000036,0.14611908500000004,0.15925999600000118
186862.0,-2.2367987984999997,1.8242330329999998,9.637093021499998,0.1642058120153825,0.4134318478831648,0.3668245755379082,10.06005253111053,0.5765845217852157,-0.004805258499999798,0.06099736300000003,0.14719781649999852
186872.0,-2.2475861134999997,1.8446308649999998,9.758009015999999,0.20204455019861955,0.3601399645027699,0.3670898655842113,10.181996185525016,0.5525194690792834,-0.010787314999999964,0.020397832000000005,0.12091599450000068
186882.0,-2.1698193789999998,1.867382293,9.797529815499999,0.23268729587588402,0.28739638660889827,0.3617613753778727,10.207194680778128,0.5173116598465307,0.07776673449999993,0.022751428000000073,0.03952079949999998
186892.0,-2.091954578,1.9175923409999998,9.712506159999998,0.24521003325894333,0.23223874625812146,0.36575817936493965,10.11860712997174,0.49783716358539526,0.0778648009999996,0.05021004799999984,-0.08502365550000057
186902.0,-2.0536105765,1.9775109724999997,9.5556978265,0.23695113523850617,0.21651682035615655,0.38227946606431795,9.971921930984387,0.49916226235802025,0.03834400150000006,0.059918631499999986,-0.156808333499999
186912.0,-2.0369392715,1.9846698269999998,9.4407638885,0.2193634523661593,0.2399653188567004,0.39959836823185774,9.859820420088226,0.5151529232971133,0.016671305000000025,0.007158854500000089,-0.11493393800000007
186922.0,-2.0991134325,1.9786877704999999,9.359368693499999,0.2023098402449227,0.2887280728281699,0.4209158197157165,9.793838105487351,0.549056735489101,-0.06217416099999973,-0.005982056499999944,-0.0813951950000007
186932.0,-2.151775143,1.9415205669999998,9.367704346,0.17779494557141035,0.34841484258787203,0.43477198864729943,9.805790283918169,0.5848338459071943,-0.052661710500000236,-0.037167203500000134,0.008335652500001345
186942.0,-2.2105169764999997,1.9343617124999999,9.38692538,0.149284992240083,0.4009091105001055,0.435838384820268,9.835776971234594,0.6107120610179951,-0.05874183349999962,-0.007158854499999867,0.019221033999999193
186952.0,-2.2332684045,1.9320081164999998,9.4156588645,0.12077329357950363,0.4331505777721967,0.4355713494447128,9.867865776417778,0.6260415416915374,-0.022751428000000296,-0.002353596000000069,0.028733484500000017
186962.0,-2.2715143395,1.9775109724999997,9.470674171,0.09705775970340466,0.4443416289359844,0.4406345496047484,9.9380076622107,0.6332602136795801,-0.03824593499999995,0.045502855999999925,0.055015306500001415
186972.0,-2.2823016545,2.000164334,9.494602397,0.08826479093185723,0.43554866016443694,0.4523579261903943,9.967799801473605,0.6341301144690692,-0.010787314999999964,0.02265336150000019,0.023928225999998887
186982.0,-2.2726911375,1.9511310839999998,9.4766562275,0.09306095571633764,0.4126324870857514,0.4662140951219773,9.938765052441706,0.6295089303320606,0.00961051700000004,-0.04903325000000014,-0.017946169500000053
186992.0,-2.3266277124999997,1.9223975995,9.432428236,0.11437840720019639,0.38492014922258544,0.4808696248509737,9.903510058076703,0.6264834693872676,-0.05393657499999982,-0.028733484499999795,-0.044227991499999675
187002.0,-2.3289813085,1.891310519,9.3713328065,0.1471521998941459,0.35880827828349826,0.4979232369722103,9.839872356123609,0.631129701737558,-0.002353596000000291,-0.031087080500000086,-0.06109542949999991
187012.0,-2.357714793,1.8553201135,9.340245726,0.1764632593521387,0.35561083509384467,0.5093813235115531,9.810261056197737,0.6458077737838894,-0.028733484500000017,-0.03599040549999999,-0.031087080500000752
187022.0,-2.5037358114999995,1.8242330329999998,9.418012460499998,0.1868549497185129,0.3771935766240065,0.5149768490934469,9.91440759090573,0.6651247413703184,-0.1460210184999995,-0.031087080500000086,0.07776673449999905
187032.0,-2.6258286039999996,1.697334982,9.5113717685,0.17246645536507169,0.39051742013373125,0.4979232369722103,10.01209842227514,0.6558781011521739,-0.12209279250000016,-0.12689805099999973,0.09335930800000192
187042.0,-2.7874421959999998,1.6230986414999997,9.596395423999999,0.13995795271742528,0.4001097497026921,0.45635473017746137,10.123985792653432,0.6228448282608979,-0.16161359200000014,-0.07423634050000039,0.0850236554999988
187052.0,-2.911986651,1.534544592,9.6239521105,0.09226159491892424,0.4083703930523812,0.4033298821726216,10.171280528312845,0.5813377449229672,-0.12454445500000011,-0.08855404949999968,0.027556686500000538
187062.0,-2.8724658515,1.4710955665,9.550892568,0.03390651137849384,0.42409057362509417,0.3449730533029392,10.081405213524908,0.5477306579484792,0.03952079949999998,-0.06344902549999998,-0.07305954249999935
187072.0,-2.7767529475,1.4662903079999998,9.4503744055,-0.02284985056710976,0.4632609980276029,0.3055373388541273,9.958410546011555,0.5554151000814902,0.09571290399999999,-0.004805258500000242,-0.10051816250000023
187082.0,-2.8018579715,1.4591314535,9.3929074365,-0.06335370651814216,0.5154882305642812,0.29434628769033966,9.909903269038912,0.5969770054675176,-0.025105024000000142,-0.007158854499999867,-0.057466969000000034
187092.0,-2.7731244869999996,1.3226228854999997,9.425171314999998,-0.09426174224170976,0.5501277802286126,0.3058043742296825,9.913294358322371,0.6364292308872299,0.02873348450000046,-0.13650856800000022,0.032263878499998455
187102.0,-2.9299328204999995,1.2483865449999998,9.446745945,-0.09452877761726489,0.560786505970542,0.3273871157598443,9.969151631295116,0.6562008218845911,-0.1568083334999999,-0.07423634049999994,0.021574630000001704
187112.0,-3.1394028645,1.2412276904999997,9.572467198,-0.06681643975409891,0.5304090503395807,0.3519020104333567,10.15030170891884,0.6400259543569989,-0.20947004400000058,-0.007158854500000089,0.12572125300000003
187122.0,-3.2782650284999995,1.1694430125,9.756832218,-0.009527752386637046,0.46965588440691014,0.3705543441494201,10.359073003255357,0.5983125853528278,-0.1388621639999994,-0.07178467799999977,0.18436501999999955
187132.0,-3.444683879,1.1011887285,9.862155639,0.06295053546093148,0.37985869439180187,0.3852098738784165,10.504312328271538,0.5446485514102538,-0.16641885050000038,-0.068254284,0.10532342099999958
187142.0,-3.732018724,1.1275686169999999,9.9734611165,0.13356306633811807,0.2985874377726859,0.4038622075944799,10.708375291549475,0.5197097588158076,-0.28733484500000017,0.02637988849999995,0.1113054775000002
187152.0,-4.0420069304999995,1.1107992455,10.198523734,0.19245047530040674,0.2269085107225308,0.417985411901618,11.02640382640572,0.5130657484613785,-0.3099882064999995,-0.016769371499999908,0.22506261750000078
187162.0,-4.3389522925,1.048527018,10.465460747,0.2294898526862304,0.1624255761783483,0.4062602899867201,11.377688014314014,0.494059797497135,-0.29694536200000066,-0.062272227500000055,0.2669370129999997
187172.0,-4.70523067,1.116781302,10.7444599395,0.2553364335790144,0.10673386507646124,0.37508347355834537,11.78260648268989,0.4661291928249127,-0.3662783774999996,0.068254284,0.2789991925000006
187182.0,-4.948239457,1.163460956,10.974229749,0.2774532458602866,0.03931877738892826,0.32498903336760415,12.094314106380098,0.4291201949372442,-0.24300878699999995,0.04667965400000007,0.2297698094999987
187192.0,-5.0834731605,1.2759432314999999,11.1837978595,0.28651325000738914,-0.03422416130235681,0.26690098520272887,12.350994497031051,0.39306140938641343,-0.13523370349999997,0.1124822754999999,0.20956811050000113
187202.0,-5.199681963,1.533367794,11.283139224,0.27318940649766443,-0.10910053154216555,0.21627247426087737,12.517872824733093,0.36511527074096894,-0.1162088025000001,0.2574245625,0.09934136449999897
187212.0,-5.2450867525,1.740484242,11.1777177365,0.2348183428925691,-0.16532456806591087,0.17390460666871502,12.46922588755084,0.3357300689327553,-0.04540478950000004,0.20711644800000006,-0.10542148749999924
187222.0,-5.2666613825,1.8529665174999999,10.983840265999998,0.17699558477399696,-0.18983946273942323,0.1389980216288284,12.321361695116972,0.2944264061856719,-0.021574629999999928,0.1124822754999999,-0.19387747050000215
187232.0,-5.2295922455,1.9427954315,10.776723817999999,0.1058507284749521,-0.18850603119089954,0.12301080568056035,12.135108791943296,0.24873793202526026,0.037069136999999586,0.08982891400000015,-0.20711644799999895
187242.0,-5.2223353244999995,1.8936641149999998,10.5396970875,0.049893727326761894,-0.18211114481159235,0.10888760137342224,11.914023867619841,0.21796871982925287,0.007256921000000638,-0.049131316500000244,-0.23702673049999845
