timestamp,ax,ay,az,gx,gy,gz,acc_mag,gyro_mag,dax,day,daz
49412.0,-1.061667929,-1.5508236309999999,10.655219424499998,-0.014631095119468465,0.1909809080702275,-0.01664171441776593,10.81969933547958,0.1922621201653776,0.0,0.0,0.0
49422.0,-0.5911448619999999,-2.2954425654999997,10.7389682155,-0.04607320159414632,0.20776748481590898,0.007073819458333018,10.997451848173625,0.21293216425329667,0.470523067,-0.7446189344999998,0.08374879100000143
49432.0,-0.326561445,-2.395960728,10.826345467,-0.058330648930902486,0.22935197167532287,0.04677656928270003,11.09310715527035,0.24123191942592825,0.26458341699999993,-0.10051816250000023,0.08737725149999953
49442.0,-0.186522483,-2.417535358,10.8168330165,-0.05593256653866228,0.21762684976042493,0.09047612309413405,11.085266995011404,0.24223093647672947,0.14003896200000002,-0.021574629999999928,-0.009512450499999048
49452.0,-0.024908891,-2.4486224384999997,10.8407612425,-0.03461511505480354,0.17659241371678627,0.13790719084633196,11.113886656614177,0.22671894508334436,0.161613592,-0.031087080499999864,0.023928225999998887
49462.0,0.149845612,-2.5300176335,10.861061008,0.001090830782496456,0.11024197687296983,0.17201441508880513,11.152851166977642,0.20431211999046997,0.17475450299999998,-0.08139519500000025,0.020299765500000788
49472.0,0.395207995,-2.5288408354999996,10.834779186,0.03546334507127278,0.02950479100496414,0.19572820363565208,11.132998937392525,0.20109130074254847,0.245362383,0.0011767980000003675,-0.02628182199999962
49482.0,0.6538093554999999,-2.477355923,10.758091183000001,0.05731312197698979,-0.04590390465670286,0.21864437671433765,11.058991135917637,0.23064545493523642,0.2586013604999999,0.051484912499999425,-0.07668800299999923
49492.0,0.8979949405,-2.3936071319999996,10.705429472499999,0.06504143990482068,-0.09733177639596777,0.24529031840453508,11.00645129940602,0.2717925751456159,0.2441855850000001,0.08374879100000054,-0.05266171050000246
49502.0,1.039308767,-2.2164009664999997,10.614521826999999,0.06317568293443875,-0.11971387872354305,0.2873911506211423,10.893147826653442,0.3176731860396971,0.14131382650000013,0.1772061654999999,-0.09090764549999975
49512.0,1.1278628165,-2.0404696655,10.480366855,0.050918235597682576,-0.12344539266430693,0.34734670108565147,10.736558126515758,0.37213057176414693,0.0885540494999999,0.17593130099999987,-0.13415497199999926
49522.0,1.1685604139999999,-1.9171020085,10.3331690385,0.041325906028721736,-0.11625114548758632,0.4144947533976293,10.57427046799814,0.43246740909626036,0.040697597499999905,0.12336765699999996,-0.1471978165000003
49532.0,1.224850585,-1.907589558,10.202642527,0.04185823145058001,-0.09546601942558584,0.4837755980555442,10.451462644583026,0.49487847162625304,0.05629017100000011,0.009512450499999936,-0.1305265114999994
49542.0,1.2416199565,-1.9123948164999998,10.108106420999999,0.047188466986170685,-0.06055943438569925,0.5514559757893803,10.362079398885946,0.5567745412134416,0.016769371499999908,-0.004805258499999798,-0.0945361060000014
49552.0,1.1937635045,-1.864440298,10.071037284,0.05837951814995833,-0.023521802329127577,0.6223355420421222,10.311498480104653,0.6255101679534025,-0.047856451999999994,0.047954518499999654,-0.03706913699999781
49562.0,1.0464676215,-1.77108099,10.1129116795,0.08049633043123047,0.017514379043763097,0.7057378456779231,10.32001962175241,0.710529604948519,-0.14729588299999996,0.09335930800000014,0.04187439549999894
49572.0,0.7208868415,-1.669287963,10.2577559,0.1047441897291877,0.04522671690692906,0.8053944006375473,10.417665585228264,0.8134352720299984,-0.3255807799999999,0.10179302700000004,0.14484422049999957
49582.0,0.2815489215,-1.7531348205,10.3894592095,0.117266927112247,0.040163516746893516,0.9047856655508685,10.540095547949825,0.9132369576720792,-0.43933792000000005,-0.08384685749999998,0.13170330950000064
49592.0,-0.1709299095,-2.0129129789999998,10.511552001999998,0.11939971945818408,0.004190535534038385,0.9895196554059412,10.703913358474951,0.9967060760472205,-0.45247883099999997,-0.25977815849999986,0.12209279249999838
49602.0,-0.624683605,-2.282203588,10.592947196999999,0.11939971945818408,-0.056562630398632234,1.0481417743219266,10.853995261739614,1.056435896419192,-0.4537536955,-0.269290609,0.0813951950000007
49612.0,-1.0927550095,-2.5479638029999996,10.601282849499999,0.13325588838976707,-0.13703452622033477,1.0750547513876791,10.957802293675881,1.091914974550767,-0.46807140450000007,-0.2657602149999998,0.008335652499999568
49622.0,-1.432751565,-2.7814601394999996,10.595300792999998,0.16336630864517324,-0.21723938666648218,1.0681275395865137,11.047610440669226,1.1021696524322917,-0.33999655549999996,-0.2334963365,-0.00598205650000061
49632.0,-1.7284220624999997,-2.970630418,10.591770399,0.21532650580629642,-0.31449785923386625,1.0268260681673198,11.135424917425299,1.0952836079451709,-0.29567049749999974,-0.18917027850000023,-0.003530393999998438
49642.0,-1.8601253719999997,-2.9478789899999995,10.582159882,0.27794542870934896,-0.39896655904263584,0.9596762705260901,11.141461515773045,1.0758282952151845,-0.13170330949999998,0.022751428000000296,-0.009610517000000485
49652.0,-1.8468863944999998,-2.764690768,10.583336679999999,0.31178561757626705,-0.43174209706583727,0.8967920575767343,11.09330968102338,1.0429992829522625,0.013238977499999915,0.18318822199999962,0.0011767979999994793
49662.0,-1.7355809169999998,-2.5384513525,10.5534263975,0.29046816609240833,-0.3789825391073007,0.8578886685497807,10.992305723364568,0.9818210061347329,0.11130547749999997,0.22623941549999982,-0.029910282499999497
49672.0,-1.7392093775,-2.2966193635,10.543815880499999,0.22278604302932017,-0.24282067751296307,0.8458965112593276,10.930295653891118,0.9078195911948685,-0.003628460500000097,0.24183198900000002,-0.009610517000000485
49682.0,-1.81815291,-2.2834784525,10.5546031955,0.13805205317424749,-0.0765466503339673,0.8568222723768123,10.95078090647567,0.8712417376962265,-0.07894353250000008,0.013140911000000255,0.01078731500000174
49692.0,-1.9606435345,-2.369678906,10.6240342775,0.058646553525513456,0.082796674385359,0.8648158803509463,11.060271493793131,0.8707475032619263,-0.14249062449999994,-0.08620045350000005,0.06943108199999948
49702.0,-2.1246107225,-2.489320036,10.67551919,-0.008236208740161241,0.20110730839029864,0.8578886685497807,11.16590322991612,0.8811838356713756,-0.16396718799999999,-0.1196411300000002,0.051484912499999425
49712.0,-2.301816888,-2.5515922634999995,10.7736837565,-0.06126280207425296,0.26345919591779604,0.8363041816903669,11.308459035169514,0.8789587949070394,-0.1772061654999999,-0.06227222749999939,0.09816456650000127
49722.0,-2.4921639645,-2.6964364839999995,10.8431148385,-0.09217258312707255,0.25812896038220534,0.800865271228622,11.447916419117389,0.8464700395929022,-0.19034707650000016,-0.1448442205,0.06943108199999948
49732.0,-2.5843464744999998,-2.8819783019999994,10.8801839755,-0.09537002631672614,0.1853853824883337,0.7499714702404674,11.548292037101692,0.7784088823585245,-0.09218250999999977,-0.18554181799999991,0.037069136999999586
49742.0,-2.5878768685,-3.019663668,10.837132782,-0.07485193563028082,0.07053922704860283,0.6780255078147571,11.543782841385038,0.6857821695463315,-0.0035303940000002143,-0.1376853660000008,-0.043051193500000196
49752.0,-2.4753945929999994,-2.9837713289999996,10.734162957,-0.03301639345997673,-0.07148519550318375,0.5948902395545113,11.412831555851819,0.6000788385957767,0.11248227550000056,0.03589233900000055,-0.10296982499999885
49762.0,-2.2838707185,-2.8161756805,10.5677441065,0.025603980126756815,-0.20551601008083628,0.5216125909095293,11.172471813467546,0.5612237425423391,0.19152387449999964,0.16759564849999986,-0.16641885050000127
49772.0,-2.0767542705,-2.5839542085,10.420546289999999,0.08848993840536451,-0.2974442471126296,0.49469961384377675,10.935150325153176,0.5839788157772217,0.20711644799999984,0.23222147199999998,-0.1471978165000003
49782.0,-1.911512218,-2.290637307,10.2733484735,0.14524630035096808,-0.34194316172147704,0.513084912184285,10.697784214020597,0.6334648693691539,0.16524205250000001,0.2933169014999999,-0.14719781649999852
49792.0,-1.7427397715,-2.1338289735,10.224217157,0.1825509677830949,-0.34460827948927236,0.5535887681353174,10.588908559091871,0.677155998523737,0.1687724465,0.1568083334999999,-0.049131316500000466
49802.0,-1.651832126,-1.9865330904999998,10.1846963575,0.19294265814946915,-0.313965533812008,0.6031491375749484,10.507278571857269,0.7068168842869036,0.09090764549999997,0.14729588300000018,-0.03952079949999998
49812.0,-1.5811261795,-1.8476709264999998,10.191855211999998,0.18388265400236659,-0.2593402188830894,0.6428536327285674,10.477965475725961,0.7171687198181462,0.07070594649999995,0.13886216400000007,0.007158854499998313
49822.0,-1.5895598985000001,-1.7088087624999997,10.219411898499999,0.17935352459344128,-0.18872768800590284,0.6774931823928989,10.482514374372183,0.7257980705354633,-0.008433719000000117,0.13886216400000007,0.027556686500000538
49832.0,-1.6745835539999998,-1.6226083089999999,10.306789149999998,0.1902792857109258,-0.12957324366805903,0.7006746455178875,10.567260306546858,0.7375231460211534,-0.08502365549999968,0.08620045349999983,0.08737725149999953
49842.0,-1.7619608054999998,-1.6430061409999999,10.407405379,0.21505947043074128,-0.09893049799079459,0.7025404024882695,10.682605570848343,0.7413506838083022,-0.08737725149999997,-0.020397832000000005,0.10061622900000167
49852.0,-1.850514855,-1.6920393909999998,10.592947196999999,0.25982542041514384,-0.10799050213789715,0.6841551041477612,10.885675580674883,0.7397563140503333,-0.08855404950000012,-0.04903324999999992,0.18554181799999903
49862.0,-1.894840913,-1.664580771,10.710234731,0.31711410778260574,-0.14849261275967754,0.6601725348961072,11.003198590495414,0.7472878891231314,-0.044326058,0.027458619999999767,0.1172875340000008
49872.0,-1.9127870825,-1.4754104925,10.826345467,0.3754691913230361,-0.1860643155673595,0.6604395702716623,11.092580705822671,0.7821620478781508,-0.017946169500000053,0.1891702785,0.11611073599999955
49882.0,-1.919945937,-1.295850731,10.941279404999998,0.42609770226488763,-0.20178449614007243,0.699609994674171,11.183783641340401,0.8436411437370236,-0.007158854500000089,0.17955976149999997,0.11493393799999829
49892.0,-2.0551796405,-1.3604765545,11.1424137965,0.4428842790105691,-0.1860643155673595,0.7515701918352942,11.411750304948994,0.8919776720174123,-0.13523370349999997,-0.0646258234999999,0.2011343915000019
49902.0,-2.150990611,-1.2970275289999997,11.293240073499998,0.41090984711403294,-0.13143900063844097,0.830441620732918,11.569196704062916,0.935818571513531,-0.09581097050000009,0.0634490255000002,0.1508262769999984
49912.0,-2.3772300265,-1.460994717,11.381794122999999,0.3288392296975036,-0.09253561161148735,0.8832011786914546,11.71882953286515,0.9469648359080364,-0.22623941549999982,-0.1639671880000002,0.08855404950000079
49922.0,-2.5411972145,-1.8381584759999998,11.3985634945,0.21505947043074128,-0.0656226345457348,0.9050527009264235,11.82217237245428,0.932564902535415,-0.16396718799999999,-0.3771637589999999,0.016769371500000574
49932.0,-2.728013897,-2.1373593674999998,11.311186242999998,0.10767459754328616,-0.06775368156241987,0.8832011786914546,11.83018592888115,0.892316481055542,-0.18681668249999994,-0.29920089149999995,-0.08737725150000131
49942.0,-2.869229657,-2.3421222194999998,11.135254942,0.03786142746351299,-0.10026218421006626,0.8267118521214061,11.735072131820042,0.8336297017922009,-0.14121576000000013,-0.204762852,-0.17593130099999854
49952.0,-2.939837537,-2.39478393,10.8215402085,0.019476129123004723,-0.1325036514821575,0.7454405955022901,11.466619698041907,0.7573758767511215,-0.07060787999999985,-0.052661710500000236,-0.31371473349999945
49962.0,-2.9218913675,-2.4366583255,10.546267542999999,0.04239230220169027,-0.15328877754415798,0.6553763701116267,11.211534776614426,0.6743980598338297,0.017946169500000053,-0.04187439549999983,-0.27527266550000107
49972.0,-2.8859990284999997,-2.4127300995,10.400148457999999,0.08475842446460062,-0.14129836558295694,0.5701083095054438,11.059536376990492,0.5934414067128205,0.035892339000000106,0.023928225999999775,-0.14611908500000048
49982.0,-2.7842060015,-2.300247824,10.274525271499998,0.12286419802339282,-0.10639178054307033,0.5002951394256706,10.890767312971914,0.5260323646468985,0.10179302699999981,0.11248227550000012,-0.12562318650000037
49992.0,-2.6178852175,-2.1398110299999997,10.320028127499999,0.14311525333428302,-0.05603030497677396,0.4584613425846185,10.859792576679622,0.4835371479599238,0.16632078399999983,0.16043679400000022,0.04550285600000059
50002.0,-2.462253682,-2.058415835,10.443297718,0.15723671231216915,0.0007260569688296411,0.44247238130709843,10.92530256656928,0.46958036487595617,0.15563153549999997,0.08139519499999981,0.12326959050000141
50012.0,-2.3784068245,-1.931517784,10.6479625035,0.16629671645927172,0.05028817173771262,0.4491343030619608,11.080012881250564,0.48156528146120575,0.0838468575000002,0.12689805099999996,0.20466478550000033
50022.0,-2.368894374,-1.850122589,10.883812436,0.1638986340670315,0.07267201939453989,0.4664549505587525,11.291234976366631,0.49972412944812594,0.009512450499999936,0.08139519500000003,0.23584993249999897
50032.0,-2.358107059,-1.8106017894999997,11.0980877385,0.14338054338058617,0.06654242306153581,0.4883047274644695,11.489408130678024,0.5132517716980258,0.010787314999999964,0.0395207995000002,0.21427530250000082
50042.0,-2.3436912835,-1.8106017894999997,11.180659731499999,0.10234610733694749,0.04495968153137393,0.5042919434127375,11.566257808992505,0.5165331188233957,0.014415775499999839,0.0,0.0825719929999984
50052.0,-2.3521250025,-1.8453173305,11.0992645365,0.044256313842820215,0.017514379043763097,0.5109538651676,11.494840639558072,0.5131658865493232,-0.008433718999999673,-0.03471554100000018,-0.08139519499999892
50062.0,-2.3353556309999997,-1.907589558,10.882635638,-0.019427259903948883,-0.008866272600131194,0.503227292569021,11.292676488525725,0.5036801933802266,0.01676937150000013,-0.062272227500000055,-0.21662889849999978
50072.0,-2.2719066055,-1.9710385835,10.583336679999999,-0.06952170009469012,-0.024586453172844122,0.483241527304434,11.00243463984193,0.488835487843506,0.06344902549999976,-0.06344902549999998,-0.2992989580000014
50082.0,-2.222775289,-1.9913383489999998,10.323558521499999,-0.0879087437644504,-0.02032435913947397,0.45739494641164996,10.746256043498235,0.46620935619911175,0.04913131650000002,-0.0202997654999999,-0.25977815849999963
50092.0,-2.2179700305,-1.9674101229999998,10.140468366,-0.06872233929727672,0.0017924531417981763,0.4400742989148583,10.564998453862914,0.4454114517748276,0.004805258499999798,0.023928225999999997,-0.18309015549999863
50102.0,-2.221598491,-1.853652983,10.0805497345,-0.028754299426606577,0.04735776392361414,0.4382102872737283,10.48756464515601,0.44169879263122647,-0.003628460499999875,0.11375713999999992,-0.05991863150000043
50112.0,-2.2383678625,-1.734011853,10.1152652755,0.01547932513593771,0.10944261607555643,0.45739494641164996,10.504079178488395,0.47056076411345843,-0.01676937150000013,0.11964112999999998,0.03471554100000063
50122.0,-2.3066221465,-1.7147908189999999,10.267268350499998,0.050918235597682576,0.1768577037630894,0.49043577448115466,10.66197977210752,0.5238306625119074,-0.068254284,0.01922103400000008,0.15200307499999788
50132.0,-2.4933407624999995,-1.6992963119999998,10.515082396,0.06530672995112383,0.2365462188520435,0.5280074772888366,10.939438464043297,0.582246493079202,-0.1867186159999994,0.015494507000000102,0.24781404550000197
50142.0,-2.8034270355,-1.7184192795,10.812027758,0.06051056516664341,0.27118576851637494,0.5554527797764474,11.30097837372022,0.6210724918268286,-0.31008627300000047,-0.0191229675000002,0.2969453619999989
50152.0,-3.0619303295,-1.8429637345,11.0226746,0.0410588706531666,0.2701211176726584,0.5626470269531679,11.587548835145393,0.6254781579010401,-0.25850329400000005,-0.12454445500000011,0.21064684200000094
50162.0,-3.3145496335,-1.9518175495,11.220180530999999,0.012281881946284098,0.24347343065320895,0.5477262071778685,11.86120913599042,0.5995282763036608,-0.252619304,-0.10885381500000002,0.19750593099999847
50172.0,-3.4749864274999998,-2.091954578,11.263329790999999,-0.02449046006398443,0.19817515524694815,0.5114861905894582,11.971399358828208,0.5490822324160682,-0.16043679399999977,-0.1401370285000001,0.043149259999999856
50182.0,-3.5552048245,-2.200808393,11.204686023999999,-0.06579193148317825,0.15127815824586052,0.4581943072090634,11.959432587847477,0.48698632688130006,-0.08021839700000033,-0.1088538149999998,-0.058643766999999514
50192.0,-3.5563816224999996,-2.3133887349999998,11.045426028,-0.10362892433716332,0.1177032594252456,0.3966417804789793,11.832204098311543,0.42651812770401565,-0.0011767979999994793,-0.11258034199999978,-0.1592599959999994
50202.0,-3.4977378554999996,-2.3911554694999997,10.8670430645,-0.1289431798080891,0.10304772969624922,0.3321571006055448,11.663808106738342,0.370909042350351,0.05864376699999996,-0.07776673449999993,-0.17838296349999894
