timestamp,ax,ay,az,gx,gy,gz,acc_mag,gyro_mag,dax,day,daz
31822.0,-0.273017136,0.996159507,10.034262346499998,0.03976034568968282,-0.027092745978707977,0.028019515811516967,10.08728372547951,0.05567760088529072,0.0,0.0,0.0
31832.0,-0.803360768,0.9446745944999999,10.175576173,-0.026321310449326483,-0.025494024383881174,0.02615375884113503,10.250860893875236,0.045019726393837625,-0.530343632,-0.05148491250000009,0.14131382650000113
31842.0,-0.111403544,1.0631389265,9.992387951,-0.07055493501187078,0.025932102026131748,0.0376118453804778,10.049402573782448,0.08405429009246336,0.691957224,0.11846433200000006,-0.18318822200000007
31852.0,0.038245934999999995,1.2906532065,9.8679415625,-0.09933192371875328,0.1165303981679054,0.052799700531332455,9.952061049446376,0.16196904995411063,0.14964947899999997,0.22751428000000007,-0.12444638849999912
31862.0,0.035794272499999995,1.449815136,9.7900767615,-0.13343914796122647,0.23270823982690794,0.09703332509387674,9.896911041056237,0.2852623306199572,-0.0024516625,0.15916192949999997,-0.07786480100000048
31872.0,-0.019221033999999998,1.427063708,9.849995393,-0.15449130939878206,0.3318307240354219,0.15432201246133861,9.952853335449085,0.39723353033667747,-0.05501530649999999,-0.022751428000000073,0.05991863150000043
31882.0,-0.10787314999999999,1.2654501159999998,10.051031717999999,-0.14463194445426608,0.3925856352973445,0.20122075479167825,10.130954506304791,0.4642538880368954,-0.08865211599999999,-0.16161359200000014,0.20103632499999868
31892.0,-0.273017136,1.1421805255,10.3312077085,-0.11238873185292286,0.39711476470626983,0.22919838270114734,10.39773857266814,0.4720839565459155,-0.16514398600000002,-0.12326959049999986,0.2801759905000001
31902.0,-0.46218741449999995,1.054803274,10.5646059785,-0.07641749596931972,0.3328971202083904,0.23692670062897822,10.62718808687986,0.41568544333930435,-0.18917027849999996,-0.08737725149999997,0.23339827000000035
31912.0,-0.6118368934999999,0.9494798529999999,10.741812143999999,-0.052169636671362506,0.20685991360487194,0.22360285711925354,10.80103627030696,0.3090484307660053,-0.14964947899999997,-0.10532342100000003,0.17720616549999946
31922.0,-0.6716574584999999,0.8621026015,10.685521973,-0.050570915076535695,0.04698251813443536,0.19562522920978445,10.741262703822933,0.207446390099494,-0.05982056499999999,-0.08737725149999997,-0.05629017099999878
31932.0,-0.628606265,0.7890430589999999,10.5191031225,-0.0598962092699414,-0.10916336339523733,0.15672009485357882,10.567367945100738,0.20016339306572517,0.04305119349999986,-0.07305954250000002,-0.1664188504999995
31942.0,-0.5316184964999999,0.7519739219999999,10.2139201745,-0.06442533867886668,-0.22027800489420435,0.12501269833259784,10.2553521800203,0.2613449797651658,0.09698776850000013,-0.03706913700000003,-0.30518294800000056
31952.0,-0.4118793,0.8189533415,9.8822592715,-0.058030452299559464,-0.2621135470645084,0.10875844700877464,9.924685256594802,0.28965400868033947,0.11973919649999992,0.06697941950000008,-0.3316609029999995
31962.0,-0.3113611375,0.9159411099999999,9.633268428,-0.05163556592025224,-0.24212952712917332,0.10982309785249118,9.6817227021246,0.2708395325605545,0.10051816250000001,0.0969877684999999,-0.24899084350000145
31972.0,-0.2311427405,0.9614439659999999,9.493229465999999,-0.04843812273059863,-0.18084229044539243,0.12607734917631438,9.544590465827975,0.22571150551650332,0.080218397,0.045502856000000036,-0.1400389620000002
31982.0,-0.23830159499999998,0.963797562,9.464495981499999,-0.04524067954094502,-0.0987716730288631,0.14979288305241334,9.516426723015647,0.18504180687455768,-0.007158854499999978,0.002353596000000069,-0.028733484500000017
31992.0,-0.3268556445,0.9434977965,9.529121804999999,-0.04390899332167334,-0.026560420556849706,0.1697769029877484,9.581293497167712,0.17736305258646967,-0.08855404950000001,-0.02029976550000001,0.06462582350000012
32002.0,-0.4070740415,0.847686826,9.6620019125,-0.04604004033835842,0.01554041165975751,0.1753741738988942,9.70765487578698,0.18198156659297113,-0.080218397,-0.09581097049999998,0.13288010750000012
32012.0,-0.49572615749999993,0.7327528879999999,9.7888999635,-0.04923748352801203,0.02859721979392709,0.1668464951736499,9.82879614772391,0.17629487716846515,-0.08865211599999995,-0.11493393800000007,0.1268980510000013
32022.0,-0.524459642,0.662145008,9.872746821,-0.04950451890356716,0.006747442888210078,0.1425986358756927,9.908815454900333,0.15109796931465255,-0.028733484500000017,-0.07060787999999996,0.08384685749999932
32032.0,-0.5160259229999999,0.6238010064999999,9.8810824735,-0.04870515810615376,-0.035088099282094005,0.11009013322804632,9.91419191346563,0.12539220299342582,0.008433719000000006,-0.03834400150000006,0.008335652499999568
32042.0,-0.4394359865,0.628606265,9.7565380185,-0.04630707571391355,-0.07665486074759097,0.07838099137781335,9.786638029939821,0.11901215377756817,0.07658993649999996,0.004805258500000131,-0.12454445499999878
32052.0,-0.35441233099999997,0.6920552904999999,9.602181347499998,-0.03591538534753931,-0.09237678664955587,0.055464818299127805,9.633609669057117,0.1135769857203257,0.08502365550000002,0.06344902549999987,-0.15435667100000217
32062.0,-0.30175062049999996,0.8417047695,9.5447143785,-0.018327702475192456,-0.07852061771797289,0.051735049687615914,9.5865057723404,0.0958013958719355,0.052661710500000014,0.14964947900000003,-0.05746696899999826
32072.0,-0.2682118775,0.9362408754999999,9.554226829,-0.0036721727461960694,-0.04254763650511777,0.06798930101143912,9.60373546533704,0.08028904829971277,0.03353874299999998,0.09453610599999995,0.009512450499999048
32082.0,-0.2754687985,0.9734080789999999,9.6871069365,0.006719517620178169,-0.0023125612588924867,0.09650099967201847,9.739786812163596,0.09676230048072919,-0.007256921000000027,0.03716720350000002,0.13288010750000012
32092.0,-0.35441233099999997,1.0093004179999998,9.8020408745,0.0032550390549694248,0.02353401963389154,0.13034118853893653,9.860238371333045,0.13248875721781214,-0.07894353249999997,0.035892338999999884,0.11493393800000007
32102.0,-0.41668455849999997,0.963797562,9.934920982,-0.009801769079200155,0.025399776604273477,0.15778649102654735,9.990254585364346,0.16011808167443073,-0.0622722275,-0.045502855999999814,0.13288010750000012
32112.0,-0.492097697,0.871615052,9.958849207999998,-0.021259855618542926,0.0032829643230013338,0.17084329916071694,10.009023453361864,0.17219231162797488,-0.07541313850000003,-0.09218251,0.023928225999998887
32122.0,-0.5543699244999999,0.7759021479999999,10.001998467999998,-0.023657938010783135,-0.02735978135426311,0.1625826558110278,10.047354055189627,0.16655742444347016,-0.06227222749999989,-0.0957129040000001,0.043149259999999856
32132.0,-0.5902622635,0.6980373469999999,9.958849207999998,-0.017263051631475915,-0.06493148416194504,0.13673607491824374,10.000717135545887,0.1523511233012461,-0.035892339000000106,-0.07786480100000004,-0.043149259999999856
32142.0,-0.6130136915,0.6825428399999999,9.9493367575,-0.003939208121751202,-0.10143679079665843,0.10023076828353035,9.991544046269441,0.14265744564675997,-0.022751427999999962,-0.01549450699999999,-0.009512450499999048
32152.0,-0.597421118,0.7267708314999999,9.9038339015,0.008585274590560106,-0.12328656770237545,0.06958802260626591,9.948418657367224,0.1418301011981515,0.015592573499999984,0.04422799150000001,-0.045502855999998815
32162.0,-0.573492892,0.7854145985,9.914621216499999,0.020041615800650888,-0.13580930508543476,0.050668653514647374,9.962202771244085,0.14633231413695671,0.023928225999999997,0.05864376700000007,0.010787314999998188
32172.0,-0.5220079795,0.8393511735,9.8906929905,0.02803696910403691,-0.14193890141843885,0.04427376713534016,9.9399602894299,0.15130396501337415,0.05148491249999998,0.05393657500000004,-0.023928225999998887
32182.0,-0.45973575199999994,0.868084658,9.8654899,0.0248395259143833,-0.14167186604288373,0.04720417494943864,9.91427349340959,0.1513808237802309,0.062272227500000055,0.028733484500000017,-0.025203090499999803
32192.0,-0.3711817025,0.8608277369999999,9.784094705,0.012582078577627121,-0.12168784610754864,0.052799700531332455,9.828901741571556,0.13324432058375477,0.08855404949999995,-0.007256921000000083,-0.0813951950000007
32202.0,-0.2886097095,0.8692614559999999,9.7757590525,-0.005270894341022875,-0.08145102553207137,0.06106034388102162,9.818573017289255,0.10193339728591892,0.08257199300000001,0.008433719000000006,-0.008335652499999568
32212.0,-0.29341496799999994,0.858474141,9.7745822545,-0.023657938010783135,-0.03881786789360588,0.06798930101143912,9.81659454414811,0.08178673456466869,-0.004805258499999965,-0.010787314999999964,-0.0011767979999994793
32222.0,-0.3256788465,0.8524920844999999,9.870295158500001,-0.03564834997198418,-0.00870744763819971,0.07704930515854168,9.912393050172158,0.0853417829993675,-0.032263878500000065,-0.005982056500000055,0.09571290400000088
32232.0,-0.39873838899999997,0.814148083,9.972088185499999,-0.04071155013201973,-0.00870744763819971,0.08530820317897884,10.013209884113262,0.09492491500206825,-0.07305954249999996,-0.03834400149999995,0.1017930269999976
32242.0,-0.492097697,0.778255744,10.0330855485,-0.03564834997198418,-0.04468042885105484,0.08690692477380564,10.075249265898153,0.10401903264152744,-0.09335930800000003,-0.035892338999999995,0.060997363000002025
32252.0,-0.4992565514999999,0.7232404374999999,10.047501323999999,-0.021525145664846066,-0.1011697554211033,0.07545058356371487,10.0858622184934,0.12802906649649456,-0.007158854499999923,-0.05501530650000008,0.014415775499998063
32262.0,-0.4550285599999999,0.6932320885,9.946885094999999,-0.0020734511513692635,-0.15419634875519503,0.0570635398939546,9.981389923857042,0.16442950086386504,0.04422799150000001,-0.030008348999999934,-0.10061622899999989
32272.0,-0.3711817025,0.718435179,9.8236155045,0.011515682404658587,-0.18110932582094758,0.040009927772718015,9.856842625453059,0.18583324019383946,0.08384685749999993,0.025203090500000025,-0.12326959049999964
32282.0,-0.274193934,0.766291631,9.6859301385,0.021642082724729686,-0.17684548645832546,0.0282865511870721,9.720063159521427,0.18039632702304298,0.09698776850000002,0.047856451999999994,-0.13768536599999948
32292.0,-0.20005566,0.8453332299999999,9.605711741499999,0.027502898352926648,-0.14593570540550585,0.025888468794831893,9.6449110207213,0.1507443277425555,0.07413827399999998,0.07904159899999996,-0.08021839700000122
32302.0,-0.180834626,0.9111358515,9.602181347499998,0.029635690698863716,-0.09450783366624095,0.03308271597155252,9.647007636159831,0.10442447454279576,0.019221033999999998,0.06580262150000005,-0.0035303940000002143
32312.0,-0.17848102999999998,0.9051537949999999,9.6476842035,0.026438247509210103,-0.04627915044588164,0.04374144171348189,9.691695897062402,0.06894965134447552,0.0023535960000000133,-0.005982056500000055,0.04550285600000237
32322.0,-0.189268345,0.8920128839999999,9.780564311,0.016844172610997275,-0.004977679026687828,0.05200033973391906,9.822980593142182,0.05488659920130595,-0.01078731500000002,-0.013140911000000033,0.13288010749999835
32332.0,-0.25389416849999996,0.890836086,9.870295158500001,-0.005005604294719737,0.02380105500944667,0.05440016745541126,9.91366620866502,0.05958963427555844,-0.06462582349999996,-0.0011767979999999234,0.08973084750000204
32342.0,-0.25987622499999996,0.858474141,9.966106128999998,-0.03777939698866926,0.029928906013198763,0.050935688890202516,10.006387204060077,0.07012465083473754,-0.005982056499999999,-0.032361945,0.09581097049999698
32352.0,-0.22398388599999997,0.8069892285,9.896675046999999,-0.06362597788145329,0.016872097879029185,0.03814591613158807,9.932047995353985,0.07607919338248056,0.035892338999999995,-0.05148491249999998,-0.06943108199999948
32362.0,-0.147295883,0.7614863725,9.839208077999999,-0.06682516640035889,-0.004977679026687828,0.02029294321293807,9.86973014701174,0.07001559609952565,0.07668800299999998,-0.045502856000000036,-0.057466969000000034
32372.0,-0.0444241245,0.7890430589999999,9.770953794,-0.04737172655763009,-0.020697859599400754,0.006702064327658226,9.802861852350908,0.052128682462723445,0.1028717585,0.027556686499999983,-0.06825428399999822
32382.0,0.11365907349999999,0.7998303739999999,9.7792894465,-0.015130259285538843,-0.029490828370948186,0.0021729349187329405,9.812601545491804,0.03321679319581295,0.15808319799999998,0.010787314999999964,0.008335652499999568
32392.0,0.2656621485,0.8249353979999999,9.762520075,0.014180800172453928,-0.02469466358646777,0.0021729349187329405,9.800912865789444,0.02855946689525096,0.152003075,0.02510502400000003,-0.016769371500000574
32402.0,0.44757550599999996,0.8129712849999999,9.9277621275,0.03629586712447408,-0.0028448866807507574,0.006702064327658226,9.971043426042684,0.03701892781802115,0.18191335749999998,-0.011964112999999998,0.16524205250000001
32412.0,0.6571436165,0.7051962015,10.1707709145,0.04242546345747816,0.025132741228718343,0.016561429272174192,10.216345746427923,0.05201783896692328,0.20956811050000002,-0.10777508349999998,0.24300878700000084
32422.0,0.9300626859999999,0.5304416985,10.429372274999999,0.03682993787558434,0.0504469966996441,0.027487190389658696,10.484187667432119,0.0682414055793889,0.2729190694999999,-0.17475450299999995,0.2586013604999984
32432.0,1.2413257569999998,0.282627653,10.811243226,0.02883632990145031,0.05630955765709306,0.03628015916120613,10.885942683891129,0.0729283905930003,0.31126307099999995,-0.24781404550000002,0.38187095100000157
32442.0,1.533367794,0.0540346415,11.297260799999998,0.03283313388851733,0.031794662983580704,0.037346555334174664,11.400975314304258,0.059022711480491576,0.2920420370000001,-0.22859301149999997,0.4860175739999981
32452.0,1.8494361234999999,0.082768126,11.796419285,0.03229906313740706,-0.03455402853098374,0.009367182095453565,11.94080284089425,0.048217781654526906,0.31606832949999997,0.028733484499999996,0.49915848500000237
32462.0,2.2432711875,0.24673531399999996,12.0322692175,-0.007403686686959946,-0.13661041121210016,-0.04605749363087836,12.242085053545429,0.1443555047362454,0.3938350640000001,0.16396718799999996,0.23584993249999897
32472.0,2.722129907,0.47297472949999997,12.125628525499998,-0.09533511973168626,-0.251454821322579,-0.12119915391699024,12.43642084619802,0.2949704173825222,0.4788587194999998,0.2262394155,0.09335930799999836
32482.0,3.2812070235,0.8201301394999999,11.8479041975,-0.22963296968489394,-0.3460499214514197,-0.17955423745742063,12.32119177879803,0.452461681351861,0.5590771165000001,0.34715540999999994,-0.2777243279999979
32492.0,3.9994460695,1.0392107005,11.3379583975,-0.37885163941340116,-0.3985424440344012,-0.21073105388579536,12.06751127475394,0.5888736888798425,0.7182390459999999,0.21908056100000006,-0.5099458000000006
32502.0,4.884103966,0.9734080789999999,10.8782226455,-0.5080862892065733,-0.40227221264591306,-0.21446082249730722,11.964017835327244,0.6826185279736888,0.8846578964999998,-0.06580262150000005,-0.4597357520000003
32512.0,5.6801097464999994,0.93751574,10.499980155,-0.5850937064630671,-0.3636358589945146,-0.18968063777749175,11.974646790215813,0.7145239167704915,0.7960057804999998,-0.035892338999999884,-0.3782424904999999
32522.0,6.317051663999999,0.8968181425,10.210291714,-0.6016149931624454,-0.3218003168242105,-0.132657240456333,12.039912017591298,0.6950496294161309,0.6369419174999997,-0.040697597500000016,-0.28968844099999913
32532.0,6.7504075275,1.045192757,10.003175266,-0.5677730589662753,-0.29462204971215483,-0.06444279197138662,12.112965990579191,0.6429006704784032,0.433355863500001,0.1483746144999999,-0.20711644800000073
32542.0,6.96468283,1.4414794835,9.8595078435,-0.5110166970206718,-0.27943419456130014,-0.00342259066316088,12.157078799608326,0.5824373338402056,0.21427530249999993,0.3962867265000001,-0.14366742250000009
32552.0,7.1562067045,1.9657429924999998,9.757812883,-0.47131394719630476,-0.27090651583605585,0.06132737925657675,12.259296560966881,0.5470724125658982,0.19152387449999964,0.5242635089999998,-0.10169496049999971
32562.0,7.442266685,2.476963657,9.72427414,-0.48117331214082065,-0.2317360914335471,0.14819416145758652,12.493365836260157,0.5542480328152569,0.28605998050000014,0.5112206645000004,-0.03353874299999937
32572.0,7.593092961999999,2.7905803239999996,9.841561674,-0.5397954310568063,-0.1483337877977461,0.2894192232119597,12.739652093264382,0.6301948165106122,0.1508262769999993,0.31361666699999935,0.11728753399999903
32582.0,7.472176967499999,2.7797930089999996,10.041519267499998,-0.6189338953299851,-0.07665486074759097,0.48606896069266475,12.821575059488458,0.7907073852022813,-0.12091599449999979,-0.010787314999999964,0.19995759349999886
32592.0,7.235150236999999,2.3776222925,10.2880584485,-0.6698294416473918,-0.08571486489469353,0.6995052749190513,12.800180989248016,0.9722788430286601,-0.23702673050000023,-0.4021707164999997,0.24653918100000105
32602.0,6.653419758999999,1.9203382029999998,10.515572728499999,-0.6527758295261552,-0.19709654176921565,0.8777679687299962,12.590987376362737,1.111503458077989,-0.5817304779999999,-0.4572840895000001,0.2275142799999994
32612.0,5.8968367115,1.7215574075,10.2772711335,-0.5866924280578939,-0.42092454636197646,1.0006077321438611,11.973251231845284,1.2339373211377407,-0.7565830474999995,-0.19878079549999983,-0.23830159499999937
32622.0,5.337759595,1.831686087,9.5566784915,-0.5120830931936403,-0.6492834256929145,1.0912042829563828,11.098506890803945,1.3691328819207602,-0.5590771165000001,0.11012867950000005,-0.7205926419999997
32632.0,4.9954094435,2.0771465365,8.488832373,-0.45346097427765475,-0.753470855390716,1.1924613048400856,10.06622711343211,1.4816575679477957,-0.3423501514999998,0.2454604494999999,-1.0678461185000003
32642.0,4.7057210025,2.2758292654999996,7.528761337999999,-0.4028342086650552,-0.6538125551018399,1.3347510174381756,9.165449049754159,1.539904716348334,-0.289688441,0.19868272899999972,-0.9600710350000004
32652.0,3.9718893829999997,2.5259969069999997,7.235444436499999,-0.33701784257234907,-0.3734952239390305,1.5194103429576797,8.631814516000704,1.600527256501482,-0.7338316195000001,0.25016764150000004,-0.2933169014999999
32662.0,2.6442651059999998,2.6026849100000002,7.5933871615,-0.2426897778190635,-0.09584126521476462,1.6923445465622857,8.451368840370412,1.7123416541843925,-1.327624277,0.07668800300000056,0.3579427250000009
32672.0,1.2484846115,2.3943916639999996,8.2637697555,-0.09986599446986354,0.01047721149972196,1.8282393727810682,8.693774544908646,1.8309948642743863,-1.3957804944999999,-0.20829324600000065,0.6703825940000003
32682.0,-0.046777720499999995,1.93583271,8.857562413,0.06400820498764005,-0.044945718897357975,1.8948550996711877,9.06675511616099,1.896468564649266,-1.2952623319999998,-0.4585589539999997,0.5937926574999999
32692.0,-1.1194290974999999,1.530033533,9.0814482325,0.2012364627549462,-0.20082631038072754,1.873804683562884,9.277220818543208,1.8952496703667987,-1.072651377,-0.405799177,0.22388581949999953
32702.0,-1.80050094,1.2954584649999998,8.973673149,0.28757091953409775,-0.3295286347520414,1.8031921526856975,9.24374523959659,1.8554751667404528,-0.6810718425000002,-0.23457506800000005,-0.10777508349999998
32712.0,-2.434991195,1.287024746,8.5966074565,0.323809190793256,-0.33165968176872646,1.703003272304215,9.027030219163736,1.7649562833203492,-0.6344902549999998,-0.008433718999999895,-0.37706569250000044
32722.0,-2.4660782755,1.2989888589999998,8.443329516999999,0.3003606922927121,-0.15259762716036823,1.6704947696565686,8.891497480702709,1.7041289143546283,-0.031087080500000308,0.011964112999999887,-0.15327793950000057
32732.0,-2.8097032914999995,1.1780728645,8.5259995765,0.2470688089123173,0.14584145762589817,1.6984723975660376,9.054002266335885,1.7225333704731303,-0.3436250159999994,-0.12091599449999979,0.08267005950000161
32742.0,-3.4477239404999995,0.7603095744999999,8.9665142945,0.18072011739775284,0.39178627449993114,1.724586013834377,9.636557975358528,1.777738216057679,-0.638020649,-0.4177632900000001,0.4405147179999993
32752.0,-4.1743967054999995,0.21564823349999998,9.3555441,0.12609480246883434,0.48398154690727957,1.7003381545364198,10.24686768834973,1.7723678728550503,-0.726672765,-0.544661341,0.3890298054999999
32762.0,-4.5431267454999995,-0.0057859235,9.601004549499999,0.10744246875277093,0.42083029858236876,1.6070764859561026,10.62164405645886,1.6647332687279457,-0.36873004,-0.221434157,0.24546044949999946
32772.0,-5.01119815,-0.080022264,9.751830826499999,0.02324080431955649,0.2694788365079245,1.4333429215540832,10.964338326136,1.4586400889459603,-0.46807140450000073,-0.0742363405,0.15082627700000018
32782.0,-5.0303211175,-0.262033688,9.262184792,-0.03538131459642905,0.13864546511992556,1.220171897374,10.543285034559647,1.2285332154899837,-0.019122967499999532,-0.18201142399999998,-0.48964603449999977
32792.0,-4.6747319885,-0.157887065,8.4577452925,0.02350609436585963,0.1583641950089575,1.0397781565463697,9.664962644646144,1.0520315439967278,0.35558912900000017,0.104146623,-0.804439499499999
32802.0,-4.5036059459999995,0.25752262899999995,8.577484489,-0.08467813931900889,0.34062543813622137,0.903082224200922,9.691337605322044,0.9688929662515394,0.17112604250000008,0.41540969399999994,0.11973919649999942
32812.0,-4.4425105165,0.037265269999999996,8.7031076755,-0.2656059508977491,0.641460859985476,0.8479245838501452,9.771456984549863,1.0958990172196732,0.06109542949999991,-0.22025735899999996,0.12562318650000037
32822.0,-4.6017705125,-0.308713342,8.879137043,-0.32555975603300624,0.9574858823148372,0.8471252230527319,10.005531990135163,1.3192382321296763,-0.1592599960000003,-0.345978612,0.17602936749999998
32832.0,-5.0662134565,-0.3625518505,9.468124441999999,-0.39084205137460215,1.1213600817723408,0.8420620228926962,10.744456388311157,1.4557727818974078,-0.46444294399999997,-0.05383850849999999,0.5889873989999987
32842.0,-5.535461658999999,-0.517006588,9.9971932095,-0.4270820679630124,1.058474123493733,0.8252754461470146,11.439077919936,1.4084907258816237,-0.4692482024999993,-0.1544547375,0.5290687675000019
32852.0,-5.710216162,-0.642727841,10.187540285999999,-0.31276998327439187,0.7930776121062233,0.7919675827019549,11.696394520245779,1.16361927335033,-0.17475450300000084,-0.12572125300000003,0.19034707649999838
32862.0,-5.9437124985,-0.1901509435,10.351507474,-0.18033789029156608,0.4205632632068136,0.7418731425112137,11.938072818944308,0.8716484225956244,-0.2334963365,0.4525768975,0.16396718800000087
32872.0,-5.86829936,-0.252423171,10.115755607999999,-0.0513702758739491,0.05151339287261263,0.6598025250946843,11.6973999827576,0.6638011050080703,0.07541313850000009,-0.0622722275,-0.2357518660000011
32882.0,-5.411015270499999,-0.40570111049999996,9.494406264,0.15354010495644516,-0.18324037283763267,0.5686719035310525,10.935603776405195,0.6168787011506731,0.45728408950000077,-0.15327793949999996,-0.6213493439999986
32892.0,-4.9728541485,-0.2919439705,9.077819772,0.28543987251741265,-0.21734759708010584,0.4490295833068411,10.35477288389654,0.5747551352219206,0.43816112199999946,0.11375713999999998,-0.4165864920000004
32902.0,-4.5335162285,-0.15906386299999997,8.936604012,0.27824388001144,-0.09957103382627651,0.32699092601964164,10.022023846203911,0.44074608703905344,0.4393379199999998,0.1328801075,-0.1412157599999997
32912.0,-4.1516452775,-0.10277369199999999,8.998778173,0.17432348568919362,0.11120016263231472,0.2241351825411118,9.910838993184006,0.30494382086709226,0.3818709509999998,0.056290170999999986,0.06217416099999973
32922.0,-3.982872831,0.11748366699999999,9.111358515,0.04482354584971837,0.31984031207422087,0.15751945565099224,9.94454284463558,0.3593318165691172,0.16877244650000023,0.22025735899999999,0.11258034199999933
32932.0,-4.0139599115,0.336564228,9.4070290125,-0.0303181144363935,0.42909094193205793,0.13966648273234222,10.233149294948992,0.4522664600762946,-0.031087080499999864,0.21908056100000003,0.2956704975000015
32942.0,-3.9804211684999995,0.303025485,9.77330739,-0.03431666375271251,0.4011115686933368,0.16791289134661846,10.55713571299673,0.43619131471308265,0.03353874300000026,-0.03353874300000004,0.3662783774999987
32952.0,-3.9026544339999996,0.095909037,10.040342469499999,0.05841267940574622,0.24016777704993172,0.2022854056353948,10.772575693836803,0.3193931551889308,0.07776673449999993,-0.20711644799999998,0.2670350794999994
32962.0,-3.7589870114999995,0.024124358999999998,10.112127147499999,0.21376094546725752,0.0008848819307611251,0.21853965695921798,10.788219537279046,0.30570264389916535,0.14366742250000009,-0.071784678,0.07178467800000021
32972.0,-3.5387296525,0.153376006,10.023573097999998,0.35631769344090236,-0.19922758878590072,0.22680030030890713,10.630999454597323,0.4670035406853992,0.22025735899999965,0.12925164700000003,-0.08855404950000079
32982.0,-3.2166792665,0.2527173705,9.7792894465,0.4303947028832977,-0.3063454262978007,0.2318635004689427,10.297834415609415,0.5769296346464573,0.3220503859999999,0.09934136449999997,-0.2442836514999982
32992.0,-2.8264726629999997,0.277920461,9.5254933445,0.41227469458909255,-0.2983518183236667,0.23319518668821437,9.93987982590547,0.5597894482661485,0.39020660350000025,0.025203090500000025,-0.2537961020000008
33002.0,-2.4625478815,0.15572960199999997,9.287289816,0.339798152070776,-0.17924356885056564,0.2297324534522576,9.609482083025938,0.4476248890468395,0.36392478149999974,-0.12219085900000004,-0.2382035284999997
33012.0,-2.2195390945,0.0181423025,9.3148465025,0.24680177353676216,0.01500808623789924,0.21747500611550144,9.575648714332118,0.32928974529789545,0.24300878699999995,-0.13758729949999998,0.027556686500000538
33022.0,-2.2075749815,-0.022555295,9.519511288,0.1554058619268271,0.2135218353597343,0.19722395080461125,9.772153867118378,0.3296055868270276,0.011964112999999887,-0.0406975975,0.20466478550000033
33032.0,-2.281811322,-0.020201699,9.7865463675,0.08212821328184516,0.3424894497773513,0.17430777772592568,10.049057708117578,0.39297235017417165,-0.07423634049999972,0.0023535959999999995,0.2670350794999994
33042.0,-2.342808685,-0.040599530999999994,10.097711372,0.04748866361751371,0.373666266205726,0.14872648687944479,10.366010602379632,0.4049706403824943,-0.06099736300000025,-0.020397831999999994,0.3111650044999994
33052.0,-2.354772798,0.0420705285,10.353959136499999,0.062409483392813235,0.3059841431426379,0.11968246279700717,10.618436544985368,0.3344325513063122,-0.011964112999999887,0.0826700595,0.2562477644999994
33062.0,-2.189628812,0.1246425215,10.374258902,0.10131287241976684,0.18847461526436365,0.10103012908094376,10.603549304748512,0.23663065249266843,0.1651439859999999,0.08257199300000001,0.020299765500000788
33072.0,-1.8759140784999997,0.153376006,10.25579457,0.13595416741335029,0.0885510249291843,0.09703332509387674,10.427075337369176,0.18905101383446815,0.31371473350000034,0.028733484500000003,-0.1184643319999985
33082.0,-1.5754383224999997,0.013337044000000001,10.175576173,0.16952732090471323,0.03286105915654924,0.10129716445649889,10.296821559941183,0.20020109207730818,0.300475756,-0.14003896200000002,-0.08021839700000122
33092.0,-1.345668513,-0.145922952,10.2378484005,0.19803901956529257,0.005948082090796675,0.10742501546025099,10.326938419803831,0.2253773877246259,0.2297698094999998,-0.159259996,0.062272227500001165
33102.0,-1.4018606175,-0.17818683049999998,10.3072794825,0.20843070993166682,-0.0031119220563058892,0.10475989769245564,10.403700018158279,0.2332974090427001,-0.056192104500000006,-0.03226387849999998,0.06943108199999948
33112.0,-1.5312103309999998,-0.12317152399999999,10.308456280499998,0.2012364627549462,-0.04761083666515332,0.09063843871456952,10.422286082672336,0.22578359613287569,-0.1293497134999999,0.055015306499999986,0.001176797999997703
33122.0,-1.49649479,-0.15906386299999997,10.302474224,0.16979435628026834,-0.07452381373090587,0.06985331265256906,10.411809309874725,0.19814996221591116,0.03471554099999974,-0.03589233899999998,-0.0059820564999988335
33132.0,-1.4353993605,-0.160240661,10.1468426885,0.11303799433466476,-0.05267403682518886,0.04960225734167885,10.249120203155362,0.13421075311634006,0.06109542950000013,-0.0011767980000000344,-0.15563153549999953
33142.0,-1.2930068024999999,-0.18662054949999998,9.9875826925,0.039495055643379684,0.019004890224966254,0.028551841233375237,10.072661111162855,0.0523092048357891,0.14239255800000006,-0.026379888499999976,-0.1592599959999994
33152.0,-1.0978544675,-0.250069575,9.972088185499999,-0.020460494821129525,0.12825377475355132,0.017360790069587597,10.035455246451905,0.13103075829247282,0.19515233499999995,-0.0634490255,-0.015494507000001434
33162.0,-1.0595104659999999,-0.21653083199999998,10.1217376645,-0.05589940528287438,0.2239135257261085,0.016561429272174192,10.179342875536124,0.23137910764287453,0.03834400150000006,0.03353874300000001,0.1496494790000007
33172.0,-1.14933938,-0.0836507245,10.282076392,-0.06016324464549653,0.25402394598151473,0.022156954854068014,10.346452212476116,0.2619899077955076,-0.08982891400000015,0.13288010749999998,0.160338727500001
33182.0,-1.231911373,-0.040599530999999994,10.4484952425,-0.02818706741970842,0.19433717622181262,0.037346555334174664,10.520946097447192,0.19989050509446318,-0.08257199299999995,0.0430511935,0.1664188504999995
33192.0,-1.1146238389999998,-0.0979684335,10.5646059785,0.026171212133654972,0.08562061711508583,0.05466545750171439,10.623694442019097,0.1049005942003411,0.11728753400000014,-0.0573689025,0.11611073599999955
33202.0,-1.2307345749999998,-0.08482752249999999,10.601773182,0.08825606428559726,-0.0436140326780863,0.06505714786808864,10.673307730279697,0.11799893736114324,-0.11611073599999999,0.013140911000000005,0.03716720350000102
33212.0,-1.2282829124999999,-0.1064021525,10.5430313485,0.1514090579397601,-0.18883589841952647,0.06772226563588397,10.614872130489836,0.2513364371136278,0.0024516624999999515,-0.02157463000000001,-0.05874183350000095
33222.0,-1.137375267,-0.046581587499999993,10.385046217,0.18897901541819,-0.28156524157798524,0.06745523026032885,10.447247353801064,0.34574884182419424,0.09090764549999997,0.059820565000000006,-0.15798513150000026
33232.0,-1.137375267,0.0013729309999999998,10.221079028999998,0.18897901541819,-0.30048461066960375,0.0639924970243721,10.284166514598372,0.3606925410832696,0.0,0.047954518499999994,-0.16396718800000087
33242.0,-1.0751030395,-0.0022555294999999998,10.093004179999998,0.15753690894351216,-0.2559839507315043,0.04906993191982058,10.15010270935486,0.3045546238857678,0.06227222749999983,-0.0036284604999999998,-0.12807484900000077
33252.0,-0.9709564165,-0.004609125499999999,10.046324526,0.0994488607786369,-0.15286291720667136,0.024822072621863353,10.093136979576245,0.1840469577481449,0.1041466230000001,-0.0023535959999999995,-0.046679653999998294
