timestamp,ax,ay,az,gx,gy,gz,acc_mag,gyro_mag,dax,day,daz
23882.0,0.10081236199999999,-2.660544145,10.4396692575,-0.03701319744704374,0.14088646787948628,0.2508858439864289,10.773827197696109,0.29010804940503476,0.0,0.0,0.0
23892.0,0.7400098089999999,-2.5456102069999997,10.195483672499998,-0.033550464211087,0.11264180459446203,0.29858394711418196,10.534497290313043,0.32088344186847817,0.6391974469999999,0.11493393800000007,-0.2441855850000021
23902.0,0.8848540295,-2.442640382,10.246968585,-0.018627899106535478,0.13982007170651775,0.35400687751126186,10.571178925326937,0.381074166537713,0.14484422050000012,0.10296982499999974,0.0514849125000012
23912.0,0.7639380349999999,-2.405571245,10.2864893845,-0.008503244115716374,0.158205370047026,0.4176921965872829,10.591611690083889,0.44673036091373647,-0.12091599450000012,0.03706913700000003,0.03952079949999998
23922.0,0.614288556,-2.372032502,10.382202288499998,-0.002907718533822553,0.15767304462516774,0.4973647316115721,10.667427664620536,0.5217671128765142,-0.14964947899999992,0.033538742999999815,0.0957129039999991
23932.0,0.43718045699999997,-2.5049126095,10.420546289999999,-0.004771730174952497,0.13928774628465945,0.570375344880999,10.72629940451261,0.5871557542271392,-0.17710809900000002,-0.13288010749999968,0.0383440015000005
23942.0,0.291061372,-2.6580924825,10.5318517675,-0.011433651929814853,0.1147728516111471,0.6252659498562205,10.866005430717692,0.6358152592640477,-0.14611908499999998,-0.15317987300000002,0.1113054775000002
23952.0,0.030106415499999997,-2.7934242525,10.573726162999998,-0.01063429113240145,0.07053922704860283,0.6681661428702411,10.936535576718072,0.6719634403586243,-0.2609549565,-0.13533177000000007,0.04187439549999894
23962.0,-0.1901509435,-2.964550295,10.6467857055,0.019476129123004723,-0.01099731961681627,0.6921487121218953,11.053450216639945,0.6925100001706609,-0.22025735899999999,-0.17112604250000008,0.07305954250000113
23972.0,-0.3301899055,-3.075953839,10.6359983905,0.07863057346084854,-0.11065387457644049,0.6873525473374148,11.0767765688431,0.7006286972232821,-0.140038962,-0.11140354399999985,-0.010787314999999964
23982.0,-0.37569276149999997,-3.1261638869999997,10.637175188499999,0.14524630035096808,-0.21564066507165539,0.6631046880394575,11.093400817164518,0.712253614591106,-0.04550285599999998,-0.05021004799999984,0.0011767979999994793
23992.0,-0.2619356215,-3.1249870889999998,10.656396222499998,0.20333434851584337,-0.2987776786611533,0.6297968245943978,11.108237260120955,0.7261246441360439,0.11375713999999998,0.0011767979999999234,0.019221033999999193
24002.0,-0.126701918,-2.964550295,10.6097165685,0.23051436095715105,-0.3352829852958667,0.5935568080059875,11.016837000315148,0.7196257604940562,0.1352337035,0.16043679399999977,-0.046679653999998294
24012.0,0.03138128,-2.7934242525,10.594123995,0.22092203138819022,-0.33421658912289814,0.570642380256554,10.9562615458296,0.6972374047213002,0.15808319799999998,0.17112604250000008,-0.015592573499999318
24022.0,0.15102241,-2.6545620884999996,10.546267542999999,0.20386841926695365,-0.3107680906223544,0.5669108663157901,10.876270810280467,0.677884259199452,0.11964113,0.1388621640000003,-0.047856452000001326
24032.0,0.2827257195,-2.7120290575,10.489977371999998,0.18708009719202018,-0.2801253449450899,0.580499999871818,10.83857281685477,0.6711552886606512,0.13170330949999998,-0.05746696900000048,-0.056290171000000555
24042.0,0.3976596575,-2.8256881309999997,10.535480227999999,0.16629671645927172,-0.2404225951207229,0.6007510551827081,10.91508086325778,0.6681013788736375,0.11493393800000001,-0.1136590734999996,0.04550285600000059
24052.0,0.3545103975,-2.8520680194999994,10.650414166,0.1420488571613145,-0.1860643155673595,0.6324601970329411,11.031377589273413,0.6743913612875925,-0.04314925999999997,-0.026379888499999726,0.11493393800000007
24062.0,0.17740229849999997,-2.8401039064999996,10.758091183000001,0.11220547228146345,-0.1535558129197131,0.6700318998406232,11.128081041984373,0.6964999658976123,-0.17710809900000005,0.011964112999999887,0.1076770170000021
24072.0,-0.033342609999999995,-2.8664837949999997,10.835955983999998,0.07490080484933666,-0.1357028400010631,0.7102687204161003,11.208736912062152,0.7269849011863706,-0.21074490849999997,-0.02637988850000017,0.07786480099999693
24082.0,-0.2595820255,-2.9238526975,10.788099531999999,0.03999421980945006,-0.1239777180861652,0.7513031564597391,11.180312559896494,0.7625132425777185,-0.22623941549999999,-0.057368902500000374,-0.04785645199999955
24092.0,-0.4929802955,-2.9693555535,10.695917022,0.0216071761396898,-0.11545178469017289,0.7822129375125587,11.111378983562837,0.7909823413078851,-0.23339827000000002,-0.0455028559999997,-0.09218250999999889
24102.0,-0.738440745,-3.1585258319999996,10.628839536,0.02480461932934341,-0.11678347090944459,0.7955350356930314,11.112776882819349,0.8044436843141001,-0.2454604495,-0.1891702784999998,-0.06707748600000052
24112.0,-0.9407519344999999,-3.2962111979999995,10.6479625035,0.05598143575771812,-0.13436940845253945,0.7862097414996256,11.186113173932583,0.7995716457618348,-0.20231118949999993,-0.13768536599999992,0.01912296750000131
24122.0,-1.135806203,-3.3991810229999997,10.631193131999998,0.11353715850073513,-0.16714494647574096,0.7499714702404674,11.219035375992917,0.776714442808583,-0.19505426850000007,-0.10296982500000018,-0.01676937150000235
24132.0,-1.3106587724999998,-3.353678167,10.706606270499998,0.18681480714571705,-0.21031217486531673,0.7046714495049545,11.295857714102704,0.7587442486193122,-0.17485256949999983,0.0455028559999997,0.07541313850000009
24142.0,-1.3608688205,-3.238744229,10.813204556,0.26382222440221087,-0.25267829712822704,0.6681661428702411,11.369556759055696,0.7615080317411279,-0.05021004800000006,0.11493393800000007,0.10659828550000228
24152.0,-1.35135637,-3.1190050324999996,10.9484382595,0.30938753518402684,-0.27373045856578265,0.6423195619774571,11.463972119365229,0.7636906641911982,0.009512450499999936,0.11973919650000031,0.13523370349999908
24162.0,-1.3237996834999999,-3.0472203545,11.051408084499998,0.3008598564587825,-0.272397027017259,0.6252659498562205,11.54000078600802,0.745435645515991,0.027556686500000094,0.07178467799999977,0.10296982499999885
24172.0,-1.3118355705,-2.994558644,11.0765131085,0.26222350280738405,-0.2516136462845105,0.6162059457091179,11.548914956789513,0.7153882581846234,0.011964112999999887,0.05266171049999979,0.02510502400000192
24182.0,-1.3141891664999998,-2.8975708755,11.082495165000001,0.21186202724108766,-0.22043682985613583,0.6202027496961849,11.530165186420366,0.6914689908263674,-0.002353595999999847,0.09698776850000002,0.00598205650000061
24192.0,-1.3500815054999997,-2.8616785365,11.0490544885,0.15004246513544853,-0.18792832720848943,0.6313955461892246,11.4931949086231,0.6756405355356445,-0.035892338999999884,0.035892339000000106,-0.03344067650000149
24202.0,-1.4302999025,-2.868837391,10.949615057499999,0.0791628988827068,-0.16288110711311882,0.6431189227748705,11.40920924930917,0.6681309515693902,-0.08021839700000033,-0.007158854500000089,-0.09943943100000041
24212.0,-1.5069879055,-2.9562146425,10.8431148385,0.022940607688213467,-0.14929197355709098,0.6521789269219731,11.339460170605722,0.6694413473716514,-0.0766880029999999,-0.08737725149999997,-0.10650021899999906
24222.0,-1.6242754394999999,-3.0495739505,10.709057932999999,-0.0018413223608540175,-0.157285581531225,0.6535106131412447,11.252648301412485,0.6721742825442653,-0.11728753399999992,-0.09335930800000014,-0.13405690550000138
24232.0,-1.690078061,-3.144208123,10.603734511999999,0.007751007208106817,-0.19485728433890692,0.6492485191078746,11.18845807848394,0.6779034436676377,-0.06580262150000005,-0.09463417249999972,-0.10532342099999958
24242.0,-1.703218972,-3.1944181709999997,10.501941485,0.04292462762354854,-0.23775747735292754,0.6447176443696974,11.108376896385886,0.6884998058499797,-0.013140911000000033,-0.05021004799999984,-0.10179302699999937
24252.0,-1.6709550935,-3.1501901795,10.433687201,0.08822290302980937,-0.27612854095802286,0.637790432568532,11.026224090767567,0.7005761112302994,0.03226387850000001,0.044227991499999675,-0.068254284
24262.0,-1.6063292699999998,-3.031627781,10.327186981999999,0.12686100201045983,-0.290249999935909,0.6308614754381143,10.88218046566863,0.705921367778202,0.06462582350000012,0.11856239849999994,-0.10650021900000084
24272.0,-1.5787725835,-2.9454273275,10.2780556655,0.16096822625293303,-0.2878519175436688,0.6207368204472953,10.80770527332753,0.7029108738350832,0.027556686499999872,0.08620045350000005,-0.04913131649999869
24282.0,-1.5417034465,-2.8748194475,10.284037722,0.19614010133912274,-0.28065767036694816,0.6010180905582634,10.789016092313197,0.6917097747375157,0.03706913700000003,0.07060787999999985,0.00598205650000061
24292.0,-1.5309161315,-2.7970527129999994,10.341504690999999,0.2361098865390449,-0.2588078934612311,0.5722393565221289,10.82191883886414,0.6709599730178997,0.010787314999999964,0.07776673450000082,0.05746696899999826
24302.0,-1.4913953319999997,-2.7000649445000002,10.400148457999999,0.26995007540596294,-0.22576706539172647,0.542663007017833,10.847935227003752,0.6467819958942224,0.0395207995000002,0.09698776849999913,0.058643766999999514
24312.0,-1.420787452,-2.5539458594999997,10.489977371999998,0.2811428718990026,-0.17966768385880028,0.5224119517069427,10.8894858327696,0.6198677587429933,0.07060787999999985,0.14611908500000048,0.08982891399999993
24322.0,-1.3824434505,-2.3791913565,10.5881419385,0.25982542041514384,-0.11784986708241312,0.5128196221379819,10.93985608289694,0.5868405278395411,0.038344001499999836,0.17475450299999995,0.09816456650000127
24332.0,-1.3907791029999998,-2.30260142,10.687483302999999,0.21106266644367427,-0.07068583470577035,0.5146836337791119,11.020822980369083,0.5607523332759625,-0.00833565249999979,0.07658993650000001,0.09934136449999897
24342.0,-1.4051948785,-2.357714793,10.7377914175,0.15803607310958256,-0.05523094417936056,0.522944277128801,11.083030100898865,0.5490870373452693,-0.014415775500000061,-0.05511337300000019,0.05030811450000172
24352.0,-1.4291231045,-2.533646094,10.7605428455,0.11780099786335728,-0.07441560331728223,0.530937885102935,11.146794952240684,0.5489169290086209,-0.023928225999999997,-0.17593130099999987,0.022751427999999407
24362.0,-1.5189520184999998,-2.775478083,10.790453128,0.1079416329188413,-0.11491771393906264,0.5266757910695649,11.24474866465603,0.5497680110673211,-0.08982891399999993,-0.24183198900000002,0.029910282499999497
24372.0,-1.4769795565,-2.580325748,10.723375641999999,0.12046611563115261,-0.12824155744878735,0.5557198151520025,11.127907922675744,0.5829086506689746,0.04197246199999993,0.19515233499999995,-0.06707748600000052
24382.0,-1.51414676,-2.4594097535,10.640803648999999,0.12019908025559747,-0.10345962739971988,0.6055489652964406,11.02578972423296,0.6259722539917966,-0.037167203500000134,0.12091599449999979,-0.08257199300000018
24392.0,-1.6206469789999998,-2.4941252945,10.6024596475,0.09408546398725832,-0.05123414019229355,0.6729623076547215,11.011780427890503,0.6814361886331759,-0.10650021899999973,-0.03471554099999974,-0.038344001499998726
24402.0,-1.8373739439999999,-2.7012417424999997,10.698270617999999,0.06237632213702535,0.0009930923443847734,0.7195940146095061,11.185957454660581,0.7222931106258542,-0.2167269650000001,-0.20711644799999984,0.09581097049999876
24412.0,-2.1378497,-2.8592268739999995,10.868219862499998,0.041325906028721736,0.022310543828243514,0.7342495443385025,11.439570911377462,0.7357499468136612,-0.300475756,-0.15798513149999982,0.1699492444999997
24422.0,-2.3976278585,-2.927481158,10.923333235499998,0.035730380446827914,0.004457570909593518,0.7201263400313643,11.560189196206053,0.7210259881809096,-0.2597781585000001,-0.06825428400000044,0.0551133729999993
24432.0,-2.5855232724999997,-3.029274185,10.9221564375,0.04185823145058001,-0.03338116727364355,0.6852197549914777,11.62561542137745,0.6873081743288828,-0.18789541399999976,-0.10179302699999981,-0.001176797999997703
24442.0,-2.7147749195,-3.0412382979999997,10.917351178999999,0.058646553525513456,-0.07015176395466008,0.6425865973530124,11.653655650240436,0.6490594913596855,-0.12925164700000025,-0.011964112999999887,-0.0048052585000011305
24452.0,-2.8237268009999994,-3.019663668,10.874201918999999,0.07783121266343512,-0.10425898819713328,0.5970212865711964,11.633575077752674,0.6110335922874268,-0.10895188149999946,0.021574629999999484,-0.043149259999999856
24462.0,-2.821373205,-3.0100531509999997,10.8191866125,0.09142034621946299,-0.12024794947465332,0.5541210935571756,11.57909174718968,0.5743408703729393,0.0023535959999994027,0.009610517000000485,-0.05501530649999964
24472.0,-2.766259832,-3.0125048135,10.7593660475,0.09435249936281345,-0.09786410181782604,0.5168164261250489,11.51048810666138,0.5343959158463766,0.05511337300000019,-0.0024516625000003955,-0.05982056499999899
24482.0,-2.7519421229999996,-3.006522757,10.680324448499999,0.08422609904274235,-0.04137477524777758,0.48777240204261124,11.431609460698324,0.4967170461954982,0.014317709000000178,0.005982056500000166,-0.07904159900000174
24492.0,-2.7974449789999998,-3.0364330395,10.710234731,0.06237632213702535,0.031103512599790946,0.4600600641794453,11.478447282059458,0.4653101081130547,-0.04550285600000015,-0.02991028249999994,0.029910282500001273
24502.0,-2.8752117134999997,-3.123810291,10.7677017,0.03599741582238305,0.08706051374798114,0.4264851653588304,11.574473337123724,0.4367664630796427,-0.07776673449999993,-0.08737725149999997,0.057466969000000034
24512.0,-2.9099272545,-3.1704899449999995,10.841938040499999,0.01761037215262278,0.1201013418174858,0.38651538015890824,11.664789050465892,0.40512787686494717,-0.03471554100000018,-0.046679653999999626,0.07423634049999883
24522.0,-2.9099272545,-3.1357744039999997,10.882635638,0.00801804258366195,0.14408391106913987,0.3433481517693325,11.693267984987394,0.37244115744540074,0.0,0.03471554099999974,0.04069759750000124
24532.0,-2.8740349155,-3.077130637,10.868219862499998,-0.007436847942747838,0.17472665674640434,0.3063105197127608,11.655342664731766,0.3527192166182628,0.035892339000000106,0.05864376699999996,-0.014415775500001615
24542.0,-2.8249035989999998,-2.9993639025,10.7952583865,-0.04261046835818956,0.2258874931101141,0.2775335310058783,11.554820110869827,0.36036880052228015,0.04913131650000002,0.07776673449999993,-0.07296147599999792
24552.0,-2.8608940044999995,-2.939445271,10.8287971295,-0.08737467301334012,0.28344321585313115,0.25221927553495255,11.579632994100276,0.38934426032590885,-0.03599040549999977,0.059918631499999986,0.03353874299999937
