timestamp,ax,ay,az,gx,gy,gz,acc_mag,gyro_mag,dax,day,daz
98742.0,0.2801759905,-0.7128453885,10.015335511999998,-0.07701265324424979,0.11265576722847799,0.1036917561902351,10.04458025760592,0.1713891797966582,0.0,0.0,0.0
98752.0,0.8260141295,-1.3041863834999998,10.0679972225,-0.11911348546085701,0.11532088499627334,0.09756215985723103,10.185664904035876,0.19236762713867786,0.545838139,-0.5913409949999998,0.05266171050000246
98762.0,1.006750689,-1.4322612325000001,9.9889556235,-0.10659074807779768,0.15289084247470328,0.09996024224947123,10.141210659293922,0.21149290134418702,0.1807365595,-0.12807484900000032,-0.07904159899999996
98772.0,1.0929511424999998,-1.3915636349999998,10.024946028999999,-0.04796862916181216,0.17154492152001866,0.10635512862877847,10.179908370634251,0.20746099119742206,0.08620045349999983,0.04069759750000035,0.03599040549999799
98782.0,1.108543716,-1.4430485475,10.266679951499999,0.023975587934646103,0.16408363896774292,0.11861257596553464,10.42669533012531,0.20388038790155436,0.015592573500000206,-0.05148491250000009,0.24173392249999992
98792.0,1.110897312,-1.4885514035,10.4834069165,0.08046665983394657,0.11025768483623778,0.129271301707464,10.64667547620339,0.18799656873310588,0.002353596000000069,-0.04550285600000015,0.21672696500000121
98802.0,1.1264898854999998,-1.4322612325000001,10.618640619999999,0.11510620949827803,0.036180675393842454,0.12660618393966866,10.773851693659523,0.17489312893530518,0.015592573499999762,0.05629017099999989,0.13523370349999908
98812.0,1.1168793685,-1.341353587,10.607853305,0.12789598225689247,-0.03816162409485602,0.12287641532815678,10.750497695899394,0.18141748888932988,-0.009610516999999819,0.09090764550000019,-0.010787314999998188
98822.0,1.235441767,-1.2586835275,10.604322910999999,0.12336685284796718,-0.0791978054677467,0.12181001915518824,10.749989068962229,0.19060260632820938,0.11856239849999994,0.08267005950000006,-0.0035303940000019907
98832.0,1.4113730679999998,-1.2168091319999998,10.6450205085,0.10604620535117545,-0.08132885248443177,0.12820490553449548,10.806898723832843,0.18519362224149905,0.17593130099999987,0.04187439550000005,0.04069759750000124
98842.0,1.5621993449999998,-1.167775882,10.769466897,0.0767351458931827,-0.06960373056953387,0.1588493965410119,10.944660092925595,0.18964728499477113,0.15082627699999995,0.04903324999999992,0.12444638849999912
98852.0,1.604171807,-1.123449824,10.8461549,0.044493678621091444,-0.07706501312180962,0.21747151545699744,11.021550834987483,0.2349735383396708,0.041972462000000155,0.044326058,0.076688003000001
98862.0,1.5550404904999997,-1.1317854765,10.910780723499999,0.011985175973445061,-0.11303799433466476,0.28488485781527845,11.078999290920185,0.3067256344336899,-0.049131316500000244,-0.008335652500000013,0.06462582349999835
98872.0,1.515519691,-1.1905273099999998,10.8461549,-0.017592918860102842,-0.14794457937455133,0.34084360429272065,11.016044268450385,0.3719831608387452,-0.03952079949999976,-0.05874183349999984,-0.06462582349999835
98882.0,1.456875924,-1.2694708425,10.725238905499998,-0.04184077815806006,-0.1668639484661699,0.38134571491450103,10.89792609893916,0.4183524618049289,-0.05864376699999996,-0.0789435325000003,-0.12091599450000245
98892.0,1.328801075,-1.2802581574999998,10.6905233645,-0.05436351554111937,-0.16819563468544155,0.4079916566046985,10.848597285072705,0.4446373299760989,-0.12807484899999988,-0.010787314999999742,-0.034715540999997074
98902.0,1.2761393644999999,-1.3305662719999998,10.640215249999999,-0.06395584511008022,-0.17379116026733535,0.4106567743724938,10.798755430518046,0.4504805254934252,-0.052661710500000236,-0.050308114499999945,-0.05030811450000172
98912.0,1.2449542175,-1.413138265,10.636586789499999,-0.0676873590508441,-0.1972396587678792,0.39999804863056443,10.802029868975744,0.4510914546679051,-0.03118514699999997,-0.08257199300000018,-0.003628460499999875
98922.0,1.2641752515,-1.4442253455,10.5744126285,-0.06262415889080854,-0.23374496540259257,0.3936031622512572,10.747191649583158,0.4620410625280289,0.01922103400000008,-0.031087080500000086,-0.06217416099999973
98932.0,1.377834325,-1.4646231775,10.4618322865,-0.05249950389998943,-0.2555947423083096,0.391203334529765,10.653332026651203,0.4702392148179514,0.11365907350000004,-0.020397832000000005,-0.11258034199999933
98942.0,1.470016835,-1.446677008,10.3576856635,-0.04423886055030027,-0.24413665576896681,0.3901386836860485,10.561035752450262,0.46235049040865794,0.09218251,0.017946169500000053,-0.1041466230000001
98952.0,1.500025184,-1.365281813,10.322970122500001,-0.039707985812122995,-0.21349391009170238,0.39866461708204076,10.520350855915904,0.4539712002943247,0.030008349000000045,0.08139519500000003,-0.03471554099999885
98962.0,1.4472654069999997,-1.275452899,10.4139758345,-0.034646530981339435,-0.18578157222853642,0.41411950760845057,10.591140162296803,0.45520340647957963,-0.05275977700000034,0.08982891399999993,0.0910057119999994
98972.0,1.3922501005,-1.1857220515,10.466637545,-0.04050734660953639,-0.17459052106474876,0.4266439903207619,10.625196404027516,0.4627610502752235,-0.05501530649999964,0.08973084750000004,0.052661710499998904
98982.0,1.3264474789999998,-1.1317854765,10.549209538,-0.053564154743705975,-0.17352412489178023,0.43890143765751805,10.692344137558983,0.4749886446755354,-0.06580262150000027,0.05393657500000004,0.08257199300000018
98992.0,1.2809446230000001,-1.0348957745,10.563625313500001,-0.06715328829973383,-0.17832203500551264,0.4530228966354041,10.691211725304507,0.49146521461229226,-0.0455028559999997,0.09688970199999991,0.014415775500001615
99002.0,1.3060496469999998,-0.995374975,10.598340854499998,-0.07674736319794666,-0.17299179946992196,0.47034354413219587,10.724801438229466,0.5069905028188537,0.025105023999999698,0.03952079949999998,0.034715540999997074
99012.0,1.3359599294999998,-0.9666414905,10.5910839335,-0.09060353212952964,-0.16819563468544155,0.4903275640675309,10.718686654195446,0.5262317850966282,0.02991028249999994,0.028733484500000017,-0.007256920999997973
99022.0,1.3671450765,-0.9163333759999999,10.496547827499999,-0.11565075222490025,-0.16180074830613433,0.5113779801758346,10.62479500090071,0.5486911856876567,0.03118514700000019,0.05030811450000017,-0.0945361060000014
99032.0,1.4053910115,-0.8947587459999999,10.478601657999999,-0.1438954155099245,-0.15087498718864983,0.5425547966042092,10.610221949412217,0.5812356318070873,0.03824593499999995,0.021574629999999928,-0.017946169500000053
99042.0,1.422160383,-0.9797824015,10.3912244065,-0.16041670220930282,-0.13195736342628328,0.5806588248337495,10.533758036688761,0.6166935502885006,0.01676937150000013,-0.08502365550000002,-0.08737725149999953
99052.0,1.395878561,-1.0289137179999999,10.328952179,-0.17160775337309045,-0.08532565647149878,0.6166318060466046,10.473509130764954,0.645727862879053,-0.026281822000000066,-0.04913131649999991,-0.06227222749999939
99062.0,1.235441767,-1.1198213634999998,10.4259399475,-0.180667757520193,-0.013381439375040525,0.6504719949135227,10.558434544698157,0.6752286410497567,-0.160436794,-0.09090764549999997,0.09698776850000002
99072.0,1.0211664645,-1.2096502775,10.490565770999998,-0.19159177330842553,0.0497715542791223,0.6720564817729365,10.609335744416427,0.7006029759484641,-0.21427530249999993,-0.08982891400000015,0.06462582349999835
99082.0,0.8248373314999999,-1.31016844,10.6103049675,-0.2051809068644534,0.076949821391178,0.6771179366037201,10.722661491810848,0.711694583107342,-0.1963291330000001,-0.10051816250000001,0.1197391965000012
99092.0,0.636843851,-1.3963688934999998,10.7383798165,-0.2099788169781858,0.062027256286626475,0.6763185758063067,10.847498202844077,0.7108764309517347,-0.18799348049999998,-0.08620045349999983,0.12807484900000077
99102.0,0.48248717999999996,-1.49453346,10.816146551,-0.19212584405953578,0.003139847324337799,0.6744545641651768,10.92956771124243,0.7012924908481822,-0.154356671,-0.09816456650000016,0.07776673449999905
99112.0,0.332837701,-1.584362374,10.8760651825,-0.1500232665136766,-0.10051351162235345,0.6613977560310071,10.995898277146011,0.6856069852305636,-0.14964947899999997,-0.08982891399999993,0.05991863150000043
99122.0,0.2119217065,-1.5855391719999998,10.896364948,-0.09113585755138791,-0.212694549294289,0.6344847789652546,11.013156421100872,0.6753633470730519,-0.12091599449999998,-0.0011767979999999234,0.020299765500000788
99132.0,0.18799348049999998,-1.5364078555,10.860472609,-0.029316295445748753,-0.3112864534101967,0.6067724411020887,10.970221325843516,0.6825917495372682,-0.023928226000000025,0.0491313164999998,-0.035892339000000106
99142.0,0.228691078,-1.5029671789999999,10.783882672499999,0.00638965039155124,-0.35685176419201264,0.5787930678633675,10.890515848413873,0.679989282743314,0.040697597500000016,0.033440676500000155,-0.07658993650000134
99152.0,0.31126307099999995,-1.3975456915,10.721610445,0.004790928796724435,-0.3328691949403585,0.5425547966042092,10.816790152052118,0.6365458045240834,0.08257199299999995,0.10542148749999991,-0.06227222749999939
99162.0,0.4130560979999999,-1.2706476404999998,10.757502783999998,-0.051700143102576035,-0.25213200907235284,0.500453964387602,10.840158066844364,0.5627589406370681,0.10179302699999998,0.12689805100000018,0.03589233899999833
99172.0,0.521909913,-1.1689526799999999,10.811439359,-0.1353677367846802,-0.1785873250518158,0.46767842636440055,10.886967499662207,0.5185951863622063,0.10885381500000008,0.10169496049999993,0.053936575000001596
99182.0,0.6225261419999999,-1.0983448,10.794669987499999,-0.2099788169781858,-0.15806923436537043,0.4636816223773335,10.868247339667683,0.5329893370067443,0.10061622899999989,0.07060787999999985,-0.016769371500000574
99192.0,0.7195139105,-1.123449824,10.6905233645,-0.2635377357341358,-0.1788543604273709,0.4921933210379129,10.773445576108372,0.5862553075871374,0.09698776850000013,-0.02510502399999992,-0.10414662299999833
99202.0,0.740990474,-1.21798593,10.546855941999999,-0.29524687758436874,-0.20416861589829668,0.532163106237835,10.642778155610376,0.6419136344414619,0.021476563499999934,-0.09453610600000006,-0.14366742250000186
99212.0,0.7195139105,-1.275452899,10.3588624615,-0.29764495997660895,-0.22761711439884047,0.5689354482481036,10.46185986625917,0.681241232780285,-0.021476563499999934,-0.057466969000000034,-0.18799348049999942
99222.0,0.6320385924999999,-1.3269378115000001,10.214018240999998,-0.2795249516824038,-0.238541130187073,0.5950473191871907,10.319225037059638,0.6993692740432902,-0.08747531800000008,-0.05148491250000009,-0.14484422050000134
99232.0,0.43816112199999996,-1.3234074174999997,10.141056765,-0.24222028425027703,-0.24307200492525027,0.6089034881187737,10.23642636238246,0.6989407153141641,-0.19387747049999998,0.0035303940000004363,-0.07296147599999792
99242.0,0.2848831825,-1.3186021589999999,10.114676876499999,-0.18599624772653173,-0.26012561704648685,0.603574997912435,10.20424217653592,0.6830539648645345,-0.15327793949999996,0.004805258499999798,-0.02637988850000106
99252.0,0.2334963365,-1.3174253609999997,10.1278177875,-0.13323668976799513,-0.2587921854979632,0.5809258602093046,10.2158124130079,0.6497693943508464,-0.051386845999999986,0.0011767980000001454,0.013140911000000699
99262.0,0.21074490849999997,-1.3221325529999999,10.1852847565,-0.10472499110741576,-0.23614304779483278,0.5542799185191072,10.272899954499325,0.6115203110754615,-0.022751428000000046,-0.004707192000000138,0.057466969000000034
99272.0,0.19995759349999997,-1.2982043269999999,10.267954816,-0.09939650090107707,-0.21535966706208431,0.5268328707022444,10.351628549037944,0.5777649385700359,-0.010787314999999992,0.023928225999999997,0.08267005949999984
99282.0,0.25497289999999995,-1.2814349555,10.352880405,-0.10818946967262451,-0.22441967120918688,0.4991222781683304,10.434999731918763,0.5578460349752676,0.05501530649999997,0.016769371499999908,0.08492558900000091
99292.0,0.3076346105,-1.3041863834999998,10.4043653175,-0.11458435605193172,-0.2750464368217864,0.49059459944308614,10.490298319708604,0.5739888309565953,0.05266171050000007,-0.02275142799999985,0.051484912499999425
99302.0,0.4345326615,-1.3724406674999998,10.373278237,-0.10499202648297089,-0.3344679165351853,0.5039184429528107,10.47269370324254,0.6138614745725405,0.12689805099999996,-0.068254284,-0.031087080500000752
99312.0,0.5064154059999999,-1.433536097,10.2966883005,-0.0887377751591477,-0.36004920738166624,0.53189607086228,10.408327063581817,0.6484005356838419,0.07188274449999993,-0.06109542950000013,-0.07658993649999957
99322.0,0.46091255,-1.434712895,10.3086524135,-0.0818088180287302,-0.3344679165351853,0.5630728872906545,10.418212709106403,0.6600095047046517,-0.045502855999999925,-0.0011767980000001454,0.01196411300000122
99332.0,0.34597861199999996,-1.4155899275,10.3468983485,-0.09726370855514,-0.27797858996513686,0.5838562680234031,10.449014378255631,0.6539269586055623,-0.11493393800000001,0.0191229675000002,0.038245934999999065
99342.0,0.1460210185,-1.376069128,10.429470341499998,-0.12577540721571936,-0.228681765242557,0.5913175505756789,10.520871636281214,0.6463522634241738,-0.19995759349999997,0.03952079949999998,0.0825719929999984
99352.0,0.017946169499999998,-1.401174152,10.45585023,-0.15082262731109,-0.22441967120918688,0.5779937070659541,10.549332448142094,0.6381131397663767,-0.128074849,-0.025105024000000142,0.02637988850000106
99362.0,0.0263798885,-1.4969851225,10.410347374,-0.16121606300671623,-0.25079857752382917,0.5441535181990361,10.517461328802323,0.6204785224548472,0.008433719000000003,-0.09581097049999987,-0.045502855999998815
99372.0,0.031185147,-1.5089492355,10.331403841499998,-0.1470928586995781,-0.27637986837031003,0.5060494899694958,10.441063434577455,0.5950699345616369,0.0048052584999999995,-0.01196411300000011,-0.07894353250000208
99382.0,0.136508568,-1.49453346,10.225982354,-0.11405203063007345,-0.29583156288378687,0.4788712228574402,10.335520304102564,0.574318576549712,0.105323421,0.014415775500000061,-0.10542148749999924
99392.0,0.252619304,-1.4993387185,10.154197675999999,-0.08474097117208068,-0.2952974921326766,0.4660797047695737,10.267402960283114,0.5582221173091663,0.11611073599999999,-0.00480525850000002,-0.07178467800000021
99402.0,0.3052810145,-1.5352310574999999,10.143410360999999,-0.06262415889080854,-0.3008947630438224,0.47007650875664075,10.263474297204084,0.5616327695111918,0.052661710500000014,-0.035892338999999884,-0.010787314999999964
99412.0,0.27654753,-1.6094673979999998,10.1493924175,-0.046102872191430215,-0.31501622202170854,0.47434034811926296,10.27993337945244,0.5712787942983997,-0.028733484500000017,-0.07423634049999994,0.00598205650000061
99422.0,0.2370267305,-1.761470473,10.0895718525,-0.03944269576581985,-0.31848070058691724,0.46208290078250674,10.244921671978886,0.5625889174976563,-0.03952079949999998,-0.1520030750000001,-0.05982056499999899
99432.0,0.08139519499999999,-1.8919969844999998,9.999742938499999,-0.021855012893472994,-0.3267413439366064,0.42238015095813974,10.17748183998413,0.5344553670321728,-0.15563153550000003,-0.13052651149999983,-0.0898289140000017
99442.0,-0.175931301,-1.8991558389999998,9.8369525485,0.03783175686622909,-0.3613808936009379,0.3522999455028114,10.020148709720829,0.5061053681682124,-0.257326496,-0.007158854500000089,-0.16279038999999962
99452.0,-0.3327396345,-1.829724757,9.6957367885,0.142818547361444,-0.4261308635206756,0.25317746129429747,9.87248298163224,0.5158327996771194,-0.15680833349999998,0.06943108199999992,-0.1412157599999997
99462.0,-0.350685804,-1.676544884,9.6274825045,0.2811132013017187,-0.47968978227662556,0.1433945060146021,9.778660575745908,0.5741854260793013,-0.017946169499999998,0.15317987300000002,-0.068254284
99472.0,-0.24653918099999997,-1.4514822665,9.785467635999998,0.4098137803437805,-0.48715106482890125,0.04320388030386763,9.895603023208617,0.6380674492535281,0.10414662300000002,0.2250626174999999,0.1579851314999985
99482.0,-0.0789435325,-1.2659404485,9.900401574,0.4977469587177588,-0.4855523432340745,-0.033803536952626174,9.981321987939955,0.6961722430859955,0.16759564849999997,0.18554181799999991,0.11493393800000185
99492.0,0.196329133,-1.110308913,10.0236711645,0.5526375636929804,-0.5060704339205198,-0.08683013028671789,10.086888252815164,0.7543573638658435,0.27527266549999996,0.1556315355000002,0.12326959049999964
99502.0,0.5818285445,-0.998905369,10.198523734,0.5571666931019058,-0.5239234068391698,-0.11214264042839166,10.263830802598672,0.7729854021508603,0.3854994115,0.11140354399999985,0.1748525695000005
99512.0,0.9110377849999999,-0.856512811,10.240398129499999,0.5070722529111645,-0.5388442266144693,-0.0892282126789581,10.31646053119828,0.7452764884028148,0.3292092404999999,0.14239255800000006,0.04187439549999894
99522.0,1.3683218744999999,-1.0360725725,10.190090015,0.3964899368340558,-0.5188602066791342,-0.009288642279113822,10.333619193754172,0.6530746228121078,0.4572840895,-0.17955976149999997,-0.050308114499999945
99532.0,1.6460462025,-1.2312249075,9.992584084,0.2446061493377533,-0.45810704074646363,0.11435048193216449,10.201819423486342,0.5317614707680913,0.27772432800000013,-0.19515233499999995,-0.19750593099999847
99542.0,1.7166540825,-1.4729588299999998,9.749575297,0.10684556614858887,-0.3736383409376941,0.2529104259187423,10.008532730910737,0.4636650389696043,0.07060788000000007,-0.24173392249999992,-0.24300878700000084
99552.0,1.6340820895,-1.9135716145,9.5723691315,0.0018587756533739608,-0.2729153898051013,0.36962059299960315,9.897587149843082,0.4594623464537418,-0.08257199300000018,-0.4406127845000001,-0.17720616549999946
99562.0,1.2796697584999999,-2.50854107,9.520884219,-0.0778120140416632,-0.1684626700609967,0.395201883846084,9.92862373656588,0.43659925530031984,-0.354412331,-0.5949694555000002,-0.0514849125000012
99572.0,0.913391381,-2.5851310065,9.499407655499999,-0.11591604227120339,-0.061877157970954964,0.3896046129349382,9.887159953243641,0.41116549703807215,-0.3662783774999999,-0.07658993650000001,-0.021476563500000267
99582.0,0.33401449899999996,-2.39478393,9.5735459295,-0.07701265324424979,-0.02137504734917455,0.34643912987461445,9.87417527802573,0.3555389038026338,-0.579376882,0.19034707650000016,0.07413827400000095
99592.0,-0.003530394,-2.3409454215,9.784290838,0.05062152962484353,-0.0831946094548137,0.2918138149456959,10.060436627338515,0.30763482393425284,-0.33754489299999996,0.05383850850000016,0.2107449085000006
99602.0,-0.034715541,-2.220029427,9.979443173,0.21769491760125273,-0.20976414148019049,0.24012065316012784,10.223454497804017,0.3860699422052745,-0.031185147000000003,0.12091599449999979,0.1951523349999995
99612.0,0.1568083335,-2.049982116,10.1158536745,0.3495929398329682,-0.31794837516505897,0.1876263852478944,10.3226697657762,0.5084388392838903,0.19152387450000002,0.17004731100000026,0.13641050150000034
99622.0,0.46444294399999997,-1.8165838459999997,10.1948952735,0.3831678386535831,-0.335801348083709,0.14579258840684234,10.365885092716983,0.5299392576396483,0.30763461049999996,0.23339827000000013,0.07904159899999996
99632.0,0.8152268144999999,-1.5903444305,10.2751136705,0.3069597821945027,-0.26145730326575856,0.12500746234484186,10.429369640989727,0.42215055958484343,0.35078387049999993,0.2262394154999996,0.08021839699999944
99642.0,1.051076747,-1.471782032,10.328952179,0.15960512410712546,-0.10690839800166066,0.1354008980404681,10.486093543063165,0.23502468890458644,0.23584993250000008,0.11856239850000017,0.05383850850000016
99652.0,1.0570588035,-1.3496892395,10.406816979999999,-0.007998843961890012,0.04284259714870481,0.16604364371773253,10.547078932694836,0.1716681719312994,0.005982056499999944,0.12209279249999994,0.0778648009999987
99662.0,0.9540889785,-1.2886918765,10.4020117215,-0.15375478045444047,0.11292280260403312,0.2076121505124815,10.5248686635832,0.28194839403862526,-0.10296982499999996,0.06099736300000003,-0.004805258499999354
99672.0,0.8404299049999999,-1.306638046,10.2990418965,-0.24674941365920233,0.11851832818592695,0.24464978256905315,10.415559965471628,0.3671312890073961,-0.11365907350000004,-0.017946169500000053,-0.10296982499999885
99682.0,0.8368014444999999,-1.379599522,10.109871618,-0.2907160028461915,0.1081266378195527,0.2585059515006361,10.237823774174952,0.4037728211238057,-0.003628460499999986,-0.07296147599999991,-0.18917027850000068
99692.0,0.9313375504999999,-1.4406949515,9.902755169999999,-0.3005753677907074,0.10466215925434395,0.25317746129429747,10.050251316917933,0.4066922008223494,0.09453610599999995,-0.06109542950000013,-0.20711644800000073
99702.0,1.028325319,-1.421571984,9.7543805555,-0.28885024587580954,0.12144873600002543,0.24704786496129336,9.910916198258697,0.3990199338384649,0.09698776850000002,0.019122967499999977,-0.14837461449999978
99712.0,1.1348255379999999,-1.3903868369999999,9.692108328,-0.26113965334189554,0.14942810923874653,0.24917891197797842,9.856874169831265,0.3906568936454613,0.10650021899999995,0.03118514700000019,-0.06227222749999939
99722.0,1.166010685,-1.352140902,9.7686982645,-0.2155743425600796,0.18380062352752286,0.26383444170697484,9.930525248910092,0.38712217581811026,0.03118514700000019,0.03824593499999995,0.07658993649999957
99732.0,1.2067082825,-1.3724406674999998,9.8585271785,-0.16228071385043277,0.19792382783466095,0.28834933638048715,10.026479760817608,0.3855570145952449,0.040697597499999905,-0.0202997654999999,0.08982891399999993
99742.0,1.2414238235,-1.3975456915,10.0464225925,-0.12177860322865236,0.2091148789984486,0.3187267920114485,10.218848955556492,0.4001822444446611,0.03471554099999996,-0.025105024000000142,0.18789541400000154
99752.0,1.1276666835,-1.4155899275,10.2427517255,-0.09966179094738022,0.2045857495895233,0.347503780718331,10.401417687130373,0.4153873844057861,-0.11375713999999992,-0.018044235999999936,0.196329132999999
99762.0,1.108543716,-1.4310844345,10.374455035,-0.09486562616289979,0.170211489971495,0.35576442406802017,10.531200743608876,0.40563501300805566,-0.019122967499999977,-0.015494507000000102,0.13170330950000064
99772.0,1.152869774,-1.5076743709999998,10.431922004,-0.11485139142748685,0.12651193616006096,0.3461720944990593,10.603168744404309,0.3860456334601685,0.044326058,-0.07658993649999979,0.057466969000000034
99782.0,1.222300856,-1.4897282014999997,10.379260293499998,-0.14815925487254664,0.09666855128020994,0.3349810433352717,10.556626058412244,0.3788248579554805,0.06943108199999992,0.017946169500000053,-0.05266171050000246
99792.0,1.3239958164999999,-1.4048026124999997,10.294236638,-0.17054135720012192,0.09533511973168626,0.3315165647700629,10.473669044863785,0.38480692858478766,0.10169496049999993,0.08492558900000002,-0.0850236554999988
99802.0,1.5012019819999998,-1.4179435235,10.2307876125,-0.1897260163380436,0.1243808891433759,0.3429746513094057,10.437106227239415,0.4112154888867986,0.1772061654999999,-0.013140911000000255,-0.06344902549999887
99812.0,1.608878999,-1.4191203215,10.172143845499999,-0.21957114654714663,0.16488299976515633,0.37121931459442997,10.395908066824225,0.46173766527709587,0.10767701700000032,-0.0011767979999999234,-0.05864376700000129
99822.0,1.7118488239999998,-1.4598179189999998,10.124287393499998,-0.2456847628154858,0.19099661603349546,0.413054856764734,10.371243415282791,0.5171605405605526,0.10296982499999974,-0.040697597499999905,-0.047856452000001326
99832.0,1.802854536,-1.482569347,10.0105302535,-0.2616719787637538,0.19952254942948777,0.4690118579129242,10.279056975368828,0.5729341978481594,0.09100571200000007,-0.022751428000000296,-0.11375713999999704
99842.0,1.8925853835,-1.5280722029999998,9.886083865,-0.2616719787637538,0.21177999676624396,0.5348282240056303,10.180939950575903,0.6319527044751573,0.08973084750000004,-0.0455028559999997,-0.12444638850000089
99852.0,1.8315880205,-1.575928655,9.852545122,-0.22463434670718216,0.23096465590416562,0.613434362856951,10.144501524645516,0.6928975245526611,-0.06099736300000003,-0.047856452000000216,-0.03353874299999937
99862.0,1.514342893,-1.549646833,9.893242719499998,-0.16148135305301936,0.23442913446937438,0.6944385841005118,10.127728827903434,0.7505186163976331,-0.3172451274999999,0.026281822000000066,0.040697597499997684
99872.0,1.096579603,-1.6885089969999998,9.955514947,-0.11191923828413637,0.21204703214179907,0.744533024291253,10.157058005082277,0.7821887777247422,-0.4177632900000001,-0.13886216399999984,0.062272227500001165
99882.0,0.726672765,-1.8237427004999998,9.992584084,-0.09006946137841937,0.19286062767462542,0.7434683734475365,10.183605816253392,0.7733388338217437,-0.3699068379999999,-0.13523370349999997,0.03706913700000136
99892.0,0.359119523,-1.9434818969999998,10.01651231,-0.08607265739135236,0.1790044587430424,0.6923075370838268,10.209633077253462,0.7202366447934824,-0.367553242,-0.11973919650000009,0.023928225999998887
99902.0,0.2478140455,-2.0356644069999996,10.106341224,-0.09673138313328172,0.1686127683766682,0.5995781939253679,10.312297237521596,0.6303024962455153,-0.1113054775,-0.09218250999999977,0.08982891399999993
99912.0,0.3052810145,-2.0918565115,10.1852847565,-0.12364436019903428,0.15449130939878206,0.49698948582239333,10.402359623350385,0.5349336795405442,0.05746696900000001,-0.05619210450000045,0.0789435325000003
99922.0,0.475230259,-2.0404696655,10.1733206435,-0.15988263145819256,0.12464617918967903,0.4266439903207619,10.38680957610941,0.47236026537527914,0.16994924449999999,0.05138684600000021,-0.011964112999999443
99932.0,0.6763646504999999,-2.000948866,10.062015166,-0.18626328310208684,0.09933192371875328,0.40106269947428097,10.281313860864607,0.45322415051631326,0.20113439149999995,0.03952079949999998,-0.1113054775000002
99942.0,0.6954876179999999,-2.084697657,9.9040300345,-0.18279880453687808,0.08547750011642229,0.4191827077684861,10.144923768672227,0.4652267710035448,0.019122967499999977,-0.0837487910000001,-0.15798513150000026
99952.0,0.5985979159999999,-2.185313886,9.719665014499999,-0.15588582747112553,0.07828150761044966,0.4373027160626912,9.980270749808303,0.4708099947069191,-0.09688970200000002,-0.10061622899999989,-0.18436502000000132
99962.0,0.487194372,-2.3253528479999996,9.567563873,-0.11458435605193172,0.08014726458083161,0.4293091080885572,9.858138905886086,0.45150799434718564,-0.11140354399999991,-0.14003896199999977,-0.15210114149999931
99972.0,0.320873588,-2.4258710105,9.505389712,-0.06955311602122603,0.08680918633569396,0.39999804863056443,9.81530659714997,0.4151769618955112,-0.166320784,-0.10051816250000023,-0.06217416099999973
99982.0,0.117287534,-2.428322673,9.516177027,-0.028249899272780217,0.09347110809055632,0.35736314566284694,9.821819209242257,0.37046365912818474,-0.203586054,-0.0024516624999999515,0.010787314999999964
99992.0,0.016769371499999998,-2.358891591,9.586784907,0.0021258110289290935,0.10466215925434395,0.30993382323990104,9.872745089537863,0.3271355398614076,-0.10051816250000001,0.06943108199999992,0.07060788000000073
100002.0,0.0418743955,-2.3564399285,9.6274825045,0.009854128956759984,0.12171577137558055,0.2598376377199078,9.911759782000427,0.28710177783307284,0.025105024000000004,0.0024516624999999515,0.04069759749999946
100012.0,0.1436674225,-2.4150836955,9.687303069499999,-0.005068436147791532,0.12944234397415946,0.21560575848661553,9.984844032076907,0.25152902924135345,0.10179302700000001,-0.05864376699999996,0.05982056499999899
100022.0,0.2478140455,-2.4294994709999997,9.687303069499999,-0.011995647948957027,0.12118344595372228,0.19109086381310317,9.990381386167419,0.2265944425085752,0.104146623,-0.014415775499999839,0.0
100032.0,0.30165255399999996,-2.3983143239999998,9.614341593499999,0.012252211349000192,0.09560215510724139,0.20334831114985932,9.913549825190893,0.22503427381532265,0.053838508499999965,0.03118514699999997,-0.07296147599999969
100042.0,0.2729190695,-2.3540863325,9.531671534,0.056484090582292486,0.08307767239493008,0.24651553953943509,9.821861814922155,0.2661996682452605,-0.02873348449999996,0.044227991499999675,-0.08267005949999984
100052.0,0.1413138265,-2.3444758155,9.475381362999999,0.10551387992931718,0.10093064531358008,0.2867506147856604,9.762140565537466,0.32178578138430586,-0.131605243,0.00961051700000004,-0.056290171000000555
