timestamp,ax,ay,az,gx,gy,gz,acc_mag,gyro_mag,dax,day,daz
139532.0,-0.7895333914999999,1.6434964734999997,10.374553101499998,0.09625839890599126,0.01906772207803805,0.22080160366980262,10.533555700263024,0.24162492745647504,0.0,0.0,0.0
139542.0,-0.473465062,1.490218534,10.3996581255,0.04243244477448614,0.0707608838636061,0.2173388704338459,10.516549318635365,0.23247322352511615,0.3160683294999999,-0.15327793949999968,0.02510502400000192
139552.0,-0.5357372895,1.558472818,10.3541552695,0.007260569688296411,0.1514998150608638,0.2072124701137748,10.484482977844939,0.2567915839865601,-0.0622722275,0.068254284,-0.04550285600000059
139562.0,-0.4663062075,1.709299095,10.288352648,-0.02045176817486955,0.18667343547630552,0.2104099133034284,10.439796218553765,0.28202407335254426,0.06943108199999998,0.15082627699999995,-0.0658026214999996
139572.0,-0.366964843,1.710475893,10.221275162,-0.047099455194318976,0.20266065142457357,0.23758992574473609,10.369901490074545,0.31581429849014653,0.09934136450000003,0.0011767979999999234,-0.06707748600000052
139582.0,-0.34656701100000004,1.697334982,10.2141163075,-0.05189561997879939,0.1872057608981638,0.2879514013110325,10.359981982482973,0.34735451890457925,0.02039783199999995,-0.01314091099999981,-0.007158854500000089
139592.0,-0.40648564249999997,1.7356789835,10.172241911999999,-0.03590665870127934,0.15256621123383232,0.34470776325663605,10.327260896654622,0.3786676365874559,-0.05991863149999993,0.038344001499999836,-0.041874395500000716
139602.0,-0.4292370705,1.7368557814999999,10.094377110999998,-0.014590952546672595,0.1088649120931463,0.38148010526690457,10.251700431026165,0.39697800404520694,-0.022751428000000018,0.0011767979999999234,-0.07786480100000048
139612.0,-0.413644497,1.7416610399999999,9.986700093999998,0.011257373675363426,0.07902152721329526,0.37828091674799896,10.145869293246973,0.38661037518526953,0.015592573499999984,0.00480525850000002,-0.10767701700000032
139622.0,-0.2376151295,1.7918710879999997,9.7855657025,0.03470587217590724,0.11073066906352824,0.32339031177277733,9.95110843392443,0.34357979041736597,0.1760293675,0.05021004799999984,-0.20113439149999834
139632.0,0.175342902,1.8780715415,9.643075077999999,0.047495644934521686,0.2338374678529483,0.2080118309111882,9.82582285654584,0.3165512904074939,0.4129580315,0.08620045350000027,-0.1424906245000006
139642.0,0.5153394575,2.1702116449999997,9.8118475245,0.06481629243131341,0.42808737761216115,0.10302678574522527,10.062193855446573,0.4450555844120947,0.33999655549999996,0.29214010349999975,0.16877244650000023
139652.0,0.6793066455,2.542472079,10.172241911999999,0.10265328528529848,0.5898305300529797,0.08011061266653972,10.507146487384881,0.6040326658586043,0.16396718799999999,0.3722604340000002,0.3603943874999995
139662.0,0.753542986,2.8668760609999997,10.7444599395,0.14288836053152376,0.661774747149438,0.14965674737075776,11.145861329318835,0.6933686188267277,0.07423634050000005,0.32440398199999976,0.5722180275000017
139672.0,0.6924475565,3.0273128549999995,11.3585523625,0.1578109256360753,0.6154100755702085,0.2956779739096113,11.775432837573547,0.7007562440811622,-0.06109542950000002,0.16043679399999977,0.6140924229999989
139682.0,0.5716296285,3.058498002,11.7751388545,0.13116498394587786,0.48404437876035133,0.47154433065756796,12.17928838246195,0.688372914486262,-0.12081792800000002,0.031185147000000413,0.4165864920000004
139692.0,0.35607946149999997,2.9015916019999994,11.955875414,0.06401693163390001,0.32709913643326527,0.6279572475627958,12.308086095034788,0.7109305995368674,-0.21555016700000001,-0.15690640000000045,0.18073655949999967
139702.0,0.20289958849999998,2.6274957345,11.857710847499998,-0.03430793710645254,0.1834759922866519,0.7265474063494516,12.147024681820165,0.7501410587130843,-0.153179873,-0.27409586749999937,-0.09816456650000127
139712.0,0.072373077,2.3653639799999997,11.594402294999998,-0.13849536680425403,0.06463303285985401,0.7707810309119958,11.833441984412529,0.7857873714795033,-0.1305265115,-0.26213175450000037,-0.26330855249999985
139722.0,-0.1442558215,2.089993248,11.2077260855,-0.2218976704400551,-0.006778858814745976,0.7867682468602638,11.401842198799251,0.8174893291909849,-0.2166288985,-0.27537073199999984,-0.38667620949999915
139732.0,-0.366964843,1.7392093775,10.730044163999999,-0.29037915430055655,-0.04621457326355785,0.7843701644680237,10.876275107598758,0.8376708153814562,-0.2227090215,-0.35078387049999993,-0.47768192150000033
139742.0,-0.47464185999999997,1.4112750015,10.330227043499999,-0.33407870811199064,-0.06859842092038514,0.7627874229378618,10.436981019211533,0.8355590817881949,-0.10767701699999999,-0.32793437599999997,-0.39981712049999985
139752.0,-0.5500549985,1.1011887285,9.968655858,-0.33514510428495914,-0.07206289948559387,0.7404035752810344,10.044365422085558,0.8159122236474861,-0.07541313849999998,-0.310086273,-0.361571185499999
139762.0,-0.5860454039999999,0.852197885,9.750850161499999,-0.2850489187649659,-0.07286226028300727,0.7289454887416917,9.805547884884993,0.7860809885880009,-0.03599040549999999,-0.2489908434999999,-0.21780569650000103
139772.0,-0.6458659689999999,0.7289282944999999,9.626305706499998,-0.18752515615127877,-0.07765842506748769,0.7348080496991406,9.675445254014381,0.7623249865222698,-0.05982056499999999,-0.12326959050000019,-0.12454445500000055
139782.0,-0.6997044775,0.5947733225,9.635916223499999,-0.07187963991413447,-0.08618435846348,0.7436010184706882,9.679577631658404,0.7520218753125417,-0.05383850850000005,-0.13415497199999982,0.009610517000000485
139792.0,-0.7583482444999999,0.561332646,9.767619533,0.02404714643397787,-0.1234890258956068,0.7420022968758613,9.81308196953662,0.7525923287792116,-0.05864376699999996,-0.033440676500000044,0.13170330950000064
139802.0,-0.7667819634999999,0.6068355019999999,9.8538199865,0.0981241558763732,-0.19543498832131703,0.7308112457120737,9.90222057078024,0.7628291168314415,-0.008433719000000006,0.045502855999999925,0.08620045350000005
139812.0,-0.724907568,0.6714613255,9.845386267499999,0.15088371383490978,-0.2884296215260789,0.7129582727934236,9.894846236807496,0.7837518997864528,0.04187439549999994,0.06462582350000012,-0.008433719000001005
139822.0,-0.5213215139999999,0.7289282944999999,9.7424164425,0.18898774206445002,-0.37902791766785254,0.6913755312632618,9.783546939560125,0.810788908564865,0.20358605400000007,0.05746696899999981,-0.10296982499999885
139832.0,-0.24124358999999998,0.9072131914999999,9.4635153165,0.21963048774171443,-0.4421791659927634,0.6823155271161593,9.509960903714473,0.84220807674085,0.280077924,0.17828489700000005,-0.27890112599999917
139842.0,0.0508965135,1.1143296395,9.1869677865,0.2425466608204,-0.4483070169965155,0.6993691392373959,9.254442074525258,0.8654046782177088,0.29214010349999997,0.20711644800000006,-0.2765475300000002
139852.0,0.269879008,1.317817627,8.949941056,0.2691926025105974,-0.39128361967535674,0.7497306148036922,9.050465340680853,0.8875040974815834,0.21898249449999999,0.20348798749999997,-0.23702673050000023
139862.0,0.338133292,1.502182647,8.842264039,0.3032998267530706,-0.29455921785908296,0.8206101810564339,8.975328415356135,0.9231234949819394,0.068254284,0.18436502,-0.10767701700000032
139872.0,0.32734597699999995,1.603975674,8.764399238,0.3459329843915361,-0.17624858385414338,0.8890899195876834,8.915973718809225,0.9701618824263603,-0.01078731500000002,0.10179302700000004,-0.07786480100000048
139882.0,0.33931008999999995,1.5381730525,8.729683696999999,0.3877685265618402,-0.02649758870377791,0.9285273793657473,8.870653027048265,1.0065930889047856,0.011964112999999998,-0.06580262150000005,-0.03471554100000063
139892.0,0.371672035,1.4687419704999998,8.8721743215,0.4136151074546242,0.1530985366556906,0.9157358612778808,9.00060110595916,1.0164097533333474,0.03236194500000006,-0.06943108200000014,0.1424906245000006
139902.0,0.43394426249999996,1.592011561,9.194126641,0.40268934633713965,0.3079127319660916,0.8752337506561004,9.341026342113604,1.0114361465005095,0.062272227499999944,0.1232695905000003,0.32195231950000114
139912.0,0.674501387,2.0157569075,9.5090181725,0.335808329400717,0.4070369615038576,0.8488548443414582,9.743698201203387,0.9995003095983285,0.2405571245,0.42374534650000006,0.31489153149999893
139922.0,0.8721053844999999,2.4395022539999998,9.7663446685,0.23615177444109275,0.4795152493514261,0.8821627077865178,10.10411932000426,1.0314618645114702,0.1976039974999999,0.4237453464999996,0.257326496000001
139932.0,0.8181688095,2.7233067049999997,9.895694381999999,0.13995795271742528,0.5008327008352849,0.9794211803539019,10.296143302823777,1.1089127428615153,-0.05393657499999982,0.28380445099999996,0.12934971349999813
139942.0,0.7618786384999999,2.8190196089999997,9.913640551499999,0.08266926534996341,0.4571314016945988,1.0961313474347627,10.334776223996062,1.190507142640446,-0.05629017100000011,0.09571290399999999,0.017946169500000053
139952.0,0.6183092825,2.774693551,9.8310685585,0.08346862614737681,0.39344782794782973,1.2187040754730725,10.233823316469458,1.283358028159902,-0.14356935599999998,-0.04432605799999978,-0.0825719929999984
139962.0,0.49621648999999995,2.538941685,9.702895643,0.14288836053152376,0.3366914660022261,1.350336807658485,10.04184442937287,1.3989952540918154,-0.12209279249999999,-0.23575186599999975,-0.12817291550000043
139972.0,0.39079500249999993,2.1750169034999995,9.547362174,0.22495897794805314,0.3284308226525369,1.4790373867005466,9.799772637465407,1.5316739007653153,-0.10542148750000002,-0.3639247815000006,-0.15553346899999987
139982.0,0.0891424485,1.8086404595,9.444392349,0.29184174021372783,0.39051742013373125,1.5725660906564187,9.61642727470627,1.646402006267392,-0.3016525539999999,-0.36637644399999947,-0.10296982500000063
139992.0,-0.216138566,1.4579546554999998,9.468320575,0.3334102470084768,0.4659261157953982,1.5978803461273445,9.582350555483503,1.6974896579156182,-0.3052810145,-0.35068580400000027,0.023928226000000663
140002.0,-0.5129858615,1.1071707849999999,9.658667651499998,0.3643200280612963,0.5301437602932776,1.5557795139107373,9.7354425910376,1.6835175631186061,-0.2968472955,-0.35078387049999993,0.19034707649999838
140012.0,-0.7787460764999999,0.829446457,9.929233125,0.383504687199218,0.5498607448530576,1.4625178453304204,9.994203186212058,1.6088446574309356,-0.2657602149999999,-0.2777243279999999,0.2705654735000014
140022.0,-0.8828926994999999,0.7576617789999999,10.210487847,0.40482213868307676,0.5120237519990725,1.3388787211191422,10.27655647402974,1.4895118383029984,-0.104146623,-0.0717846780000001,0.2812547219999999
140032.0,-0.844548698,0.8880902239999999,10.381711956,0.4218757508043134,0.4219595266084091,1.231228558185384,10.45379882562369,1.3681932442836995,0.03834400149999995,0.13042844500000006,0.17122410900000062
140042.0,-0.6530248234999999,1.2149458684999999,10.524104513999998,0.4173448760661361,0.300718484789371,1.1742051608642252,10.61410903962681,1.281938419922289,0.19152387450000008,0.32685564449999993,0.1423925579999974
140052.0,-0.42198014949999996,1.4184338559999998,10.491840635500001,0.4005582993204546,0.1594934230349978,1.191525808361017,10.595694492158035,1.2671301650328946,0.23104467399999995,0.20348798749999997,-0.03226387849999668
140062.0,-0.19338713800000001,1.440008486,10.368571044999998,0.37177956528432016,0.041184534359310195,1.2687985156638137,10.46987528770559,1.3227871651872376,0.22859301149999994,0.02157463000000015,-0.12326959050000319
140072.0,-0.1874050815,1.4124517994999999,10.2272572185,0.3347419332277485,-0.03582288289718362,1.3628612903707962,10.326031714257088,1.4038256079696179,0.005982056500000027,-0.027556686500000094,-0.14131382649999757
140082.0,-0.1885818795,1.3693025395,10.042892198499999,0.29130941479186956,-0.06886545629594026,1.4427991154413886,10.137565599326548,1.4735239779982146,-0.0011767980000000067,-0.043149259999999856,-0.18436502000000132
140092.0,-0.226925881,1.2628023204999999,9.849014728,0.23615177444109275,-0.039020326086837226,1.4811701790464837,9.932233191407093,1.500385065813504,-0.0383440015,-0.10650021900000017,-0.1938774704999986
140102.0,-0.3764772935,1.1921944405,9.750850161499999,0.17246645536507169,0.03612133419927464,1.4665146493174872,9.830673507369918,1.4770628441854872,-0.14955141249999998,-0.07060787999999985,-0.09816456650000127
140112.0,-0.5081806029999999,1.1837607215,9.7855657025,0.10958049708646399,0.11179706523649678,1.4081595657770571,9.869996610383204,1.4168344405140072,-0.13170330949999992,-0.008433719000000117,0.03471554100000063
140122.0,-0.5010217485,1.3322334025,9.9124637535,0.05175948429714383,0.16375726239761995,1.318894701183807,10.01413033146953,1.3300295929088919,0.007158854499999867,0.1484726810000001,0.1268980510000013
140132.0,-0.4148212949999999,1.5860295045000001,10.209311049,0.008592255907568085,0.17548063898326588,1.2368240837672777,10.340096633550553,1.249240207368592,0.08620045350000011,0.25379610200000013,0.2968472954999992
140142.0,-0.134743371,1.8853284625,10.509786805000001,-0.02764601535159018,0.1064668297009061,1.1952555769725286,10.678400529765362,1.20030637017193,0.2800779239999999,0.29929895799999984,0.30047575600000087
140152.0,0.19809432999999999,2.321037922,10.7803522785,-0.05136154922768913,-0.015571827586293408,1.223500240257553,11.029163778251748,1.2246768261315863,0.332837701,0.43570945949999995,0.2705654734999996
140162.0,0.32734597699999995,2.550905798,11.0700407195,-0.06681643975409891,-0.17464986225931659,1.3561993686159337,11.364861517428013,1.369030218235839,0.12925164699999997,0.22986787600000014,0.28968844099999913
140172.0,0.1909354755,2.59876225,11.302262191499999,-0.08733453044054425,-0.4141997927540423,1.5882880165583837,11.598756495126528,1.6437297868164724,-0.13641050149999995,0.047856451999999994,0.2322214719999991
140182.0,0.131016844,2.1223551929999998,11.350118643499998,-0.11291407595777316,-0.6963846262164856,1.8491553985369684,11.547586336555012,1.9791606362593428,-0.059918631500000014,-0.4764070570000003,0.04785645199999955
140192.0,-0.3525490675,1.4722723645,11.1059330585,-0.12330751165339938,-0.9092868696917619,2.0801776503064495,11.208640678518902,2.2735756883505016,-0.48356591149999995,-0.6500828284999998,-0.24418558499999854
140202.0,-1.1486529145,1.0066526225,10.549307604500001,-0.12810367643787982,-1.006547087588398,2.1971548527628655,10.659298473855445,2.420131615939306,-0.7961038469999999,-0.4656197419999999,-0.5566254539999989
140212.0,-1.8190355084999998,0.46434487750000003,10.024946028999999,-0.1430244962131793,-0.9665773023884757,2.1606495461281523,10.19921806957804,2.3713148566129734,-0.6703825939999999,-0.542307745,-0.5243615755000022
140222.0,-2.2846552505,-0.2527173705,9.4766562275,-0.16940514785707364,-0.7901786202186607,1.975724930562345,9.751437275458638,2.134612226428193,-0.46561974200000034,-0.717062248,-0.5482898014999993
140232.0,-2.5492386675,-0.5986959825,9.135482874,-0.1957840541717159,-0.5154550693084933,1.6946064932728704,9.50337319084577,1.7820540091103614,-0.2645834169999999,-0.345978612,-0.34117335350000033
140242.0,-2.6043520405,-0.567608902,9.032513048999999,-0.1856593991808968,-0.2020951647469274,1.3884408358880251,9.417596370456817,1.415302025321711,-0.055113372999999743,0.031087080499999975,-0.10296982500000063
140252.0,-2.4678434725,-0.23839966149999997,9.3581918955,-0.11051599356553293,0.07555879397733851,1.1531547447559214,9.681055797606273,1.1608999877397626,0.136508568,0.32920924050000006,0.3256788465000007
140262.0,-2.2691607435,0.17818683049999998,10.0752541435,0.016318828506146982,0.23090531470959783,1.0457698718684663,10.32916197387373,1.071082720163452,0.19868272899999972,0.416586492,0.7170622480000013
140272.0,-2.1877655485,0.38049802,10.901268273,0.15488051782197682,0.18827215707113232,1.0724158135586637,11.125140304658805,1.0997772761335411,0.08139519500000025,0.20231118950000002,0.826014129499999
140282.0,-2.2882837109999996,0.320677455,11.436319097,0.25933323756608145,-0.040619047681664036,1.1901923768124931,11.667410632208849,1.2187951136116533,-0.10051816249999979,-0.05982056499999999,0.5350508240000007
140292.0,-2.5264872395,0.075315072,11.390816241,0.29717023042006646,-0.36277366634402936,1.3082359754418778,11.667883474206283,1.3897468281240888,-0.2382035285000006,-0.24536238300000002,-0.04550285600000059
140302.0,-2.8556964799999998,-0.23477120099999998,10.7958467855,0.27425580267063293,-0.606053365450267,1.354600647021107,11.169620750889175,1.50912552161247,-0.32920924049999956,-0.31008627299999997,-0.5949694554999994
140312.0,-3.0855643559999995,-0.6322347254999999,10.0872182565,0.20630664423198972,-0.6526833270757995,1.2898489317721173,10.567516278549688,1.4602288257977487,-0.2298678759999997,-0.39746352449999994,-0.7086285290000003
140322.0,-3.24600115,-0.6214474105,9.481461486,0.10292032066085362,-0.4669593507125789,1.1390315404487834,10.040957736208226,1.2353284898196004,-0.16043679400000066,0.010787314999999964,-0.6057567704999993
140332.0,-3.212462407,-0.5148491249999999,9.192949843,-0.024715607537491698,-0.15093432838321763,0.9242635400031252,9.751682478106803,0.9368324952303634,0.03353874300000026,0.10659828550000006,-0.2885116430000014
140342.0,-3.0017174984999997,-0.28988457399999995,9.273168239999999,-0.1390276922261123,0.1725502311691674,0.7246833947083215,9.751204551971462,0.7578049247980834,0.21074490850000016,0.22496455099999996,0.08021839699999944
140352.0,-2.6761367185,0.124348322,9.552069366,-0.1885898069949953,0.36466909391169516,0.5983791527292479,9.920645110786083,0.7256771139961347,0.3255807799999997,0.41423289599999996,0.27890112600000094
140362.0,-2.2811248565,0.482291047,9.887260662999998,-0.15554897892549063,0.3699993294472859,0.5805261798105978,10.158447651244046,0.705765991020884,0.39501186200000005,0.35794272499999996,0.33519129699999795
140372.0,-1.9530924139999999,0.6953895514999999,10.040538602499998,-0.06122091417220509,0.22903955773921586,0.6636631934000958,10.252343733715346,0.7047382163721995,0.3280324425000001,0.21309850449999995,0.15327793950000057
140382.0,-1.9255357274999998,0.8258179964999999,9.9016764385,0.0576202999253408,0.041184534359310195,0.793163133239571,10.120911989241298,0.7963190445821906,0.027556686500000094,0.13042844499999995,-0.13886216399999896
140392.0,-2.0416464635,0.701371608,9.5437337135,0.16767029058059124,-0.1266864690852604,0.898149923734786,9.784840091111713,0.9224077586932324,-0.11611073599999999,-0.1244463884999999,-0.35794272499999913
140402.0,-2.3648736475,0.5673147024999999,9.1594111,0.26972492793245567,-0.20955644729920317,0.9386520343565664,9.476776088898367,0.9988658983840387,-0.3232271840000003,-0.13405690550000005,-0.3843226135000002
140412.0,-2.6282802665,0.4080547065,8.892474087,0.3608555494960876,-0.20396092171730934,0.8904233511362071,9.281727274098102,0.9821764248028614,-0.26340661899999995,-0.15925999599999996,-0.2669370129999997
140422.0,-2.660544145,0.4164884255,8.799114778999998,0.4341331981410695,-0.14001031259498511,0.7737114387260943,9.201976888152101,0.8981669732164177,-0.03226387849999979,0.008433719000000006,-0.09335930800000192
140432.0,-2.5804238144999996,0.5457400724999999,8.893650885,0.4796985089228855,-0.03449119667791194,0.6450108596840325,9.276499628277485,0.804573993627341,0.08012033050000023,0.12925164699999991,0.0945361060000014
140442.0,-2.392430334,0.8078718269999999,8.981126202999999,0.4932876424789134,0.07049559381730297,0.5317634258391284,9.32936266130312,0.7287487001911047,0.18799348049999942,0.26213175450000004,0.08747531799999919
140452.0,-2.0404696655,1.0664731875,9.1653931565,0.47276955179246805,0.15602894446978907,0.4686121775142175,9.450148846907076,0.6837056775609108,0.3519606685000003,0.25860136050000004,0.18426695350000166
140462.0,-1.744799168,1.3058535139999998,9.2336474405,0.4338661627655144,0.22184531056249526,0.4800702640535603,9.48735066244164,0.6840487171539005,0.29567049749999996,0.23938032649999985,0.068254284
140472.0,-1.4946315264999999,1.4519725989999999,9.1954015055,0.3952298091141159,0.2548878839612519,0.5458866301462665,9.428550083422488,0.7205321980141289,0.25016764150000004,0.14611908500000004,-0.03824593500000084
140482.0,-1.3700870715,1.4159821934999999,9.167844818999999,0.3744446830521155,0.2839319080436895,0.6474089420762726,9.37718096130525,0.7999778042868739,0.12454445499999989,-0.03599040549999999,-0.027556686500000538
140492.0,-1.5233650109999999,1.3980360239999998,9.194126641,0.3864350950133165,0.32150361085137147,0.7428016576732747,9.42375245705694,0.8969119004063809,-0.1532779394999999,-0.017946169500000053,0.026281822000001398
140502.0,-1.859733106,1.317817627,9.3150426355,0.4237397624454433,0.3316282658421906,0.7920984823958545,9.589852440197769,0.9575764715137037,-0.3363680950000001,-0.08021839699999989,0.1209159944999989
140512.0,-2.220029427,1.2101406099999998,9.538928454999999,0.4930206071033582,0.28819574740631165,0.7769088819157478,9.868339628444382,0.9642165309987295,-0.3602963210000001,-0.1076770170000001,0.22388581949999953
140522.0,-2.3517327365,1.0628447269999999,9.732903991999999,0.5932112328140927,0.20612512998978233,0.6999014646592541,10.069245547464169,0.9403452537139162,-0.13170330949999975,-0.14729588299999996,0.19397553700000003
140532.0,-2.2080653139999997,1.120311696,9.821458041499998,0.6827413874536459,0.15203214048272207,0.6015765959189014,10.128755539948099,0.9225746444810093,0.14366742250000009,0.057466969000000034,0.08855404949999901
140542.0,-1.9914364155,1.3118355705,9.9148173495,0.7264426865943319,0.1786780821729195,0.5216387708483092,10.197565132665481,0.9120042988974987,0.21662889849999978,0.19152387450000008,0.09335930800000192
140552.0,-1.9147484125,1.5428802444999998,10.064466828499999,0.7205801256368829,0.225309789127704,0.49046195441993456,10.360513185842509,0.9003072515941757,0.0766880029999999,0.23104467399999984,0.14964947899999892
140562.0,-1.9686849875,1.709299095,10.2847241875,0.6782122580447205,0.25062404459862975,0.4891302682006628,10.610041262366666,0.8729448424517707,-0.05393657500000004,0.16641885050000016,0.22025735900000143
140572.0,-1.950738818,1.651832126,10.405640181999999,0.6155933351416679,0.23783427184001527,0.47634049544204843,10.715002515435575,0.8138922304153592,0.017946169500000053,-0.057466969000000034,0.1209159944999989
140582.0,-1.9374998405,1.6997866445,10.438002127,0.5471118512811665,0.21864786737284161,0.45342432236336283,10.751514715239646,0.743459402946571,0.013238977500000138,0.0479545185000001,0.03236194500000167
140592.0,-1.8561046454999999,1.7356789835,10.418781092999998,0.47197019099505455,0.20798914163091226,0.4262443099220552,10.724211180905778,0.6691035465196706,0.08139519500000003,0.035892338999999884,-0.019221034000002746
140602.0,-1.768727394,1.744014636,10.3325806395,0.3965614953333876,0.22664147534697565,0.40705965078413353,10.626956587689556,0.6118210009676089,0.08737725149999997,0.008335652500000013,-0.08620045349999828
140612.0,-1.7364635154999999,1.7954995484999998,10.3062988175,0.3246172782369293,0.2548878839612519,0.3993330781855546,10.604664986925718,0.5742918404899611,0.03226387850000001,0.05148491249999987,-0.02628182199999962
140622.0,-1.7064551664999998,1.797951211,10.198523734,0.2500061980434237,0.2839319080436895,0.4078590115815469,10.495451593207994,0.5562997400626161,0.030008349000000045,0.0024516625000001735,-0.10777508349999998
140632.0,-1.677721682,1.717732814,10.133897910499998,0.18712198509406805,0.3095114535609184,0.42224750593498817,10.414472762602124,0.5559720617614298,0.028733484499999795,-0.08021839699999989,-0.0646258235000019
140642.0,-1.7351886509999999,1.6219218435,10.026122827,0.1516830746323232,0.33535803445370244,0.43343855709877577,10.303623103698627,0.568631470446751,-0.05746696899999981,-0.09581097050000009,-0.1077750834999982
140652.0,-1.7627453374999997,1.5417034465,9.908835293000001,0.15141603925676805,0.3580089174860848,0.4302411139091222,10.181804236265318,0.579831542813538,-0.027556686499999872,-0.08021839700000011,-0.11728753399999903
140662.0,-1.8441405324999998,1.498652253,9.949532890499999,0.17539686317917014,0.4049059144871725,0.4265113452976103,10.229370343191833,0.6136976347252475,-0.08139519500000003,-0.04305119349999997,0.040697597499997684
140672.0,-1.9758438419999997,1.417257058,10.086041458499999,0.2140349621598206,0.4438093035141261,0.4062602899867201,10.375008855851686,0.6386118430882279,-0.13170330949999998,-0.08139519500000003,0.136508568
140682.0,-2.021346698,1.3980360239999998,10.327775380999999,0.2500061980434237,0.44007778957336224,0.37002201872756185,10.61618064646165,0.6269671875617768,-0.04550285600000015,-0.01922103400000008,0.24173392249999992
140692.0,-2.1075471515,1.5189520184999998,10.489388972999999,0.2801166182988299,0.3870529415685225,0.3369794453288052,10.80630608752107,0.5846626771037533,-0.08620045350000005,0.12091599450000001,0.16161359200000014
140702.0,-1.9949668095,1.6267271019999998,10.542148749999999,0.3118257601490629,0.3081797673416467,0.31060053901416285,10.851867761013054,0.5372920700393603,0.112580342,0.10777508349999998,0.05275977700000034
140712.0,-1.7986376764999998,1.7499966925,10.507433209,0.3374070509955438,0.24849125225269267,0.2999418132722335,10.802950456087554,0.515321755660147,0.1963291330000001,0.12326959050000008,-0.03471554099999885
140722.0,-1.7148888855,1.8697358889999998,10.478699724499998,0.3488651375348865,0.21704914577801482,0.310865829060466,10.781461130128069,0.5152230386421516,0.08374879099999988,0.11973919649999987,-0.028733484500001794
140732.0,-1.8417869365,1.972705714,10.555289661,0.3406044941851974,0.20132896520530189,0.33351671209284844,10.894855977989053,0.5174728697574548,-0.12689805099999996,0.10296982500000018,0.07658993650000134
140742.0,-1.941128301,2.0074212549999997,10.5959872585,0.31262512094647626,0.17521534893696272,0.3329826413417381,10.957767343681981,0.4891955888852853,-0.09934136450000008,0.03471554099999974,0.04069759749999946
140752.0,-1.9363230424999998,2.009774851,10.639038452,0.26705981016466035,0.15203214048272207,0.3223239155998088,10.998985455930155,0.4453396686940601,0.004805258500000242,0.002353596000000291,0.043051193500000196
140762.0,-1.88483813,2.0492956505,10.554112862999999,0.20071111865009592,0.1347132383151823,0.3175277508153284,10.915197009875824,0.3990695205913091,0.05148491249999987,0.03952079949999998,-0.08492558900000091
140772.0,-1.8046197329999998,2.019385368,10.4116222385,0.13089794857032272,0.13258044596924526,0.31193222523343456,10.758087529038479,0.3633367043561728,0.08021839700000011,-0.02991028249999994,-0.14249062449999883
140782.0,-1.7411707075,2.0277210205,10.254813905,0.06907838646468357,0.15336557203124573,0.30820245662192264,10.597383459883622,0.35111476247634976,0.06344902549999976,0.008335652500000013,-0.156808333499999
140792.0,-1.767550596,2.113921474,10.1015359655,0.026712264201773212,0.18933680791484886,0.3116669351871314,10.470622138629027,0.36564771348814595,-0.02637988849999995,0.08620045350000005,-0.15327793950000057
140802.0,-1.8381584759999998,2.0983289005,10.084766594,0.0035290557475325343,0.24156404045152718,0.32285798635091906,10.463475904928654,0.40324052279539874,-0.07060787999999985,-0.015592573500000206,-0.016769371500000574
140812.0,-1.839335274,1.99663394,10.2164699035,0.003262020371977402,0.27407254309917356,0.3311186297006082,10.570996103946962,0.4298440956818693,-0.0011767980000001454,-0.10169496049999993,0.13170330950000064
140822.0,-2.0811672629999998,2.0349779414999998,10.4139758345,0.026445228826218085,0.273006146926205,0.34364136708366755,10.813107096506743,0.4396829489055672,-0.2418319889999998,0.038344001499999836,0.19750593100000025
140832.0,-2.2512145739999996,2.0145801094999998,10.564802111499999,0.050960123499730434,0.23570147949407821,0.35110264963594334,10.988245707615837,0.4259403622623537,-0.1700473109999998,-0.020397832000000005,0.1508262769999984
140842.0,-2.380466221,1.9116102844999998,10.697682218999999,0.06774670024541189,0.19333361190191586,0.34550712405404943,11.124804635041324,0.40167483572820767,-0.12925164700000025,-0.10296982499999996,0.13288010750000012
140852.0,-2.5253104415,1.9906518835,10.762406109,0.0786724613628964,0.13098172437441843,0.3321832805443247,11.232509648438837,0.36563820939582076,-0.1448442205,0.07904159900000018,0.06472389000000156
140862.0,-2.531292498,2.099603765,10.6677719365,0.08266926534996341,0.052642620898652966,0.3303192689031948,11.16320454751279,0.34455227814850253,-0.005982056500000166,0.1089518814999999,-0.09463417250000106
140872.0,-2.3457506799999996,2.158247532,10.5828463475,0.09279392034078252,-0.023832470935982567,0.34737288102443137,11.052475536136628,0.3603423605327851,0.18554181800000036,0.05864376699999996,-0.08492558899999914
140882.0,-2.1314753774999997,2.2371910644999997,10.534891829,0.1258347484102872,-0.08032179750603104,0.4038622075944799,10.978713813225044,0.43057015431305373,0.21427530249999993,0.07894353249999986,-0.04795451850000099
140892.0,-2.148244749,2.3281967765,10.5755894265,0.1868549497185129,-0.12215733967633513,0.4957921899555252,11.039861749569589,0.5437343868949278,-0.01676937150000013,0.0910057120000003,0.04069759750000124
140902.0,-2.470295135,2.3521250025,10.623543944999998,0.24920683724601034,-0.1618600895007021,0.5903855447551138,11.157711953296538,0.6609522129164311,-0.32205038600000035,0.023928225999999775,0.047954518499997434
