timestamp,ax,ay,az,gx,gy,gz,acc_mag,gyro_mag,dax,day,daz
61052.0,-0.9858625244999999,2.1881578145,9.713682958,0.21030344821905675,0.6106139107857281,0.24744929068925203,10.00577813800159,0.6915981780199255,0.0,0.0,0.0
61062.0,-0.5477014025,2.2216965575,9.849014728,0.22762409571584846,0.5583884235783019,0.25890737722859486,10.111330453123799,0.6562342497310764,0.4381611219999999,0.03353874300000026,0.13533177000000052
61072.0,-0.33577969599999996,2.1067626195,10.126739056,0.22575833874546652,0.5493284194311993,0.26903203221941396,10.349011578285346,0.6520021275026641,0.21192170650000003,-0.11493393800000007,0.2777243279999997
61082.0,-0.2795875915,2.231209008,10.2631495575,0.20630664423198972,0.5439981838956086,0.28262116577544183,10.506602766751657,0.6468161863159076,0.05619210449999995,0.1244463885,0.13641050150000034
61092.0,-0.19936919449999999,2.3270199785,10.325421785,0.16926901217541804,0.5501277802286126,0.2786243617883748,10.586269649607754,0.6394717413960384,0.08021839700000002,0.09581097050000009,0.06227222749999939
61102.0,-0.10002783,2.3127022695,10.451143038,0.14262307048522063,0.5333412034829312,0.2738281970038943,10.704437778550577,0.6162597350481834,0.09934136449999999,-0.014317709000000178,0.12572125300000003
61112.0,0.0412859965,2.438325456,10.628251137,0.15994197265276036,0.4704552452043235,0.2703637184386856,10.904442112920147,0.5656908277533845,0.1413138265,0.12562318649999993,0.1771080989999998
61122.0,0.3405849544999999,2.5831696765,10.716903252999998,0.20977112279719848,0.34601676019563177,0.2583733064774846,11.02908785997205,0.48009195764560236,0.29929895799999995,0.1448442205,0.08865211599999867
61132.0,0.77864801,2.7017320750000002,10.767113300999998,0.2715906849028376,0.21971426354581014,0.2692990675949691,11.128179445225165,0.44108711785654076,0.4380630555,0.11856239850000039,0.050210048000000285
61142.0,1.2910454724999998,2.8716813194999995,10.682187712,0.3270153606291695,0.13897533234855247,0.3055373388541273,11.136538345789134,0.46862165392017285,0.5123974624999998,0.16994924449999926,-0.08492558899999914
61152.0,1.750683158,2.9375820074999996,10.601969314999998,0.36938148289207995,0.11792491624024887,0.35430009282559694,11.139839896816026,0.5252404416551035,0.45963768550000017,0.06590068800000015,-0.08021839700000122
61162.0,2.164916054,3.0440822265,10.488212174999997,0.38670213038887163,0.14910173266862356,0.4107894193956454,11.133548075540803,0.5835390401845355,0.4142328959999999,0.1065002190000004,-0.11375714000000059
61172.0,2.4462688425,3.139893197,10.485858579,0.38856788735925357,0.22184531056249526,0.48380003266507215,11.215899013326622,0.6589862035825397,0.2813527885,0.09581097050000009,-0.0023535959999971823
61182.0,2.660544145,3.2020673579999994,10.550484402499999,0.3912330051270489,0.3095114535609184,0.5757300150261174,11.342153747858413,0.7617910831639522,0.21427530249999993,0.062174160999999284,0.06462582349999835
61192.0,2.7371340815000003,3.236782899,10.730044163999999,0.39709382075524585,0.4041065536897591,0.6756536053612968,11.537006296121977,0.881755863975246,0.07658993650000046,0.03471554100000063,0.1795597615000002
61202.0,2.7120290575,3.1841211885,10.958735242,0.379507883212151,0.49869990848934775,0.759322944372653,11.729774399195911,0.9845299213321079,-0.025105024000000142,-0.052661710500000236,0.22869107800000066
61212.0,2.5192303185,3.1243006234999995,11.333349272,0.32941344302140974,0.5850343652684993,0.8160793063182566,12.023002183514524,1.0567704855782178,-0.1927987390000001,-0.059820565000000325,0.37461403000000004
61222.0,2.290637307,3.036923372,11.688938401,0.2380157860822227,0.6036866989845627,0.8472561227466313,12.292322961181604,1.067207609833659,-0.2285930115000001,-0.08737725149999953,0.35558912900000017
61232.0,2.036841205,2.9459176599999997,11.906842163999999,0.13596114873035828,0.5426664976763369,0.8581801385348637,12.43382657399941,1.024424478348745,-0.2537961019999999,-0.0910057120000003,0.21790376299999892
61242.0,1.896802243,2.9135557149999998,12.0169708435,0.07174350423247891,0.3953135849182116,0.842725248008454,12.509766341022845,0.9335983100088358,-0.140038962,-0.03236194499999989,0.11012867950000071
61252.0,1.8321764194999999,2.9686690879999995,11.95822901,0.05175948429714383,0.20958786322573905,0.8299354752498396,12.456689272909722,0.8575540855855183,-0.06462582350000012,0.055113372999999743,-0.058741833499999174
61262.0,1.750683158,3.1709802775,11.76798,0.06028541769313613,0.03399028718258957,0.8469890873710761,12.31281286791929,0.8498118529032642,-0.08149326149999991,0.2023111895000005,-0.1902490100000005
61272.0,1.7842219009999998,3.4283067735,11.504573381,0.08346862614737681,-0.1056360529769568,0.8928214335284472,12.136389240793482,0.9029153334655872,0.033538742999999815,0.2573264960000001,-0.2634066189999995
61282.0,1.8249194985,3.59119523,11.384834184499999,0.09625839890599126,-0.15519816774583978,0.9868824629061776,12.076483915632894,1.003637955750665,0.04069759750000013,0.16288845649999972,-0.1197391965000012
61292.0,1.6465365349999999,3.6785724815,11.320208360999999,0.056555649081624255,-0.13414775163753614,1.132371364023173,12.016242981863888,1.141691318514839,-0.17838296350000005,0.08737725149999997,-0.06462582350000012
61302.0,1.2706476404999998,3.5767794544999996,11.2902980785,-0.04736474524062211,-0.06699969932555833,1.287185559333574,11.91128571539707,1.2897980628603494,-0.37588889450000007,-0.10179302700000026,-0.029910282499999497
61312.0,0.6638121385,3.3121960374999997,11.266369852499999,-0.18752515615127877,0.01054178868204575,1.4030963656170212,11.761903706431688,1.4156116080005392,-0.6068355019999998,-0.2645834169999999,-0.023928226000000663
61322.0,0.140627361,2.9256178944999998,11.134666543,-0.3362097551286757,0.053974307117924634,1.447862315601424,11.513462343842706,1.4873652914503759,-0.5231847775,-0.38657814299999993,-0.13170330949999887
61332.0,-0.25320770299999995,2.508933336,10.761131244499998,-0.4601159147155091,0.07049559381730297,1.431875099653156,11.052637978632282,1.505636936558372,-0.39383506399999996,-0.41668455849999964,-0.373535298500002
61342.0,-0.542896144,2.377328093,10.3445447525,-0.5142071588933174,0.04544837372193234,1.3705878629693748,10.628077494138456,1.4645769515631684,-0.289688441,-0.1316052430000001,-0.41658649199999864
61352.0,-0.6362554519999999,2.2899508414999996,9.991407286,-0.48009993465084416,-0.018503980729643883,1.2909153279450858,10.270195490418873,1.3774253985164338,-0.09335930799999992,-0.08737725150000042,-0.3531374664999998
61362.0,-0.621937743,2.3066221465,9.6957367885,-0.3855065798512555,-0.08884947623127533,1.2362900130161674,9.985721013265115,1.2980456651515384,0.014317708999999845,0.01667130500000047,-0.29567049749999974
61372.0,-0.648219565,2.4754926594999995,9.477931091999999,-0.2509416945224927,-0.14613816359873721,1.2187040754730725,9.817302597780484,1.2528238984328595,-0.026281821999999955,0.16887051299999944,-0.21780569650000103
61382.0,-0.65900688,2.552082596,9.306706983,-0.10518750335919425,-0.1927698705535217,1.2506802526988605,9.672756097003294,1.2698132651484815,-0.010787314999999964,0.07658993650000046,-0.17122410899999885
61392.0,-0.6842099705,2.6394598475,9.1989318995,0.012856095270190233,-0.2098234826747583,1.329019356174626,9.594542180945114,1.3455421294609018,-0.025203090500000025,0.08737725149999997,-0.10777508349999998
61402.0,-0.7787460764999999,2.6371062514999997,9.2301170465,0.0871983947588887,-0.18024538784121039,1.4228150955060532,9.630983102749916,1.4368349786549794,-0.09453610599999995,-0.002353596000000291,0.031185147000000413
61412.0,-0.9619342984999999,2.543648877,9.2922912075,0.11757585038985001,-0.12775286525822893,1.5064844345174095,9.682052627881953,1.5164564704005923,-0.18318822199999996,-0.0934573744999998,0.06217416099999973
61422.0,-1.291143539,2.6035675085,9.4982308575,0.12690114458325572,-0.10137395894358664,1.5624414356655998,9.932874953002454,1.570860853141747,-0.3292092405,0.059918631499999986,0.20593964999999947
61432.0,-1.676544884,2.4647053445,9.6969135865,0.14821859606711446,-0.10270564516285831,1.5776292908164542,10.14473796050552,1.5879015652774116,-0.385401345,-0.13886216399999984,0.19868272899999972
61442.0,-1.8202123064999998,2.318684326,9.8585271785,0.16740325520503613,-0.16612392886332428,1.5413910195572962,10.289802134812666,1.5593291136787355,-0.14366742249999986,-0.14602101849999993,0.16161359200000014
61452.0,-1.8776792754999998,2.3401608895,9.956691745,0.18419157727996957,-0.23513773814568406,1.483301226063169,10.398929894721801,1.5130759466337609,-0.057466969000000034,0.021476563499999823,0.09816456650000127
61462.0,-1.9123948164999998,2.4203792865,9.8789250105,0.16793732595614638,-0.2884296215260789,1.4326744604505695,10.34933085700601,1.4710372876478381,-0.03471554099999996,0.08021839699999989,-0.07776673450000082
61472.0,-1.859733106,2.4909871665,9.688577934,0.11064689325943251,-0.29189410009128763,1.409758287371884,10.17507575757605,1.4439055819096254,0.05266171049999979,0.07060788000000029,-0.19034707650000016
61482.0,-1.8369816779999997,2.658582815,9.398889493,0.03443883680035211,-0.22714413017155002,1.4233474209279116,9.93889772415165,1.441769180560359,0.022751428000000296,0.16759564849999986,-0.28968844099999913
61492.0,-1.8333532175,2.7100677275,9.189419448999999,-0.03937113726648808,-0.11016692771513407,1.4691797670852829,9.75454155342085,1.4738303926926648,0.003628460499999653,0.05148491249999987,-0.20947004400000147
61502.0,-1.966233325,2.4192024885,9.0565393415,-0.11771198607150556,0.03612133419927464,1.5139439717404333,9.57807491163242,1.5189427941889162,-0.1328801074999999,-0.29086523899999994,-0.13288010749999835
61512.0,-2.1638373225,2.1127446759999997,9.005054429,-0.1776657912067628,0.17041918415248233,1.5403246233843275,9.499309832480611,1.5598742824652225,-0.19760399750000013,-0.30645781250000015,-0.0514849125000012
61522.0,-2.482259248,1.7918710879999997,9.007408025,-0.20990725847885403,0.2666112605468978,1.5158097287108154,9.513454277975285,1.5533260298684466,-0.31842192550000004,-0.320873588,0.002353596000000735
61532.0,-2.7096754615,1.4854132754999998,9.052910880999999,-0.2091078976814406,0.3073804065442333,1.4473299901795658,9.565771747486716,1.4943135305795874,-0.22741621349999974,-0.3064578124999999,0.045502855999998815
61542.0,-2.902376134,1.3058535139999998,9.121165164999999,-0.1739342772659989,0.3031165671816112,1.345008317452146,9.660470723026306,1.3896690829558893,-0.1927006725,-0.17955976149999997,0.068254284
61552.0,-3.030450983,1.293889401,9.237275901,-0.11424750750629681,0.2658118997494844,1.245617052538825,9.807397667759842,1.2787768767831789,-0.12807484900000032,-0.011964112999999887,0.11611073600000132
61562.0,-3.0436899604999996,1.4267695085,9.4084019435,-0.03430793710645254,0.21731618115356996,1.152088348582953,9.990883191014115,1.1729070381237667,-0.013238977499999471,0.13288010750000012,0.1711260424999992
61572.0,-2.968276822,1.5872063024999998,9.575997592,0.04296651552559641,0.17388191738843906,1.094799661215491,10.150350783135918,1.1093544703333762,0.07541313849999964,0.16043679399999977,0.16759564850000075
61582.0,-2.856873278,1.7428378379999998,9.722116676999999,0.09066287332409745,0.15682830526720248,1.0692183703690101,10.281962912660038,1.0844550693629156,0.11140354399999985,0.15563153549999997,0.1461190849999987
61592.0,-2.8497144235,1.936813375,9.875296549999998,0.0879977555563021,0.17921215292402976,1.0644222055845298,10.459139558086253,1.0829844100817183,0.007158854500000089,0.19397553700000025,0.15317987299999913
61602.0,-2.993381846,2.0265442225,10.062113232499998,0.04269948015004127,0.21971426354581014,1.0657556371330534,10.691741629190357,1.0890053632978316,-0.14366742250000009,0.08973084750000004,0.18681668249999994
61612.0,-3.2148160029999997,2.0552777069999997,10.186559620999999,-0.02284985056710976,0.257018930977937,1.0620241231922896,10.877738979136414,1.0929208959455081,-0.22143415699999958,0.028733484499999573,0.12444638850000089
61622.0,-3.5739355259999996,2.115098272,10.302670357,-0.09106429905205614,0.2743395784747287,1.037243938472474,11.108180423869104,1.0767682660523683,-0.35911952299999994,0.059820565000000325,0.11611073600000132
61632.0,-3.8648988315,1.9882002209999998,10.338562696,-0.14941938259248655,0.2458278798141493,0.9788888549320436,11.215001636898556,1.0202847096268801,-0.2909633055000005,-0.12689805100000018,0.035892339000000106
61642.0,-3.9690454544999993,1.918769139,10.2943347045,-0.1731349164685855,0.20106192982974674,0.8912227119336205,11.198585796293164,0.9298814554521254,-0.10414662299999922,-0.06943108199999992,-0.044227991499999675
61652.0,-4.0420069304999995,1.9559363424999998,10.114774942999999,-0.16833875168410506,0.1632249369757617,0.8043559297326107,11.06671492131531,0.8378357697456684,-0.07296147600000014,0.03716720349999991,-0.17955976150000197
61662.0,-3.9785579049999997,1.9247511954999998,9.856173582499999,-0.16380962227517978,0.15096748963900553,0.727346767146865,10.80174744457523,0.760695796594694,0.06344902549999976,-0.03118514699999997,-0.25860136050000015
61672.0,-3.860093573,1.8074636615,9.6382698195,-0.16940514785707364,0.17041918415248233,0.6506063852659263,10.538666537728739,0.6935628817897261,0.11846433199999984,-0.11728753399999992,-0.21790376299999892
61682.0,-3.8205727735,1.7285201289999998,9.517353824999999,-0.1784651520041762,0.1944000080748844,0.5839906583758067,10.400220285369429,0.6408480808191571,0.03952079949999998,-0.07894353250000008,-0.12091599450000068
61692.0,-3.8780397425,1.753625153,9.3150426355,-0.18619172460275507,0.1944000080748844,0.5341615082313685,10.241309131298914,0.5981531896814342,-0.057466969000000034,0.025105024000000142,-0.2023111894999996
61702.0,-3.9019679685,1.696158184,9.081644365499999,-0.16514130849445147,0.1944000080748844,0.4925947467658716,10.028886827248979,0.5547184866687858,-0.02392822600000022,-0.057466969000000034,-0.23339827000000035
61712.0,-3.8325368865,1.5309161315,8.888943693,-0.1062538995321628,0.19839681206195142,0.44889344762518557,9.800273627067487,0.5021518829228477,0.06943108200000037,-0.16524205250000001,-0.19270067249999911
61722.0,-3.7882108285,1.405292945,8.751258326999999,-0.018853046580042748,0.20026256903233336,0.39400284264996394,9.638978776214742,0.44237854145181094,0.04432605799999978,-0.12562318649999993,-0.13768536600000125
61732.0,-3.606297471,1.2483865449999998,8.674668390499999,0.0879977555563021,0.16535598399244678,0.31379798220381644,9.477010187829169,0.36545229519082745,0.18191335750000004,-0.15690640000000022,-0.07658993649999957
61742.0,-3.3046449169999996,1.1897427779999998,8.787150665999999,0.1975136754604423,0.11206410061205191,0.2290622470194918,9.463095832350072,0.3225515891287775,0.30165255400000035,-0.05864376699999996,0.11248227549999967
61752.0,-3.0544772755,1.3214460875,8.936800145,0.29130941479186956,0.054241342493479776,0.17257292044944333,9.536374993695821,0.342906271821217,0.2501676414999996,0.1317033095000002,0.1496494790000007
61762.0,-2.8508912215,1.4687419704999998,9.076839107,0.3608555494960876,-0.002515019452123829,0.156051633750065,9.62672280202866,0.39316048290873834,0.20358605400000007,0.14729588299999974,0.1400389620000002
61772.0,-2.6510316945,1.5692601329999998,9.255222070499999,0.4197429584583763,-0.04674864401466812,0.16564396331902584,9.754469846410773,0.4536601255087724,0.1998595270000001,0.10051816250000001,0.17838296349999894
61782.0,-2.4965769569999994,1.6985117799999998,9.4658689125,0.4682404223835427,-0.08911651160683047,0.1802994930480222,9.93581969631374,0.5096064687464854,0.1544547375000005,0.12925164700000003,0.21064684200000094
61792.0,-2.391253536,1.8170741785,9.652685595,0.49755148184153547,-0.12082565345706343,0.19442269735516032,10.109114265825886,0.547682846967924,0.10532342099999958,0.11856239850000017,0.18681668249999994
61802.0,-2.2487629115,1.8601253719999997,9.931586720999999,0.5074091014567994,-0.15759625013807999,0.20694718006747165,10.351493410539351,0.5701997103091682,0.14249062449999972,0.04305119349999975,0.27890112599999917
61812.0,-2.0416464635,1.8099153239999999,10.222451959999999,0.5162038155575989,-0.21088987884772684,0.22693120000280673,10.580294789677644,0.6020288113797764,0.20711644800000029,-0.05021004799999984,0.2908652390000004
61822.0,-1.8333532175,1.8290382915,10.533715031,0.5249967843291463,-0.26231600525773974,0.24052033355883456,10.847382976838523,0.6342565261986476,0.20829324599999977,0.0191229675000002,0.31126307100000083
61832.0,-1.5556288895,1.9715289159999998,10.7934931895,0.5300582391599299,-0.29322578631055934,0.2501126631277954,11.081805030781494,0.6553620700922882,0.27772432800000013,0.14249062449999972,0.25977815849999963
61842.0,-1.5125776959999997,2.3233915179999998,10.842624505999998,0.4876921168970195,-0.27484048797005106,0.28075715413431185,11.19144966527852,0.6262631031034079,0.043051193500000196,0.35186260199999997,0.04913131649999869
61852.0,-1.6190779149999999,2.69094476,10.7791754805,0.3805742793851195,-0.18317754098456088,0.3364471199069469,11.227342563386253,0.5399883870458076,-0.10650021900000017,0.36755324200000006,-0.06344902549999887
61862.0,-1.5748499235,2.7520401894999997,10.692975027,0.25427003740604587,-0.03289247508308513,0.38441051308100305,11.153187545012267,0.462067754130023,0.0442279914999999,0.06109542949999991,-0.08620045350000005
61872.0,-1.5065956394999998,2.6753521864999996,10.6689487345,0.1596766826064572,0.140041728521521,0.4267783806731654,11.101973105811412,0.4767054802553753,0.06825428400000022,-0.07668800300000012,-0.024026292499998547
