timestamp,ax,ay,az,gx,gy,gz,acc_mag,gyro_mag,dax,day,daz
146062.0,0.469346269,-1.4421659489999998,9.472243234999999,-0.029611256089335798,0.18124546150260315,0.07556926595285048,9.592889056362663,0.1985886647297183,0.0,0.0,0.0
146072.0,0.1569064,-1.2722167045000001,9.563150880499999,0.040201913990437384,0.20442692462759182,0.07290414818505514,9.64867916995781,0.22072964509503049,-0.312439869,0.1699492444999997,0.09090764549999975
146082.0,0.1030678915,-1.150123912,9.5859023085,0.060720004676882725,0.18843970867932375,0.05345245367157834,9.655202280186472,0.2050697627116716,-0.05383850850000001,0.12209279250000016,0.022751428000001184
146092.0,0.08267005949999999,-1.2710399065,9.6553333905,0.061252330098740995,0.1745835397477408,0.07210478738764174,9.738985556224913,0.19857079507720451,-0.020397832000000005,-0.12091599450000001,0.06943108199999948
146102.0,0.14611908499999998,-1.2674114459999999,9.7212340785,0.06258576164726466,0.13141631135816503,0.06650926180574791,9.804594564256229,0.1600334538710576,0.06344902549999999,0.003628460500000097,0.06590068800000104
146112.0,0.18446308649999998,-1.22190859,9.716428819999999,0.06205169089615439,0.1039710088705542,0.0515866967011964,9.794696332542602,0.13161143683272353,0.0383440015,0.045502855999999925,-0.0048052585000011305
146122.0,0.19397553699999998,-1.045977289,9.64582094,0.05672320068981571,0.08798379292228616,0.050255010481924725,9.704306085681795,0.11612164049834642,0.009512450499999991,0.17593130099999987,-0.07060787999999896
146132.0,0.23231953849999998,-0.9777230049999999,9.6278747705,0.05938831845761105,0.09251292233121143,0.0609137362238541,9.680180124300659,0.1256825223658113,0.0383440015,0.06825428400000022,-0.017946169500000053
146142.0,0.2442836515,-0.920256036,9.613458994999998,0.07164402046511523,0.11569438545620012,0.08542863089736645,9.660493751497953,0.16067391658726732,0.011964113000000026,0.05746696899999981,-0.014415775500001615
146152.0,0.20240925599999998,-0.884363697,9.635033625,0.08923170333746208,0.1514003312935001,0.10914416477346539,9.677651657833456,0.20687388888011893,-0.04187439550000002,0.035892339000000106,0.021574630000001704
146162.0,0.09228057649999999,-0.8197378734999999,9.6853417395,0.09989042907939147,0.20922308941207227,0.12646306694100512,9.720407938813596,0.26409336656743587,-0.11012867949999999,0.06462582350000001,0.050308114499999945
146172.0,-0.029812216,-0.816109413,9.7870367,0.08843234254004868,0.2811690518377825,0.12486434534617832,9.821049369052012,0.32010532588072915,-0.12209279249999999,0.003628460499999986,0.10169496049999971
146182.0,-0.099243298,-0.8795584385,9.923545267999998,0.06151936547429613,0.34538495100640987,0.09848543903153603,9.962942485279116,0.3643827361597892,-0.06943108199999999,-0.06344902550000009,0.13650856799999822
146192.0,-0.16632078399999997,-0.905938327,10.112617479999999,0.03993662394413425,0.37283199882327267,0.05798332840975562,10.154477788262648,0.37942153293149505,-0.06707748599999998,-0.02637988849999995,0.18907221200000102
146202.0,-0.1160126695,-0.850824954,10.2766827345,0.034873423784098696,0.3589758298916897,0.017746507834278342,10.312495821449044,0.3611021194526069,0.05030811449999997,0.055113372999999966,0.16406525450000053
146212.0,0.063547092,-0.7562888479999998,10.3843597515,0.033807027611130164,0.3299300604800001,-0.01582664565708458,10.41205736168813,0.3320350021262686,0.1795597615,0.09453610600000018,0.10767701700000032
146222.0,0.29576856399999996,-0.6018341105,10.4981168915,0.020217894055102315,0.3184737192699093,-0.02328792820936034,10.519512422522707,0.31996343651410647,0.23222147199999996,0.15445473749999983,0.11375714000000059
146232.0,0.5208311815,-0.422274349,10.5293020385,-0.01788613417443789,0.3323298882014923,0.0065554566704907015,10.55062946763871,0.3328754157336961,0.2250626175,0.17955976150000003,0.031185146999998636
146242.0,0.7626631705,-0.34087915399999996,10.480170722,-0.0730437745252147,0.3619062377057882,0.061180771599409225,10.513412009026132,0.3742387001644111,0.24183198900000002,0.08139519500000003,-0.04913131649999869
146252.0,0.9230999645,-0.399522921,10.450260439500001,-0.13006717184637342,0.41413347024246655,0.12273329832949324,10.498555870320596,0.45109584667342967,0.160436794,-0.05864376700000001,-0.029910282499999497
146262.0,1.05715687,-0.5347566244999999,10.3604315255,-0.16817120007591363,0.4652943066061763,0.17469349549061644,10.427947386221753,0.5246886330594798,0.13405690550000005,-0.13523370349999997,-0.0898289140000017
146272.0,1.174444404,-0.617426684,10.265895419499998,-0.1913544085301543,0.5031312994601613,0.21093176674977468,10.351287076123104,0.5781434289037428,0.11728753399999992,-0.08267005950000006,-0.0945361060000014
146282.0,1.221124058,-0.628213999,10.123404794999999,-0.21426883627958784,0.5247157863195753,0.23491433600142878,10.216120664762869,0.6135328319434675,0.04667965400000007,-0.010787314999999964,-0.14249062449999883
146292.0,1.3252706810000001,-0.7096091939999999,9.955809146499998,-0.2270603543674543,0.5305766019477722,0.24983515577672832,10.068665420385194,0.6288764108486665,0.1041466230000001,-0.08139519499999992,-0.16759564850000075
146302.0,1.4593275865,-0.805322098,9.8134165885,-0.22252947962927702,0.5305766019477722,0.25223323816896853,9.953960308625609,0.6282137425078547,0.13405690549999982,-0.0957129040000001,-0.1423925579999974
146312.0,1.661638776,-0.780217074,9.7571264175,-0.18709056916753217,0.5478972494445639,0.23624602222070046,9.928307913816145,0.6253050935626971,0.20231118950000004,0.02510502400000003,-0.056290171000000555
146322.0,1.8747372805,-0.7347142179999999,9.785859901999999,-0.13273228961416877,0.5913297678804428,0.22132345711614893,9.990870776593965,0.6451920859384449,0.2130985045,0.045502856000000036,0.02873348449999824
146332.0,2.1393206975,-0.7059807334999999,9.8755907495,-0.0770405785122817,0.645422757387503,0.21786072388019218,10.129284006998473,0.6855429100361231,0.2645834170000001,0.028733484500000017,0.08973084750000204
146342.0,2.400275654,-0.7514835894999999,10.069566286499999,-0.019484855769264696,0.6805963778029448,0.2290517750439798,10.378931351477872,0.7183702420991809,0.2609549565,-0.045502856000000036,0.19397553699999825
146352.0,2.620533013,-0.73353742,10.239515531,0.041001274787850796,0.6419582788222944,0.2535666697174922,10.594949208389501,0.6914387841843493,0.2202573590000001,0.017946169499999942,0.16994924450000148
146362.0,2.8097032914999995,-0.5443671415,10.38916501,0.10148915067421826,0.5305766019477722,0.2876738939599654,10.776155055307022,0.6120194829456889,0.18917027849999934,0.1891702785,0.14964947899999892
146372.0,2.9856345925,-0.3958944605,10.490958036999999,0.15344934783534145,0.3616392023302331,0.3433638597326005,10.914712404726112,0.5217550720248034,0.17593130100000032,0.148472681,0.10179302699999937
146382.0,3.2359003004999995,-0.4055049775,10.4861527785,0.18329273271519247,0.14980160969867332,0.4174408691749958,10.981570249085353,0.4798891824078686,0.2502657079999997,-0.009610516999999985,-0.004805258499999354
146392.0,3.4716521664999997,-0.46061835049999994,10.3449370185,0.19101930531377137,-0.05510702580246896,0.4917831686636942,10.921641815529071,0.5304487197423077,0.2357518660000002,-0.055113372999999966,-0.1412157599999997
146402.0,3.6548403885,-0.5227925115,10.168907651,0.18915529367264144,-0.23603483738120914,0.5525363345963649,10.81840344459651,0.6299115577850141,0.18318822200000007,-0.062174161000000006,-0.17602936749999998
146412.0,3.8284180935,-0.551525996,9.972578518,0.19555018005194869,-0.37672757371372406,0.5959705983614957,10.69641474142514,0.7316723937842251,0.17357770500000003,-0.028733484500000017,-0.196329132999999
146422.0,3.9385467729999997,-0.5312262305,9.7547728215,0.21420251376801208,-0.4502705124050091,0.6404695129703432,10.533277969851314,0.8116818639654785,0.11012867949999983,0.02029976550000001,-0.21780569650000103
146432.0,4.001995798499999,-0.5827111429999999,9.561974082499999,0.23018972971628013,-0.4420116143845719,0.6998909926837421,10.382045607768717,0.859190887147637,0.06344902549999976,-0.05148491249999998,-0.19279873900000055
146442.0,3.8918671189999996,-0.5814362785,9.4338992335,0.23125612588924865,-0.3639378009551096,0.7729016059531689,10.221700081969788,0.885046332804296,-0.11012867949999983,0.001274864499999917,-0.128074848999999
146452.0,3.6799454124999995,-0.7263785654999999,9.395555232,0.21073803520280335,-0.25921804583544983,0.8539058271967297,10.116624050391524,0.916929482833014,-0.21192170650000008,-0.1449422869999999,-0.0383440015000005
146462.0,3.396239028,-0.8831868989999999,9.396830096499999,0.17583145016291674,-0.15716340848358537,0.9373081308325307,10.030696610722696,0.9665213748062405,-0.2837063844999994,-0.1568083335,0.0012748644999991399
146472.0,3.0179965375,-1.023225861,9.4231119185,0.1305331747566559,-0.07509279106705603,1.0148496188401348,9.947378171737412,1.025961785761175,-0.3782424904999999,-0.1400389620000001,0.026281822000001398
146482.0,2.6085689,-1.2506420745,9.443509750499999,0.08203745616074147,-0.04178492762199624,1.0817306357765575,9.876670173309698,1.0856414199758853,-0.40942763750000033,-0.22741621349999996,0.020397831999998672
146492.0,2.1871771495,-1.288986076,9.436350895999999,0.04366639255564613,-0.06363470452771325,1.1288946681532002,9.771895784332578,1.1315296289730452,-0.4213917504999998,-0.03834400150000006,-0.007158854500000089
146502.0,1.7287162619999998,-1.2171033315,9.4315456375,0.04846255734012655,-0.14064212178420704,1.1523449119829963,9.665601561532366,1.1619068904421765,-0.45846088750000025,0.0718827445000001,-0.004805258499999354
146512.0,1.3192886245,-1.171698542,9.450668604999999,0.10308787226904507,-0.2669446184340287,1.1677980571801538,9.61397613007192,1.2023472215103215,-0.4094276374999999,0.04540478950000004,0.019122967499999532
146522.0,0.9900793839999998,-0.990863916,9.453022201,0.18409209351260591,-0.40097543301168126,1.182188296862847,9.556238654368755,1.2618400714877611,-0.3292092405000001,0.1808346259999999,0.002353596000000735
146532.0,0.5879086675,-0.8544534144999999,9.4925430005,0.25923375379871777,-0.4993003017520338,1.2083019131311863,9.549036593039839,1.332852746448283,-0.4021707164999998,0.13641050150000011,0.03952079949999998
146542.0,0.250265708,-0.852001752,9.450668604999999,0.3069318569264708,-0.5331404906189519,1.245606580563313,9.492295664987708,1.3892378130026468,-0.33764295950000006,0.0024516624999999515,-0.041874395500000716
146552.0,-0.0226533615,-0.8795584385,9.4925430005,0.3285145984566327,-0.5048958273339276,1.2762493262405776,9.533231814965236,1.4112597140809562,-0.2729190695,-0.027556686500000094,0.041874395500000716
146562.0,-0.39971905399999996,-0.9860586575,9.5392226545,0.33357779861666825,-0.4372154496000915,1.286908051982507,9.598377771805367,1.3994869886341794,-0.37706569249999994,-0.10650021899999995,0.04667965400000007
146572.0,-0.7744311504999999,-0.7395194765,9.6302283665,0.329046923878491,-0.38552054248527146,1.3092901543100823,9.689578476586526,1.4039724623244414,-0.3747120964999999,0.24653918099999994,0.09100571200000118
146582.0,-1.299969524,-0.559959715,9.729569731,0.3199886650606404,-0.3756611775407555,1.3042269541500466,9.83198875081451,1.3944611912886302,-0.5255383735000001,0.17955976150000008,0.09934136449999897
146592.0,-1.5968168194999999,-0.6101697629999999,9.715252022,0.30026993517160844,-0.41403224114585085,1.2586633886974827,9.864494561085868,1.3586089417943812,-0.2968472954999999,-0.05021004799999995,-0.014317709000000178
146602.0,-1.6471249339999998,-0.826896728,9.4817556855,0.25017549498086716,-0.4412122535871585,1.1744599789350163,9.65921682262559,1.2793014785907268,-0.050308114499999945,-0.2167269650000001,-0.2334963365
146612.0,-1.706945499,-0.7850223324999999,9.108318453499999,0.17849656793071209,-0.3897843818478936,1.0897259890799436,9.300074626015036,1.1710233218735864,-0.0598205650000001,0.04187439550000016,-0.37343723200000056
146622.0,-1.8650286969999998,-0.5335798265,8.817355147999999,0.13319829252445126,-0.2549542064728277,1.0116521756504813,9.028221933351183,1.0517526120851666,-0.15808319799999992,0.25144250599999984,-0.29096330550000005
146632.0,-1.960741601,-0.320481322,8.720465446,0.15078423006754613,-0.06923023010960708,0.9503649389667004,8.943921595056773,0.9647394601731971,-0.09571290400000021,0.2130985045,-0.09688970199999858
146642.0,-2.1367709685,0.00392266,8.907184061999999,0.21660059616025226,0.13674480156450372,0.9093305029230616,9.159898114795421,0.9447205526282364,-0.17602936749999998,0.32440398200000004,0.1867186159999985
146652.0,-2.4791211200000003,0.3354854965,9.25551627,0.2826839976285136,0.32033773091103923,0.8973400909618606,9.5876573504807,0.9938539848528611,-0.34235015150000025,0.33156283649999996,0.3483322080000004
146662.0,-2.84785116,0.537796686,9.709269965499999,0.32345139829659714,0.44824069448493975,0.9146589931294004,10.13259121685792,1.0687102511742148,-0.36873003999999954,0.2023111895,0.45375369549999967
146672.0,-3.3422043864999997,0.639589713,10.289823645499999,0.34610053599972757,0.500466181692366,0.9439700525873932,10.837890745786568,1.1230901300514047,-0.4943532264999999,0.10179302700000004,0.5805536799999995
146682.0,-4.0006228675,0.793946384,10.811733558499999,0.35489525010052697,0.4503717415016248,0.98127472001952,11.555471289766837,1.1365233918562827,-0.658418481,0.15435667099999995,0.521909913
146692.0,-4.6710054615,0.8814217019999999,11.235576971499999,0.3479662929701095,0.3283313388851733,1.0041908930982055,12.199728936358401,1.1123314968654183,-0.6703825940000003,0.08747531799999997,0.42384341300000017
146702.0,-5.1199538985,0.8334671834999999,11.549193638499998,0.3293139592540461,0.14793759805754336,0.9927328065588626,12.660666221344973,1.056338791248739,-0.4489484370000003,-0.04795451849999999,0.3136166669999998
146712.0,-5.4455346785,0.8179726764999999,11.548016840499999,0.28374864847223014,-0.030059805707098337,0.9394409231784678,12.79373362950465,0.9818177710610954,-0.32558077999999924,-0.01549450699999999,-0.0011767979999994793
146722.0,-5.566450672999999,0.7952212484999999,11.406703014,0.20141274100939763,-0.14064212178420704,0.846444544644454,12.717335553432752,0.8813714686891331,-0.12091599449999979,-0.022751428000000073,-0.14131382649999935
146732.0,-5.452693533,0.7065691325,11.1565353725,0.0993563583282812,-0.1710178320859164,0.7270692597957978,12.437820879143803,0.7534908714587284,0.1137571399999997,-0.08865211599999989,-0.25016764149999915
146742.0,-5.197720633,0.6143866225,10.863218471,0.00369660735572399,-0.13504659620231324,0.6031648455382164,12.05832850146721,0.6181092775107921,0.2549728999999994,-0.09218251,-0.2933169015000008
146752.0,-4.884103966,0.582122744,10.630996998999999,-0.06158568798587191,-0.06017022596250451,0.4917831686636942,11.713728511132823,0.499263395451715,0.3136166670000007,-0.03226387850000001,-0.23222147200000087
146762.0,-4.620697346999999,0.53544309,10.4861527785,-0.0948935514309317,0.024830799268123326,0.39532405689372363,11.47157109419825,0.40731126261666367,0.2634066190000004,-0.04667965399999996,-0.14484422049999957
146772.0,-4.3944579315,0.5294610335,10.386811414,-0.11034844195734148,0.10183821652461714,0.3215140828268834,11.290590810392468,0.3548508228021172,0.22623941549999937,-0.005982056500000055,-0.09934136449999897
146782.0,-4.1597847969999995,0.349901272,10.294628904,-0.10528698712655793,0.1599280100187444,0.2751494112476541,11.108808429735918,0.3352156269577453,0.23467313450000038,-0.17955976149999997,-0.09218251000000066
146792.0,-4.0029764635,0.29478789899999996,10.2443207895,-0.08530122186197087,0.18897203410118202,0.2562300421560355,11.002582829086709,0.329606678674397,0.1568083334999999,-0.05511337300000002,-0.050308114499999945
146802.0,-3.8808836709999994,0.2170211645,10.263541823499999,-0.041334632674981706,0.16792161799287844,0.24823643418190147,10.974909886482397,0.3025352027501384,0.12209279250000016,-0.07776673449999996,0.019221033999999193
146812.0,-3.7061291679999995,-0.010493115499999999,10.2407903955,0.014887658519511631,0.08904844376600268,0.2335809044529051,10.890789293707702,0.25042225667535567,0.17475450299999995,-0.22751428,-0.022751427999999407
146822.0,-3.47743809,-0.0907115125,10.1162459405,0.06871361265101675,-0.002881538595042638,0.2061356019652943,10.697627595731944,0.21730566082323519,0.22869107799999933,-0.080218397,-0.12454445499999878
146832.0,-3.162644625,-0.1289574475,9.948650292,0.09456019354380078,-0.05137725719095708,0.16803157373575406,10.440047589921168,0.19953912531536508,0.31479346500000016,-0.038245934999999995,-0.16759564850000075
146842.0,-2.7819504719999997,-0.2654660155,9.749967563,0.08230274620704461,-0.032190852723783414,0.13125923172548554,10.142563192487323,0.15823709724799118,0.3806941530000003,-0.136508568,-0.19868272899999972
146852.0,-2.4120436339999998,-0.44502577699999996,9.588353971,0.0551244790949889,0.03335847799336762,0.08249647775401597,9.897097266759879,0.10467647821428992,0.3699068379999999,-0.17955976149999997,-0.16161359200000014
146862.0,-2.3019149545,-0.4425741145,9.5033303155,0.031941270640748226,0.13381439375040524,0.02733883740323918,9.788154646820692,0.140263854130331,0.11012867949999983,0.0024516624999999515,-0.08502365550000057
146872.0,-2.2756331325,-0.45336142949999997,9.521276485,0.01861917246027551,0.2337379840855846,-0.024886649804187144,9.799936155062644,0.23579538614225412,0.026281822000000066,-0.010787314999999964,0.017946169500000053
146882.0,-2.293579302,-0.5096516005,9.833716354,0.019151497882133776,0.2870298674659794,-0.07018667053969997,10.110500882715062,0.2961065575263666,-0.017946169500000053,-0.056290171000000055,0.3124398690000003
146892.0,-2.3354536974999998,-0.46414874449999993,10.142625828999998,0.024747023464027598,0.2577188080079867,-0.11468558514854739,10.418379755858645,0.28316811722411717,-0.04187439549999983,0.04550285600000009,0.3089094749999983
