timestamp,ax,ay,az,gx,gy,gz,acc_mag,gyro_mag,dax,day,daz
225152.0,-1.30428445,1.8458076629999998,11.011396952499998,-0.33700911592608906,0.4041065536897591,0.30980117821674946,11.240953104644978,0.6106177371947072,0.0,0.0,0.0
225162.0,-0.9642878945,1.432751565,10.8868524975,-0.30023851924507255,0.2897944690011385,0.3897390032873418,11.022984418605116,0.5709820429624177,0.33999655549999996,-0.41305609799999976,-0.12454445499999878
225172.0,-0.9283955555,1.3131104349999998,10.7456367375,-0.19045556396537722,0.2101219339768493,0.45369135773891794,10.865306540373709,0.5350330803516024,0.035892338999999995,-0.1196411300000002,-0.1412157599999997
225182.0,-0.946341725,1.3023231199999998,10.659436283999998,-0.05322730619807107,0.13977469314596588,0.4883309074032494,10.78031493334115,0.5107222200907584,-0.017946169500000053,-0.010787314999999964,-0.08620045350000183
225192.0,-0.8541592149999999,1.2041585535,10.5875535395,0.0669473394479985,0.10140537487012255,0.49126131521734795,10.689989510673788,0.5060658812257492,0.0921825100000001,-0.09816456649999994,-0.0718827444999981
225202.0,-0.692545623,1.1706198105,10.542148749999999,0.12716817995881083,0.08941321757966951,0.48193602102394223,10.629528232607413,0.5063879913982711,0.16161359199999992,-0.033538742999999815,-0.04540478950000093
225212.0,-0.53936575,1.246032949,10.4439841835,0.12103858362580674,0.09501048849081531,0.483534742618769,10.531871588063769,0.5074280037294,0.15317987300000002,0.07541313849999987,-0.0981645664999995
225222.0,-0.46748300549999994,1.395682428,10.31463447,0.07813839061178614,0.09980665327529573,0.5048521941026277,10.4191244377813,0.5205215788184506,0.07188274450000004,0.14964947900000003,-0.1293497134999999
225232.0,-0.36931843899999994,1.5740653915,10.1925416775,0.04403116636931295,0.10140537487012255,0.5344285436069237,10.31997983591431,0.5457432197345284,0.0981645665,0.17838296350000005,-0.12209279250000016
225242.0,-0.2495792425,1.8062868634999998,10.172241911999999,0.05495692748679745,0.10939898284425656,0.5568123912637509,10.334382785042799,0.570112655876892,0.11973919649999995,0.23222147199999976,-0.020299765500000788
225252.0,-0.0377556025,2.0265442225,10.188913217,0.10451904225568043,0.10167066491642568,0.5762640857772278,10.388563881250649,0.5944253114187323,0.21182363999999998,0.22025735900000032,0.016671305000000913
225262.0,0.2052531845,2.2300322099999996,10.245203388,0.15248243542973658,0.08861385678225611,0.5975797919318344,10.48710470000522,0.6230609251539567,0.243008787,0.20348798749999952,0.056290171000000555
225272.0,0.522498312,2.426361343,10.2966883005,0.17086773377024483,0.07262664083398804,0.6380819025536149,10.591601569663634,0.6645441488487046,0.3172451275,0.19632913300000032,0.051484912499999425
225282.0,0.9331027474999999,2.5916033955,10.295511502499998,0.15674452946310674,0.07475768785067312,0.7073627472115298,10.657609769318304,0.7283677749269473,0.4106044354999999,0.16524205250000001,-0.0011767980000012557
225292.0,1.228773245,2.7675346965,10.3086524135,0.11730881501429488,0.11073066906352824,0.8171457024912252,10.744181986839136,0.8329164053200012,0.2956704975000001,0.17593130099999987,0.013140911000002475
225302.0,1.3245842154999998,2.9507229185,10.3757298995,0.06215117466351808,0.1648236585705885,0.9711605370042128,10.868167280323357,0.9870067859801978,0.09581097049999987,0.18318822200000007,0.06707748599999874
225312.0,1.295850731,2.9829867969999997,10.52057412,-0.008728391589223642,0.22184531056249526,1.1339700856179997,11.011808169529802,1.155499754095516,-0.028733484499999795,0.03226387849999979,0.14484422049999957
225322.0,1.1377675329999999,2.899238006,10.625897540999999,-0.0798732478882685,0.2458278798141493,1.2743957865749596,11.072930710810647,1.3003444555432804,-0.15808319800000015,-0.08374879099999966,0.10532342099999958
225332.0,0.9354563435,2.7806756075,10.703762342,-0.12570559404563958,0.2287742676929127,1.3828453103061313,11.098547818465134,1.4072671083232409,-0.20231118949999993,-0.11856239849999994,0.07786480100000048
225342.0,0.824150866,2.6550524209999997,10.639038452,-0.1507528141410102,0.16615534478986016,1.4545242373562863,10.996256962772426,1.4717250988654633,-0.11130547749999997,-0.12562318650000037,-0.06472388999999978
225352.0,0.8349381809999998,2.461076884,10.4810533205,-0.16753939088669167,0.10113833949456741,1.5062173991418544,10.798448958170557,1.5188776332187048,0.010787314999999853,-0.1939755369999996,-0.15798513150000026
225362.0,0.8517075525,2.342612552,10.2488318485,-0.18645875997831018,0.058238146480546794,1.5597763178978044,10.547596578491301,1.5719607860099345,0.01676937150000013,-0.11846433200000028,-0.2322214719999991
225372.0,0.789435325,2.3270199785,10.006999859499999,-0.20324533672399167,0.03212453021220763,1.6338533273401996,10.304284366258969,1.6467596508300917,-0.062272227499999944,-0.015592573499999762,-0.24183198900000136
225382.0,0.7008812755,2.2384659289999997,9.8310685585,-0.19471940332799936,0.026796040005868944,1.7052652190147997,10.107020989370092,1.7165556038107244,-0.08855404950000001,-0.08855404950000034,-0.17593130099999854
225392.0,0.5392676835,2.087639652,9.732903991999999,-0.1600781083344159,0.0419838951567236,1.801192005362912,9.968875015194024,1.8087786731393434,-0.16161359200000003,-0.15082627699999973,-0.09816456650000127
225402.0,0.230456275,1.8888588565,9.874119751999999,-0.10758558575143447,0.06436599748429887,1.9152370546759776,10.05580124859784,1.9193359829632595,-0.3088114085,-0.19878079550000005,0.1412157599999997
225412.0,-0.1801481605,1.6410448109999998,10.0525027155,-0.059622192577378295,0.07715751557216531,2.0170264019815387,10.187163112298556,2.019381983268048,-0.4106044355,-0.2478140455000002,0.1783829635000007
225422.0,-0.578788483,1.291535805,10.3637657865,-0.031110493916798924,0.07209431541212977,2.073248693176032,10.459957080269422,2.0747350666778197,-0.3986403225,-0.3495090059999997,0.31126307100000083
225432.0,-0.9583058379999999,0.989883251,10.593535596,-0.03244392546532259,0.026796040005868944,2.079111254133481,10.682753172917284,2.0795370261488713,-0.37951735499999995,-0.30165255400000013,0.22976980950000048
225442.0,-1.1402191954999998,0.774333084,10.662966678,-0.05775643560699636,-0.07765842506748769,2.0306155355375664,10.751676609482912,2.032920581332312,-0.18191335749999993,-0.21555016699999996,0.06943108199999948
225452.0,-1.1654222859999999,0.6367457845,10.6175618885,-0.06894923210003599,-0.21648540442962066,1.947745557323624,10.700293208828983,1.9609519838619598,-0.025203090500000025,-0.13758729950000004,-0.04540478950000093
225462.0,-1.0360725725,0.6701864609999999,10.496645893999998,-0.0433679412535551,-0.3710325643644666,1.868607093050445,10.568924793564458,1.905580859041641,0.1293497134999999,0.03344067649999993,-0.12091599450000068
225472.0,-0.8122848195,0.9419287324999999,10.246380186,0.011257373675363426,-0.5098595437265995,1.8294366686479364,10.32159596579679,1.8991898292126626,0.22378775299999998,0.27174227149999997,-0.2502657079999988
225482.0,-0.518967918,1.208963812,10.046520658999999,0.08986351252668404,-0.5983250475224361,1.8438251630013776,10.132299766111966,1.9405565039682342,0.2933169015,0.26703507950000005,-0.19985952700000098
225492.0,-0.32381558299999996,1.4232391145,9.927958260499999,0.17006837297283145,-0.6100501694373339,1.9109732153133554,10.034680928214236,2.013182329139914,0.195152335,0.21427530250000015,-0.11856239849999994
225502.0,-0.34421341499999997,1.5656316724999997,9.932763519,0.21136984439202527,-0.5591563684491794,2.0183580882008103,10.06128602780869,2.1050183912976186,-0.020397832000000005,0.1423925579999996,0.0048052585000011305
225512.0,-0.49023443349999996,1.489041736,10.033379748,0.20204455019861955,-0.4658929545396103,2.1345359298598128,10.155111238135971,2.1941107267449165,-0.1460210185,-0.07658993649999979,0.10061622899999989
225522.0,-0.7667819634999999,1.281925288,10.175772305999999,0.15914261185534695,-0.3683691919259232,2.214208464884102,10.284825183109303,2.250275840521048,-0.27654753,-0.20711644799999984,0.14239255799999917
225532.0,-1.1318835429999998,1.0101830165,10.326598583,0.0981241558763732,-0.3142762024188629,2.236058241789819,10.43744549093105,2.2601668836724094,-0.3651015794999999,-0.27174227149999997,0.15082627700000195
225542.0,-1.3880332409999998,0.7121589229999999,10.398481327499999,0.04349884094745468,-0.32226981039299696,2.202483342969204,10.514857133033031,2.2263608997445385,-0.256149698,-0.29802409350000014,0.0718827444999981
225552.0,-1.514931292,0.5457400724999999,10.297865098499999,0.013655456067603634,-0.37183192516187996,2.136401686830195,10.422997391974992,2.1685611864876924,-0.12689805100000018,-0.16641885050000005,-0.10061622899999989
225562.0,-1.5436647764999998,0.551722129,10.10281083,0.011789699097221697,-0.45203853093727936,2.062857002809658,10.234944304518727,2.1118373148747946,-0.028733484499999795,0.005982056500000055,-0.19505426849999985
225572.0,-1.4072542749999999,0.6558687519999999,9.895694381999999,0.050693088124175306,-0.5255814696285644,2.003702558471814,10.01675075642307,2.072107529359174,0.1364105014999999,0.104146623,-0.20711644800000073
225582.0,-1.1702275444999999,0.8390569739999999,9.688577934,0.10691712464792062,-0.5754106197730026,1.9725274873726915,9.794998289673982,2.0575211642487066,0.2370267305,0.18318822199999996,-0.20711644799999895
225592.0,-0.8865211599999999,1.1119760435,9.5341231965,0.15594516866569336,-0.5972603966787196,1.9847831893801957,9.639601424046797,2.078557958277136,0.28370638449999996,0.2729190695,-0.15445473750000005
225602.0,-0.6697941949999999,1.2591738599999998,9.459886856,0.19431623227078867,-0.5889997533290303,2.041007225903941,9.566796872604987,2.1331643170974135,0.216726965,0.14719781649999986,-0.07423634049999883
225612.0,-0.668617397,1.2400508925,9.4623385185,0.23748346066036444,-0.5439667679690727,2.120946796303785,9.56664129557756,2.2024335521175735,0.0011767979999999234,-0.019122967499999755,0.002451662499998619
225622.0,-0.8373898434999999,1.1490451805,9.5664851415,0.27425580267063293,-0.47601935485968144,2.1864961270209364,9.671564741000678,2.254456915750908,-0.1687724464999999,-0.09100571200000007,0.1041466230000001
225632.0,-1.1127605754999998,1.0497038159999998,9.700542046999999,0.3027657560019604,-0.3875538510638449,2.1987535743576925,9.820419044283547,2.253082859380139,-0.27537073199999995,-0.09934136450000008,0.1340569054999996
225642.0,-1.3988205559999998,1.07480884,9.9518864865,0.31981936812319695,-0.3012193942846934,2.1593161145796285,10.107025162262712,2.2035570413318606,-0.2860599804999999,0.025105024000000142,0.2513444395000004
225652.0,-1.592796093,1.0880478175,10.258344298999999,0.3211527996717206,-0.22820878101526657,2.0903023052972687,10.438126038895504,2.1271065079117535,-0.19397553700000025,0.013238977499999915,0.3064578124999997
225662.0,-1.6430061409999999,1.1837607215,10.530086570499998,0.29210877558928294,-0.18370986640641915,2.016492331230429,10.723035102402413,2.0458050184957663,-0.05021004799999984,0.09571290399999999,0.2717422714999991
225672.0,-1.5903444305,1.3669489434999997,10.7097443985,0.23002217810808867,-0.1733181760400449,1.9645321340693054,10.913128327980033,1.9855316412382695,0.05266171049999979,0.18318822199999985,0.17965782800000163
225682.0,-1.501790381,1.501005849,10.799475246,0.16180772962314227,-0.18450922720383253,1.9538751536566281,11.006228168458216,1.9692266279851751,0.08855404950000012,0.13405690550000027,0.08973084750000027
225692.0,-1.4371645575,1.4914933984999998,10.818598213499998,0.09625839890599126,-0.2114222042695851,1.9799870245957152,11.015083378179604,1.993568068912007,0.0646258234999999,-0.009512450500000158,0.019122967499997756
225702.0,-1.5006135829999998,1.4352032275,10.6677719365,0.03230778978366703,-0.24046622835202272,2.0258193707530863,10.867980839092764,2.040297018371831,-0.06344902549999976,-0.05629017099999989,-0.1508262769999984
225712.0,-1.6801733445,1.2724128375,10.4127990365,-0.03803945104721641,-0.26285007600885,2.0580608380251775,10.623954097751856,2.0751268817368076,-0.1795597615000002,-0.16279039000000006,-0.2549729000000003
225722.0,-1.9243589294999999,0.9946885095,10.0752541435,-0.10891727197070614,-0.2580539112243696,2.060992991168528,10.30549894845425,2.07993915845573,-0.24418558499999987,-0.2777243279999999,-0.3375448929999987
225732.0,-2.1554036035,0.7264766319999999,9.720939879,-0.16114450450738446,-0.22554540857672323,2.0268857669260547,9.983496638049987,2.0457527208414983,-0.23104467400000006,-0.2682118775000001,-0.35431426450000103
225742.0,-2.3181939934999996,0.481114249,9.444392349,-0.17979683822344786,-0.16852201125556449,1.9653314948667187,9.736633974528365,1.9807206910687383,-0.16279038999999962,-0.2453623829999999,-0.2765475300000002
225752.0,-2.4007659864999997,0.3864800765,9.2205065295,-0.17286962642228235,-0.09044819782610214,1.8781994226194059,9.53576346351035,1.8883055513759521,-0.08257199300000018,-0.0946341725,-0.22388581949999953
225762.0,-2.4007659864999997,0.4284525385,9.1522522455,-0.1326328058468051,-0.0011833332328521555,1.7899992088698724,9.471587515561591,1.7949066909505647,0.0,0.04197246199999999,-0.068254284
225772.0,-2.439109988,0.6294888634999999,9.280327094499999,-0.0713473144922762,0.07156024466101951,1.7233834819797529,9.616131485360558,1.7263435156022287,-0.03834400150000006,0.2010363249999999,0.128074848999999
225782.0,-2.5181515869999997,0.8211108045,9.520982285499999,-0.012458160200735525,0.11792491624024887,1.7002020188547642,9.882530751238876,1.704332243590924,-0.07904159899999996,0.19162194100000007,0.2406551910000001
225792.0,-2.668977864,1.0053777579999998,9.9016764385,0.037636279990005725,0.14430556788414317,1.7081956268288983,10.304242988572675,1.7146932337917544,-0.15082627700000018,0.18426695349999989,0.3806941530000003
225802.0,-2.867660593,0.992236847,10.264424422,0.07067710805951037,0.14137341474079268,1.7188543525708275,10.703570430101333,1.726106016834078,-0.19868272900000017,-0.01314091099999981,0.36274798350000026
225812.0,-3.1501901795,0.8952490784999999,10.471442803499999,0.0802711829577232,0.09740857088305553,1.6972716110406656,10.97161261923448,1.701958523037353,-0.28252958649999993,-0.09698776850000013,0.2070183814999993
225822.0,-3.4674353069999997,0.7301050925,10.452319836,0.06987774726209697,0.02972644781996742,1.6530379864781215,11.036627700904097,1.654781298541309,-0.31724512749999967,-0.1651439859999999,-0.019122967499999532
225832.0,-3.442330283,0.6402761785,10.295511502499998,0.04483052716672635,-0.027296949501191315,1.5712344044371471,10.874610267045123,1.572110827297196,0.025105023999999698,-0.08982891400000004,-0.15680833350000078
225842.0,-3.3860401119999994,0.737263947,9.966302262,0.020849703244324263,-0.04648160863911298,1.4841005868605823,10.551587868428395,1.4849746805878479,0.056290171000000555,0.09698776850000002,-0.3292092404999991
225852.0,-3.2878755455,0.8246411985,9.647880336499998,0.008859291283123218,-0.026230553328222776,1.4134880559833958,10.226033135893104,1.4137591779994438,0.0981645664999995,0.08737725149999997,-0.3184219255000009
225862.0,-3.1837289225,1.016165073,9.309060578999999,0.016585863881702113,0.03505493802630611,1.354600647021107,9.890769948342744,1.355155656177818,0.1041466230000001,0.19152387450000008,-0.3388197574999996
225872.0,-3.0544772755,1.1862123839999998,9.0947852765,0.04296651552559641,0.1562959798453442,1.3042391714548107,9.667060073887098,1.31427332436193,0.1292516469999998,0.1700473109999998,-0.21427530249999904
225882.0,-2.946702192,1.3262513459999998,8.952392718499999,0.07387455124916399,0.3148416890965091,1.269597876461227,9.517737747351322,1.310137972287753,0.10777508349999998,0.140038962,-0.14239255800000095
225892.0,-2.9970103064999996,1.417257058,9.045752026499999,0.10798177549163716,0.48084693557069774,1.249613856525892,9.634122589558785,1.3432827809912438,-0.0503081144999995,0.09100571200000007,0.09335930800000014
225902.0,-3.18127726,1.3561616285,9.3366172655,0.14128963893669697,0.5789047689354951,1.2296298365905571,9.956511504038026,1.3664124664978878,-0.18426695350000033,-0.06109542949999991,0.2908652390000004
225912.0,-3.3908453705,1.2136710039999998,9.73408079,0.1663386043613196,0.5735762787291565,1.1909917376099066,10.378976753940567,1.3323361429747085,-0.20956811050000024,-0.14249062450000016,0.3974635245000009
225922.0,-3.4938151954999994,1.1359042695,10.014158714,0.1828581457314459,0.4816462963681111,1.1337030502424448,10.666789483202393,1.2452722041363022,-0.1029698249999993,-0.07776673449999993,0.2800779240000004
225932.0,-3.5272558719999996,1.208963812,10.096828773499999,0.20177751482306444,0.36280508227056524,1.0678866841497385,10.763320991527733,1.1457415342885353,-0.033440676500000155,0.07305954250000002,0.08267005949999806
225942.0,-3.468612105,1.3071283784999999,10.0895718525,0.2209621739609861,0.25835061719720864,1.0191239301782689,10.748921559839985,1.0743290505193206,0.058643766999999514,0.09816456649999994,-0.007256920999997973
225952.0,-3.5285307365,1.3920539674999999,10.035733344,0.23375369204885255,0.17148383499619888,0.9991399102429338,10.728666606747138,1.040349967295492,-0.059918631499999986,0.08492558900000002,-0.05383850850000016
225962.0,-3.7846804345,1.441185284,10.026122827,0.256402829751983,0.10566746890349268,0.9967418278506937,10.813138302833075,1.034602482345967,-0.25614969799999976,0.04913131650000002,-0.009610517000000485
225972.0,-4.0372997385,1.3741077979999998,10.233239275,0.3062302345671691,0.05637238951016486,0.9703611762067994,11.086349601127466,1.019095488730861,-0.252619304,-0.06707748600000007,0.20711644800000073
225982.0,-4.3137492019999994,1.2436793529999999,10.4810533205,0.3496644983323,-0.0019826940302655584,0.9263945870198101,11.402089686456522,0.9901899430559782,-0.27644946349999966,-0.13042844499999995,0.24781404549999841
225992.0,-4.508901537,1.201706891,10.788687930999998,0.35499298853863864,-0.08352098602493664,0.868306538854935,11.754576972173131,0.9417813028704746,-0.1951523350000004,-0.04197246199999993,0.3076346104999992
226002.0,-4.5843146755,1.2628023204999999,10.8833221035,0.3326108862110634,-0.18557562337680109,0.800891451167402,11.876755059914156,0.8868457758656938,-0.07541313850000009,0.06109542949999991,0.09463417250000106
226012.0,-4.5615632475,1.3669489434999997,10.862924271499999,0.29903598739044845,-0.25352303648619234,0.7446674146436566,11.860840290781352,0.8415616496822008,0.022751428000000296,0.10414662299999988,-0.02039783200000045
226022.0,-4.7088591305,1.497475455,10.868906328,0.2502732334189789,-0.266846879995917,0.7001685000348092,11.939384901076734,0.7899872639293248,-0.14729588299999996,0.13052651150000028,0.00598205650000061
226032.0,-4.9530447155,1.533367794,10.776723817999999,0.17219941998951654,-0.26151664446032635,0.6423457419162371,11.95916573155784,0.7145989418774952,-0.24418558500000032,0.035892338999999884,-0.09218251000000066
226042.0,-5.1733020745000005,1.4854132754999998,10.685718106,0.07440862200027425,-0.23273965575344385,0.554946634293369,11.964701349969161,0.606358109784762,-0.22025735900000054,-0.0479545185000001,-0.0910057119999994
226052.0,-5.200858761,1.358613291,10.673753992999998,-0.01778839573632621,-0.17971306241935212,0.4374371064150948,11.950890604027622,0.47324880760106,-0.02755668649999965,-0.12679998449999985,-0.01196411300000122
