timestamp,ax,ay,az,gx,gy,gz,acc_mag,gyro_mag,dax,day,daz
153362.0,-0.33509323049999995,-1.334488932,9.994153148,0.054857443719433775,0.2009624460623831,-0.18796148846427732,10.088421349667932,0.28057933816393843,0.0,0.0,0.0
153372.0,-0.4727785965,-0.307340411,9.8169469825,0.08656658556966676,0.1623260924109846,-0.1940910847972814,9.833128992683763,0.2674226677235784,-0.13768536600000003,1.027148521,-0.17720616550000123
153382.0,-0.33391643249999997,-0.4510078335,9.959437606999998,0.06338512244467806,0.1474035273064331,-0.16504706071484376,9.975234618669264,0.23018689332869177,0.138862164,-0.14366742250000003,0.14249062449999883
153392.0,-0.203389921,-0.5539776584999999,9.960614405,0.03513871383040184,0.14873695885495677,-0.08857196888020823,9.978080879165843,0.1766420273049213,0.13052651149999997,-0.1029698249999999,0.0011767980000012557
153402.0,-0.178284897,-0.6114446275,9.998958406499998,0.017819811662862103,0.1348807899233738,-0.04460537969321908,10.019222487394613,0.14317825629483483,0.025105024000000004,-0.057466969000000034,0.038344001499998726
153412.0,-0.30518294799999995,-0.6508673604999999,10.006117261,0.016486380114338436,0.1258207857762712,-0.0017051866791984599,10.031906478511267,0.1269077559656765,-0.12689805099999996,-0.03942273299999999,0.0071588545000018655
153422.0,-0.39618865999999997,-0.6976450809999999,9.9750301805,0.028211502029236345,0.10237228727572739,0.029204594373621117,10.007242438116604,0.11013120530230024,-0.09100571200000002,-0.04677772049999995,-0.031087080500000752
153432.0,-0.525440307,-0.7538371854999999,9.977383776499998,0.04313406713378786,0.07838971802407331,0.0337337237825464,10.019608028362596,0.09562143985337691,-0.12925164700000003,-0.056192104500000006,0.0023535959999989586
153442.0,-0.6463563014999999,-0.7717833550000001,10.032497149500001,0.057789596862784245,0.04961272931719081,0.021743311821345358,10.082877816886876,0.07920752505175391,-0.1209159944999999,-0.017946169500000164,0.05511337300000285
153452.0,-0.6726381235,-0.783747468,10.082707197499998,0.07271041663808378,0.011508701087650609,-0.005701990666265475,10.135466766227408,0.07383608593341605,-0.026281822000000066,-0.011964112999999887,0.05021004799999673
153462.0,-0.6475330995,-0.747855129,10.1162459405,0.08523489935039509,-0.028993409534129804,-0.04327369347394741,10.164497938294957,0.09989103268343415,0.02510502399999992,0.035892338999999995,0.033538743000002924
153472.0,-0.5325991615,-0.6700883945,10.097122973,0.08603426014780849,-0.049778535596130276,-0.07871260393569227,10.133339659517905,0.1267890789603472,0.11493393800000007,0.07776673449999993,-0.01912296750000131
153482.0,-0.280077924,-0.7275553635,9.9283505265,0.05699023606537084,-0.019935150716279233,-0.10988942036406697,9.95891181944707,0.12538333999705895,0.2525212375,-0.057466969000000034,-0.16877244650000023
153492.0,-0.030989014,-0.7646245005,9.803806071499999,-0.012023573216988935,0.07892378877518359,-0.14506129545025673,9.833627226681607,0.16557871295924717,0.24908890999999997,-0.03706913699999992,-0.12454445500000055
153502.0,0.095909037,-0.714316386,9.7870367,-0.09862506537169557,0.2228122229681001,-0.17597107650307628,9.813538292065369,0.30056282203427803,0.126898051,0.050308114499999945,-0.016769371499998798
153512.0,0.122190859,-0.5994805145,9.7941955545,-0.1556484626928543,0.3443203001626933,-0.18183363746052525,9.813285589091755,0.41934041631459973,0.026281821999999996,0.11483587150000008,0.007158854500000089
153522.0,0.1413138265,-0.44737937299999997,9.886378064499999,-0.1671048039029451,0.4218600428410454,-0.15651938198959947,9.897504187176315,0.47998773752221685,0.01912296749999999,0.15210114149999998,0.09218250999999889
153532.0,0.179657828,-0.4282564055,10.055248577499999,-0.143123979980543,0.4341174901778016,-0.10296046323364949,10.065967635519657,0.4685545068751684,0.0383440015,0.019122967499999977,0.1688705129999999
153542.0,0.37000490449999995,-0.467777205,10.122227997,-0.11780972450961724,0.4008096267327418,-0.044338344317663946,10.13978396052511,0.42011114820664236,0.19034707649999996,-0.03952079949999998,0.06697941950000086
153552.0,0.6010495785,-0.5790826825,10.190482281,-0.11461228131996362,0.3685681594606505,-0.002237512101056731,10.224603976113764,0.38598376864575584,0.231044674,-0.11130547749999997,0.068254284
153562.0,0.7303012254999999,-0.6736187885,10.201269596,-0.13273228961416877,0.33312924899890567,0.02787290815434944,10.24953674672475,0.3596802138758473,0.12925164699999991,-0.09453610600000006,0.010787314999999964
153572.0,0.7985555095,-0.7873759284999999,10.250302845999999,-0.1377954897742043,0.2393335096674784,0.050255010481924725,10.311467412024815,0.28070214094374873,0.06825428400000011,-0.11375713999999992,0.04903324999999903
153582.0,1.0319537795,-1.1189387649999998,10.241967193499999,-0.1119471635521683,0.08078780041631353,0.05052204585747985,10.354460128638978,0.14700786795647136,0.23339827000000002,-0.33156283649999985,-0.008335652499999568
153592.0,1.3863661104999998,-1.3033037849999998,10.210782046499999,-0.067715284318876,-0.10573553674432047,0.01907993938280201,10.386562556951406,0.12700160450894765,0.3544123309999998,-0.18436502,-0.031185147000000413
153602.0,1.9238685969999998,-1.3607707539999998,10.073194746999999,-0.023748695131886842,-0.26987677157737916,-0.035280085499813374,10.345154413272565,0.27320716826315217,0.5375024865,-0.057466969000000034,-0.13758729949999982
153612.0,2.5547303915,-1.2961449305000001,9.8983421775,0.0012985249634837812,-0.33915587090604216,-0.09390045908654691,10.30455321287585,0.3519171595045928,0.6308617945000004,0.06462582349999968,-0.17485256949999872
153622.0,3.04790682,-1.0423488285,9.7367285855,-0.011491247795130666,-0.307181439009506,-0.12108047152785462,10.255735498313646,0.3303830592407056,0.4931764285,0.25379610200000013,-0.16161359200000014
153632.0,3.3699572059999996,-0.7777654115,9.6063001405,-0.05412615076284815,-0.18300998937636942,-0.08777260808279483,10.209923260973484,0.2100626743084009,0.32205038599999947,0.264583417,-0.13042844499999973
153642.0,3.5243138769999995,-0.4917054309999999,9.4817556855,-0.10555227717286106,-0.0007487462491055673,0.0028256880589788195,10.12749985998525,0.10559274762183571,0.15435667099999995,0.2860599805000001,-0.12454445500000055
153652.0,3.4561576595,-0.215157901,9.517746091,-0.13486333663085384,0.176981622139981,0.13738882805848965,10.12811973381185,0.26150775173556756,-0.06815621749999945,0.2765475299999999,0.03599040549999977
153662.0,3.137735734,0.09365350749999998,9.661315446999998,-0.11727739908775897,0.2915607422041568,0.3015300628915483,10.158502482272096,0.4355250091083282,-0.31842192550000004,0.3088114085,0.14356935599999865
153672.0,2.7378205469999997,0.24575464899999996,9.904324233999999,-0.049862311400226,0.300086675600149,0.4723314741502174,10.278701047665514,0.56181427931643,-0.3999151870000004,0.15210114149999998,0.24300878700000084
153682.0,2.4170450254999998,0.09012311349999999,10.200092797999998,0.05166000052978016,0.2009624460623831,0.6199514222838979,10.48294433442688,0.6537541023763759,-0.3207755214999999,-0.15563153549999997,0.2957685639999994
153692.0,2.1046051565,-0.09787036699999999,10.455065697999999,0.1470544614560342,0.04055272517008825,0.7276033305469081,10.665239810852793,0.7434219157220199,-0.31243986899999987,-0.18799348049999998,0.2549729000000003
153702.0,1.7682370614999998,-0.1876012145,10.640607516,0.21100507057835846,-0.146504682741656,0.7944843474833309,10.788159473742484,0.8349803232837438,-0.3363680950000001,-0.08973084750000002,0.1855418180000008
153712.0,1.5419976459999998,-0.3037119505,10.7375952845,0.24218014167748117,-0.3205035371899787,0.8256611639117054,10.852002127850081,0.9181993770234465,-0.22623941550000004,-0.11611073599999999,0.09698776850000002
153722.0,1.4641328449999997,-0.422274349,10.723179509,0.2440458986478631,-0.4292200962967055,0.8232630815194653,10.830908521258438,0.9599741627276861,-0.07786480100000004,-0.1185623985,-0.014415775499999839
153732.0,1.4760969579999998,-0.5072980045,10.635802257499998,0.21553419998728374,-0.4617285989443519,0.8040784223815437,10.74972107337807,0.9519403341527581,0.01196411300000011,-0.08502365549999996,-0.08737725150000131
153742.0,1.4102943364999998,-0.5551544565,10.5340092305,0.1582455126198219,-0.4369484142245364,0.7891558572769921,10.642484533904431,0.915823414219265,-0.06580262150000005,-0.047856451999999994,-0.1017930269999976
153752.0,1.381560852,-0.5946752559999999,10.4143681005,0.09216211115156057,-0.3804573423252359,0.7803628885054447,10.52242424446903,0.8730451774207653,-0.028733484499999795,-0.03952079949999998,-0.11964112999999976
153762.0,1.267803712,-0.6221338759999999,10.301787758499998,0.03860319239561059,-0.321037607941089,0.7822269001465746,10.398134824717756,0.8464244062458195,-0.11375713999999992,-0.02745861999999999,-0.11258034200000289
153772.0,1.1217826935,-0.643708506,10.1713593135,-0.005363396791378575,-0.2658799675903122,0.8006139438163349,10.253258376557964,0.8436252783221426,-0.14602101850000015,-0.02157463000000004,-0.13042844499999795
153782.0,0.9194715039999999,-0.7670761629999999,10.0672126905,-0.048263589805399194,-0.21471913122660238,0.8333877365102844,10.138175626920017,0.8619563786998423,-0.20231118950000004,-0.12336765699999996,-0.1041466230000001
153792.0,0.7518758555,-0.929866553,9.9450218315,-0.08823337500532133,-0.16195957326806582,0.8597683881541787,10.016657543186929,0.8793279894938169,-0.16759564849999986,-0.16279039000000006,-0.12219085899999982
153802.0,0.560351981,-1.0914801449999998,9.845680467000001,-0.11621100291479045,-0.12465490583593901,0.87415688250762,9.921831842346714,0.8906144496822793,-0.19152387449999997,-0.1616135919999998,-0.09934136449999897
153812.0,0.37235850049999997,-1.15130071,9.771444126499999,-0.12793612482968833,-0.1307827568396911,0.8853479336714076,9.846078635429054,0.9040535079182308,-0.1879934805000001,-0.0598205650000001,-0.07423634050000238
153822.0,0.16534011899999998,-1.1453186535,9.748790764999999,-0.12553804243744815,-0.20059592691946426,0.898139451759274,9.817230442072512,0.9287911502604634,-0.2070183815,0.005982056499999944,-0.022653361499999747
153832.0,0.0671755525,-1.188369847,9.6541565925,-0.10448762632914453,-0.3175731293758802,0.9125279461127153,9.727254235426546,0.9718423786778281,-0.09816456649999998,-0.04305119349999997,-0.09463417249999928
153842.0,0.037167203499999996,-1.1931751055,9.494994663,-0.06132039793956877,-0.44227690443087503,0.9146589931294004,9.569742519200787,1.0178261762741774,-0.030008349000000004,-0.00480525850000002,-0.15916192949999974
153852.0,0.0671755525,-1.1225672254999999,9.3729018705,-0.005628686837681713,-0.5318088043996803,0.8992041026029906,9.440124957046006,1.0447106320367299,0.030008349000000004,0.07060788000000007,-0.12209279250000016
153862.0,0.08865211599999999,-0.9896871179999999,9.274737304,0.05245936132719357,-0.5496617773183302,0.8752232786805885,9.327812811555322,1.0348409740535025,0.02147656349999999,0.1328801075,-0.0981645664999995
153872.0,0.06472388999999999,-0.8675943254999999,9.223252391499999,0.08416850317742654,-0.4875769251663879,0.8499090232096627,9.264194178280537,0.9834434109876586,-0.023928225999999997,0.12209279249999994,-0.0514849125000012
153882.0,-0.0573689025,-0.8244450655,9.2807193605,0.07297745201363891,-0.35807523999766067,0.8040784223815437,9.317443464028148,0.8832246007337984,-0.12209279249999999,0.04314925999999997,0.057466969000000034
153892.0,-0.1399408955,-0.7395194765,9.426740379,0.05539151447054404,-0.21978058605738593,0.7691718373416571,9.456738691717417,0.8018709629626259,-0.082571993,0.08492558899999991,0.14602101850000082
153902.0,-0.2058415835,-0.6234087405,9.6159106575,0.03913726314672084,-0.1315821176371045,0.753182876064137,9.63829585498659,0.7655912903401695,-0.06590068800000001,0.1161107360000001,0.18917027850000068
153912.0,-0.3027312855,-0.5443671415,9.83018596,0.03460638840854356,-0.10493617594690707,0.7579790408486174,9.8499003966612,0.7659904891751811,-0.096889702,0.07904159899999996,0.21427530249999904
153922.0,-0.420116886,-0.547995602,10.016904575999998,0.03860319239561059,-0.12865170982300603,0.7819616101002714,10.040676006245963,0.7934137814369778,-0.11738560050000002,-0.003628460499999986,0.1867186159999985
153932.0,-0.5337759595,-0.515633657,10.154589942,0.0441987179775044,-0.18913784038012152,0.8051430732252602,10.181674308940496,0.8282403139772466,-0.11365907349999999,0.032361945,0.13768536600000125
153942.0,-0.5266171049999999,-0.5767290865,10.1593952005,0.041800635585264194,-0.26561293221475707,0.803012026208575,10.189369600443207,0.8468328271451541,0.007158854500000089,-0.06109542950000002,0.0048052585000011305
153952.0,-0.46199128149999996,-0.5982056499999999,10.1366437725,0.02687981580996467,-0.3279648197422545,0.7747673629235509,10.164783958079825,0.8417528818709564,0.06462582349999996,-0.021476563499999934,-0.022751428000001184
153962.0,-0.491901564,-0.5000410835,10.004940462999999,0.002097885760897184,-0.3572758792002473,0.7353299031454871,10.029498586770334,0.8175331928692112,-0.02991028250000005,0.09816456649999994,-0.13170330950000064
153972.0,-0.4512039665,-0.42462794499999995,9.878042412,-0.022949334334473437,-0.36686820876920806,0.6945607571481515,9.897455016534858,0.7858330611027612,0.040697597500000016,0.07541313850000003,-0.1268980509999995
153982.0,-0.365003513,-0.41384063,9.698482650499999,-0.03147526773046574,-0.35887460079507405,0.6511282387122725,9.714167867274615,0.7441435713779125,0.0862004535,0.010787314999999964,-0.1795597615000002
153992.0,-0.30753654399999997,-0.34087915399999996,9.613458994999998,-0.024015730507441973,-0.33302801990229003,0.6159546182968308,9.62441536780669,0.7006315073938945,0.057466969000000034,0.07296147600000003,-0.08502365550000057
154002.0,-0.272821003,-0.134939504,9.555992025999998,-0.006162757588791978,-0.2760046225811313,0.5935725159692555,9.56083801611518,0.6546333805889546,0.03471554099999996,0.20593964999999997,-0.057466969000000034
154012.0,-0.354216198,0.049425515999999996,9.564425745,0.026612780434409535,-0.20032889154390915,0.5959705983614957,9.57111027144585,0.6293018822322245,-0.08139519499999998,0.18436502,0.008433719000001005
154022.0,-0.5194582505,0.14759008249999997,9.623069512,0.05245936132719357,-0.12998339604227768,0.6319435795743509,9.638209716500716,0.6473023679879324,-0.16524205250000007,0.09816456649999997,0.05864376700000129
154032.0,-0.6379225824999999,0.1271922505,9.6865185375,0.06391744786653633,-0.06869615935849681,0.6676495254116509,9.708334793731716,0.6742110138782827,-0.11846433199999984,-0.020397831999999977,0.06344902549999887
154042.0,-0.782766803,0.046973853499999996,9.763108474,0.06711489105618995,-0.0050125856117277144,0.6934961063044349,9.794550397332289,0.6967541776519257,-0.14484422050000012,-0.080218397,0.07658993649999957
154052.0,-1.06892485,0.056584370499999995,9.867255097000001,0.0628510516935678,0.04987801936349395,0.711614369269388,9.92514610850666,0.7161236499832145,-0.2861580469999999,0.009610516999999999,0.10414662300000188
154062.0,-1.3694006059999997,0.088848249,9.979737372499999,0.054325118297575505,0.07625867100738824,0.7289350167661797,10.07364432840155,0.7349237117209985,-0.30047575599999976,0.03226387850000001,0.1124822754999979
154072.0,-1.6949813859999998,0.0206920315,10.0252402285,0.05006127893495336,0.07039611004993929,0.7382620562888375,10.16753813359895,0.7432984647600107,-0.3255807800000001,-0.0681562175,0.04550285600000059
154082.0,-1.9476006899999998,-0.146903617,9.961791202999999,0.04606447494788634,0.045348889954568664,0.7345305423480736,10.151453742816559,0.7373693615241219,-0.252619304,-0.16759564849999997,-0.06344902550000064
154092.0,-2.1618759924999997,-0.1876012145,9.8959885815,0.03860319239561059,0.027228881660363535,0.7212084441676009,10.131115043656749,0.7227539265879211,-0.21427530249999993,-0.040697597500000016,-0.0658026214999996
154102.0,-2.3497714065,-0.32891504099999996,9.8122397905,0.030609584421476554,0.012308061885064012,0.6945607571481515,10.095031474605342,0.695343857681964,-0.1878954140000002,-0.14131382649999996,-0.08374879099999966
154112.0,-2.512659863,-0.34440954799999995,9.745162304499999,0.03300766681371676,0.013906783479890817,0.6596541721082648,10.069769901290321,0.6606258634621279,-0.16288845650000017,-0.01549450699999999,-0.06707748600000052
154122.0,-2.7053605354999997,-0.355196863,9.7080931675,0.05139296515422503,0.04081976054564338,0.6175533398916576,10.084255718067945,0.6210310920796867,-0.19270067249999956,-0.01078731500000002,-0.037069136999999586
154132.0,-2.7807736739999998,-0.4378669225,9.7080931675,0.07430913823291058,0.07732506718035677,0.5682582604983297,10.107992017047266,0.5782892569155613,-0.07541313850000009,-0.0826700595,0.0
154142.0,-2.7867557304999995,-0.5096516005,9.749967563,0.0924291465271157,0.11116525604727483,0.5141670163205215,10.15320736195804,0.5341054034099774,-0.005982056499999722,-0.07178467800000005,0.041874395500000716
154152.0,-2.8657973295,-0.562313311,9.822929039,0.10921572327279716,0.14580480571160628,0.45394617580970914,10.247874194130535,0.48913622449258326,-0.0790415990000004,-0.052661710500000014,0.07296147599999969
154162.0,-2.8598152729999997,-0.7299089594999999,9.8373448145,0.12946677858368738,0.15166736666905523,0.3825342841351092,10.270572695045416,0.4313897488442715,0.005982056500000166,-0.16759564849999986,0.014415775499999839
154172.0,-2.7233067049999997,-0.905938327,9.8049828695,0.14252358671785695,0.14154271167823615,0.3020623883134066,10.216399205836368,0.3627519792278879,0.136508568,-0.1760293675000001,-0.03236194499999989
154182.0,-2.6071959689999997,-0.9011330685,9.842150072999999,0.14305765746896723,0.1490022489012599,0.21919241009946386,10.2214201404388,0.3011851194587025,0.11611073599999999,0.00480525850000002,0.037167203499999246
154192.0,-2.4060615775,-1.025579457,9.868431894999999,0.14092486512303015,0.1404763155052676,0.14485011061076541,10.209157340525,0.24611982319965756,0.20113439149999968,-0.12444638850000012,0.02628182199999962
154202.0,-2.1714865094999998,-1.130902878,9.854114185999999,0.14945254384827444,0.11942589939696399,0.07450286977988195,10.153711704157036,0.2053029125826816,0.23457506800000028,-0.1053234209999998,-0.014317709000000178
154212.0,-1.9559363424999998,-1.0554897395,9.828911095499999,0.1598442342146487,0.0999742048834872,0.016147786239451536,10.077064993803754,0.18922413126815502,0.21555016699999996,0.07541313849999987,-0.025203090499999803
154222.0,-1.601622078,-1.0124385459999998,9.85764458,0.154513998679058,0.09171356153379803,-0.019291124222293322,10.038096520544471,0.18071552404474178,0.3543142644999999,0.043051193500000196,0.028733484500001794
154232.0,-1.196999699,-1.0303847154999999,9.904324233999999,0.13239893172703784,0.10716845206020781,-0.04114090112801034,10.029463568583404,0.1752344942785712,0.40462237899999987,-0.017946169500000053,0.046679653999998294
154242.0,-0.9383983384999999,-1.034013176,9.904324233999999,0.10228851147163166,0.14367375869492122,-0.052333697621049974,10.002270403365468,0.1839671286488433,0.25860136050000015,-0.003628460500000097,0.0
154252.0,-0.7875720615,-1.01008495,9.961791202999999,0.06604849488322141,0.18684098708449695,-0.05259898766735311,10.043795364823003,0.20503319642116113,0.15082627699999984,0.023928225999999997,0.057466969000000034
154262.0,-0.6594972125,-0.9981208369999999,10.016904575999998,0.028743827451094613,0.21934948973214335,-0.04647113666360102,10.0880899610996,0.2260530309575544,0.128074849,0.01196411300000011,0.0551133729999993
154272.0,-0.44404511199999996,-1.0052796915,10.179694966,0.0012985249634837812,0.2374677526970965,-0.043806018895805675,10.238845292338349,0.2414779224475601,0.21545210050000008,-0.007158854500000089,0.1627903900000014
154282.0,-0.41285996499999994,-0.8556302124999999,10.399952325,-0.016821483330721348,0.2673128829061995,-0.04194026192542374,10.443254510616672,0.2711053766332243,0.031185147000000024,0.14964947900000003,0.22025735899999965
