timestamp,ax,ay,az,gx,gy,gz,acc_mag,gyro_mag,dax,day,daz
200072.0,-1.742445572,1.521403681,10.305122019499999,0.14342243128263402,0.1826766314892385,0.12993801748172584,10.561549392429432,0.2661289797717607,0.0,0.0,0.0
200082.0,-1.256427998,1.5632780764999998,10.422409553499998,0.09226159491892424,0.18214256073812823,0.10409143658894182,10.613626645002727,0.22917927807804983,0.4860175740000001,0.04187439549999983,0.11728753399999903
200092.0,-1.109132115,1.8074636615,10.370924640999998,0.05575628828421085,0.29778807697527254,0.09263335004959904,10.585517315911789,0.3168082069853532,0.14729588299999996,0.2441855850000001,-0.051484912499999425
200102.0,-1.1318835429999998,2.1091162155,10.398481327499999,0.03390651137849384,0.4097020792716529,0.09982759722631966,10.670423866171644,0.42304963590736727,-0.02275142799999985,0.3016525539999999,0.027556686500000538
200112.0,-1.1151141715,2.2863223809999997,10.5396970875,0.00965865208053662,0.5149541598131709,0.11768057014496967,10.842322829615323,0.5283178899663978,0.016769371499999908,0.1772061654999999,0.14121576000000147
200122.0,-1.1115837775,2.333002035,10.834190787,-0.01645496418780254,0.582636282876259,0.14432825716441908,11.138141990423312,0.6004718559486404,0.0035303939999999923,0.04667965400000007,0.29449369950000026
200132.0,-1.0300905159999998,2.3952742624999996,11.143002195499998,-0.04017049806390149,0.5810375612814322,0.17763612060947886,11.44399070222734,0.6089112479497825,0.08149326150000014,0.06227222749999983,0.3088114084999969
200142.0,-0.9631110965,2.4203792865,11.362082756499998,-0.07054795369486279,0.5136224735938992,0.21680479968273564,11.656875372082961,0.5619514038746761,0.06697941949999975,0.025105024000000142,0.21908056100000017
200152.0,-0.91397978,2.4550948275,11.4268066465,-0.09719389538506024,0.3891839885852076,0.26690098520272887,11.72325721746148,0.48181631995336177,0.04913131650000002,0.03471554100000018,0.06472389000000156
200162.0,-0.8541592149999999,2.4790230535,11.305890651999999,-0.10545453873474937,0.23570147949407821,0.3183271116127418,11.605959964575737,0.4098877860624382,0.0598205650000001,0.02392822600000022,-0.12091599450000068
200172.0,-0.670970993,2.461076884,11.111915114999999,-0.08893325203537107,0.09261240609857511,0.3638924223945577,11.400954303275318,0.3858806501460438,0.18318822199999996,-0.017946169500000053,-0.19397553700000003
200182.0,-0.3849110125,2.447935973,10.811439359,-0.06335370651814216,-0.000916297857297023,0.41558558418012576,11.09178831518099,0.4203878084693782,0.2860599805,-0.013140911000000255,-0.3004757559999991
200192.0,-0.1083634825,2.5305079659999996,10.534891829,-0.059089867155520025,0.0006824237375297829,0.46887921288977263,10.835089250165867,0.4725883984851377,0.27654753,0.08257199299999973,-0.2765475300000002
200202.0,0.13464530449999998,2.5664003049999997,10.266778018,-0.0915983698031664,0.09634217471008698,0.5240368532405494,10.583537723956768,0.5406354590042385,0.24300878699999998,0.035892339000000106,-0.2681138109999992
200212.0,0.265171816,2.6035675085,10.093200312999999,-0.15794706131773084,0.2338374678529483,0.5733319326338773,10.42696372016614,0.6390123164137624,0.13052651150000003,0.037167203500000134,-0.17357770500000136
200222.0,0.3525490675,2.599939048,10.057307974,-0.2258944744271221,0.37506252960732145,0.6077061922519057,10.393912525232942,0.7490040258860153,0.08737725149999997,-0.003628460499999875,-0.03589233899999833
200232.0,0.37402563099999997,2.5640467090000003,10.083589796,-0.2655972242514891,0.4731203629721189,0.6268908513898273,10.411196562959226,0.8290819639488172,0.02147656349999999,-0.03589233899999966,0.02628182199999962
200242.0,0.5009236819999999,2.5604182484999995,10.181754362499998,-0.2725261813819066,0.5128231127964858,0.6436791734647607,10.510698741792954,0.8669376810989118,0.12689805099999996,-0.003628460500000763,0.09816456649999772
200252.0,0.5716296285,2.6514239605,10.220098363999998,-0.24907768288136278,0.49150566131262713,0.6724561621716433,10.573893323668818,0.8693760965511572,0.07070594650000006,0.0910057120000003,0.0383440015000005
200262.0,0.728437962,2.809409092,10.327775380999999,-0.19738277576654273,0.41476527943168845,0.7164227513586324,10.727830425164477,0.8510298207792867,0.1568083335,0.15798513150000026,0.10767701700000032
200272.0,0.9234922305,2.8920791515,10.440355722999998,-0.12703728026491126,0.3148416890965091,0.7915644116447442,10.872809542207278,0.8613001669294733,0.19505426849999996,0.08267005949999984,0.11258034199999933
200282.0,1.0588240004999998,3.0189772025,10.471442803499999,-0.059622192577378295,0.189603843290404,0.8938860843721638,10.949266916110021,0.9157165254992536,0.13533176999999985,0.12689805099999996,0.031087080500000752
200292.0,1.1629706235,3.0907618804999997,10.496645893999998,-0.007661995416255106,0.06942919764433443,1.0180575340053004,11.003857718868547,1.0204510092132049,0.1041466230000001,0.07178467799999977,0.025203090499999803
200302.0,1.1198213634999998,3.0560463395,10.494194231499998,0.020050342446910858,-0.024631831733395972,1.1632793997467406,10.9873350583192,1.1637128963975254,-0.04314926000000008,-0.03471554099999974,-0.0024516625000003955
200312.0,1.0013570315,2.9375820074999996,10.4259399475,0.022181389463595932,-0.09524436261058256,1.3154302226185983,10.878066360534786,1.3190603372196614,-0.11846433199999984,-0.11846433200000028,-0.06825428399999822
200322.0,0.7954173815,2.748411729,10.370924640999998,0.006194173515327876,-0.1368128694053315,1.4470629548040106,10.758370404117812,1.4535292649914455,-0.20593965000000003,-0.1891702784999998,-0.055015306500001415
200332.0,0.5739832244999999,2.461076884,10.333855503999999,-0.016989034938912805,-0.16452520726849748,1.5381935763676426,10.638370446102995,1.5470606482984357,-0.22143415700000002,-0.28733484499999973,-0.037069136999999586
200342.0,0.34529214649999995,2.2132628385,10.2249036225,-0.033243286262735997,-0.18237818018714747,1.5882880165583837,10.467397630172137,1.599070273700592,-0.228691078,-0.2478140455000002,-0.10895188149999946
200352.0,0.1107170785,2.0636133595,10.1435084275,-0.03803945104721641,-0.1935692313509351,1.6077397110718605,10.351884929216611,1.6197972174686543,-0.23457506799999994,-0.1496494789999998,-0.08139519499999892
200362.0,-0.015004174499999998,1.8865052605000001,10.050051053,-0.036173694076834476,-0.21408732203738043,1.604009942460349,10.22558816846508,1.6186382588805792,-0.125721253,-0.17710809900000002,-0.0934573744999998
200372.0,-0.023339827,1.7931459525,9.9579666095,-0.03430793710645254,-0.2316732595804753,1.5933512167184192,10.118152803274343,1.6104712458070183,-0.008335652500000002,-0.09335930800000014,-0.092084443500001
200382.0,-0.05207331149999999,1.8051100655,9.864509235,-0.02791305072714531,-0.2433983814953732,1.6032088363336834,10.028443370022103,1.6218201143819453,-0.02873348449999999,0.01196411300000011,-0.0934573744999998
200392.0,-0.060507030499999996,1.767942862,9.814299187,-0.007129669994396836,-0.2551217580810191,1.644245017706574,9.972449628651203,1.6639349812698423,-0.008433719000000006,-0.037167203500000134,-0.050210048000000285
200402.0,-0.1334685065,1.7248916684999998,9.8310685585,0.021914354088040804,-0.26977728781001553,1.7012684150277326,9.982132743668325,1.7226648669733176,-0.072961476,-0.043051193500000196,0.016769371500000574
200412.0,-0.29988735699999997,1.697334982,9.874119751999999,0.05468989211124232,-0.2868308999312521,1.7798745538790532,10.023428522459065,1.80366747960944,-0.16641885049999997,-0.02755668649999965,0.04305119349999842
200422.0,-0.5201447159999999,1.5405266485,9.949532890499999,0.08693135938333357,-0.3070819552421423,1.8494206885832714,10.081516632901154,1.8767560501672542,-0.22025735899999993,-0.15680833350000012,0.07541313850000009
200432.0,-0.7787460764999999,1.2855537485000001,9.9579666095,0.10771648544533405,-0.332396210713068,1.894718963989532,10.070759300463072,1.9266681174075277,-0.25860136050000004,-0.25497289999999984,0.008433719000001005
200442.0,-1.018126403,1.060491131,9.9746379145,0.10931520704016084,-0.35024918363171803,1.911772576110769,10.082391796433834,1.9466634757692773,-0.23938032649999996,-0.22506261750000012,0.016671305000000913
200452.0,-1.2576047959999999,0.8473926264999999,9.9579666095,0.10105456369047168,-0.3555776738380568,1.8949859993650875,10.07277236327148,1.9307043908285013,-0.23947839299999996,-0.21309850450000012,-0.016671305000000913
200462.0,-1.4155899275,0.645081437,9.920799406,0.09439264193560933,-0.36170727017106086,1.836630915824657,10.0420259787202,1.8742879290837635,-0.15798513150000004,-0.20231118949999993,-0.037167203499999246
200472.0,-1.5041439769999998,0.5445632745,9.7987066135,0.09092816337040059,-0.36570407415812783,1.7393724432572728,9.92842633859607,1.7797257926749677,-0.0885540494999999,-0.10051816250000001,-0.12209279250000016
200482.0,-1.4383413555,0.5912429285,9.714957822499999,0.09092816337040059,-0.3590421524032655,1.6455767039258455,9.838638094187464,1.6867429817846387,0.06580262149999982,0.04667965400000007,-0.08374879100000143
200492.0,-1.2994791915,0.7396175429999999,9.661021247499999,0.10318561070715675,-0.34145621486017064,1.5762976045971828,9.77604274866376,1.6161540010724413,0.13886216400000007,0.1483746144999999,-0.05393657499999982
200502.0,-1.167775882,0.919275371,9.6598444495,0.12903219159994078,-0.3236032419415206,1.5427227057765678,9.773503082664067,1.5815693824751165,0.13170330949999998,0.17965782800000007,-0.0011767979999994793
200512.0,-1.0217548635,1.0641195915,9.756832218,0.17246645536507169,-0.30948003763438253,1.5365948547728159,9.867730662938811,1.5769103714652466,0.14602101849999993,0.1448442204999999,0.09698776850000002
200522.0,-0.9128029819999999,1.1382578655,9.8345989525,0.2201628131635727,-0.29935538264356343,1.5496499175777332,9.942242041352385,1.5935809287470932,0.10895188150000013,0.07413827400000006,0.07776673450000082
200532.0,-0.9068209254999999,1.2292635774999998,9.955514947,0.256402829751983,-0.2857645037582836,1.559243992475946,10.072025168447166,1.6058161759010185,0.005982056499999944,0.09100571199999985,0.1209159944999989
200542.0,-0.9056441275,1.2101406099999998,10.042892198499999,0.28304877144218044,-0.28070304892750003,1.555247188488879,10.155998980520751,1.6055231627088677,0.0011767979999999234,-0.019122967499999977,0.08737725149999953
200552.0,-0.93555441,1.1658145519999998,10.151844079999998,0.30383215217492887,-0.27164304478039747,1.535261423224292,10.261302249147347,1.5884368284931865,-0.02991028249999994,-0.044326058,0.10895188149999946
200562.0,-0.9654646924999999,1.2352456339999998,10.315811268,0.32541663903434276,-0.2601849582410547,1.5027529205766457,10.43426643160773,1.5594417404176872,-0.02991028249999994,0.06943108199999992,0.16396718800000087
200572.0,-0.93555441,1.293889401,10.415250699,0.33634065482257525,-0.24819454627985363,1.4577216805459399,10.536928345543144,1.5164689468707298,0.02991028249999994,0.05864376700000018,0.09943943100000041
200582.0,-0.8337613829999999,1.4136285975,10.510963602999999,0.3320768154599531,-0.23966686755460934,1.402297004819608,10.638320342941483,1.4608737483080139,0.10179302700000004,0.11973919650000009,0.0957129039999991
200592.0,-0.635078654,1.5775957855,10.549307604500001,0.32301855664210255,-0.23833518133533765,1.35246785467517,10.685505336368298,1.410784868265517,0.19868272899999995,0.16396718799999999,0.03834400150000228
200602.0,-0.3633363825,1.740484242,10.475071263999999,0.31315919169758655,-0.24766047552874337,1.321292783576047,10.624896079933066,1.3802967110059878,0.27174227149999997,0.16288845649999995,-0.07423634050000238
200612.0,-0.1083634825,1.9822181644999999,10.379260293499998,0.29823662659303507,-0.2529907110643341,1.3220921443734606,10.567401560281455,1.3787229683806845,0.2549729,0.24173392249999992,-0.09581097050000054
200622.0,0.0412859965,2.1510886774999998,10.185382823000001,0.2739887672950778,-0.2503255932965387,1.3615278588222726,10.410134979097974,1.4112019195041874,0.149649479,0.1688705129999999,-0.19387747049999682
200632.0,0.0640374245,2.0636133595,9.955514947,0.2396145076770495,-0.2402009383057196,1.430009342682774,10.167343741075339,1.4697068834336602,0.022751427999999997,-0.08747531799999964,-0.22986787600000191
200642.0,-0.1071866845,1.7966763465,9.712506159999998,0.2132356013624072,-0.22341261623078615,1.4870327400039327,9.877869749467473,1.5187656134582044,-0.171224109,-0.26693701300000017,-0.24300878700000084
200652.0,-0.43992631899999995,1.4759008249999999,9.4515512035,0.22442665252619487,-0.22128156921410105,1.4990231519651338,9.576201677270944,1.5317973969704521,-0.33273963449999994,-0.3207755215000001,-0.2609549564999991
200662.0,-0.692545623,1.3058535139999998,9.2193297315,0.3216851250935789,-0.24845983632615676,1.4502603979936641,9.337072000262314,1.5061436956553758,-0.25261930400000004,-0.17004731100000003,-0.2322214719999991
200672.0,-0.712943455,1.328604942,9.0839979615,0.4932876424789134,-0.2402009383057196,1.3556652978648236,9.208284228154032,1.4624833636046166,-0.020397832000000005,0.022751428000000073,-0.13533177000000052
200682.0,-0.5177911199999999,1.571613729,9.2001086975,0.6702186500705866,-0.17464986225931659,1.2501479272770024,9.34773113664205,1.4291834918458242,0.19515233500000007,0.24300878700000017,0.11611073599999955
200692.0,-0.37775215799999995,1.821879437,9.541282051,0.7813332915695534,-0.0512777734235934,1.1877942944202529,9.721008412329034,1.422661733659657,0.140038962,0.2502657079999999,0.34117335350000033
200702.0,-0.273605535,1.9750593099999998,10.0560331095,0.8087785940571642,0.05983686807537359,1.1742051608642252,10.251805751484007,1.4270462588109518,0.10414662299999994,0.1531798729999998,0.5147510584999999
200712.0,-0.3046926155,2.0648882239999997,10.532538232999999,0.7722732874224509,0.1275189911384617,1.190459412188048,10.737362925651755,1.4247318118278833,-0.031087080499999975,0.08982891399999993,0.4765051234999991
200722.0,-0.42198014949999996,2.0612597635,10.946771129,0.6875375522381263,0.13044939895256016,1.2213691932408677,11.147136726976306,1.4076461336651787,-0.11728753399999997,-0.003628460499999875,0.41423289600000146
200732.0,-0.5620191115,2.0672418199999996,11.120348834,0.5508433652219303,0.08301833120036227,1.2629377000356168,11.324818427413895,1.3803376726350576,-0.140038962,0.005982056499999722,0.17357770499999958
200742.0,-0.863769732,1.9320081164999998,11.007768491999999,0.36964851826763506,0.04784645611417255,1.3178283050108384,11.209358620617378,1.3695257397755922,-0.3017506205,-0.13523370349999975,-0.11258034200000111
200752.0,-1.1810148594999998,1.6710531599999998,10.682187712,0.1833922164825562,0.04997750313085763,1.340477442713969,10.876412509477083,1.3538870818168558,-0.3172451274999999,-0.2609549565,-0.32558077999999924
200762.0,-1.464721244,1.3693025395,10.261972759499999,0.033639476002938706,0.1080655512957329,1.313032140226358,10.456026142087923,1.3179010505307345,-0.2837063845000001,-0.3017506204999998,-0.4202149525000003
200772.0,-1.572398261,1.3226228854999997,9.956691745,-0.07001388294375253,0.20772385158460913,1.2687985156638137,10.166487992094188,1.287594973457377,-0.1076770170000001,-0.04667965400000029,-0.30528101449999845
200782.0,-1.6849786029999998,1.317817627,9.804688669999999,-0.11611326447667876,0.33375931285887567,1.2008511025544226,10.035323418117928,1.2517671267506718,-0.11258034199999978,-0.004805258499999798,-0.15200307500000143
200792.0,-1.7806915069999998,1.1490451805,9.886083865,-0.10518750335919425,0.4331505777721967,1.140364971997307,10.11067857543427,1.224383968878124,-0.09571290399999999,-0.1687724465,0.0813951950000007
200802.0,-1.8585563079999998,1.1802303275,10.035733344,-0.06255260039147677,0.45659907627274054,1.0924015788232508,10.274391413988022,1.1856376991663122,-0.07786480100000004,0.03118514699999997,0.1496494790000007
200812.0,-1.8573795100000001,1.2891822089999998,10.138703169,-0.012192870154432387,0.42782208756585804,1.0673543587278802,10.38774043578586,1.1499677090193514,0.0011767979999997014,0.1089518814999999,0.10296982499999885
200822.0,-1.8381584759999998,1.5034575115,10.186559620999999,0.02884331121845829,0.3835884630033138,1.0889371002580421,10.459694449837627,1.1548835672351057,0.019221034000000303,0.21427530250000015,0.04785645199999955
200832.0,-1.8633615665,1.6782120145,10.111146482499999,0.040566687804104204,0.3486818779634272,1.1472921837984724,10.417475465951124,1.1997933418654088,-0.025203090500000247,0.17475450299999995,-0.07541313850000009
200842.0,-1.9530924139999999,1.706945499,9.986700093999998,0.020315632493213994,0.33375931285887567,1.21017814207708,10.318062399582601,1.2555234523515528,-0.08973084749999982,0.028733484500000017,-0.12444638850000089
200852.0,-2.091954578,1.7356789835,9.8191044455,-0.009527752386637046,0.32070425005395803,1.2618713038626481,10.188408492096135,1.3020219589470188,-0.1388621640000003,0.028733484500000017,-0.1675956484999972
200862.0,-2.2882837109999996,1.906805026,9.6849494735,-0.02684665455417678,0.3071133711686782,1.3055708576740823,10.13264003374514,1.3414747966395717,-0.19632913299999943,0.17112604250000008,-0.13415497200000104
200872.0,-2.5037358114999995,2.0037927945,9.515000229,-0.030045843073082383,0.28899510820372504,1.3394110465410003,10.040871871254396,1.3705629780669375,-0.21545210049999985,0.0969877684999998,-0.1699492444999997
200882.0,-2.6354391209999997,1.9547595445,9.4264461795,-0.021785199723393222,0.26900934293913803,1.3556652978648236,9.981207933527948,1.3822695183467137,-0.1317033095000002,-0.04903324999999992,-0.08855404950000079
200892.0,-2.80666323,1.8936641149999998,9.2671861835,0.0008639379797371931,0.24929061305010608,1.3575310548352055,9.866309443085903,1.3802308216330037,-0.17122410900000018,-0.06109542950000013,-0.1592599959999994
200902.0,-2.782735004,1.6219218435,9.0481056225,0.034971162222210375,0.22770787151994418,1.3399451172921106,9.604293827493276,1.359605374472418,0.023928225999999775,-0.27174227149999974,-0.21908056100000017
200912.0,-2.7970527129999994,1.6076041344999998,8.819512611,0.08613199858592016,0.2588846879483189,1.305038532252224,9.391043479196025,1.3332537543534397,-0.01431770899999929,-0.014317709000000178,-0.22859301149999922
200922.0,-2.7239931705,1.6290806979999999,8.7021270105,0.1423560351096655,0.34388571317894673,1.2685332256175106,9.262886009252218,1.3220057371117204,0.07305954249999935,0.021476563500000045,-0.11738560050000046
200932.0,-2.5995467819999996,1.721263208,8.8182377465,0.1833922164825562,0.4949701398778359,1.2464164133362385,9.353165638264855,1.353581183332216,0.12444638850000045,0.09218251000000022,0.11611073599999955
200942.0,-2.577972152,1.8278614935,9.1259704235,0.192984546051517,0.6676373081068869,1.2461493779606834,9.65765780230923,1.4268394732354157,0.021574629999999484,0.10659828549999983,0.3077326770000006
200952.0,-2.6749599205,1.8051100655,9.610713132999999,0.17219941998951654,0.799003004916744,1.249613856525892,10.138029386901058,1.4931822502736314,-0.09698776850000002,-0.02275142799999985,0.484742709499999
200962.0,-2.9503306525,1.7954995484999998,10.086041458499999,0.13409539175997634,0.8493644804830405,1.2357576875943093,10.660980343773529,1.5054895075177113,-0.27537073199999984,-0.009610517000000263,0.4753283254999996
200972.0,-3.169313147,1.7272452645,10.3433679545,0.07653966901695933,0.8101958014097838,1.1933898200021467,10.955052837374279,1.4444565829543037,-0.21898249450000007,-0.06825428399999978,0.257326496000001
200982.0,-3.2603188589999994,1.705768701,10.362490922,0.001663298777150596,0.7366511173892467,1.1347694464154132,10.996387772000162,1.3529077321944727,-0.0910057119999994,-0.021476563500000045,0.019122967499999532
200992.0,-3.2184444634999996,1.583577842,10.2129395095,-0.07108027911672107,0.6852232456499817,1.067087323352325,10.824520172784254,1.2701411961343652,0.04187439549999983,-0.12219085900000004,-0.14955141249999926
201002.0,-3.141854527,1.4962005905,9.992682150499999,-0.1179772761178087,0.6577779431623709,1.0020703180570323,10.581283600620683,1.2044647701456521,0.07658993649999957,-0.08737725149999997,-0.22025735900000143
201012.0,-3.0903696145,1.4842364775,9.8430326715,-0.12863600185973809,0.6468539273741384,0.9434481991410468,10.422985870065396,1.151113256285536,0.05148491249999987,-0.011964112999999887,-0.14964947899999892
201022.0,-3.0412382979999997,1.4543261949999997,9.769973129,-0.10758558575143447,0.6383262486488941,0.8952195159206875,10.335210206283527,1.1047411641017633,0.049131316500000466,-0.029910282500000385,-0.07305954249999935
201032.0,-3.1837289225,1.5177752205,9.6957367885,-0.06788283592706745,0.6074164675960745,0.8501865305607298,10.31731958135441,1.0470816497615099,-0.14249062450000016,0.0634490255000002,-0.07423634050000061
201042.0,-3.2363906329999996,1.4998290509999999,9.552069366,-0.01645496418780254,0.5615858667679554,0.8096844199389494,10.196359187693876,0.9855142370822506,-0.05266171049999979,-0.017946169500000053,-0.14366742250000009
201052.0,-3.3225910864999997,1.512969962,9.3917306385,0.04003436238224593,0.5400013799085416,0.7662519015030704,10.076373058801622,0.938267668115849,-0.08620045350000005,0.013140911000000033,-0.16033872749999922
201062.0,-3.4183039904999997,1.5728885934999999,9.385748582,0.08853008097816037,0.5370709720944431,0.7270814771005618,10.111926480327359,0.9082567250767839,-0.09571290399999999,0.059918631499999986,-0.00598205650000061
201072.0,-3.5787407844999994,1.5728885934999999,9.5005844535,0.1370275449033268,0.5368039367188879,0.6876440173224978,10.273386446945914,0.8830567983422997,-0.16043679399999977,0.0,0.11483587150000041
201082.0,-3.6637644399999996,1.510616366,9.653862392999999,0.17939366716623714,0.5096256696068323,0.6316870161743077,10.435621245523201,0.8312213287354716,-0.08502365550000013,-0.06227222749999983,0.1532779394999988
201092.0,-3.6601359794999997,1.5058111074999998,9.862155639,0.1828581457314459,0.481381006321808,0.5727996072120191,10.62667287196516,0.770236434304417,0.003628460499999875,-0.004805258500000242,0.2082932460000002
201102.0,-3.6625876419999996,1.478254421,10.028574489499999,0.139425627295567,0.46752483739022505,0.5208394100508958,10.778315761749946,0.7136474410979724,-0.0024516624999999515,-0.027556686499999872,0.1664188504999995
201112.0,-3.6446414724999996,1.3993108885,10.050051053,0.06641501402614022,0.4611299510109178,0.4678128167168041,10.781697853012208,0.6602277010940498,0.017946169500000053,-0.07894353249999986,0.021476563500002044
201122.0,-3.6685696984999994,1.28074849,9.933940317,-0.008728391589223642,0.4616622764327761,0.41825070194792113,10.666859451080608,0.6230103466081094,-0.023928225999999775,-0.11856239850000017,-0.11611073600000132
201132.0,-3.631402495,1.116781302,9.720939879,-0.06122091417220509,0.4512705860664018,0.3721530657442469,10.436999410190726,0.5881250262687654,0.037167203499999246,-0.16396718799999999,-0.2130004379999999
201142.0,-3.5260790739999996,0.9239825629999999,9.505389712,-0.06601707895668552,0.43421697394516523,0.32259095097536394,10.18034434534629,0.544947297293288,0.10532342100000047,-0.192798739,-0.21555016699999996
201152.0,-3.4494891375,0.8066950289999999,9.3581918955,-0.018853046580042748,0.42409057362509417,0.27515988322316604,10.006272419464986,0.505886561729403,0.07658993649999957,-0.11728753400000003,-0.1471978165000003
201162.0,-3.4267377095,0.725299834,9.285132353,0.05175948429714383,0.4128995224613065,0.23732289036918094,9.923823557058894,0.4790482378181382,0.022751428000000296,-0.08139519499999992,-0.07305954249999935
201172.0,-3.5524589625,0.713335721,9.409676808,0.12983329772660618,0.4054382399090308,0.2088111917086016,10.083195434093016,0.4741718732293858,-0.12572125300000003,-0.011964112999999998,0.12454445500000055
201182.0,-3.7858572324999997,0.7085304625,9.586784907,0.19458326764634382,0.3787922982188333,0.1802994930480222,10.331562091680329,0.46244368352395954,-0.2333982699999999,-0.00480525850000002,0.1771080989999998
201192.0,-4.1102612144999995,0.597224985,9.8118475245,0.2262924094965768,0.35347804274790756,0.1373993000340016,10.654730253655792,0.44162602838882986,-0.32440398199999976,-0.11130547749999997,0.225062617499999
201202.0,-4.402401318,0.5133781275,10.112323280499998,0.2294898526862304,0.3124436067042689,0.07931125186912633,11.041004329129928,0.395697958712662,-0.2921401035000004,-0.08384685749999998,0.3004757559999991
201212.0,-4.671691927,0.551722129,10.312280874,0.21190216981388355,0.24715956603342099,0.01189616418159335,11.334559523540891,0.3257789118035364,-0.26929060900000046,0.03834400149999995,0.19995759350000242
201222.0,-5.026104257999999,0.600755379,10.379260293499998,0.18952006748630829,0.1826766314892385,-0.08216486519613705,11.54779958597779,0.2757529197396997,-0.3544123309999989,0.04903325000000003,0.0669794194999973
201232.0,-5.235574302,0.7923773199999999,10.242849792,0.17406517695989848,0.11686026539653233,-0.16769996117787514,11.530614552160158,0.2684739921066649,-0.20947004400000058,0.19162194099999996,-0.13641050149999856
201242.0,-5.2786254955,0.9048595955,10.004646263499998,0.17060069839468972,0.08914792753336637,-0.26309267677487724,11.347933947070521,0.3259903493185347,-0.043051193500000196,0.1124822755,-0.23820352850000148
201252.0,-5.072783911999999,1.0018473639999999,9.9159941475,0.20071111865009592,0.09074664912819316,-0.36381562790746996,11.183191614733873,0.4253019146294488,0.2058415835000007,0.0969877684999999,-0.08865211599999867
201262.0,-4.760344043,1.328604942,10.057307974,0.2611989945364634,0.0630343112650272,-0.44828432771623955,11.20604792884255,0.522644312720914,0.3124398689999994,0.32675757800000005,0.14131382650000113
201272.0,-4.4682039394999995,1.6602658449999999,10.2164699035,0.31902000732578356,-0.04461585166873104,-0.49225091690322875,11.273756534986827,0.5882816540453549,0.2921401035000004,0.33166090299999995,0.15916192949999974
201282.0,-4.335323831999999,1.9056282279999999,10.2392213315,0.3648523534831546,-0.21621836905406552,-0.4762637009549607,11.281316640671966,0.6377262232383996,0.13288010750000012,0.24536238300000002,0.022751427999999407
201292.0,-4.4311348025,2.1067626195,10.093200312999999,0.40668615032420674,-0.40380810238766807,-0.40911564864298283,11.222570869956336,0.7041521301423588,-0.09581097050000054,0.20113439150000012,-0.14602101850000082
