timestamp,ax,ay,az,gx,gy,gz,acc_mag,gyro_mag,dax,day,daz
48432.0,-0.216726965,0.847686826,10.0426960655,0.056014597013506015,-0.05480508384187394,0.04427376713534016,10.080738454911984,0.09000777049707784,0.0,0.0,0.0
48442.0,-0.991256182,0.7926715194999999,9.5590320875,-0.015664330036649108,0.01793849405199772,0.042408010164958224,9.64292545890687,0.048637435484427276,-0.774529217,-0.05501530650000008,-0.48366397799999916
48452.0,-0.30420228299999996,0.7626631705,9.65366626,-0.08973959414979245,0.09308189966736158,0.045340163308308694,9.688522405407436,0.13701520066284006,0.687053899,-0.030008348999999934,0.09463417249999928
48462.0,-0.119837263,0.8261121959999999,9.747025568,-0.11798425743481668,0.2052611920100451,0.036812484583064395,9.782705645844047,0.2395988334049397,0.18436501999999996,0.06344902549999987,0.09335930800000014
48472.0,-0.262229821,0.8368995109999999,9.942177903,-0.12278216754854909,0.284401401612476,0.04054399852382828,9.980784875220746,0.3124154825282528,-0.14239255799999997,0.010787315000000075,0.1951523349999995
48482.0,-0.374810163,0.7759021479999999,10.091729315499999,-0.11798425743481668,0.2929273350084683,0.05013632809278911,10.128450393761188,0.31975046519471445,-0.112580342,-0.06099736300000003,0.14955141249999926
48492.0,-0.49092089899999997,0.7159835165,10.2258842875,-0.09906663367245014,0.24336522023958532,0.04906993191982058,10.262667547295587,0.267298871206126,-0.11611073599999999,-0.059918631499999875,0.13415497200000104
48502.0,-0.5579003185,0.556821587,10.295315369499999,-0.07854854298600479,0.1445080260773745,0.04587248873016696,10.32544534645332,0.17075341410438238,-0.06697941950000003,-0.15916192950000008,0.06943108199999948
48512.0,-0.621349344,0.6549861535,10.25579457,-0.056166440658429524,0.0309953021861673,0.04560545335461183,10.295455508650768,0.07870981634795236,-0.06344902549999998,0.09816456650000005,-0.039520799499998205
48522.0,-0.6249778045,0.6848964359999999,10.133701777499999,-0.041776200975736276,-0.06653020575677185,0.05999569303730508,10.17603027213804,0.09884838101370222,-0.003628460499999986,0.02991028249999994,-0.12209279250000193
48532.0,-0.5327952945,0.7088246619999999,9.926585329499998,-0.04923748352801203,-0.12062144993458011,0.09250419568495145,9.966112558623113,0.15978388588281195,0.09218251,0.023928225999999997,-0.20711644800000073
48542.0,-0.38677427600000003,0.614288556,9.705151172499999,-0.06709045644666202,-0.12301953232682031,0.1324722355556216,9.732260993812588,0.19283108637674357,0.14602101849999993,-0.09453610599999995,-0.22143415699999913
48552.0,-0.4118793,0.604678039,9.5937476285,-0.06469237405442181,-0.06999468432198058,0.1753741738988942,9.621604525647825,0.19960075141354186,-0.025105023999999976,-0.00961051700000004,-0.11140354399999985
48562.0,-0.5447594075,0.614288556,9.573447862999998,-0.04550771491650015,-0.013770647798235261,0.2196060531321865,9.60859080342542,0.22469401734358932,-0.13288010749999996,0.00961051700000004,-0.020299765500000788
48572.0,-0.6130136915,0.5149471915,9.6704356315,-0.014597933863680574,0.022734658836478135,0.24785071641721074,9.703519036874457,0.24931895638724316,-0.068254284,-0.09934136449999997,0.09698776850000179
48582.0,-0.678816313,0.34372308249999994,9.854702584999998,0.021642082724729686,0.03126233756172243,0.2534462419991046,9.884032587109568,0.25628248297134126,-0.06580262150000005,-0.17122410900000007,0.1842669534999981
48592.0,-0.7661935645,0.2754687985,10.048678122,0.054948200840537476,0.011011282250832225,0.24065646924049014,10.081610369221263,0.24709530408269298,-0.08737725149999997,-0.06825428399999994,0.1939755370000018
48602.0,-0.8571992764999999,0.19770206399999998,10.174399375,0.0682720443502622,-0.03375466773357033,0.21241180595546588,10.212359147020946,0.22565288596166988,-0.09100571199999996,-0.07776673450000002,0.12572125300000003
48612.0,-0.873968648,0.1617116585,10.2186273665,0.061877157970954964,-0.09237678664955587,0.17270905613109888,10.257208056462758,0.20540367927560388,-0.01676937150000002,-0.03599040549999999,0.044227991499999675
48622.0,-0.8703401874999999,0.22045349199999997,10.1444890925,0.03789458871930088,-0.1315472110520646,0.1300741531633814,10.184142120569803,0.18883843335230305,0.003628460500000097,0.05874183349999998,-0.07413827399999917
48632.0,-0.7985555095,0.2515405725,9.9732649835,0.006986552995733301,-0.14247122684029712,0.09037140333901439,10.008345417324168,0.16886045404891106,0.07178467799999988,0.03108708050000003,-0.17122410900000062
48642.0,-0.7195139105,0.31616639599999996,9.810474593499999,-0.01699601625592078,-0.12408592849978886,0.06452482244623037,9.841903942178647,0.14088873245204456,0.07904159899999996,0.06462582349999996,-0.1627903900000014
48652.0,-0.7267708314999999,0.441887649,9.747025568,-0.022858577213369737,-0.0841161432998667,0.05599888905023806,9.784067045922349,0.10360461230429932,-0.007256920999999861,0.12572125300000003,-0.06344902549999887
48662.0,-0.7243191689999999,0.48493884249999997,9.712310027,-0.019127063272605858,-0.050008919057393526,0.06079505383471848,9.751347086434306,0.08101095670024841,0.0024516624999999515,0.04305119349999997,-0.03471554100000063
48672.0,-0.702744539,0.45865702049999996,9.7530076245,-0.00926769832808989,-0.025494024383881174,0.06905395185515566,9.789043562733971,0.07419086047755857,0.021574629999999928,-0.02628182200000001,0.04069759750000124
48682.0,-0.7303012254999999,0.500531416,9.8092977955,0.008850564636863244,-0.008440412262644578,0.07838099137781335,9.849172291069484,0.07932939469656596,-0.027556686499999872,0.041874395499999995,0.05629017099999878
48692.0,-0.768645227,0.5184775855,9.8440133365,0.027237608306623508,-0.016168730190475468,0.08983907791715612,9.887579737268654,0.09525951429249618,-0.03834400150000017,0.017946169500000053,0.03471554100000063
48702.0,-0.7674684289999999,0.49690295549999997,9.9050106995,0.04029441644079309,-0.032422981514298656,0.10182948987835716,9.947118039608549,0.11421092213736413,0.0011767980000001454,-0.02157463000000004,0.06099736300000025
48712.0,-0.7674684289999999,0.39638479299999996,9.924133667,0.03922802026782455,-0.04974362901109038,0.1146192626369716,9.961654367328563,0.1309612216221616,0.0,-0.10051816250000001,0.019122967499999532
48722.0,-0.778255744,0.31616639599999996,9.900205441,0.0256388867117967,-0.0622663663941497,0.11621798423179842,9.935779333652427,0.13431706054948264,-0.010787315000000075,-0.080218397,-0.023928225999998887
48732.0,-0.815324881,0.26830994399999997,9.93609778,0.014446090218757066,-0.07638957070128782,0.10023076828353035,9.973103026708783,0.12684740023052216,-0.03706913700000003,-0.047856451999999994,0.035892339000000106
48742.0,-0.8344478485,0.24918697649999996,9.8595078435,0.013913764796898796,-0.08971166888176053,0.07038738340367931,9.897893325206203,0.11487454081209905,-0.019122967499999977,-0.019122967500000004,-0.07658993650000134
48752.0,-0.78060934,0.2970434285,9.762520075,0.01178271778021372,-0.10010335924813477,0.038411206177891205,9.798182686339763,0.10786535927298328,0.05383850849999994,0.04785645200000002,-0.09698776850000002
48762.0,-0.7159835165,0.3460766785,9.7075047685,0.01178271778021372,-0.09530719446365435,0.01283166066066231,9.740023115668233,0.09688624912819868,0.06462582350000001,0.04903325000000003,-0.05501530649999964
48772.0,-0.6082084329999999,0.3688281065,9.7171152855,0.021642082724729686,-0.08171806090762651,-0.0002251474735072685,9.743114550379383,0.08453562512072307,0.10777508350000009,0.022751427999999962,0.009610517000000485
48782.0,-0.5412290135,0.4455161095,9.691912194999999,0.030168016120721983,-0.056937876187811015,0.000307177948351002,9.71723085268987,0.06443698704727427,0.06697941949999997,0.076688003,-0.02520309050000158
48792.0,-0.585457005,0.5735909585,9.733884656999999,0.03523121628075754,-0.026827455932404837,0.014962707677347387,9.768330308100587,0.04674220377201303,-0.04422799150000001,0.128074849,0.04197246200000038
48802.0,-0.609385231,0.6118368934999999,9.824792302499999,0.035496506327060674,-0.002579596634447619,0.037346555334174664,9.862668935499755,0.05158896660674724,-0.023928225999999997,0.03824593499999995,0.09090764549999975
48812.0,-0.6836215714999999,0.5963423865,9.962477668499998,0.032033773091103925,0.005681046715241543,0.055464818299127805,10.003695516673716,0.06430227818039073,-0.07423634049999994,-0.01549450699999988,0.13768536599999948
48822.0,-0.7327528879999999,0.546034272,10.108498686999999,0.033897784732233864,-0.018299777207160545,0.06106034388102162,10.149720485124288,0.07219631050443778,-0.04913131650000002,-0.050308114500000056,0.14602101850000082
48832.0,-0.7327528879999999,0.4814084485,10.169594116499999,0.0333654593103756,-0.0630657271915631,0.05733057526950974,10.207317247127715,0.09152778092975877,0.0,-0.06462582350000001,0.06109542949999991
48842.0,-0.7470705969999999,0.5184775855,10.194699140500001,0.034964180905202404,-0.1088980733489342,0.04560545335461183,10.23517581914836,0.1231305879997381,-0.014317708999999956,0.03706913700000003,0.02510502400000192
48852.0,-0.713531854,0.5292649005,10.189893882,0.042957788879336434,-0.14700210157847438,0.03068463357931231,10.228547617721441,0.15619390587275292,0.033538742999999926,0.010787314999999964,-0.0048052585000011305
48862.0,-0.6620469415,0.5735909585,10.149196284499999,0.0442912204278601,-0.16512036454342752,0.019758872461827805,10.186927798003234,0.17209549684668238,0.05148491249999998,0.044326058,-0.04069759750000124
48872.0,-0.5962443199999999,0.6071297015,10.034262346499998,0.03469714552964727,-0.16432100374601413,0.012297589909552046,10.07027976781,0.168393927733712,0.06580262150000005,0.03353874300000004,-0.11493393800000007
48882.0,-0.501708214,0.6035012409999999,9.919426475,0.01498016096986733,-0.14566867002995074,0.011232939065835505,9.950424436817483,0.14686710173158105,0.09453610599999995,-0.003628460500000097,-0.11483587149999863
48892.0,-0.469346269,0.6418452424999999,9.8906929905,-0.003939208121751202,-0.10916336339523733,0.017627825445142728,9.92260344203425,0.11064762762170517,0.032361945,0.03834400149999995,-0.028733484500000017
48902.0,-0.4753283255,0.6920552904999999,9.849995393,-0.01113345529847183,-0.07852061771797289,0.029885272781898904,9.885711243216287,0.08475004874891587,-0.005982056499999999,0.05021004800000006,-0.04069759749999946
48912.0,-0.4872924384999999,0.7028426054999999,9.815279852,-0.008203047484373348,-0.06173404097229143,0.04400673175978502,9.85246975239216,0.07625597840810328,-0.011964112999999943,0.010787314999999964,-0.03471554100000063
48922.0,-0.49092089899999997,0.6980373469999999,9.8583310455,0.0008569566627292158,-0.055339154592984205,0.05653121447209633,9.895198354229736,0.07911342879358822,-0.0036284605000000414,-0.00480525850000002,0.043051193500000196
48932.0,-0.46816947099999995,0.6441988384999999,9.872746821,0.010183996185386913,-0.058269562407082684,0.06692290483847058,9.904812193508102,0.08931814414460182,0.022751428000000018,-0.05383850849999994,0.014415775499999839
48942.0,-0.45620535799999995,0.6106600955,9.907462362,0.010183996185386913,-0.05720316623411415,0.07971267759708502,9.936741897390242,0.09864089909975725,0.011964112999999998,-0.033538742999999926,0.03471554100000063
48952.0,-0.4861156405,0.5616268455,9.906187497500001,-0.0034068826998929313,-0.05160764065222033,0.09223716030939633,9.9339963692942,0.10574804568104704,-0.02991028250000005,-0.04903325000000003,-0.0012748644999991399
48962.0,-0.5160259229999999,0.4945493595,9.9026571035,-0.020725784867432664,-0.04920955825998012,0.09650099967201847,9.928417775843684,0.11028862915193201,-0.02991028249999994,-0.06707748599999996,-0.0035303940000019907
48972.0,-0.549564666,0.4455161095,9.88706453,-0.022858577213369737,-0.04681147586773991,0.09383588190422314,9.912343363015824,0.10732661160159158,-0.03353874300000004,-0.04903325000000003,-0.015592573499999318
48982.0,-0.6082084329999999,0.441887649,9.8834360695,-0.009801769079200155,-0.04894252288442499,0.08344419153784889,9.91198722417481,0.09723362754098831,-0.05864376699999996,-0.003628460499999986,-0.003628460499999875
48992.0,-0.6226242085,0.44904650349999997,9.864313102,0.007785913793146704,-0.05427275842001567,0.07038738340367931,9.89413849921279,0.08922183870851488,-0.014415775500000061,0.007158854499999978,-0.019122967499999532
49002.0,-0.6106600955,0.4717979315,9.8332260215,0.020041615800650888,-0.05853659778263782,0.05999569303730508,9.863459485916108,0.08618400563267964,0.011964112999999998,0.022751428000000018,-0.031087080500000752
49012.0,-0.5890854655,0.488567303,9.853525786999999,0.01844289420582408,-0.05773723698522441,0.05413313207985612,9.883202422813062,0.08126576690187777,0.02157463000000004,0.01676937150000002,0.020299765499999012
49022.0,-0.5412290135,0.49572615749999993,9.814004987499999,0.008318239215004975,-0.0537404329981574,0.04747121032499377,9.841410831936585,0.07218547674004298,0.047856451999999994,0.007158854499999923,-0.03952079949999998
49032.0,-0.457382156,0.4370823905,9.748202366,-0.007668976733263084,-0.036952110923223945,0.04107632394568655,9.768709680464477,0.055781144616335716,0.08384685749999998,-0.05864376699999996,-0.0658026214999996
49042.0,-0.41070250199999997,0.4478697055,9.6643555085,-0.021792181040401197,-0.003378957431861022,0.03468143756637932,9.683441083257955,0.04109888829998467,0.046679654000000015,0.01078731500000002,-0.08384685749999932
49052.0,-0.4035436475,0.46463907699999996,9.676417687999999,-0.03351730295529911,0.037657223941029654,0.025089107997418487,9.695968039342553,0.05631109528723702,0.007158854499999978,0.016769371499999963,0.012062179499999104
49062.0,-0.355589129,0.44669290749999996,9.747025568,-0.03511602455012591,0.06776764419643583,0.013631021458075715,9.763733179758626,0.07753317693820039,0.04795451849999999,-0.017946169499999998,0.07060788000000073
49072.0,-0.26340661899999995,0.39040273649999996,9.840384876,-0.0209928202429878,0.07442956595129818,0.000307177948351002,9.851648179437248,0.07733403615320357,0.09218251000000005,-0.056290171,0.09335930800000014
49082.0,-0.14611908499999998,0.4035436475,10.036714008999999,0.006986552995733301,0.05604252228153792,-0.010616837839881505,10.04588604160408,0.057465585111066295,0.11728753399999997,0.013140911000000033,0.196329132999999
49092.0,0.030989014,0.3676513085,10.212645310000001,0.040559706487096225,0.019004890224966254,-0.013014920232121715,10.21930780588859,0.04664401131368211,0.177108099,-0.035892338999999995,0.1759313010000021
49102.0,0.28959037449999997,0.25036377449999997,10.428195477,0.07173652291547093,-0.03428873848468059,-0.007419394650227894,10.435219475943386,0.079855455191543,0.2586013605,-0.11728753400000003,0.21555016699999818
49112.0,0.584084074,0.15572960199999997,10.655611690499999,0.09651670763528643,-0.09664062601217802,-0.004221951460574283,10.672744090118519,0.13664812594000864,0.2944936995,-0.0946341725,0.22741621349999974
49122.0,0.8474906929999999,0.143765489,10.904602534,0.10157990779532197,-0.17071589012532135,-0.009552186996164965,10.938430665093977,0.19888096209893144,0.26340661899999995,-0.01196411299999997,0.24899084350000145
49132.0,1.1084456495,0.29341496799999994,10.9896261895,0.08292757407925858,-0.2511877859470239,-0.023408355927747947,11.04928178146825,0.26555646759000046,0.2609549565,0.14964947899999995,0.0850236554999988
49142.0,1.4998290509999999,0.431100334,10.995608246,0.04402418505230497,-0.3236660737945924,-0.04365941123863815,11.105797377032486,0.32955121056496006,0.39138340149999995,0.13768536600000003,0.00598205650000061
49152.0,2.0565525715,0.350881937,10.896266881499999,-0.0034068826998929313,-0.36949841995196353,-0.0657744781906583,11.094194813772194,0.3753224895712776,0.5567235205000003,-0.080218397,-0.09934136450000075
49162.0,2.6299473969999996,0.352058735,10.723865974499999,-0.05536707986101611,-0.3700307453738218,-0.09082344361528093,11.0472562250957,0.38501579703225214,0.5733948254999994,0.0011767980000000344,-0.1724009070000001
49172.0,3.139893197,0.385597478,10.4700698725,-0.12304745759485222,-0.31833758358825376,-0.1054789733442773,10.937548986799511,0.3572188513546397,0.5099458000000006,0.03353874299999998,-0.253796101999999
49182.0,3.6079646015,0.37843862349999996,10.3312077085,-0.19739150241280268,-0.22960504441686203,-0.11427194211582474,10.949633650200514,0.3236355332799151,0.46807140449999984,-0.007158854500000034,-0.13886216400000073
49192.0,3.9659073264999996,0.42747187349999993,10.358764395,-0.25095042116875266,-0.1166246459475131,-0.1132055459428562,11.100232110912803,0.29898648390751253,0.3579427249999996,0.04903324999999997,0.027556686500000538
49202.0,4.1190871995,0.7040194035,10.5646059785,-0.2845235746601156,-0.01883384795827081,-0.0905564082397258,11.36104846211595,0.29918028250465556,0.15317987300000047,0.2765475300000001,0.20584158349999981
49212.0,4.181359426999999,0.9494798529999999,10.831542991500001,-0.3196971950755573,0.04351978489847861,-0.03246661474559852,11.649360592999404,0.324275113583864,0.06227222749999939,0.2454604494999999,0.2669370130000015
49222.0,4.098787434,1.1278628165,11.1200546345,-0.36872698442258206,0.05391147526485285,0.048270571122407166,11.904946368473256,0.3757606741572184,-0.08257199299999929,0.17838296350000005,0.28851164299999965
49232.0,3.9359970439999996,1.2020010904999998,11.358258163,-0.4134911890777326,-0.009239773060057981,0.15005991842796845,12.08084880500108,0.43997535836649665,-0.1627903900000005,0.07413827399999984,0.2382035284999997
49242.0,3.8653891639999998,1.12188076,11.48162582,-0.42414991481966197,-0.12168784610754864,0.26037519912952206,12.166658592206714,0.5123537122472709,-0.07060787999999985,-0.08012033049999978,0.1233676569999993
49252.0,3.8700963559999995,1.0607853305,11.495943529,-0.3988374046779882,-0.2418624917536182,0.3626968718569416,12.176191068806594,0.590861879919794,0.004707191999999694,-0.06109542950000013,0.014317709000000178
49262.0,3.8401860734999995,1.207983147,11.3259942845,-0.3716573922366805,-0.3279299131572146,0.4599553444243256,12.020166342237783,0.6761850072369011,-0.02991028249999994,0.14719781650000008,-0.1699492444999997
49272.0,3.7732066539999995,1.5240514765,11.103285263,-0.3772529178185743,-0.3636358589945146,0.5686719035310525,11.825513307605918,0.7732648548944515,-0.06697941949999997,0.31606832949999997,-0.22270902150000005
49282.0,3.681024144,1.763431803,10.857922879999999,-0.4238846247733588,-0.3356564857557935,0.708565279066154,11.59974653777272,0.8912958017668865,-0.09218250999999933,0.23938032650000007,-0.24536238300000157
49292.0,3.4822433485,1.8185451759999998,10.555093527999999,-0.4915650025071949,-0.2597154646722682,0.8591156350139328,11.262465302062104,1.0233122439437652,-0.19878079550000027,0.055113372999999743,-0.30282935199999983
49302.0,3.0309413155,1.7371499809999997,10.339543361,-0.5480560744064954,-0.17018356470346307,0.98861732018266,10.913773510041903,1.1431063433268926,-0.45130203300000016,-0.08139519500000003,-0.21555016699999818
49312.0,2.3940974645,1.5336619935,10.256971367999999,-0.562976894181795,-0.10410190856445378,1.095468122319005,10.643743863124643,1.2360544477354014,-0.6368438509999996,-0.20348798749999975,-0.08257199300000195
49322.0,1.7201844765,1.2116116074999999,10.224609423,-0.5318018230826722,-0.09903870840441824,1.1759400181407076,10.438854112091073,1.2943943645818445,-0.6739129880000001,-0.32205038600000013,-0.032361944999998116
49332.0,1.2628023204999999,0.7998303739999999,10.116932405999998,-0.4675841785847929,-0.15659443114743524,1.216709164138043,10.226764866535559,1.3128358503738005,-0.4573821560000002,-0.41178123349999995,-0.1076770170000021
49342.0,1.0282272525,0.49219576349999994,9.9301157235,-0.3935071691423975,-0.21681527165824757,1.2260344583314486,9.995334223251016,1.3057630900001698,-0.23457506799999983,-0.30763461049999996,-0.18681668249999817
49352.0,0.8474906929999999,0.543680676,9.602181347499998,-0.3284901638471048,-0.25465226451223266,1.2255021329095903,9.654828625224496,1.2940668612291488,-0.18073655950000012,0.05148491250000009,-0.32793437600000175
49362.0,0.7265746985,0.6478272989999999,9.2585563315,-0.2887874140227377,-0.24426057414585842,1.2151104425432162,9.309589483182851,1.2726172976026906,-0.1209159944999999,0.10414662299999988,-0.34362501599999895
49372.0,0.584084074,0.662145008,9.1783379345,-0.2877210178497692,-0.17657845108277032,1.193260665637499,9.220709162369317,1.2400944922290982,-0.14249062450000005,0.014317709000000067,-0.08021839699999944
49382.0,0.35303939999999995,0.5616268455,9.1748075405,-0.307172712363246,-0.10170208084296158,1.1588864060194708,9.198758336686224,1.2032107423577583,-0.231044674,-0.10051816250000001,-0.0035303940000002143
49392.0,0.06815621749999999,0.48376204449999993,9.159214967,-0.3303559208174867,-0.04041658948843269,1.117317899224722,9.172234722105598,1.16583353144992,-0.28488318249999994,-0.07786480100000004,-0.015592573499999318
49402.0,-0.13415497199999998,0.267133146,9.21432834,-0.35939994489992433,0.0006178465552059926,1.0813466633411188,9.219175908481805,1.1395083626052973,-0.2023111895,-0.21662889849999994,0.0551133729999993
49412.0,-0.21074490849999997,-0.16269232349999999,9.272972107,-0.3684599490470269,0.01554041165975751,1.0467053683475354,9.276793298644986,1.1097731149085575,-0.07658993649999998,-0.4298254695,0.058643766999999514
49422.0,-0.28978650749999996,-0.491901564,9.275325703,-0.3498076153309635,-0.009773843811168246,1.0016741283168296,9.292879546476815,1.0610428620492485,-0.07904159899999999,-0.3292092405,0.002353596000000735
49432.0,-0.20476285199999997,-0.6821505739999999,9.1185173695,-0.3284901638471048,-0.07985230393724456,0.9451830564175292,9.146289753175376,1.003819300634913,0.08502365549999999,-0.19024900999999989,-0.15680833350000078
49442.0,-0.053936574999999994,-0.6749917195,8.809705961,-0.31916486965369906,-0.12328656770237545,0.8910918122397209,8.835691376162663,0.9545210367705707,0.15082627699999998,0.007158854499999867,-0.30881140849999866
49452.0,0.045404789499999994,-0.5266171049999999,8.509230205,-0.3234269636870692,-0.09823934760700483,0.8585833095920745,8.525631111646366,0.9227249155453464,0.09934136449999999,0.1483746145000001,-0.30047575600000087
49462.0,0.007060788,-0.368533907,8.211108045,-0.35353738394247536,0.020069541068682795,0.8452594660823498,8.219377252687675,0.9164360497740232,-0.038344001499999995,0.15808319799999992,-0.29812216000000014
49472.0,-0.18446308649999998,-0.3243059155,8.1105898825,-0.4052322910572954,0.17035460697015853,0.84765754847459,8.119166779862374,0.9548597914445103,-0.1915238745,0.04422799150000001,-0.10051816250000023
49482.0,-0.353235533,-0.46552167549999995,8.226700618499999,-0.44440097013055213,0.29985629213888576,0.8548535409805627,8.247429226041433,1.0090493519720742,-0.1687724465,-0.14121575999999997,0.11611073599999955
49492.0,-0.48493884249999997,-0.716866115,8.4122424365,-0.4308118365745244,0.35181648930000897,0.853520109432039,8.456647415982996,1.0187591756057846,-0.13170330949999998,-0.2513444395,0.1855418180000008
49502.0,-0.5447594075,-0.877302909,8.695948821,-0.3498076153309635,0.3123790295219451,0.8433954544412199,8.757051393228826,0.9650191285154504,-0.05982056499999999,-0.160436794,0.2837063845000003
49512.0,-0.6010495785,-0.809048625,8.881490638999999,-0.22803424809006714,0.19620293319219456,0.8375328934837709,8.938495189016663,0.8899194103751871,-0.056290171,0.068254284,0.18554181799999903
49522.0,-0.4262950755,-0.388931739,8.952098519,-0.09853256292133988,0.03845658473844305,0.857783948794661,8.970677972309513,0.8642805549561754,0.17475450299999995,0.42011688599999997,0.07060788000000073
49532.0,-0.5675108354999999,0.045600922499999995,8.984460464,-0.07854854298600479,-0.07452381373090587,0.8857615767041302,9.002481759032998,0.8923548863448947,-0.1412157599999999,0.4345326615,0.03236194499999989
49542.0,-0.7279476295,0.0779628675,8.706736136,-0.032717942157885704,-0.09530719446365435,0.9398545662111905,8.737461879855712,0.9452409907973758,-0.1604367940000001,0.03236194500000001,-0.2777243279999997
49552.0,-1.116977435,0.291061372,8.534335229,0.06694035813099052,-0.05320636224704714,1.0248555914418183,8.61204000882022,1.0284167014590089,-0.3890298054999999,0.21309850449999998,-0.1724009070000001
49562.0,-1.580243581,0.25634583099999997,8.500796486,0.2142932708891158,-0.04574507969477138,1.11545214225434,8.650226809555502,1.1367707332283117,-0.46326614600000005,-0.034715541000000016,-0.03353874299999937
49572.0,-1.8627731674999999,0.49572615749999993,9.190400114,0.30489156703088943,-0.09664062601217802,1.228699576099244,9.390373930371403,1.2696459847331614,-0.28252958649999993,0.23938032649999996,0.6896036279999986
49582.0,-2.5080507374999996,0.0767860695,9.5566784915,0.4165385339517147,-0.2192133540504878,1.3017101893686707,9.880603139092385,1.3841995022275253,-0.6452775699999997,-0.41894008799999993,0.3662783775000005
49592.0,-2.6924157575,-0.07649186999999999,9.8691183605,0.5961346593111831,-0.3700307453738218,1.379516967422578,10.230075797909251,1.5476971111818851,-0.18436502000000043,-0.1532779395,0.3124398690000003
49602.0,-3.0060324245,0.0193191005,9.891869788500001,0.7192397127713512,-0.4976666735721671,1.397369940341228,10.338553674350612,1.6485207407190996,-0.3136166669999998,0.09581097049999998,0.022751428000001184
49612.0,-3.3088617764999997,-0.10522535449999999,9.884710934,0.7498824584486157,-0.5461623921680816,1.3331522958433486,10.424353643269761,1.6241650482694463,-0.30282935199999983,-0.124544455,-0.0071588545000018655
49622.0,-3.5734451934999996,-0.06207609449999999,9.7912535595,0.6723427157702636,-0.4470381626303156,1.1996555520168064,10.423147809509276,1.4460502376411308,-0.2645834169999999,0.04314926,-0.0934573744999998
49632.0,-3.7613406074999998,0.0097085835,9.721822477499998,0.4669000095180111,-0.20802230288670012,1.0149962264973025,10.424087955607735,1.1364357602565875,-0.1878954140000002,0.07178467799999999,-0.06943108200000125
49642.0,-3.9397235709999996,0.212019773,9.736238253,0.15460650112941368,0.0954799820596018,0.823943759927743,10.505270559067789,0.8437433950493761,-0.17838296349999982,0.2023111895,0.014415775500001615
49652.0,-4.1624325925,0.6238010064999999,9.942177903,-0.11905065360778522,0.36887010142124554,0.6582038034998575,10.79638246070035,0.7638523789245144,-0.2227090215000005,0.41178123349999995,0.20593964999999947
49662.0,-4.295312699999999,1.045192757,10.486839244,-0.30957079475548627,0.510627488597477,0.5769325468807416,11.380506861276656,0.8303166099309401,-0.13288010749999923,0.4213917505,0.5446613410000012
49672.0,-4.4401569205,0.906330593,10.8195788785,-0.430279511152666,0.520486853541993,0.5135142631802756,11.730290522001367,0.8483772279578246,-0.14484422050000045,-0.13886216399999995,0.3327396344999993
49682.0,-4.421033952999999,0.7913966549999999,10.8554712175,-0.38524652579270835,0.4003122078959234,0.4919315216501138,11.747897906991486,0.7420656112628163,0.01912296750000042,-0.11493393800000007,0.035892339000000106
49692.0,-4.2905074415,0.6334115235,10.6340370605,-0.2810608414241589,0.20765927440228532,0.48340384292486943,11.484442018128567,0.5964870880261128,0.1305265114999994,-0.15798513149999993,-0.22143415699999913
49702.0,-3.972085516,0.359315656,10.327579248,-0.15102683083357332,0.01820552942755285,0.4863342507389679,11.070928787178785,0.5095699641611577,0.31842192550000004,-0.2740958675,-0.3064578125000015
49712.0,-3.592568161,0.046875787,10.076234808499999,-0.03538131459642905,-0.10916336339523733,0.4961936156834839,10.697628300088988,0.5092902724138574,0.37951735499999995,-0.312439869,-0.2513444395000004
49722.0,-3.4884215379999994,-0.179461695,9.993564749,0.034164820107789,-0.1867048514028414,0.4921968116964169,10.586436025368029,0.5275259594697428,0.10414662300000055,-0.226337482,-0.08267005949999806
49732.0,-3.5614810804999997,-0.39128533499999996,9.8822592715,0.07253588371288433,-0.2690407588656739,0.4604876698461839,10.51172202873027,0.5382316215509777,-0.07305954250000024,-0.21182363999999995,-0.1113054775000002
49742.0,-3.5506937654999997,-0.527793903,9.6512145975,0.08639205264446732,-0.3388539289454471,0.3984028176942416,10.297180965070082,0.5301041190828474,0.010787314999999964,-0.136508568,-0.2310446740000014
49752.0,-3.450175603,-0.6558687519999999,9.4741064985,0.10371095481200704,-0.37376051398533366,0.3181979572480942,10.10408677003055,0.5016999341832316,0.10051816249999979,-0.128074849,-0.1771080989999998
49762.0,-3.246589549,-0.7420692055,9.284936219999999,0.12529544167142093,-0.38521860052467644,0.23133117504708442,9.864129511259232,0.4664830441103851,0.20358605400000007,-0.08620045350000005,-0.18917027850000068
49772.0,-2.9641580289999996,-0.8366053115,9.220310396499999,0.13568713203779517,-0.37455987478274705,0.14606311444090145,9.721124681636438,0.42431183226264746,0.28243152000000027,-0.09453610599999995,-0.06462582350000012
49782.0,-2.6851588365,-0.9443803949999999,9.223840790499999,0.14021626144672045,-0.34471648990289605,0.07012034802812418,9.653039481748017,0.3786910635236244,0.2789991924999997,-0.10777508349999998,0.0035303940000002143
49792.0,-2.3452603475,-0.9970421054999999,9.1640202255,0.12556073171772406,-0.30608013625149755,-0.011683234012850041,9.511761443132853,0.33103934073494135,0.33989848899999986,-0.052661710500000014,-0.05982056499999899
49802.0,-1.9680965885,-0.965955025,9.1748075405,0.08639205264446732,-0.24452760952141356,-0.09641896919717474,9.43311012854211,0.27668385605131907,0.3771637590000001,0.031087080499999975,0.010787314999999964
49812.0,-1.695177519,-0.8366053115,9.217858734,0.025904176758099837,-0.16911716853049455,-0.1699619078884598,9.409700043472858,0.2411611353397804,0.2729190694999999,0.12934971350000002,0.043051193500000196
49822.0,-1.4832558125,-0.7648206335,9.3938881015,-0.021792181040401197,-0.11236080658489095,-0.22245443047144126,9.540971233068761,0.2501715884093919,0.21192170650000008,0.07178467799999999,0.17602936749999998
49832.0,-1.3588094239999997,-0.713335721,9.5674658065,-0.043641957946118214,-0.10596592020558372,-0.2507008390857175,9.689768462669916,0.2756525121537435,0.12444638850000023,0.05148491249999998,0.17357770499999958
49842.0,-1.357632626,-0.6630276065,9.638073686499999,-0.044174283367976484,-0.15446338413075014,-0.2610925294520917,9.75577963776163,0.3065609454641758,0.0011767979999997014,0.050308114499999945,0.07060787999999896
49852.0,-1.3061477135,-0.7636438354999999,9.575801459,-0.017263051631475915,-0.23679929159358268,-0.26162485487395,9.694593717075767,0.3532980075498148,0.05148491250000009,-0.10061622899999989,-0.06227222749999939
49862.0,-1.1720908079999999,-0.9479107889999999,9.470478038,0.03469714552964727,-0.31514014039860017,-0.27201654524032426,9.589696866655432,0.4177441811477885,0.13405690550000005,-0.1842669535,-0.10532342099999958
49872.0,-1.0080255535,-1.0305808484999999,9.276502501,0.08879013503670753,-0.3359235211313486,-0.3010623146520139,9.387849117495616,0.4597464708214176,0.16406525449999987,-0.08267005949999995,-0.19397553700000003
49882.0,-0.8428815675,-0.9359466759999999,9.12214583,0.12476137092031066,-0.2781007630127765,-0.3487586724505149,9.208691006920205,0.4631825187457417,0.16514398600000002,0.09463417249999995,-0.1543566710000004
49892.0,-0.7040194035,-0.6989199454999999,9.183143193,0.13781817905448024,-0.1797758942724239,-0.4036492774257366,9.236571404686073,0.46286711030884636,0.13886216399999995,0.2370267305,0.06099736300000025
49902.0,-0.563882375,-0.321854253,9.402223754,0.13089096725331476,-0.07212573133866568,-0.43216097608631593,9.424614846946886,0.4572719931086126,0.14013702849999998,0.37706569249999994,0.21908056100000017
49912.0,-0.37598696099999995,0.0061781894999999995,9.713486825,0.09971415082494003,0.006480407512654946,-0.40498270897426025,9.720762864318628,0.41712816031095207,0.1878954140000001,0.32803244249999997,0.31126307100000083
49922.0,-0.2215322235,0.20005566,9.9828755005,0.06560692658246685,0.0411217025062384,-0.3221127307603175,9.987337085110827,0.33128820466548087,0.15445473749999997,0.1938774705,0.2693886755000001
49932.0,-0.130624578,0.2180018295,10.085747258999998,0.040559706487096225,0.027797858996513686,-0.19447680256197214,10.08894867419143,0.2005967035866685,0.0909076455,0.017946169499999998,0.10287175849999741
49942.0,-0.13533177,0.2060377165,9.992387951,0.030700341542580254,0.009145525280450288,-0.046322783677181505,9.995428114487234,0.056320084260318606,-0.004707191999999999,-0.011964112999999998,-0.09335930799999836
49952.0,-0.24075325749999998,0.0181423025,9.8451901345,0.04642226744454518,0.016339772457170915,0.09250419568495145,9.848150083066006,0.10478092048634043,-0.1054214875,-0.18789541399999998,-0.1471978165000003
49962.0,-0.42864867149999997,-0.18544375149999998,9.723097341999999,0.09438566061860135,0.04431914569589201,0.19988732324315459,9.734307935881038,0.22545017542449788,-0.18789541399999998,-0.20358605399999996,-0.12209279250000016
49972.0,-0.748247395,-0.284785116,9.694363857499999,0.16100138750872092,0.08215613854987709,0.2529139165772463,9.727366926770147,0.3108641617806759,-0.31959872350000007,-0.09934136450000003,-0.028733484500000017
49982.0,-1.093049209,-0.284785116,9.8008640765,0.21056350227760387,0.11626336279235028,0.25584432439134475,9.865738481310908,0.35115591457707185,-0.3448018139999999,0.0,0.10650021900000084
49992.0,-1.2785910269999998,-0.25722842949999997,9.934920982,0.22468496125549,0.13624738272768533,0.21853965695921798,10.020160497609396,0.34176931222445656,-0.18554181799999991,0.02755668650000004,0.1340569054999996
50002.0,-1.303696051,-0.23330020349999997,10.137232171499999,0.19777372951898944,0.1477054692670281,0.17137562458257521,10.223381460027827,0.30050117876692456,-0.025105024000000142,0.023928225999999997,0.2023111894999996
50012.0,-1.2498575425,-0.18897414549999997,10.256971367999999,0.13888457522744876,0.15809715963340235,0.12341397673777105,10.334569016083028,0.24395623946619907,0.05383850849999994,0.044326058,0.11973919649999942
50022.0,-1.2378934295,-0.206920315,10.3574895305,0.07813140929477816,0.15596611261671728,0.08477587775712057,10.433253832528761,0.19395075367899176,0.01196411300000011,-0.017946169500000025,0.100518162500002
50032.0,-1.2402470255,-0.16867437999999998,10.337189765,0.03656290250002921,0.12372464534462602,0.05679824984765147,10.412692061534843,0.14096338138196163,-0.002353596000000069,0.03824593500000001,-0.020299765500000788
50042.0,-1.1792496625,-0.1399408955,10.1827350275,0.013646729421343663,0.07389549520018793,0.03814591613158807,10.251746478576962,0.08427270229616773,0.06099736300000003,0.02873348449999999,-0.15445473750000005
50052.0,-1.0847135565,-0.12199472599999998,10.007980524499999,0.010716321607245184,0.0419210633036518,0.03947760235085974,10.067331344085083,0.058572145126086154,0.09453610600000006,0.01794616950000001,-0.17475450300000084
50062.0,-0.8955432779999999,-0.19142580799999998,9.876277215,0.022973768944001362,0.04245338872551007,0.04960225734167885,9.918643719292856,0.06921320832877031,0.1891702785,-0.06943108199999999,-0.13170330949999887
50072.0,-0.8787739064999999,-0.077668668,9.808022931,0.030700341542580254,0.08828398955362918,0.06345842627326183,9.8476184844741,0.11297586311870067,0.01676937150000002,0.11375713999999998,-0.068254284
50082.0,-0.9505585845,0.0025497289999999997,9.815279852,0.026438247509210103,0.1421099436851343,0.08824035632232931,9.861201077797864,0.16935341009097496,-0.0717846780000001,0.080218397,0.00725692099999975
50092.0,-1.003220295,-0.020201699,9.9373726445,0.008585274590560106,0.16502611676381984,0.11515333338808188,9.987904392043372,0.2014140420733568,-0.052661710500000014,-0.022751428,0.12209279250000016
50102.0,-1.05715687,-0.1064021525,10.062995831,-0.0012740903539558606,0.14131058288772091,0.1348703179478618,10.118932115622094,0.1953466324400163,-0.05393657500000004,-0.0862004535,0.12562318650000037
50112.0,-1.0355822399999999,-0.2799798575,10.073783145999998,0.0011239920382843482,0.0776270091409518,0.1409999142808659,10.13074163963541,0.1609602178598273,0.02157463000000015,-0.17357770499999997,0.010787314999998188
50122.0,-1.0307769814999999,-0.36735710899999996,9.988857557,0.00991696080983178,0.011810643048245627,0.1308735139607948,10.048618199790411,0.1317790349690085,0.00480525850000002,-0.08737725149999997,-0.08492558899999914
