timestamp,ax,ay,az,gx,gy,gz,acc_mag,gyro_mag,dax,day,daz
63572.0,-1.596326487,2.2479783794999997,10.5265561765,-0.25760361627735506,0.0971415355075004,0.21227567027381034,10.881638203175452,0.34764502186874646,0.0,0.0,0.0
63582.0,-1.6190779149999999,2.3557534629999997,9.723293475,-0.2863823503134896,0.1616244700516829,0.24158672973180312,10.13476312867029,0.40804591392767664,-0.02275142799999985,0.10777508349999998,-0.8032627014999996
63592.0,-1.307814844,1.9894750854999999,9.8681376955,-0.25360681229028803,0.24742660140897615,0.2703637184386856,10.151282301234659,0.44568248627563395,0.31126307099999995,-0.3662783774999998,0.14484422049999957
63602.0,-1.191704108,1.9200440034999997,9.955514947,-0.1520845003602819,0.3452173993982184,0.28555331891879226,10.208771009104904,0.4731230770556887,0.11611073599999999,-0.06943108200000014,0.08737725149999953
63612.0,-1.156988567,2.043313594,10.1590029345,-0.06228731034517363,0.42542400517361784,0.2708977891897959,10.426844854066522,0.5081839287068389,0.03471554099999996,0.12326959050000008,0.20348798750000086
63622.0,-1.0456830895,2.1199035305,10.47742486,-0.03590665870127934,0.4584648332431225,0.2525107455200356,10.740757692045689,0.5246341278098656,0.11130547749999997,0.07658993650000001,0.31842192549999915
63632.0,-0.799045842,2.2132628385,10.8378192475,-0.04603305902135044,0.4438093035141261,0.2557081887096892,11.090326085890533,0.5142688189864779,0.24663724750000005,0.09335930800000014,0.3603943875000013
63642.0,-0.5500549985,2.3605587215,11.0808280345,-0.044699627472826776,0.3731967726369395,0.2719624400335124,11.342819222273873,0.4639369101416903,0.2489908435,0.14729588299999996,0.24300878699999906
63652.0,-0.30351581749999995,2.449112771,11.0963225415,-0.02897944690011385,0.2636808527327993,0.29327989151737116,11.36743810898256,0.3954497379047983,0.246539181,0.0885540494999999,0.015494506999999658
63662.0,-0.055701772,2.4754926594999995,10.968247692499999,0.00752585973459955,0.13764364612928082,0.3244567079457459,11.24427072062363,0.35252598090849785,0.24781404549999997,0.026379888499999726,-0.12807484900000077
63672.0,0.2758610645,2.526977572,10.746813535499998,0.05868669609830933,0.023064526065105062,0.36309306159714433,11.043356199231466,0.3685277086482519,0.33156283649999996,0.05148491250000031,-0.2214341570000009
63682.0,0.775117616,2.5700287655,10.6546310255,0.10744945006977889,-0.031560788863813465,0.4094577331763737,10.987584696541736,0.42449629323698285,0.4992565515,0.043051193500000196,-0.09218250999999711
63692.0,1.1641474214999998,2.784304068,10.703762342,0.12743347000511399,-0.028361600344907856,0.47554113464463504,11.121066344379201,0.4931359248632931,0.3890298054999999,0.21427530249999993,0.04913131649999869
63702.0,1.42392558,2.8944327475000002,10.804280504500001,0.09972287747120001,0.005478588522010201,0.5680034424275385,11.275539109377323,0.5767170691360396,0.2597781585000001,0.11012867950000027,0.100518162500002
63712.0,1.518461686,2.959058571,10.9454962645,0.03337244062738357,0.05530599333719632,0.6729884875935015,11.439652179792965,0.6760813391344497,0.09453610600000006,0.06462582349999968,0.14121575999999791
63722.0,1.4395181535,2.9148305795,11.0700407195,-0.0542937023710396,0.11073066906352824,0.7742455094772045,11.537514955692686,0.7840058648594586,-0.07894353250000008,-0.04422799150000012,0.12454445500000055
63732.0,1.283886618,2.8047018999999995,11.19331031,-0.12943536265715147,0.1493687680441787,0.8616446171000726,11.610551808234412,0.8840226174429897,-0.15563153549999997,-0.11012867950000027,0.12326959049999964
63742.0,1.1198213634999998,2.6167084195,11.314226304499998,-0.1686057870596602,0.14750301107379676,0.9197326652649479,11.666742463441663,0.9466220075939545,-0.1640652545000001,-0.18799348049999942,0.1209159944999989
63752.0,0.98458766,2.4335201975,11.4087624105,-0.1779310812530659,0.09687450013194526,0.9493107600984958,11.706890840488027,0.970687930125065,-0.13523370349999986,-0.18318822200000007,0.0945361060000014
63762.0,0.8540611484999999,2.30064009,11.390816241,-0.17207026562486896,-0.015571827586293408,0.9642333252030473,11.65216975096577,0.9795899976820485,-0.13052651150000005,-0.13288010750000012,-0.017946169500000053
63772.0,0.7978690439999999,2.089993248,11.256759335499998,-0.16354258689962467,-0.16239241492256037,0.9599694858404252,11.476902784524466,0.987248138969597,-0.056192104500000006,-0.21064684200000006,-0.13405690550000138
63782.0,0.7499145254999999,2.0492956505,11.066412259,-0.14036112377463597,-0.30388451205248873,0.9365209873398813,11.279515270828778,0.9945444190486034,-0.04795451849999999,-0.040697597499999905,-0.19034707649999838
63792.0,0.6852887019999999,2.079205933,10.786334335000001,-0.10358878176436745,-0.43018700870231036,0.908276324054857,11.006258506109656,1.0103253827368048,-0.06462582350000001,0.02991028249999994,-0.28007792399999865
63802.0,0.763153503,2.1079394175,10.460655488499999,-0.06628411433224064,-0.5210523402196391,0.8770995076264824,10.698183261941093,1.0223466493023734,0.07786480100000004,0.028733484500000017,-0.32567884650000245
63812.0,0.8528843505,2.2324838724999996,10.132721112499999,-0.033243286262735997,-0.5418357209523876,0.8701722958253169,10.410736434085901,1.0256173209357584,0.08973084750000004,0.12454445499999967,-0.32793437599999997
63822.0,0.949872119,2.3964510605,9.8669608975,-0.0017994344588061538,-0.5023982611743237,0.8952195159206875,10.198144541073104,1.0265599020420706,0.09698776850000002,0.16396718800000043,-0.26576021499999847
63832.0,0.9594826359999999,2.390469004,9.779583645999999,0.042167154728183,-0.42139403993076296,0.9389190697321216,10.113120452015831,1.0300097209898909,0.00961051699999993,-0.005982056500000166,-0.08737725150000131
63842.0,0.8217972699999999,2.3437893499999998,9.907658495,0.08986351252668404,-0.33772470091940676,0.9842173451383823,10.214225184697003,1.0444219487189945,-0.13768536600000003,-0.04667965400000007,0.12807484900000077
63852.0,0.6110523615,2.261217357,10.1662598555,0.11357904640278299,-0.2868308999312521,1.0156594516130601,10.432608895844016,1.061478349561629,-0.21074490849999994,-0.08257199299999973,0.25860136050000015
63862.0,0.42678540800000003,2.1750169034999995,10.400834923499998,0.09386031651375105,-0.2799036881300866,1.035645216877647,10.634388154515033,1.0769015037998764,-0.18426695349999994,-0.0862004535000005,0.23457506799999805
63872.0,0.29743569449999996,2.2132628385,10.5014511525,0.0413660486015176,-0.30042003348727997,1.0569609230322539,10.736269216678172,1.0996043558092135,-0.12934971350000007,0.0382459350000004,0.10061622900000167
63882.0,0.2376151295,2.1738401055,10.4953710295,-0.015123277968530866,-0.32600132433376083,1.0753479667020143,10.720767453914641,1.1237788156456927,-0.059820564999999964,-0.03942273299999988,-0.00608012300000027
63892.0,0.278312727,2.1067626195,10.409268642499999,-0.060154517999236566,-0.3529143013995134,1.0820098884568765,10.623971968179625,1.1396984113731534,0.04069759749999999,-0.06707748600000007,-0.08610238700000039
63902.0,0.232809871,2.1534422735,10.241672993999998,-0.07827452629344168,-0.37316535671040363,1.0929339042451092,10.468208049965417,1.1575335001475002,-0.04550285599999998,0.04667965400000007,-0.16759564850000075
63912.0,0.20407638649999998,2.1606011279999997,10.057307974,-0.06521771815927212,-0.3864874548908764,1.108655830147074,10.288794297182044,1.1759012089750682,-0.028733484500000017,0.007158854499999645,-0.18436501999999777
63922.0,0.25556129899999996,2.1127446759999997,9.887260662999998,-0.0239162467400783,-0.38542280404715984,1.1169164734967632,10.113699870058438,1.181788954723369,0.05148491249999998,-0.047856451999999994,-0.17004731100000292
63932.0,0.26154335549999996,2.1438317565,9.8538199865,0.031241393610698498,-0.3529143013995134,1.1270411284875825,10.087724612286506,1.1814170449547479,0.005982056499999999,0.031087080500000308,-0.033440676499997934
63942.0,0.12866324799999998,2.2097324444999997,9.9699307225,0.07387455124916399,-0.30575026902287067,1.1552857917726065,10.212687712796823,1.1973411948987145,-0.13288010749999998,0.06590068799999971,0.11611073599999955
63952.0,-0.043737659,2.2228733555,10.042892198499999,0.07227582965433718,-0.27563984876746445,1.1923251691584302,10.286046988425571,1.2259039239636411,-0.172400907,0.013140911000000255,0.07296147599999969
63962.0,-0.238889994,2.15942433,10.141056765,0.023780111058422742,-0.2585862366462279,1.2232349502112498,10.371172266295721,1.2504943338068863,-0.195152335,-0.0634490255000002,0.09816456650000127
63972.0,-0.43992631899999995,2.0337030769999997,10.1662598555,-0.04816410603803552,-0.2601849582410547,1.2525442643399907,10.377009338971371,1.2801887078615992,-0.20103632499999996,-0.12572125300000003,0.025203090499999803
63982.0,-0.6290965974999999,1.9822181644999999,9.9734611165,-0.10998366814367466,-0.27244240557781085,1.2799913121568534,10.187977131059789,1.3132779716466676,-0.18917027849999996,-0.05148491249999987,-0.19279873900000055
63992.0,-0.7021561399999999,1.9212208014999999,9.7855657025,-0.14622193940283293,-0.286563864555697,1.2965108535269796,9.997070007307157,1.3358293668523231,-0.07305954250000002,-0.06099736300000003,-0.18789541399999976
64002.0,-0.8111080215,1.916415543,9.546087309499999,-0.1427592061668762,-0.27777089578414954,1.3124998148044997,9.770277768650724,1.3491451461395736,-0.10895188150000013,-0.004805258499999798,-0.23947839300000062
64012.0,-1.0013570315,1.8398256064999998,9.378491661,-0.1070532603295762,-0.24606175393391658,1.3159625480404566,9.609567107956222,1.3430428940065013,-0.19024900999999994,-0.07658993650000023,-0.16759564849999897
64022.0,-1.1689526799999999,1.638691215,9.3570150975,-0.06761580055151233,-0.20715836490696296,1.2882502101772906,9.571075738966874,1.3065508366140912,-0.16759564849999986,-0.2011343914999999,-0.021476563500000267
64032.0,-1.3904849035,1.502182647,9.366527547999999,-0.04923050221100405,-0.1586626463110485,1.2365570483917225,9.587587771658322,1.2476661458938532,-0.22153222350000012,-0.136508568,0.009512450499999048
64042.0,-1.6119190604999998,1.497475455,9.3809433235,-0.059355157201823154,-0.11362966095109084,1.176070917834607,9.635497570683619,1.183037420503108,-0.2214341569999998,-0.004707191999999916,0.014415775500001615
64052.0,-1.6179011169999997,1.4962005905,9.2791502965,-0.08973261283278447,-0.08032179750603104,1.118780485137893,9.537234948161778,1.1252436655612763,-0.005982056499999944,-0.001274864500000028,-0.10179302700000115
64062.0,-1.607113802,1.590834763,9.2061888205,-0.10678622495402107,-0.03875503604053409,1.0937332650425224,9.479846128205212,1.0996170723115437,0.010787314999999742,0.09463417249999995,-0.07296147599999969
64072.0,-1.5675930024999998,1.823056235,9.139111334499999,-0.09053197363019787,-0.020367992370773826,1.108655830147074,9.450091948856672,1.1125325357407272,0.0395207995000002,0.23222147199999998,-0.06707748600000052
64082.0,-1.6921374574999999,1.9379901729999998,9.203737158,-0.032709215511625735,0.017201965107656113,1.1432953798114056,9.556563857332248,1.143892532487671,-0.12454445500000011,0.11493393799999985,0.06462582350000012
64092.0,-1.789125226,1.8099153239999999,9.2899376115,0.01765226005467065,0.04891110695788909,1.1515560231610946,9.63222214132969,1.1527294449034775,-0.09698776850000002,-0.12807484899999988,0.08620045350000005
64102.0,-1.8429637345,1.521403681,9.503036115999999,0.04269948015004127,0.0792885625888504,1.1182481597160348,9.798922385101479,1.1218684720014143,-0.05383850850000016,-0.2885116429999999,0.21309850449999956
64112.0,-1.941128301,1.5476855029999999,9.632287762999999,0.05415756668938405,0.09127897455005143,1.0657556371330534,9.947073793150377,1.0710275306011068,-0.09816456649999994,0.026281821999999844,0.12925164700000025
64122.0,-1.962702931,1.6027988759999998,9.665826505999998,0.04776268031007683,0.08834856673595297,1.0191239301782689,9.992465615470238,1.0240607052009665,-0.021574629999999928,0.055113372999999966,0.03353874299999937
64132.0,-1.8633615665,1.5596496159999997,9.718488216499999,0.027511624999186617,0.0910119391744963,0.9762237371642484,10.017666218558473,0.9808429270710625,0.09934136449999986,-0.04314926000000008,0.05266171050000068
64142.0,-1.9027842995,1.6793888125,9.735257588,0.019516271695800596,0.0971415355075004,0.9383849989810114,10.060624989466879,0.9436014884972638,-0.03942273299999988,0.11973919650000031,0.016769371500000574
64152.0,-1.9220053334999998,1.566906537,9.791547759,0.04509756254228148,0.08808153136039784,0.8968182375155143,10.100678596731692,0.9022611027050214,-0.01922103399999986,-0.11248227550000012,0.056290171000000555
64162.0,-1.8525742514999999,1.6770352164999998,9.860978841,0.08320159077182168,0.06836280147136589,0.8701722958253169,10.172678220476241,0.8768100146290972,0.06943108199999992,0.11012867949999983,0.06943108199999948
64172.0,-1.8333532175,1.8062868634999998,9.9244278665,0.10292032066085362,0.06116855429464527,0.8469890873710761,10.252713042445498,0.8554090825827829,0.01922103399999986,0.12925164700000003,0.06344902550000064
64182.0,-1.7364635154999999,1.7164579494999999,9.9016764385,0.08480031236664849,0.06410070743799574,0.8283367536550128,10.198270918435654,0.8351297929826584,0.09688970200000013,-0.08982891399999993,-0.022751428000001184
64192.0,-1.6585987144999998,1.6458500695,9.8549967845,0.05975309227127787,0.07689048019661018,0.7971599372266381,10.128214737529984,0.8030856389576536,0.07786480100000004,-0.07060787999999985,-0.046679653999998294
64202.0,-1.6944910535,1.6542837885,9.723293475,0.050160762702317035,0.09980665327529573,0.7641191091571334,10.007516714163561,0.7722405604032881,-0.035892339000000106,0.008433718999999895,-0.13170330950000064
64212.0,-1.6837037385,1.6051524719999999,9.678967416999999,0.04536459791783662,0.12698492038735143,0.723884033910908,9.954586028396871,0.7363363438681794,0.010787314999999964,-0.04913131650000002,-0.04432605800000111
64222.0,-1.6370240845,1.571613729,9.6706317645,0.058419660722754195,0.14350620708672976,0.6980374530181241,9.93332453365794,0.7150266946397252,0.04667965400000007,-0.033538742999999815,-0.008335652499999568
64232.0,-1.7316582569999999,1.618293383,9.6741621585,0.07813839061178614,0.16428958781947822,0.6924401821069783,9.960267429213497,0.7159399992664465,-0.09463417249999995,0.04667965399999985,0.0035303940000002143
64242.0,-1.7639221354999999,1.4830596795,9.628757368999999,0.07920478678475466,0.19999553365677822,0.6777863977072339,9.900699762346967,0.7111019706407982,-0.03226387850000001,-0.13523370349999997,-0.04540478950000093
64252.0,-1.8213891045,1.3573384265,9.610713132999999,0.0685460610428253,0.24236340124894057,0.6466095812788593,9.875506710992783,0.6939326562074042,-0.057466969000000034,-0.12572125300000003,-0.018044235999999714
64262.0,-1.9004307034999999,1.2616255224999997,9.574820793999999,0.06348286088278975,0.2708750999095199,0.6079732276274608,9.842790714784282,0.6686066398777447,-0.07904159899999996,-0.09571290400000021,-0.035892339000000106
64272.0,-1.929164188,1.0915782115,9.5437337135,0.06401693163390001,0.29352423761265034,0.5618738460945345,9.797758450292584,0.6371474433182415,-0.028733484500000017,-0.1700473109999998,-0.031087080499998976
64282.0,-2.009382585,1.07480884,9.501859318,0.07520798279768766,0.29778807697527254,0.5069832411193128,9.771292796478203,0.5927613231655481,-0.08021839700000011,-0.016769371499999908,-0.041874395500000716
64292.0,-2.0716548125,1.058137535,9.578449254499999,0.1050513676775387,0.2900597590474416,0.45981920874267007,9.856880785834932,0.5537184829841933,-0.06227222749999983,-0.016671305000000025,0.07658993649999957
64302.0,-2.089600982,1.177778665,9.652685595,0.13729283494962993,0.273006146926205,0.4262443099220552,9.94625226121,0.5244672444766479,-0.017946169500000053,0.11964112999999998,0.07423634050000061
64312.0,-1.9997720679999997,1.267607579,9.75565542,0.14848563144266957,0.27194149608248847,0.4011970898266845,10.038860989777008,0.5069114961429767,0.08982891400000015,0.08982891400000015,0.10296982500000063
64322.0,-1.9399515029999999,1.3669489434999997,9.893242719499998,0.14182370968780722,0.2956552846293355,0.3985337173881412,10.173898601571938,0.5160960529340207,0.05982056499999988,0.09934136449999964,0.13758729949999804
64332.0,-1.950738818,1.362143685,9.978266375,0.11810817581170828,0.31670570073763904,0.41052412934934224,10.25800259334599,0.5317726044573224,-0.010787315000000186,-0.004805258499999798,0.08502365550000235
64342.0,-1.950738818,1.2951642654999997,9.963948666,0.07920478678475466,0.3308289050447772,0.41611965493123604,10.235384967326015,0.537472538724385,0.0,-0.06697941950000019,-0.014317709000000178
64352.0,-2.0847957235,1.256820264,9.876473348,0.04722860955896656,0.3294972188255055,0.4217151805131299,10.17205466847673,0.5372547368333183,-0.13405690550000005,-0.038344001499999836,-0.08747531800000097
64362.0,-2.1602088619999997,1.1717966085,9.756832218,0.037369244614450584,0.31910378312987925,0.421982215888685,10.061579624957417,0.5303703190952341,-0.07541313849999964,-0.0850236554999999,-0.11964112999999976
64372.0,-2.2846552505,1.153850439,9.839404210999998,0.07094414343506551,0.31004552431202864,0.39693325046406236,10.16685279113759,0.5086426092627533,-0.12444638850000045,-0.017946169500000053,0.0825719929999984
64382.0,-2.5660080389999997,1.3166408289999998,9.895694381999999,0.11437840720019639,0.27726998628882715,0.35989561840749074,10.307410326107561,0.4684932459269509,-0.28135278849999956,0.16279038999999984,0.056290171000000555
64392.0,-2.6761367185,1.3561616285,9.978266375,0.139425627295567,0.22744083614438906,0.3145973430012299,10.419533672347116,0.41248069981061497,-0.11012867950000027,0.0395207995000002,0.08257199300000195
64402.0,-2.645049638,1.362143685,9.987876892,0.14795156069155932,0.19253425110450245,0.26530226360790204,10.421583747963496,0.3596448153872325,0.031087080499999864,0.005982056499999944,0.009610516999998708
64412.0,-2.5612027805,1.3897003715,9.9722843185,0.14795156069155932,0.1778787213755061,0.2144067172904954,10.389296479280452,0.31543738562278806,0.0838468575000002,0.027556686500000094,-0.015592573499999318
64422.0,-2.3960587944999996,1.382541517,9.954338149,0.1455534782993191,0.18827215707113232,0.17923484220430566,10.331571360522377,0.29792171594774663,0.16514398600000035,-0.007158854500000089,-0.017946169500000053
64432.0,-2.3660504455,1.3908771695,9.9016764385,0.13569411335480314,0.20159425525160501,0.15978314769082888,10.275014856633206,0.29083292529489274,0.0300083489999996,0.008335652500000013,-0.05266171050000068
64442.0,-2.3648736475,1.4352032275,9.7532037575,0.12397073676915722,0.20186129062716016,0.1445935472107222,10.137919865937908,0.27753201279083073,0.0011767979999999234,0.044326058,-0.14847268099999944
64452.0,-2.2260114834999998,1.4807060835,9.575997592,0.13755987032518507,0.21571745955874316,0.12407720185352887,9.9422003355584,0.2843446716612799,0.1388621640000003,0.04550285600000015,-0.17720616549999946
64462.0,-2.1638373225,1.4926701965,9.584431311,0.17859430636882376,0.24316276204635398,0.09210102462774077,9.938389196899088,0.31544675279807965,0.06217416099999973,0.011964112999999887,0.008433718999999229
64472.0,-2.1985528635,1.5081647035,9.694559990499998,0.25720219054939636,0.26714533129800805,0.06945188692461035,10.054486007543629,0.37728392419386136,-0.03471554099999974,0.015494507000000102,0.11012867949999894
