timestamp,ax,ay,az,gx,gy,gz,acc_mag,gyro_mag,dax,day,daz
31282.0,-0.033342609999999995,-2.6509336279999998,11.544584512999998,0.1079416329188413,0.04336095993654712,0.0955393232541696,11.845083047725003,0.15053016724786245,0.0,0.0,0.0
31292.0,0.186914749,-2.0104613165,10.874201918999999,0.07143632628412791,-0.004070107815650776,0.13790719084633196,11.060070488189481,0.1553644353696496,0.22025735899999999,0.6404723115,-0.6703825939999994
31302.0,0.6897016945,-2.419888954,10.95206672,0.02720270172158362,-0.011796680414229672,0.18640290944224638,11.23740701480635,0.18874637294073554,0.5027869455,-0.40942763750000033,0.07786480100000048
31312.0,1.0261678559999998,-2.23199354,10.9364741465,-0.0005078908123303499,0.019912461436003306,0.2463567145775036,11.208982219111254,0.24716066614843704,0.33646616149999986,0.1878954140000002,-0.015592573499999318
31322.0,1.3158562969999998,-2.0667514875,10.7640732395,-0.03861366437112255,0.056950093492574974,0.3001826687090087,11.039393652314335,0.307967470389717,0.289688441,0.16524205250000001,-0.1724009070000001
31332.0,1.5420957124999999,-2.0104613165,10.7018990785,-0.08231321818255656,0.11290709464076518,0.3710604896324985,10.997756943034018,0.39649636174131203,0.22623941550000004,0.05629017100000011,-0.06217416099999973
31342.0,1.6270213015,-2.0092845185,10.619229018999999,-0.11268892848426589,0.16113752319037647,0.4430064520582087,10.929430339674168,0.4846842400450659,0.08492558900000002,0.0011767979999999234,-0.08267005950000161
31352.0,1.5863237039999998,-1.9984972035,10.5522495995,-0.1214818972558133,0.1909809080702275,0.5125525867624268,10.85635231449392,0.5603050176511502,-0.04069759750000013,0.010787314999999964,-0.06697941949999908
31362.0,1.4092156049999998,-1.9937900114999998,10.472031202499998,-0.1097585206701674,0.19577707285470794,0.5943561688034009,10.752884484521642,0.6353226349736942,-0.17710809900000002,0.004707192000000138,-0.08021839700000122
31372.0,1.226027383,-2.095484972,10.3774950965,-0.08124682200958804,0.17179624893230583,0.6694995744187648,10.65770167013626,0.6959487606000715,-0.18318822199999985,-0.10169496050000015,-0.09453610599999784
31382.0,1.1075630509999999,-2.270239475,10.2733484735,-0.05246808797345354,0.13768902468983266,0.7278546579591954,10.579337032335886,0.7426193984057545,-0.11846433200000006,-0.17475450299999995,-0.1041466230000001
31392.0,0.9567367739999999,-2.3672272435,10.2433401245,-0.027155577831779774,0.10278243964994607,0.7704878155976607,10.55675740856463,0.7777873290895316,-0.15082627699999995,-0.09698776850000002,-0.030008349000000933
31402.0,0.8393511735,-2.4881432379999997,10.1739090425,0.001090830782496456,0.05322032488106309,0.7992665496337953,10.507320894039745,0.8010372090332346,-0.11738560049999991,-0.12091599449999979,-0.06943108199999948
31412.0,0.7699200915,-2.5623795785,10.104477960499999,0.03732910204165472,-0.006468190207890985,0.8133880086116814,10.452704956413886,0.8142698274509982,-0.06943108200000003,-0.07423634050000016,-0.06943108200000125
31422.0,0.716081583,-2.6138644909999997,9.98120837,0.06930527926744283,-0.05949303821273071,0.8208492911639571,10.342609967323552,0.825915372259465,-0.05383850849999994,-0.05148491249999987,-0.12326959049999964
31432.0,0.7112763244999999,-2.6030771759999998,9.879415343,0.09115505617315985,-0.09413433320631417,0.8272441775432643,10.241326687178285,0.8375580255918756,-0.004805258500000131,0.010787314999999964,-0.10179302699999937
31442.0,0.693330155,-2.6078824345,9.784879237,0.10767459754328616,-0.09146921543851882,0.8411003464748473,10.150153652959135,0.8528834792450579,-0.017946169499999942,-0.004805258500000242,-0.09453610599999962
31452.0,0.598794049,-2.5647331744999997,9.737022784999999,0.11886564870707382,-0.053098151833423486,0.8637494841779777,10.086923380551069,0.8735053678074345,-0.09453610599999995,0.0431492600000003,-0.047856452000001326
31462.0,0.43718045699999997,-2.5504154655,9.7322175265,0.12019908025559747,0.012983504305585817,0.8965250222011792,10.070342783726783,0.9046399867964988,-0.16161359200000003,0.014317708999999734,-0.004805258499999354
31472.0,0.174950636,-2.5660080389999997,9.837540947499999,0.11193843690590831,0.08492946673129607,0.9285011994269673,10.16819634325521,0.9390727902103847,-0.262229821,-0.015592573499999762,0.10532342099999958
31482.0,-0.11954306349999999,-2.6437747734999997,9.938157176499999,0.10207907196139235,0.13982007170651775,0.9479528939404441,10.2844933595119,0.9636308829186504,-0.2944936995,-0.07776673449999993,0.10061622899999989
31492.0,-0.418743955,-2.7610623075,10.068585621499999,0.09914866414729387,0.1659336879748569,0.945820101594507,10.4486950373347,0.9653704527213238,-0.2992008915,-0.11728753400000036,0.13042844499999973
31502.0,-0.6187015484999999,-2.913163449,10.140468366,0.11033971531108151,0.162202174034093,0.9210399168746917,10.568746925182408,0.9417000193866706,-0.19995759349999992,-0.15210114149999976,0.07188274450000165
31512.0,-0.728830228,-2.9298347540000003,10.1846963575,0.13405524918718045,0.14141879330134455,0.8840022848181199,10.622766357285023,0.9052237980174305,-0.11012867950000005,-0.01667130500000047,0.044227991499999675
31522.0,-0.7959077139999999,-2.890412021,10.195483672499998,0.16123351629923616,0.1209007026148992,0.8432331388207843,10.62712746025755,0.8669805955594072,-0.06707748599999996,0.03942273300000032,0.010787314999998188
31532.0,-0.8138538834999999,-2.9298347540000003,10.2433401245,0.18468201479977997,0.10278243964994607,0.8080595184053427,10.685144207525976,0.8352435942743742,-0.017946169499999942,-0.03942273300000032,0.047856452000001326
31542.0,-0.8665155939999999,-2.9885765875,10.316399666999999,0.20546714086178045,0.08945859614022136,0.7779490981499365,10.775460147171257,0.8095828467239122,-0.052661710500000014,-0.05874183349999962,0.07305954249999935
31552.0,-0.9203541024999999,-3.043591894,10.3894592095,0.21719051744742637,0.08732754912353628,0.745175305455987,10.865144543772782,0.7810787780796684,-0.05383850850000005,-0.05501530650000008,0.07305954250000113
31562.0,-0.995767241,-3.0376098375000002,10.444474516,0.21692522740112324,0.09505412172211518,0.7145308144494705,10.922713666415456,0.7527590086722413,-0.07541313850000009,0.005982056499999722,0.05501530649999964
31572.0,-1.0125366125,-2.9885765875,10.4947826305,0.2097309802244026,0.11850262022265899,0.6886842335566865,10.958890585841734,0.7295998414302769,-0.016769371499999908,0.04903325000000036,0.050308114499999945
31582.0,-1.113054775,-2.848439559,10.673165593999999,0.20386841926695365,0.14861304047806517,0.675627425422517,11.102655657561021,0.7211938617026632,-0.10051816250000001,0.14013702849999987,0.17838296349999894
31592.0,-1.2424044884999998,-2.831768254,10.9556951805,0.21159499186553254,0.14834775043176204,0.6774931823928989,11.383748822134036,0.7251044806299275,-0.1293497134999999,0.016671305000000025,0.2825295865000008
31602.0,-1.3776381919999998,-2.9573914405,11.252542476,0.23184604717642274,0.082796674385359,0.6782925431903123,11.715961902233376,0.7215875920691741,-0.13523370349999997,-0.12562318649999993,0.296847295500001
31612.0,-1.420787452,-3.0842894915,11.457207261499999,0.2664873421700062,-0.06029239901014411,0.6652357350561428,11.949856772535238,0.7191587169122814,-0.04314926000000008,-0.12689805099999996,0.20466478549999856
31622.0,-1.3369405945,-3.20285189,11.612838797,0.305923056618818,-0.23669108117995902,0.6353923501762916,12.120383463719579,0.7438649226463697,0.08384685749999998,-0.11856239849999994,0.1556315355000013
31632.0,-1.1035423245,-3.2148160029999997,11.6152904595,0.3189798647529876,-0.38297934309436776,0.5879612824240937,12.102389022571515,0.7707916715848795,0.2333982699999999,-0.011964112999999887,0.0024516625000003955
31642.0,-0.8485694245,-3.017310072,11.433279035499998,0.28567200130792786,-0.4647829251353419,0.5314719558540453,11.855129676321244,0.7616390875526057,0.25497290000000006,0.1975059309999998,-0.18201142400000236
31652.0,-0.544465208,-2.777831679,11.1076982555,0.20866458405143407,-0.45865507413158985,0.4755149547058551,11.46271136052968,0.6928346540213787,0.30410421649999997,0.23947839299999973,-0.32558077999999746
31662.0,-0.291845904,-2.5348228919999998,10.801240443,0.10900802909180984,-0.36139660156420583,0.4302149339703423,11.098526759574337,0.5723418064755921,0.252619304,0.2430087870000004,-0.3064578125000015
31672.0,-0.1242502555,-2.258275362,10.5067467435,0.025071654704898545,-0.20524897470528117,0.4096985886131489,10.747417032415553,0.45892119475877013,0.16759564849999997,0.27654752999999976,-0.2944936994999985
31682.0,-0.08237586,-2.0524337784999998,10.400148457999999,-0.02848726405105145,-0.022455406156159045,0.4304819693458974,10.601054577063467,0.4320075177710158,0.04187439550000001,0.20584158350000026,-0.10659828550000228
31692.0,-0.1577889985,-1.9554460099999997,10.372689838,-0.0538015195219772,0.1472813542587935,0.48164280570960716,10.556579035910309,0.5065236352896084,-0.0754131385,0.09698776850000002,-0.0274586199999991
31702.0,-0.368533907,-1.9626048644999998,10.467225944,-0.054867915694945736,0.26079407815000066,0.5437294031908014,10.656005539484037,0.6055292753162653,-0.2107449085,-0.007158854500000089,0.0945361060000014
31712.0,-0.695291485,-2.0906797134999997,10.601282849499999,-0.019427259903948883,0.28903874143502495,0.5988870435415782,10.827814644177133,0.6652717515419477,-0.32675757800000005,-0.12807484899999988,0.13405690549999782
31722.0,-1.0233239275,-2.258275362,10.810752893499998,0.05624847113327325,0.22135836370118883,0.6319278716110829,11.091410081478767,0.6719347070989946,-0.32803244249999985,-0.1675956485000003,0.2094700439999997
31732.0,-1.269961175,-2.383996615,10.967659293499999,0.1508418259328619,0.08093266274422906,0.6417872365555989,11.295388068793198,0.6642245172795891,-0.24663724750000005,-0.12572125300000003,0.15690640000000045
31742.0,-1.4375568234999998,-2.4343047295,11.0298334545,0.23397883952235982,-0.07788008188249097,0.6409878757581855,11.386379370584175,0.6867873479959025,-0.16759564849999986,-0.050308114499999945,0.062174161000001504
31752.0,-1.5069879055,-2.3984123905,11.013064082999998,0.2792771149286207,-0.21723938666648218,0.6447176443696974,11.371498363825754,0.7354247065496882,-0.06943108200000014,0.035892339000000106,-0.01676937150000235
31762.0,-1.5213056145,-2.3899786714999998,10.826345467,0.2771460679119356,-0.2985106432855982,0.6508472407027014,11.190894736068495,0.7678024992432292,-0.014317708999999956,0.008433719000000117,-0.1867186159999985
31772.0,-1.6578141825,-2.522858779,10.622857479499999,0.24730093770283254,-0.3067712866352873,0.6476497975130477,11.043471615042282,0.7581006768967177,-0.136508568,-0.13288010750000012,-0.20348798750000086
31782.0,-1.67693715,-2.5826793439999998,10.5091003395,0.21958859983966658,-0.2508142854870971,0.6524459622975282,10.950960722450493,0.7326750253026889,-0.0191229675000002,-0.05982056499999988,-0.11375713999999881
31792.0,-1.7870658295,-2.5276640374999997,10.460067089499999,0.19374201894688253,-0.15488749913898478,0.6417872365555989,10.908514714766548,0.6880530243381068,-0.11012867949999983,0.05501530650000008,-0.049033250000000805
31802.0,-1.9749612435,-2.5539458594999997,10.511552001999998,0.1617675870503464,-0.05070006944118328,0.6239342636369489,10.996173737138497,0.6465548813531716,-0.18789541399999998,-0.026281822000000066,0.051484912499999425
31812.0,-2.153344207,-2.5970951195,10.5977524555,0.13671862162572382,0.03137054797534608,0.5922251217867159,11.121787241338843,0.6086104564126399,-0.17838296350000005,-0.0431492600000003,0.08620045350000183
31822.0,-2.2132628385,-2.7143826534999995,10.698270617999999,0.12233012727228257,0.08546179215315435,0.5439946932371046,11.256971164477097,0.5640909538599368,-0.059918631499999986,-0.11728753399999947,0.10051816249999845
31832.0,-2.2300322099999996,-2.7442929359999995,10.803594039,0.10714227212142789,0.11344116539187543,0.4803111194903355,11.367578085754824,0.5050219163431111,-0.016769371499999686,-0.02991028249999994,0.10532342100000136
31842.0,-2.2167932324999997,-2.6892776294999994,10.832327523499998,0.0900886600001913,0.11130837304593838,0.4174251612117278,11.379178616251814,0.44130407406163924,0.013238977499999915,0.05501530650000008,0.02873348449999824
31852.0,-2.1521674089999996,-2.6329874584999997,10.8168330165,0.07063696548671451,0.09079028235949303,0.3651996740043015,11.338797291592462,0.3828880491174096,0.06462582350000012,0.05629017099999967,-0.015494506999997881
31862.0,-2.068418618,-2.5635563765,10.7173935855,0.05758015735254493,0.06760881923450435,0.3244305280069659,11.212167593346944,0.33636526940501216,0.08374879099999966,0.06943108199999992,-0.09943943100000041
31872.0,-1.9689791869999997,-2.543256611,10.6479625035,0.047188466986170685,0.047090728548059006,0.2980498763630717,11.123135291102791,0.30541450019888416,0.09943943100000019,0.0202997654999999,-0.06943108199999948
31882.0,-1.8121708535,-2.452250899,10.614521826999999,0.03866078826092639,0.04789008934547241,0.29192202535931955,11.04380239273506,0.2983397159219012,0.15680833349999967,0.09100571199999985,-0.03344067650000149
31892.0,-1.7427397715,-2.2858320484999997,10.6024596475,0.026403340924170217,0.08599411757501262,0.3161698846572768,10.985186418171674,0.3287179956036158,0.06943108200000014,0.16641885050000038,-0.012062179499999104
31902.0,-1.7415629734999998,-2.2140473705,10.65394456,-0.0013072516097437528,0.13902071090910434,0.3670636856454314,11.020053631314038,0.3925101480064586,0.0011767980000001454,0.07178467799999977,0.051484912499999425
31912.0,-1.8337454834999998,-2.2415059905,10.658749818499999,-0.03754726819815401,0.18751642950501876,0.4248864437640036,11.045176290900828,0.46594066014662916,-0.09218251,-0.02745861999999999,0.004805258499999354
31922.0,-1.976236108,-2.3864482775,10.734162957,-0.0740525748328674,0.22242301454490537,0.4747155939084417,11.172416879224329,0.5294437423735077,-0.14249062450000016,-0.14494228700000011,0.07541313850000186
31932.0,-2.2192448949999997,-2.4881432379999997,10.8454684345,-0.09163851237596227,0.22055900290377542,0.5008292101767808,11.346369033330644,0.5548637566814805,-0.24300878699999973,-0.10169496049999971,0.1113054775000002
31942.0,-2.4227328824999996,-2.6222001435,10.910192324499999,-0.0879087437644504,0.16113752319037647,0.49603130006304846,11.479454027526609,0.5289048111450783,-0.20348798749999997,-0.1340569055000005,0.06472388999999801
31952.0,-2.5867000705,-2.7802833414999997,10.931668887999999,-0.06632425690503652,0.06121393285519712,0.4608594249768587,11.57248363103678,0.4696141631377899,-0.16396718800000043,-0.15808319799999948,0.021476563500000267
31962.0,-2.6513258939999997,-2.831768254,10.827522265,-0.031417671865149925,-0.0586936774153173,0.3995721882930778,11.50146420416235,0.40508017913899264,-0.06462582349999968,-0.05148491250000031,-0.10414662299999833
31972.0,-2.5041280775,-2.879624706,10.680324448499999,0.0005567600313861911,-0.14822557738412243,0.326561575023651,11.34161479689538,0.3586273749374365,0.14719781649999986,-0.047856451999999994,-0.14719781650000208
31982.0,-2.253960436,-2.801759905,10.511552001999998,0.009349728802933622,-0.16394750328608734,0.2594135227116732,11.10958692765258,0.30702048307581986,0.25016764150000004,0.07786480100000004,-0.16877244650000023
31992.0,-2.080382731,-2.6281822,10.383477153000001,-0.0055710909723658995,-0.10345962739971988,0.2183773413387825,10.911092143810025,0.24170973246128583,0.17357770500000003,0.17357770500000003,-0.12807484899999722
32002.0,-1.9654487929999997,-2.464215012,10.329540578,-0.035414475852216944,-0.0022043508452688383,0.21784501591692423,10.799757086889496,0.2207158698924508,0.11493393800000007,0.16396718799999999,-0.053936575000001596
32012.0,-1.9629971304999998,-2.360068389,10.358274062499998,-0.0740525748328674,0.10304772969624922,0.2500864831890155,10.80356987708084,0.280438705439849,0.0024516624999999515,0.1041466230000001,0.02873348449999824
32022.0,-2.093523642,-2.4139068975,10.517534058499999,-0.09989915572565143,0.17419433132454606,0.29405307237600464,10.992193157924332,0.356076839676595,-0.13052651150000028,-0.05383850850000016,0.15925999600000118
32032.0,-2.281419056,-2.5874846024999996,10.6336447945,-0.09537002631672614,0.1877834648805739,0.32922669279144634,11.179192774652893,0.3908302532412251,-0.18789541399999976,-0.17357770499999958,0.11611073600000132
32042.0,-2.4443075125,-2.7587087114999997,10.658749818499999,-0.06819001387541845,0.15900473084443942,0.33588861454630875,11.278034432645773,0.37782739948960975,-0.16288845650000017,-0.17122410900000018,0.025105023999998366
32052.0,-2.599939048,-2.8963940774999997,10.7173935855,-0.04154407218522103,0.10997668682666668,0.3084433120586979,11.402250083733858,0.3300879554495148,-0.15563153549999997,-0.13768536599999992,0.05864376700000129
32062.0,-2.6513258939999997,-2.994558644,10.67551919,-0.020493656076917416,0.05108753253512602,0.25115287936198405,11.400158790324294,0.25711416672704335,-0.051386845999999764,-0.09816456650000038,-0.041874395500000716
32072.0,-2.591505329,-3.0100531509999997,10.618052221,0.007485717161803679,0.011651818086314143,0.17707586991958868,11.336637632471254,0.17761662234690245,0.05982056499999988,-0.015494506999999658,-0.057466969000000034
32082.0,-2.498146021,-2.9466041255,10.5881419385,0.034398694227556245,0.006056292504420323,0.11125950382688252,11.27084553724672,0.11661314692290957,0.0933593079999997,0.06344902549999976,-0.029910282499999497
32092.0,-2.3209398555,-2.7683192285,10.575001027499999,0.047188466986170685,0.03510031658685796,0.05397081645942065,11.175016773828899,0.0798225072914842,0.17720616550000035,0.17828489700000016,-0.013140911000000699
32102.0,-2.162954724,-2.6329874584999997,10.564213712499999,0.0317335764597609,0.0990509257091822,0.022261674609187675,11.10016249692162,0.10636582117945019,0.15798513149999982,0.13533177000000007,-0.010787314999999964
32112.0,-2.058808101,-2.5072662055,10.656396222499998,0.0034889131747366645,0.17019752733747903,0.01906423141953406,11.13929329324342,0.17129744816123305,0.1041466230000001,0.1257212529999996,0.09218250999999889
32122.0,-2.0192873015,-2.4965769569999994,10.798788780499999,-0.0234240638910159,0.2280185401267992,0.03158871413184537,11.26606660880696,0.23138493527287074,0.03952079949999998,0.010689248500000748,0.14239255800000095
32132.0,-2.083913125,-2.5348228919999998,10.967659293499999,-0.05060407633232359,0.24267406985579557,0.05050633789421191,11.448037883613567,0.25298689074595837,-0.06462582350000012,-0.0382459350000004,0.1688705129999999
32142.0,-2.1820776915,-2.6030771759999998,11.064548995500001,-0.08097978663403291,0.2048370770018105,0.06915867161027531,11.5741832675042,0.23086549291056263,-0.09816456649999994,-0.068254284,0.09688970200000213
32152.0,-2.2275805474999997,-2.6449515715,11.082495165000001,-0.0988327595526829,0.12889431058903325,0.08195018969814176,11.609460926047735,0.18192715919999966,-0.0455028559999997,-0.04187439550000027,0.017946169500000053
32162.0,-2.2096343779999996,-2.7215415079999996,10.992764317499999,-0.10362892433716332,0.04202927371727545,0.0878110053263387,11.53820348253174,0.14218363641749168,0.017946169500000053,-0.07658993649999957,-0.08973084750000204
