timestamp,ax,ay,az,gx,gy,gz,acc_mag,gyro_mag,dax,day,daz
169342.0,1.3169350284999999,-0.23065240799999998,9.280327094499999,0.07221997911827337,0.00493404579538797,-0.08374438816919191,9.376139364552838,0.11069414050249958,0.0,0.0,0.0
169352.0,1.3755787955,-0.1803442935,8.844519568499999,0.07142061832085997,-0.013451252545120298,-0.04777140695633679,8.952668176828999,0.08697096204454971,0.05864376700000018,0.05030811449999997,-0.4358075259999996
169362.0,1.4928663295,-0.0175539035,8.99662071,0.09860063076216766,0.016659167710285874,0.0023230332344044524,9.119656913331982,0.10002504055937644,0.11728753399999992,0.16279039,0.1521011415000011
169372.0,1.371950335,0.129643913,9.134306076,0.15695571430259808,0.02491806573072304,0.054017940349224504,9.23767301629231,0.16785095808952596,-0.12091599450000001,0.1471978165,0.13768536599999948
169382.0,1.406665876,0.1703415105,9.295919668,0.2062507936959259,0.03291341903410906,0.10091493735031214,9.40328919000216,0.23196229787000228,0.03471554099999996,0.04069759749999999,0.16161359200000014
169392.0,1.3636146825,0.18112882549999998,9.505389712,0.2326314453398202,0.04570319179272351,0.13928600095540747,9.604409728387894,0.274966836478667,-0.04305119349999997,0.010787314999999992,0.2094700439999997
169402.0,1.3516505695,0.17396997099999997,9.6969135865,0.23955865714098568,0.04463679561975498,0.1739255506197389,9.792209041727393,0.29938418611004064,-0.011964112999999887,-0.007158854500000006,0.19152387449999964
169412.0,1.3396864565,0.26497568299999996,9.786644434,0.2233044058171625,0.04410447019789671,0.21495998666337762,9.881466550662104,0.31307803789967864,-0.01196411300000011,0.09100571199999999,0.08973084750000027
169422.0,1.2511324069999998,0.382263217,9.8273420315,0.1875984599798625,0.041172317054546236,0.26212401904002036,9.914035952678574,0.3249574483469322,-0.08855404950000012,0.11728753400000003,0.04069759750000124
169432.0,1.1553214365,0.47679932299999994,9.8608807745,0.15402530648849957,0.0323793482829988,0.31008741221407654,9.93977237490645,0.3477447633649292,-0.09581097049999987,0.09453610599999995,0.03353874299999937
169442.0,1.0355822399999999,0.44335864649999995,9.959045341000001,0.14096849835433,0.0022689280275926286,0.3519229543843806,10.022553645120766,0.3791134808804614,-0.11973919650000009,-0.03344067649999999,0.09816456650000127
169452.0,1.0631389265,0.31283213499999996,10.1038895615,0.1457646631388104,-0.0515552807746605,0.3780365706527198,10.164482898441854,0.40843228661137176,0.027556686500000094,-0.1305265115,0.14484422049999957
169462.0,1.184054921,0.19073934249999996,10.164984990999999,0.15215954951811764,-0.1091110035176775,0.3857631432512987,10.235491557320387,0.4288017517330277,0.12091599450000001,-0.12209279249999999,0.06109542949999813
169472.0,1.3792072559999997,0.16318265599999998,10.148215619499998,0.14469826696584187,-0.15547567509690685,0.39082634341133426,10.242808281623063,0.4448095150893595,0.19515233499999973,-0.027556686499999983,-0.016769371500000574
169482.0,1.613782324,0.141608026,10.054856311499998,0.11751999985378618,-0.16373631844659603,0.39748826516619656,10.184521671006145,0.4456651807006147,0.23457506800000028,-0.021574629999999984,-0.09335930800000014
169492.0,1.829332491,0.11287454149999998,9.920799406,0.07888190087313571,-0.141886541540879,0.408145245578874,10.088679739135198,0.43924558784856355,0.21555016699999996,-0.028733484500000017,-0.13405690549999782
169502.0,1.9848659599999998,0.12248505849999998,9.817829580999998,0.046640433601044466,-0.10165146629465374,0.429995022484591,10.017208850287641,0.44430177808317456,0.15553346899999987,0.009610516999999999,-0.1029698250000024
169512.0,2.074694874,0.15720059949999998,9.7065241035,0.029319786104252742,-0.056618480934696055,0.46650207444855635,9.927017730442085,0.47083913145081524,0.08982891400000015,0.034715541,-0.11130547749999842
169522.0,2.054297042,0.2050570515,9.59874902,0.03145257845018981,-0.0057246799465414016,0.5245901226134316,9.818256845290348,0.5255633486034114,-0.020397832000000005,0.04785645200000002,-0.10777508349999998
169532.0,1.9418147664999998,0.18956254449999999,9.578351188,0.048506190571426404,0.053963835142412674,0.6021298652917837,9.775039131703554,0.6064860432881622,-0.11248227550000012,-0.015494507000000018,-0.02039783200000045
169542.0,1.7443088354999998,0.12366185649999999,9.646605472,0.0716876536964151,0.09313251421566943,0.6871326358516635,9.80382082153569,0.6971112136159365,-0.19750593100000002,-0.065900688,0.068254284
169552.0,1.4665845074999997,0.026674088000000002,9.78311404,0.09939999155958106,0.10032850672164205,0.7716013356604331,9.892466929146376,0.784420033385178,-0.27772432800000013,-0.09698776849999999,0.136508568
169562.0,1.115800637,-0.0642335575,9.944727632000001,0.12577889787422336,0.0806097768326101,0.846742995946545,10.00733454452798,0.8598208932423009,-0.3507838704999997,-0.0909076455,0.16161359200000192
169572.0,0.7913966549999999,-0.231829206,10.0883950545,0.14842978090660577,0.03344574445596733,0.9024347070484321,10.122043678129424,0.9151712507327721,-0.3244039820000001,-0.16759564850000003,0.1436674224999983
169582.0,0.569962498,-0.37069136999999996,10.162533328499999,0.15322594569108616,-0.02730742147670328,0.932278091928283,10.185251739343125,0.9451805787203175,-0.2214341569999999,-0.13886216399999995,0.07413827399999917
169592.0,0.4598338185,-0.43061000149999995,10.175772305999999,0.13723698441356613,-0.0856625050171337,0.9392053037294485,10.195254491065176,0.9530365455795835,-0.11012867949999999,-0.059918631499999986,0.01323897750000036
169602.0,0.4035436475,-0.4233530805,10.211664644999999,0.11245679969375064,-0.13336060814488673,0.9296129741604878,10.228400174423632,0.9458392386286595,-0.056290171,0.007256920999999972,0.035892339000000106
169612.0,0.40952570399999993,-0.3407810875,10.181754362499998,0.08714254422282487,-0.15947247908397388,0.9138910482585229,10.195683643097315,0.9317843863715882,0.005982056499999944,0.08257199299999995,-0.029910282500001273
169622.0,0.465815875,-0.16357492199999998,10.051227850999998,0.06396108109783619,-0.15121358106353672,0.9037663932677037,10.063345492291685,0.9185587953927481,0.056290171000000055,0.17720616550000004,-0.1305265114999994
169632.0,0.488567303,0.010002783,9.919524541499998,0.04983787679069808,-0.11630699602365012,0.9093619188495976,9.931554017103727,0.91812321108927,0.022751428000000018,0.17357770499999997,-0.13170330950000064
169642.0,0.458558954,0.1668111165,9.838129346499999,0.051169563009969755,-0.062481041892145,0.9290806487386295,9.850222906175578,0.9325840748346241,-0.03000834899999999,0.1568083335,-0.08139519499999892
169652.0,0.39040273649999996,0.2470295135,9.845386267499999,0.06689148891193467,0.001736602605734358,0.9597233944158939,9.856219794296608,0.9620532630091908,-0.06815621750000006,0.080218397,0.00725692099999975
169662.0,0.2970434285,0.275762998,9.956691745,0.08474446183058468,0.06222447849210184,0.9930312578609538,9.964938059738863,0.998581287939784,-0.09335930799999997,0.02873348449999999,0.11130547750000197
169672.0,0.17730423199999998,0.28047019,10.112323280499998,0.09247103442916356,0.10192722831646885,1.0199442349267063,10.117765684552396,1.0291872008730487,-0.1197391965,0.004707192000000027,0.15563153549999775
169682.0,0.07198081099999999,0.266152481,10.247556984000001,0.07994829704610426,0.09819571437570497,1.0401952902375964,10.251265410700372,1.0478742149489149,-0.10532342099999999,-0.014317709000000012,0.13523370350000263
169692.0,0.035990405499999996,0.17161637500000002,10.340916292000001,0.053567645402209964,0.04943296040423539,1.0559154708103093,10.34240287590883,1.058428359268978,-0.035990405499999996,-0.09453610599999998,0.09335930800000014
169702.0,0.08031646349999999,0.09738003449999999,10.360137326,0.019460421159736774,-0.042495276627557935,1.0713703613367191,10.36090628367069,1.07238939181537,0.044326057999999995,-0.07423634050000003,0.019221033999999193
169712.0,0.13415497199999998,0.1176798,10.270308411999999,-0.00878424212528746,-0.16240463222732435,1.0937542089935464,10.27185869107623,1.1057805827422122,0.05383850849999999,0.02029976550000001,-0.0898289140000017
169722.0,0.24908890999999997,0.19907499499999998,9.9985661405,-0.020242328664630233,-0.2969677722268352,1.1321252725986417,10.003649384333315,1.1706012311917688,0.11493393799999999,0.08139519499999998,-0.2717422714999991
169732.0,0.36049245399999996,0.2960627635,9.6957367885,-0.0037210419652519105,-0.40968113532062894,1.1792875596460326,9.706952139636545,1.2484276619519457,0.111403544,0.09698776850000002,-0.30282935199999983
169742.0,0.501708214,0.3558833285,9.4407638885,0.04290891966028059,-0.4789619799785439,1.2363109569671915,9.46078151496508,1.3265408157944152,0.14121576000000002,0.05982056499999999,-0.2549729000000003
169752.0,0.5842802069999999,0.466012008,9.263557723,0.10952464655040016,-0.4922840781590166,1.2944007504613186,9.293656559139954,1.3891769378325023,0.08257199299999995,0.11012867949999999,-0.17720616549999946
169762.0,0.5759445544999999,0.558194518,9.218054867,0.17480868722124807,-0.4581768539165434,1.3492913554365402,9.252882187772943,1.4356431549826905,-0.008335652500000013,0.09218251,-0.04550285600000059
169772.0,0.47660318999999995,0.5594693824999999,9.2718933755,0.22650184900681614,-0.3774396680485377,1.3975217839861516,9.300976473323319,1.4652067865444565,-0.09934136449999997,0.001274864499999917,0.05383850850000016
169782.0,0.2766455965,0.5163201225,9.459886856,0.26060907324928934,-0.28364392871711047,1.4396226162027588,9.47800498962112,1.490263146038446,-0.19995759349999997,-0.043149259999999856,0.1879934805000012
169792.0,0.05874183349999999,0.3978557905,9.714859756,0.2795284423409078,-0.20583715066320324,1.4588072753406804,9.723180545057552,1.4995411795804676,-0.21790376299999997,-0.11846433200000006,0.2549728999999985
169802.0,-0.1770100325,0.24340105299999998,9.982973567,0.28405757174983315,-0.17066527557701353,1.4529447143832315,9.987509092042313,1.4902562475662902,-0.23575186599999998,-0.1544547375,0.268113811000001
169812.0,-0.3960905935,0.080610663,10.2894313795,0.28059483851387634,-0.1986429034864826,1.4199038863137268,10.297367816616427,1.4609310431621998,-0.21908056099999998,-0.16279038999999998,0.3064578124999997
169822.0,-0.46797333799999996,-0.0954187045,10.5049815465,0.2757986737293959,-0.28684137190676406,1.3636798497899816,10.515832875552599,1.4205511654957996,-0.07188274449999998,-0.1760293675,0.21555016699999996
169832.0,-0.390108537,-0.20790097999999999,10.5659789095,0.26620459883118314,-0.39689136256201457,1.297331158275417,10.575221879663994,1.3825540771873768,0.07786480099999998,-0.11248227549999998,0.06099736300000025
169842.0,-0.22731814699999997,-0.18632634999999997,10.476248061999998,0.2475522651151197,-0.4818923877926423,1.2368450277183016,10.480370437404327,1.3502918277052585,0.16279039,0.02157463000000001,-0.08973084750000204
169852.0,-0.020201699,-0.0140235095,10.382888753999998,0.22090632342492228,-0.5223944984144228,1.1934107639531706,10.382917877234743,1.3213345023959917,0.20711644799999998,0.17230284049999997,-0.09335930800000014
169862.0,0.189268345,0.19907499499999998,10.252362242499999,0.2006552681140321,-0.5130692042210171,1.1768894772537926,10.256041386007219,1.2994504171428038,0.209470044,0.21309850449999998,-0.1305265114999994
169872.0,0.34725347649999994,0.4912150985,10.132623045999999,0.1913299739206264,-0.4635070894521341,1.1824867481649382,10.150464375695627,1.2844146100377969,0.15798513149999993,0.2921401035,-0.11973919649999942
169882.0,0.39275633249999997,0.71980811,10.095553909,0.19159526396692952,-0.37957071506522283,1.213661819264061,10.128800026729019,1.2859851027321554,0.045502856000000036,0.2285930115,-0.037069136999999586
169892.0,0.24908890999999997,0.85513988,10.164984990999999,0.19505974253213826,-0.2871084072823192,1.2602935262188455,10.203932054198845,1.307218158119763,-0.1436674225,0.13533176999999996,0.06943108199999948
169902.0,0.073157609,0.7916908544999999,10.2774672665,0.19878951114365012,-0.21356546859103415,1.2978634836972753,10.308174419305901,1.330254525055287,-0.17593130099999998,-0.06344902550000009,0.11248227550000145
169912.0,-0.179461695,0.634882521,10.429568408,0.1998559073166187,-0.17093056562331665,1.310920291831445,10.450415278475552,1.3370383889361954,-0.252619304,-0.1568083334999999,0.15210114149999931
169922.0,-0.39971905399999996,0.4576763555,10.5516612005,0.198524221097347,-0.17439504418852542,1.2999962760432124,10.56914362938888,1.3265804971904442,-0.22025735899999996,-0.17720616549999996,0.12209279250000016
169932.0,-0.561332646,0.335583563,10.643843710499999,0.19053061312321298,-0.20503778986578985,1.267487773395566,10.663916710138519,1.2980245242357347,-0.16161359200000003,-0.12209279250000005,0.09218250999999889
169942.0,-0.7001948100000001,0.3164605955,10.726415703499999,0.17693973423793313,-0.24713862208239706,1.2205907763944785,10.753902264980212,1.2578660546720593,-0.13886216400000007,-0.019122967499999977,0.08257199300000018
169952.0,-0.77080269,0.3643170475,10.7179819845,0.15322594569108616,-0.2908399212230831,1.168096508482245,10.751837122932848,1.213472497973641,-0.07060787999999996,0.047856451999999994,-0.008433718999999229
169962.0,-0.734910351,0.49602035699999997,10.6473741045,0.11965104687047126,-0.3148207451454852,1.1132059035070232,10.684226913527368,1.16303734170234,0.035892338999999995,0.13170330949999998,-0.07060787999999896
169972.0,-0.664302471,0.6910746255,10.488212174999997,0.08181405401648618,-0.3100245803610048,1.0705710005393057,10.531926535007964,1.117555836215068,0.07060788000000007,0.19505426850000002,-0.1591619295000033
169982.0,-0.643904639,0.8060085634999999,10.330128977,0.04877148061772955,-0.2660579911740156,1.0537844237936242,10.38151374656009,1.0879462871940226,0.020397832000000005,0.11493393799999996,-0.15808319799999815
169992.0,-0.6032070415,0.85513988,10.155374474,0.01626297797008316,-0.1885182484956635,1.053517388418069,10.209150486522,1.0703749353229255,0.040697597499999905,0.04913131650000002,-0.17475450299999906
170002.0,-0.7038232704999999,0.857493476,9.985425229499999,-0.011981685314941072,-0.09312378756940945,1.051119306025829,10.046859174459199,1.0553044092083,-0.10061622899999989,0.002353596000000069,-0.16994924450000148
170012.0,-0.8354285134999999,0.8730860494999999,9.828616896,-0.026637215043937457,0.002535963403147761,1.0423263372542815,9.902622386991085,1.0426697299095267,-0.13160524299999998,0.015592573499999873,-0.156808333499999
170022.0,-1.0629427935,0.8048317655,9.719665014499999,-0.020774654086488504,0.09659699278087816,1.0210088857704227,9.810682420051457,1.025778587263783,-0.22751428000000007,-0.06825428399999989,-0.10895188150000124
170032.0,-1.3310566044999999,0.7581521115,9.750752095,0.008002334620394002,0.189593371314892,0.9885021284520285,9.870343090627694,1.006551609089228,-0.26811381099999987,-0.04667965400000007,0.031087080500000752
170042.0,-1.6734067559999997,0.5629997765,9.929135058499998,0.04104490801915065,0.2655343923984173,0.9471989117035826,10.084888791122054,0.9845704527118151,-0.3423501514999998,-0.19515233499999995,0.17838296349999894
170052.0,-1.9080798904999998,0.268506077,10.163808192999998,0.05969724173521405,0.3137648209480286,0.8952387145424594,10.344847092442222,0.9505074852682519,-0.23467313450000016,-0.2944936995,0.2346731344999995
170062.0,-2.158247532,0.0422666615,10.3565088655,0.06715852428748981,0.31429714636988687,0.8046421637299378,10.57908761478222,0.8664536774996823,-0.25016764150000004,-0.2262394155,0.19270067250000267
170072.0,-2.2396427269999997,-0.10493115499999998,10.594712394,0.06902253592861975,0.2551427020320431,0.6794043179238326,10.82935551191625,0.7290076378747877,-0.08139519499999981,-0.14719781649999997,0.2382035284999997
170082.0,-2.169034847,-0.031969678999999994,10.789864729,0.06316172030042279,0.16641016286065133,0.5419107701102234,11.00576735616349,0.570393748191609,0.07060787999999985,0.072961476,0.1951523349999995
170092.0,-1.928379656,0.152395341,10.841349641499999,0.019195131113433638,0.08487361619523225,0.42360013610528374,11.012571656379146,0.43244544059676754,0.24065519099999988,0.18436502,0.051484912499999425
170102.0,-1.601622078,0.3164605955,10.747990333499999,-0.06767165108757614,0.031047662063727128,0.34099719326689615,10.871275766820133,0.34903079448158003,0.32675757800000005,0.1640652545,-0.09335930800000014
170112.0,-1.254466668,0.45532275949999995,10.4282935435,-0.16413076285754674,0.013194689145077132,0.29862932567473377,10.513339700867917,0.3410168343216822,0.34715540999999983,0.13886216399999995,-0.3196967899999983
170122.0,-0.9599729685,0.673128456,10.093102246499999,-0.22994712895025293,0.025984461903691577,0.295166592438777,10.160972540895433,0.375065583151544,0.29449369950000004,0.2178056965000001,-0.3351912970000015
170132.0,-0.7959077139999999,0.935358277,9.797431749,-0.23660905070511526,0.04943296040423539,0.3260763734915966,9.874109229285967,0.4058980928747186,0.1640652545000001,0.2622298209999999,-0.29567049749999974
170142.0,-0.6714613255,1.0287175849999999,9.5843332445,-0.17745460636727148,0.06488785093064518,0.3921580296306059,9.662741014999748,0.43530275754136927,0.1244463884999999,0.09335930799999992,-0.21309850449999956
170152.0,-0.5948713889999999,1.044212092,9.567661939499999,-0.07380124742058024,0.07554657667257456,0.4755603332664069,9.642842208140019,0.4871463229300154,0.07658993650000012,0.015494507000000102,-0.016671305000000913
170162.0,-0.6631256729999999,1.0478405524999999,9.678967416999999,0.04184426881656405,0.06622128247916885,0.5520354251010425,9.758079510897769,0.557565522295333,-0.068254284,0.003628460499999875,0.1113054775000002
170172.0,-0.7719794879999999,1.009496551,9.941099171500001,0.14736338473363725,0.030248301266313726,0.6090588224222012,10.022000217220695,0.6273623961156504,-0.10885381500000002,-0.038344001499999836,0.26213175450000215
170182.0,-0.8689672564999998,0.935358277,10.147038821499999,0.21184631927781972,-0.0075886915876713455,0.6330396463446033,10.22704238987253,0.6675894285230055,-0.0969877684999999,-0.07413827400000006,0.2059396499999977
170192.0,-0.9360447424999999,0.9197657035,10.3217933245,0.21371207624820165,-0.023310617489636264,0.6271788307164063,10.40488184185623,0.6630003937561908,-0.06707748600000007,-0.015592573499999984,0.17475450300000084
170202.0,-1.0018473639999999,0.9305530184999999,10.3361110335,0.162818275260047,-0.012651891747706895,0.6002658536506538,10.426160288324443,0.6220843642002267,-0.06580262149999994,0.010787314999999964,0.014317709000000178
170212.0,-1.010281083,0.9221192994999999,10.214018240999998,0.08341277561131301,0.01825788930511268,0.5709547941926609,10.305199682522348,0.5773044419269999,-0.008433719000000117,-0.008433719000000006,-0.12209279250000193
170222.0,-1.058137535,0.9425171314999999,10.060838367999999,0.00693768377667746,0.06355616471137351,0.539245652342428,10.16014085793931,0.5430224591112371,-0.047856451999999994,0.020397832000000005,-0.15317987299999913
170232.0,-1.1598324955,0.9496759859999999,9.838129346499999,-0.04475722333814259,0.10645635772539414,0.5171288400611559,9.951677493491603,0.529866400486098,-0.10169496049999993,0.007158854499999978,-0.22270902150000005
170242.0,-1.2508382075,0.9209425014999999,9.609536335,-0.06527356869533593,0.1365667779808003,0.4990105770962028,9.734265246339659,0.5214620596670166,-0.09100571200000007,-0.028733484500000017,-0.22859301149999922
170252.0,-1.3190924914999997,0.8778913079999999,9.519707421,-0.05061803896633954,0.1504229469123833,0.48515440816461974,9.650674978012475,0.510454746856336,-0.06825428399999978,-0.04305119349999997,-0.08982891399999993
170262.0,-1.3418439195,0.8946606795000001,9.4527280015,-0.015179128504594684,0.15228870388276522,0.4747609724689935,9.589318511035323,0.4988188411158464,-0.022751428000000296,0.01676937150000013,-0.06697941949999908
170272.0,-1.408823339,0.9257477599999999,9.384473717499999,0.029853856855363004,0.14136294276528075,0.4699648076845131,9.53468085832475,0.49167230430271536,-0.06697941949999997,0.031087080499999864,-0.06825428400000177
170282.0,-1.4519725989999999,0.90417313,9.4287997755,0.07435277146421045,0.12271060904921732,0.4659680036974461,9.582693707080994,0.48755759523098613,-0.043149259999999856,-0.021574629999999928,0.04432605800000111
170292.0,-1.497475455,0.857493476,9.438312225999999,0.11778528990008932,0.0976633889538467,0.4574420703014538,9.594762398057133,0.4823533556848948,-0.04550285600000015,-0.04667965399999996,0.009512450499999048
170302.0,-1.5644548745,0.8958374775,9.562856681,0.15455763191035785,0.06328912933581837,0.44411822679172913,9.731303702063085,0.47448348215976216,-0.06697941949999997,0.03834400149999995,0.12454445500000055
170312.0,-1.6901761275,0.8850501624999999,9.707700901499999,0.1883978207772759,0.019856610899939488,0.42306781068342547,9.89340517340193,0.4635454630416793,-0.12572125300000003,-0.010787315000000075,0.14484422049999957
170322.0,-1.7524483549999998,0.8167958785,9.9399223735,0.20358742125738255,-0.029972539244498622,0.3929573904280193,10.126217829736957,0.44357829285819744,-0.06227222749999983,-0.06825428399999989,0.23222147200000087
170332.0,-1.7954995484999998,0.727065031,10.144587158999999,0.19159526396692952,-0.08379849337600374,0.34925783661658527,10.327879298990398,0.407077350272332,-0.04305119349999997,-0.08973084750000004,0.20466478549999856
170342.0,-1.811092122,0.67077486,10.217646701499998,0.15455763191035785,-0.14774910249832798,0.28477315674315073,10.398571906942427,0.35610898566626786,-0.015592573500000206,-0.056290171,0.07305954249999935
170352.0,-1.7596072095,0.6324308585,10.2547158385,0.11458784671043572,-0.20796994300914035,0.21149725342742087,10.423789294248525,0.31798264106127255,0.05148491250000009,-0.03834400149999995,0.03706913700000136
170362.0,-1.6434964734999997,0.6875442315,10.176949104,0.07621678310534039,-0.25886374399729495,0.1464802481321281,10.331703189410847,0.30704380644473744,0.11611073600000021,0.055113372999999966,-0.07776673449999905
