timestamp,ax,ay,az,gx,gy,gz,acc_mag,gyro_mag,dax,day,daz
14222.0,-0.06815621749999999,0.358334991,9.76153941,0.06289468492486766,-0.031038935417467155,0.0055204764240580646,9.768352004751979,0.0703536250920779,0.0,0.0,0.0
14232.0,0.5088670685,0.12248505849999998,9.7435932405,0.044509386584359385,-0.03530102945083731,0.007918558816298273,9.75764098126575,0.05735810098087287,0.577023286,-0.23584993250000003,-0.017946169500000053
14242.0,0.7016658075,0.26252402049999995,9.677790619,0.04371002578694599,-0.025441664506321342,0.016179202165987436,9.706744306509702,0.05310001158074815,0.192798739,0.140038962,-0.0658026214999996
14252.0,0.9146662455,0.44934070299999995,9.669356899999999,0.057032123967418705,-0.02384294291149454,0.037496653649846175,9.722910277669293,0.07229901884432682,0.21300043800000001,0.1868166825,-0.008433719000001005
14262.0,1.045192757,0.5965385195,9.623854044,0.0679578850849032,-0.028106782274116685,0.07666707805235491,9.698806770152071,0.10623608714605123,0.13052651149999994,0.14719781650000008,-0.045502855999998815
14272.0,1.243875486,0.5965385195,9.639446617499999,0.07755021465386404,-0.04862487296056202,0.11903494564451726,9.737659653199591,0.15015902353133614,0.19868272900000017,0.0,0.015592573499999318
14282.0,1.3995070215,0.5941849235,9.6190487855,0.08127998326537593,-0.06914296364700735,0.1619351386585379,9.738468830589927,0.1939334273246133,0.15563153549999997,-0.002353596000000069,-0.020397831999998672
14292.0,1.5622974115,0.5475052694999999,9.504212914,0.08181405401648618,-0.09498954453979139,0.20057149230993634,9.647310419840041,0.236527961420895,0.16279038999999984,-0.04667965400000007,-0.11483587150000041
14302.0,1.759901409,0.442083782,9.391632571999999,0.0866102188009666,-0.11550763522623672,0.23387935575499613,9.565325577687302,0.2748506809973021,0.19760399750000013,-0.10542148749999991,-0.11258034200000111
14312.0,1.9884944205,0.370299104,9.323378287999999,0.10766063490927022,-0.1301614196259811,0.2610593681963038,9.540262794490129,0.3109417971118892,0.2285930114999999,-0.07178467799999999,-0.068254284
14322.0,2.2183622964999996,0.4445354445,9.291114409499999,0.14123378840063314,-0.12829740798485118,0.2853072274942611,9.562612091388424,0.3432308580854702,0.2298678759999997,0.0742363405,-0.03226387850000023
14332.0,2.412239767,0.5522124614999999,9.3713328065,0.17693973423793313,-0.12403356862222903,0.3119531691844585,9.69255992327699,0.37948224656969526,0.19387747050000037,0.10767701699999993,0.08021839700000122
14342.0,2.6050385059999996,0.6085026325,9.5615818165,0.20411974667924082,-0.1309607804233945,0.3415295186887544,9.928763664481373,0.418877081169732,0.19279873899999966,0.05629017100000011,0.1902490100000005
14352.0,2.7977391784999996,0.6898978275,9.728000667,0.21824295098637894,-0.1525452672828084,0.3796352922475466,10.145802112226294,0.4637057249436399,0.1927006725,0.08139519499999992,0.1664188504999995
14362.0,2.9796525359999997,0.7797267414999999,9.763893006,0.2139791116237568,-0.18532080530600992,0.43345950104979974,10.23815948592896,0.5177045490826805,0.18191335750000004,0.08982891399999993,0.035892339000000106
14372.0,3.1448945884999997,0.865927195,9.759185814,0.19825718572179185,-0.20663651146061665,0.5080688359140533,10.28989308166008,0.5832139415223198,0.16524205250000001,0.08620045350000016,-0.004707191999999694
14382.0,3.16166396,0.935358277,9.726823868999999,0.17880549120831507,-0.2039731390220733,0.6055943438569925,10.270448708837574,0.6635668424811069,0.01676937150000013,0.06943108199999992,-0.03236194500000167
14392.0,3.0191733354999997,0.9066247924999999,9.5688387375,0.15748803972445635,-0.15201294186095013,0.7244373032837903,10.074723367341182,0.7567825470626043,-0.14249062450000016,-0.028733484500000017,-0.1579851314999985
14402.0,2.8097032914999995,0.834742048,9.451453137,0.11192272894264037,-0.07527081465075945,0.821163450429316,9.89551379534546,0.8321669334413236,-0.20947004400000013,-0.07188274449999998,-0.11738560050000046
14412.0,2.5451198744999997,0.5629997765,9.504212914,0.10126574852996299,-0.03849847264049092,0.882448941783845,9.855184779523837,0.8890742483484786,-0.2645834169999999,-0.27174227149999997,0.05275977700000034
14422.0,2.2638651524999998,0.255365166,9.5580514225,0.15002850250143257,-0.07287273225851924,0.9365401859616532,9.825815171875783,0.9512762514594445,-0.2812547219999999,-0.3076346105,0.05383850850000016
14432.0,1.9286738555,0.175146769,9.592766963499999,0.21104695848040633,-0.1400207845704971,0.983704218338296,9.78629844464174,1.015785719515748,-0.3351912969999997,-0.08021839699999997,0.03471554099999885
14442.0,1.6521263255,0.09012311349999999,9.625030842,0.25554761841850576,-0.21916099417292798,1.0087531837629187,9.766210231223178,1.0634468075075787,-0.27654753,-0.08502365550000002,0.03226387850000023
14452.0,1.4857074749999999,-0.0881617835,9.6190487855,0.2816594893575929,-0.2801811954811537,1.0143487093448125,9.733509066065013,1.0893745335723226,-0.16641885050000016,-0.178284897,-0.0059820564999988335
14462.0,1.413922797,-0.26419115099999996,9.6190487855,0.2896548426609789,-0.3086928941417331,1.0039552736491861,9.7259999063321,1.0895491830379058,-0.07178467799999999,-0.17602936749999998,0.0
14472.0,1.3875429085,-0.2952782315,9.542458848999999,0.287789085690597,-0.3094922549391465,0.9861023007305362,9.647330482666424,1.0728493655756173,-0.02637988849999995,-0.03108708050000003,-0.07658993650000134
14482.0,1.4534435965,-0.20554738399999997,9.502938049499999,0.28992013270728206,-0.2940373644127367,0.9685163631874414,9.615642442806978,1.0528701728046173,0.06590068800000015,0.08973084750000002,-0.03952079949999998
14492.0,1.5419976459999998,-0.054721107,9.524512679499999,0.3021775800440383,-0.2700547951610826,0.9602557198377522,9.648683481272307,1.0422724834475317,0.08855404949999968,0.15082627699999998,0.021574629999999928
14502.0,1.6569315839999998,0.08776951749999999,9.5796260525,0.3160337489756212,-0.24474053969015686,0.965851245419646,9.722261108815976,1.045296077931079,0.11493393800000007,0.1424906245,0.055113373000001076
14512.0,1.7694138595,0.2733113355,9.6298361005,0.331488639502031,-0.2101009900258254,0.9887674184983316,9.794859254465912,1.0638083248464425,0.11248227550000012,0.18554181799999997,0.050210048000000285
14522.0,1.868755224,0.38589167750000003,9.736434385999999,0.33761649050578313,-0.1749273696103837,1.0316676115123522,9.92165878403779,1.0995101363533903,0.09934136450000008,0.11258034200000006,0.10659828549999872
14532.0,1.8939583144999999,0.49356869449999996,9.804688669999999,0.32962288253164906,-0.1408201453679105,1.0921554873987196,9.998130228641777,1.1494716902495021,0.025203090499999803,0.10767701699999993,0.068254284
14542.0,1.832862885,0.5689818329999999,9.908835293000001,0.313635666583381,-0.11870507841589034,1.1643667398707331,10.092974960104527,1.211696386027508,-0.06109542949999991,0.07541313849999998,0.10414662300000188
14552.0,1.6784081475,0.6276256,9.9889556235,0.3048426978118336,-0.12563229021705583,1.2400424709079552,10.148408853195757,1.283128158996554,-0.15445473750000005,0.05864376700000007,0.08012033049999978
14562.0,1.4641328449999997,0.5486820674999999,10.036910141999998,0.313635666583381,-0.16373631844659603,1.3087892448147598,10.157967424518858,1.355767753221191,-0.21427530250000015,-0.07894353250000008,0.047954518499997434
14572.0,1.2043546864999999,0.5247538415,10.0799613355,0.33495311806723976,-0.22315779815999498,1.3578190341617846,10.165208179385136,1.41621521094593,-0.25977815849999986,-0.023928225999999886,0.04305119350000197
14582.0,0.9686028204999999,0.45287109699999994,10.111146482499999,0.3610667343355789,-0.2929709682397682,1.3852643366493953,10.167525109137948,1.4612181415749657,-0.23575186599999998,-0.0718827445000001,0.031185146999998636
14592.0,0.8320942524999999,0.36314024949999996,10.1231105955,0.3829165112412959,-0.3499943655609269,1.3903275368094308,10.163740444077408,1.4839581429798416,-0.136508568,-0.08973084749999999,0.01196411300000122
14602.0,0.7387349444999999,0.370299104,10.090748650499998,0.3914424446372882,-0.37797199347039595,1.3772707286752612,10.12452759748405,1.480866190908985,-0.09335930800000003,0.007158854500000034,-0.03236194500000167
14612.0,0.7136299205,0.41933235399999996,10.0093534555,0.3879779660720795,-0.37504158565629747,1.3490243200609853,10.043518501186416,1.4529451845286598,-0.02510502399999992,0.04903324999999997,-0.08139519499999892
14622.0,0.7877681944999999,0.48405624399999997,9.9387455755,0.3818501150683274,-0.3486609340124032,1.3282409393282366,9.981660823236883,1.4253413451491725,0.07413827399999995,0.06472389,-0.07060787999999896
14632.0,0.932612415,0.6001669799999999,9.942275969499999,0.36932563235601606,-0.3041620194035558,1.3205143667296577,10.00394011248526,1.4045191880149765,0.14484422050000012,0.11611073599999994,0.003530393999998438
14642.0,1.0320518459999999,0.718631312,9.863332436999999,0.3384158513031965,-0.24314181809533003,1.3341035002856856,9.943183028497222,1.3976678366459205,0.09943943099999986,0.11846433200000006,-0.0789435325000003
14652.0,1.113447041,0.7485415944999999,9.724470273,0.281926524733148,-0.17039824020145838,1.3623481635707098,9.816588048923563,1.4016100186558134,0.08139519500000003,0.02991028249999994,-0.13886216399999896
14662.0,1.0128308119999998,0.7222597724999998,9.614341593499999,0.20678486444703614,-0.10005274469982693,1.4001851564246948,9.694485530919751,1.4189041560860955,-0.10061622900000011,-0.026281822000000066,-0.11012867950000071
14672.0,0.6393935799999999,0.6551822864999999,9.4921507345,0.13377425117760938,-0.040097194235317726,1.4324283690260382,9.536194919628974,1.4392200553265893,-0.3734372319999999,-0.06707748599999996,-0.12219085899999982
14682.0,0.130624578,0.4480658385,9.414383999999998,0.08687550884726974,-0.008388052385084749,1.4353587768401366,9.425945675393232,1.4380099205889714,-0.508769002,-0.2071164479999999,-0.07776673450000082
14692.0,-0.1842669535,0.172793173,9.3389708615,0.08207934406278933,-0.01664869573477391,1.4108438821666245,9.342386662022378,1.4133275125173355,-0.3148915315,-0.27527266549999996,-0.07541313849999831
14702.0,-0.38412648050000003,-0.0642335575,9.276698633999999,0.12418017627939655,-0.036100390248250715,1.3663449675577768,9.284870308678945,1.3724512831890683,-0.19985952700000004,-0.2370267305,-0.062272227500001165
14712.0,-0.470326934,-0.148080415,9.3173962315,0.2073171898688944,-0.044095743551636736,1.3098556409877284,9.33043448982537,1.326893609918248,-0.08620045349999994,-0.0838468575,0.04069759750000124
14722.0,-0.4284525385,-0.03667687099999999,9.432330169499998,0.30297694084145166,-0.01664869573477391,1.2605588162651484,9.442127366069222,1.296564975238459,0.041874395499999995,0.111403544,0.11493393799999829
14732.0,-0.390108537,0.24457785099999999,9.662198045499998,0.385047558257981,0.03797487386489262,1.2301831059634394,9.673162567966283,1.2895945825581552,0.0383440015,0.28125472199999996,0.22986787600000014
14742.0,-0.36137505249999996,0.4912150985,10.002194601,0.43594135924613564,0.0992621105486735,1.2251199058034037,10.020767487465083,1.3041536024900158,0.028733484500000017,0.24663724750000002,0.33999655550000085
14752.0,-0.4284525385,0.6719516579999999,10.410347374,0.45059688897513206,0.14882422531755646,1.2331135137775375,10.440805670817973,1.3212702767625644,-0.06707748600000002,0.1807365594999999,0.4081527730000012
14762.0,-0.5469168704999999,0.7030387385,10.768290099,0.4322115906346238,0.16188103345172605,1.241641192502782,10.805066088983011,1.3246453030868455,-0.11846433199999995,0.031087080500000086,0.35794272499999913
14772.0,-0.7611921729999999,0.6492002299999999,11.097499339499999,0.38238244049018566,0.12750677383369774,1.2429728787220538,11.142502683556842,1.3066965544483913,-0.21427530249999993,-0.05383850850000005,0.3292092404999991
14782.0,-0.919275371,0.5043560094999999,11.219592131999999,0.30857246642334546,0.05689424295651115,1.2269856627737856,11.268482142705922,1.2664705833806829,-0.15808319800000015,-0.1448442205,0.12209279250000016
14792.0,-1.0257755899999998,0.40981990349999997,11.2675466505,0.22570248820940272,-0.014250613342533702,1.1870158775738633,11.321562411413822,1.2083672400297034,-0.10650021899999984,-0.09453610599999995,0.04795451850000099
14802.0,-1.1275686169999999,0.47807418749999997,11.169382083999999,0.144965302341397,-0.07127401066369245,1.1281267232823227,11.23632778327409,1.139633637298729,-0.10179302700000004,0.068254284,-0.09816456650000127
14812.0,-1.1466915845,0.5031792115,11.018457740499999,0.07648381848089551,-0.1152405998506816,1.0585805885781048,11.089386903162556,1.0675781155764341,-0.0191229675000002,0.02510502400000003,-0.15092434349999984
14822.0,-1.0784373004999999,0.541523213,10.812616156999999,0.029054496057949606,-0.1309607804233945,0.989566779295745,10.87974919563613,0.9986176948342341,0.06825428400000022,0.03834400149999995,-0.20584158349999981
14832.0,-0.9156469104999999,0.5929100589999999,10.622269080499999,0.0029408797896104456,-0.1184380430403352,0.9272148917682476,10.678134294965478,0.934753269226679,0.16279038999999995,0.051386845999999986,-0.19034707650000016
14842.0,-0.7145125189999999,0.638412915,10.488212174999997,-0.005319763560078717,-0.07393912843148777,0.888311502741294,10.531889375495012,0.8913992486535083,0.2011343915,0.045502856000000036,-0.13405690550000138
14852.0,-0.6008534455,0.7473647965,10.381613889499999,-0.0002565634000431664,-0.022778292067777994,0.8733889376367424,10.425808647422798,0.8736859577677444,0.11365907349999993,0.10895188150000001,-0.10659828549999872
14862.0,-0.5829072759999999,0.8898554209999999,10.345721550499999,0.012800244734126413,0.017990853929557547,0.8736559730122976,10.400268167849179,0.8739349382364986,0.017946169500000053,0.14249062449999994,-0.035892339000000106
14872.0,-0.679796978,0.9137836469999999,10.281095727,0.02718873908756767,0.04783423880940859,0.8821819064082899,10.34398636080695,0.8838960673799902,-0.09688970200000013,0.023928225999999997,-0.06462582349999835
14882.0,-0.81395195,0.784532,10.3110060095,0.036781068656528505,0.06861936487140906,0.8773857416238094,10.372793893830048,0.8808332440658867,-0.13415497199999993,-0.12925164699999991,0.029910282499999497
14892.0,-0.9719370815,0.6061490365,10.397206462999998,0.04397531583324913,0.06782000407399566,0.8438125881324465,10.46011379379276,0.8476750941522398,-0.15798513150000004,-0.17838296350000005,0.08620045349999828
14902.0,-1.0808889629999998,0.47925098549999995,10.433098801999998,0.04424235120880426,0.04037295625713283,0.7897195986253862,10.499883478864502,0.7919876297584859,-0.10895188149999979,-0.126898051,0.035892339000000106
14912.0,-1.1694430125,0.40736824099999996,10.387595946,0.03385066084243002,-0.006524040743954804,0.7220392208915501,10.461151723429698,0.7228617204229137,-0.08855404950000012,-0.07188274449999998,-0.045502855999998815
14922.0,-1.173071473,0.41815555599999993,10.273936872499998,0.012800244734126413,-0.0523546415720739,0.6583539018155291,10.349141491442424,0.6605563676137906,-0.003628460500000097,0.010787314999999964,-0.11365907350000093
14932.0,-1.1514968429999999,0.4002093865,10.036910141999998,-0.01437976770718128,-0.08246506182748008,0.5981330613047167,10.110671477753794,0.6039622696553771,0.02157463000000015,-0.017946169499999942,-0.23702673050000023
14942.0,-1.0976583345,0.335583563,9.772326725,-0.044490187962587455,-0.08939401895789757,0.5453735033461801,9.839504040712738,0.5544392893748397,0.05383850849999994,-0.06462582350000001,-0.264583416999999
14952.0,-1.0353861069999999,0.31165533700000003,9.520884219,-0.06394188247606426,-0.06354743806511354,0.4934133061850569,9.582086920460094,0.5015810322766312,0.062272227500000055,-0.02392822599999994,-0.25144250600000007
14962.0,-0.957521306,0.3978557905,9.445471080499999,-0.04768763115224107,-0.020380209675537785,0.44438526216728425,9.502213437617582,0.44740107771754084,0.07786480099999993,0.08620045349999994,-0.07541313850000009
14972.0,-0.8426854345,0.6133078909999999,9.446745945,0.011201523139299608,0.02811725424962865,0.4041484415918069,9.504066196110761,0.40528017092903107,0.11483587149999996,0.21545210049999997,0.0012748645000009162
14982.0,-0.758838577,0.8071853614999999,9.538928454999999,0.08607614804985635,0.0728814589047792,0.38149930388867653,9.603048488025662,0.3978222331428129,0.08384685749999998,0.19387747049999993,0.09218250999999889
14992.0,-0.652338358,0.936535075,9.78311404,0.13963506680580634,0.10272658911388224,0.37004121734933376,9.849465142822147,0.4086333399640945,0.10650021900000006,0.12934971350000013,0.24418558500000032
15002.0,-0.5684915005,1.016753472,9.9877788255,0.15695571430259808,0.11578339724805183,0.36284697017261314,10.055480897305257,0.41194516029926137,0.08384685749999998,0.080218397,0.20466478550000033
15012.0,-0.575650355,1.044212092,10.204505790499999,0.14283250999545993,0.10032850672164205,0.35512039757403424,10.273932579720322,0.39569866305780954,-0.007158854499999978,0.02745861999999999,0.21672696499999944
15022.0,-0.5888893325,1.0501941485,10.3217933245,0.10792592495557335,0.0603587215217199,0.34206358943986465,10.391781167305666,0.3637288547279922,-0.013238977500000026,0.005982056499999944,0.1172875340000008
15032.0,-0.5661379044999999,0.9581097049999999,10.237946466999999,0.06289468492486766,-0.0022602013813326567,0.32074613795600593,10.298253939133788,0.3268622567929429,0.022751428000000073,-0.0920844435,-0.08384685750000109
15042.0,-0.48827310349999997,0.8814217019999999,10.0236711645,0.017329374143051697,-0.05688551631025118,0.29623124328249356,10.074189717013814,0.30214105757206455,0.07786480099999993,-0.076688003,-0.21427530249999904
15052.0,-0.45002716849999996,0.9089783884999999,9.7794855795,-0.010115928344559134,-0.0888599482067873,0.26745425457561106,9.831943061409408,0.28201099392077067,0.03824593500000001,0.027556686499999983,-0.24418558500000032
15062.0,-0.397365458,1.0083197529999999,9.524512679499999,-0.009051277500842591,-0.09472250916423626,0.24533744229433893,9.58597672714981,0.26314395291986886,0.05266171049999996,0.09934136449999997,-0.2549729000000003
15072.0,-0.3494109395,1.041858496,9.291114409499999,0.013864895577842954,-0.061948716470286734,0.2320135987846142,9.355873240951277,0.2405414492820071,0.04795451849999999,0.03353874300000004,-0.23339827000000035
15082.0,-0.36980877149999997,1.0694151824999998,9.2240369235,0.04131019806545378,0.011328932174695194,0.21709277900931467,9.293183766940757,0.22127844871657293,-0.02039783199999995,0.027556686499999872,-0.06707748599999874
15092.0,-0.44404511199999996,1.0191070679999998,9.243159891,0.06049660253262745,0.09739635357829157,0.19524300210359768,9.309766916960369,0.22641934210390186,-0.0742363405,-0.050308114499999945,0.019122967499999532
15102.0,-0.596048187,1.0250891245,9.443117484499998,0.0927380698047187,0.1482918998956982,0.15873769546888428,9.517276342550096,0.2361958787289755,-0.152003075,0.005982056500000166,0.19995759349999886
15112.0,-0.6606740105,1.089714948,9.729177465,0.15349123573738932,0.1187138050621503,0.1177015140959936,9.81228123126873,0.22694971553411214,-0.06462582350000001,0.0646258234999999,0.28605998050000103
15122.0,-0.6139943565,1.1878795144999998,10.052404649,0.2304986529938831,0.02811725424962865,0.08972388618652449,10.140950943477609,0.2489389177508113,0.04667965399999996,0.09816456649999994,0.3232271840000003
15132.0,-0.5924197265,1.2788852265,10.270308411999999,0.28992013270728206,-0.08779529736307076,0.08039684666386679,10.36656854665536,0.3134092381241679,0.02157463000000004,0.09100571200000007,0.21790376299999892
15142.0,-0.5948713889999999,1.3687141404999998,10.374455035,0.3024446154195934,-0.20583715066320324,0.08652644299687089,10.481248381805113,0.3759368342250367,-0.0024516624999999515,0.08982891399999993,0.10414662300000188
15152.0,-0.6295869299999999,1.3531215669999999,10.316988066,0.2696690773963919,-0.2911052112693862,0.09878389033362707,10.42437338315804,0.4089277592943052,-0.03471554099999996,-0.015592573499999984,-0.057466969000000034
15162.0,-0.7241230359999999,1.367439276,10.265503153500001,0.21024759768299292,-0.3246801100900011,0.10358005511810749,10.38146421943127,0.4004373284769978,-0.09453610600000006,0.014317709000000178,-0.051484912499999425
15172.0,-0.8809313694999998,1.3830318494999998,10.162533328499999,0.1441659415439836,-0.31855051375699706,0.0937206901735915,10.293974005571114,0.3619969838033521,-0.1568083334999999,0.015592573499999762,-0.1029698250000024
15182.0,-0.9491856535,1.2453464834999999,10.0536795135,0.08101469321907279,-0.29750009764869345,0.06867347007822089,10.174886388994505,0.3158888002303135,-0.06825428400000011,-0.13768536599999992,-0.10885381499999802
15192.0,-0.817482344,0.9556580424999999,9.9985661405,0.03491531168614657,-0.24607397123868052,0.03829601444725958,10.077345113813445,0.25147179371424633,0.13170330949999998,-0.289688441,-0.055113373000001076
15202.0,-0.746874464,0.810813822,9.929135058499998,-0.017044885474976623,-0.1789241735974507,0.0007243116395776468,9.990143318734486,0.17973567438251364,0.07060787999999996,-0.1448442204999999,-0.06943108200000125
15212.0,-0.72176944,0.8167958785,9.854898718,-0.06687229029016274,-0.10937803889323264,-0.033648202649198676,9.914995480265764,0.13254305014712334,0.02510502400000003,0.005982056500000055,-0.07423634049999883
15222.0,-0.7181409795,0.9209425014999999,9.821359975,-0.0868580555547498,-0.053953363166900706,-0.04803844233189193,9.890549697364566,0.11297335594486864,0.003628460499999986,0.10414662299999988,-0.03353874299999937
