timestamp,ax,ay,az,gx,gy,gz,acc_mag,gyro_mag,dax,day,daz
101852.0,-0.1138552065,-0.6582223479999999,9.482442150999999,0.0037891098060796892,-0.16618676071639607,0.03707951995861953,9.505941763682085,0.17031525941879921,0.0,0.0,0.0
101862.0,-1.314483366,-0.7911024555,9.179612799,0.01524545101617047,-0.23360184840392903,0.014695672301792254,9.30693294024156,0.23455960892451275,-1.2006281595,-0.13288010750000012,-0.30282935199999983
101872.0,-0.338917824,-0.7073536644999999,9.586588773999999,-0.02205921641595633,-0.3268635169842461,0.008567821298040163,9.618622501163525,0.3277190493791774,0.975565542,0.0837487910000001,0.40697597499999993
101882.0,-0.0024516625,-0.886913426,9.8595078435,-0.05829748767511459,-0.3380545681480337,0.017360790069587597,9.899318984248668,0.34348345687503495,0.33646616149999997,-0.17955976150000008,0.27291906950000033
101892.0,0.0597224985,-0.931239484,9.8810824735,-0.0732200527796661,-0.28103291615612697,0.04027696314827314,9.92504733497511,0.2931943209762446,0.062174161,-0.044326058,0.021574629999999928
101902.0,0.19024901,-0.9000543369999999,9.828420763,-0.05163556592025224,-0.16591972534084096,0.07118674420109272,9.871380206938035,0.1877848222701628,0.1305265115,0.03118514700000008,-0.052661710499998904
101912.0,0.1471978165,-0.934769878,9.648861001499998,0.0016563174601426187,-0.048410197462566716,0.11168885482287313,9.695152425220867,0.12174025996989782,-0.0430511935,-0.03471554100000007,-0.17955976150000197
101922.0,0.19858466249999998,-0.7791383425,9.514804095999999,0.07706501312180962,0.017406168630139447,0.13993351810789736,9.548716636815245,0.160696547703735,0.051386845999999986,0.15563153549999997,-0.1340569054999996
101932.0,0.0477583855,-0.6294888634999999,9.4201699235,0.1383522498055905,0.029396580591340492,0.14233160050013757,9.441299618181285,0.20065838750887655,-0.15082627699999998,0.14964947900000014,-0.09463417249999928
101942.0,-0.097085835,-0.5947733225,9.433408901,0.1623330737279926,-0.02975786374650332,0.11115652940101486,9.452639020822776,0.1989807309997931,-0.1448442205,0.03471554099999985,0.01323897750000036
101952.0,-0.1042446895,-0.5577041854999999,9.5362806595,0.14581353235786626,-0.09930399845072137,0.05413313207985612,9.55314344760754,0.18453527119701135,-0.007158854500000006,0.03706913700000014,0.10287175849999919
101962.0,-0.10787314999999999,-0.6474350329999999,9.641702147,0.10291159401459364,-0.1851061298080146,0.014695672301792254,9.664017230422917,0.21229940711063647,-0.003628460499999986,-0.08973084750000004,0.10542148750000102
101972.0,0.135135637,-0.7108840584999999,9.6512145975,0.05361651462126581,-0.24852441350848056,0.0059027035302448225,9.67830362160714,0.25431074821727967,0.243008787,-0.06344902549999998,0.009512450499999048
101982.0,0.18789541399999998,-0.7995361745,9.5351038615,0.006719517620178169,-0.314873105023045,0.028019515811516967,9.570411089944283,0.31618873707046125,0.05275977699999998,-0.08865211600000011,-0.11611073599999955
101992.0,0.3003776895,-0.9204521689999999,9.450080205999999,-0.01672898088036565,-0.3996088402073697,0.07198610499850612,9.499551297382375,0.40638538763842225,0.1124822755,-0.1209159944999999,-0.08502365550000057
102002.0,0.411683167,-0.9204521689999999,9.6500377995,-0.010334094501058424,-0.42199094253494496,0.1191501373751489,9.702574130465932,0.43861133629581994,0.11130547750000003,0.0,0.19995759350000064
102012.0,0.388931739,-0.8306232549999999,9.8691183605,0.002988003679414292,-0.3732281885634754,0.164980738203268,9.911644671945547,0.4080770183218562,-0.022751428000000018,0.08982891400000004,0.21908056100000017
102022.0,0.36147311899999995,-0.782766803,10.043872863499999,0.020575686551761153,-0.26158122164265013,0.21054604898508394,10.080811910842801,0.3364189845064736,-0.027458620000000045,0.04785645199999988,0.17475450299999906
102032.0,0.3327396345,-0.6522402915,10.0666242915,0.053084189199407536,-0.11182848116303268,0.22946541807670248,10.093218400908656,0.2607257533027858,-0.02873348449999996,0.13052651150000005,0.022751428000001184
102042.0,0.11964113,-0.47268053,9.958849207999998,0.09625141758898328,0.022734658836478135,0.20894732739025715,9.970778225951621,0.23117133413083726,-0.2130985045,0.17955976149999997,-0.10777508350000176
102052.0,-0.14611908499999998,-0.39373699749999996,9.817633447999999,0.12716119864180286,0.08881806030473943,0.1532573616176221,9.826612138956635,0.2180514553180303,-0.26576021499999997,0.07894353250000002,-0.1412157599999997
102062.0,-0.24908890999999997,-0.414036763,9.714663622999998,0.13328904964555496,0.08908335035104258,0.07944738755078187,9.72667265997165,0.1789237308291607,-0.10296982499999999,-0.02029976550000001,-0.10296982500000063
102072.0,-0.30175062049999996,-0.51582979,9.7900767615,0.11836648454100344,0.05177868291891577,0.022956315651481415,9.808299383954688,0.1312198502350299,-0.052661710499999986,-0.10179302699999998,0.07541313850000186
102082.0,-0.154552804,-0.6080123,9.854702584999998,0.08665734269077045,-0.0028448866807507574,-0.006620033852814493,9.874650807242816,0.08695638717578111,0.14719781649999997,-0.09218251,0.06462582349999835
102092.0,0.133958839,-0.634294122,9.920603273,0.04802098903937198,-0.03269001688985379,-0.002090904443889207,9.941762585377317,0.058129377030653656,0.288511643,-0.026281822000000066,0.06590068800000104
102102.0,0.22976980949999998,-0.7420692055,9.9277621275,0.02110801197361942,-0.0537404329981574,0.036013123785651,9.95810834101198,0.06804797861148064,0.09581097049999998,-0.10777508349999998,0.007158854500000089
102112.0,0.2285930115,-0.8270928609999999,9.9134444185,0.013913764796898796,-0.08118573548576824,0.08557523855453397,9.950513434205925,0.1187764200119449,-0.001176797999999979,-0.0850236554999999,-0.014317709000000178
102122.0,0.12081792799999999,-0.7600153749999999,10.0091573225,0.013913764796898796,-0.08544957484839039,0.11568565880994015,10.038697656993062,0.14449357891229622,-0.10777508350000001,0.06707748599999996,0.09571290400000088
102132.0,0.028635417999999996,-0.7264766319999999,10.043872863499999,0.0043214352279379595,-0.06919532352456718,0.11781670582662522,10.070152450790294,0.13670202548585858,-0.09218251,0.03353874300000004,0.03471554099999885
102142.0,-0.01569064,-0.734910351,10.0689778875,5.759586531581287e-05,-0.044945718897357975,0.1130205410421448,10.095774121837042,0.12162961671378876,-0.044326057999999995,-0.008433719000000117,0.025105024000000142
102152.0,0.0130428445,-0.7229462379999999,10.034262346499998,0.0043214352279379595,-0.015369369393062066,0.10875844700877464,10.060280424382745,0.10992402882777767,0.028733484499999996,0.01196411300000011,-0.03471554100000063
102162.0,0.04903325,-0.7360871489999999,9.962477668499998,0.022174408146587957,0.0054157566689384045,0.1106224586499046,9.98975424351819,0.11295292450706387,0.0359904055,-0.013140911000000033,-0.07178467800000021
102172.0,0.026281822,-0.703725204,9.926585329499998,0.039495055643379684,0.01980425102237966,0.11648501960735355,9.951533359274693,0.12458261344086752,-0.022751428,0.03236194499999989,-0.035892339000000106
102182.0,-0.027654752999999997,-0.6390993805,9.9709113875,0.041359067284509624,0.02033657644423793,0.11621798423179842,9.991410646194867,0.1250230724587245,-0.053936575,0.06462582350000001,0.04432605800000111
102192.0,-0.0911037785,-0.622330009,9.966106128999998,0.024040165116969894,0.010744246875277093,0.11088949402545974,9.98593340219382,0.11397301551240341,-0.0634490255,0.01676937150000002,-0.0048052585000011305
102202.0,-0.1485707475,-0.5900661305,9.9636544665,5.759586531581287e-05,-0.02363001274275123,0.1036952468487391,9.982217270385439,0.10635358498201751,-0.05746696899999999,0.03226387850000001,-0.002451662499998619
102212.0,-0.1605348605,-0.5457400724999999,9.897851845,-0.01992642407001926,-0.05613851539039761,0.08930675249529785,9.914185534562986,0.10735125210127984,-0.011964112999999998,0.04432605800000011,-0.0658026214999996
102222.0,-0.12699611749999998,-0.6067374355,9.828420763,-0.024190263432641405,-0.07265805676052395,0.07385186196888806,9.847949686308652,0.10638824922625525,0.03353874300000001,-0.06099736300000014,-0.06943108199999948
102232.0,-0.10787314999999999,-0.680973776,9.815279852,-0.011665780720330098,-0.07665486074759097,0.06958802260626591,9.839465456678415,0.1041851765190114,0.01912296749999999,-0.07423634049999994,-0.013140911000000699
102242.0,-0.0263798885,-0.6558687519999999,9.831951156999999,0.003522074430524557,-0.06919532352456718,0.07198610499850612,9.85383799704465,0.099911946827292,0.08149326149999998,0.02510502400000003,0.016671304999999137
102252.0,0.0010787315,-0.6187015484999999,9.857154247499999,0.01284736862393026,-0.05960124862635436,0.07864802675336847,9.876552163016465,0.09951319425371803,0.02745862,0.03716720350000002,0.025203090499999803
102262.0,0.0010787315,-0.6067374355,9.872746821,0.019509290378792614,-0.05134235060591719,0.08344419153784889,9.89137307308062,0.09989786022848632,0.0,0.011964112999999887,0.015592573500001095
102272.0,-0.0216726965,-0.5935965245,9.888241328000001,0.0248395259143833,-0.04174827570770436,0.07758163058039995,9.906065974969039,0.09153594908958702,-0.022751428,0.013140911000000033,0.015494507000001434
102282.0,-0.0610954295,-0.6032070415,9.8810824735,0.023773129741414763,-0.03322234231171206,0.06612354404105718,9.899665763778586,0.07772521343121767,-0.039422733,-0.00961051700000004,-0.0071588545000018655
102292.0,-0.040795663999999995,-0.587614468,9.8463669325,0.017643533408410676,-0.033489377687267195,0.05519952825282466,9.863969627823963,0.0669314620215973,0.020299765500000004,0.015592573500000095,-0.03471554099999885
102302.0,-0.0012748644999999999,-0.5816324115,9.827243965,0.015512486391725602,-0.04121595028584609,0.04107632394568655,9.844441164180713,0.06022172515720378,0.039520799499999995,0.005982056499999944,-0.01912296750000131
102312.0,0.02745862,-0.634294122,9.831951156999999,0.016311847189139004,-0.05267403682518886,0.03254864522044225,9.852428460164006,0.06403159235775253,0.0287334845,-0.052661710500000014,0.004707191999999694
102322.0,0.100420096,-0.680973776,9.855977449500001,0.01791056878396581,-0.0630657271915631,0.029085911984485503,9.879984866604447,0.07172213533028049,0.072961476,-0.04667965399999996,0.0240262925000021
102332.0,0.21662889849999997,-0.6749917195,9.860684641499999,0.015512486391725602,-0.0739914883090476,0.03974463772641487,9.886133900578773,0.08541085296521374,0.11620880249999997,0.005982056499999944,0.004707191999997917
102342.0,0.24408751849999996,-0.6761685175,9.906187497500001,0.006986552995733301,-0.08065166473465797,0.05999569303730508,9.93223707511913,0.10076202722385254,0.02745861999999999,-0.0011767979999999234,0.04550285600000237
102352.0,0.2058415835,-0.653515156,9.9157980145,-0.00633729051399141,-0.08304974712689818,0.07731459520484481,9.939441789204343,0.11364404243333423,-0.03824593499999995,0.02265336149999997,0.009610516999998708
102362.0,0.144746154,-0.5864376699999999,9.849995393,-0.020725784867432664,-0.08518253947283526,0.07891331679967162,9.8684988641644,0.11795310406147679,-0.06109542950000002,0.06707748600000007,-0.0658026214999996
102372.0,0.0214765635,-0.5673147024999999,9.793705222,-0.02552194965191308,-0.08598190027024866,0.06452482244623037,9.810146236926466,0.1104885052837413,-0.12326959049999998,0.019122967499999977,-0.056290171000000555
102382.0,0.011866046499999998,-0.573296759,9.7912535595,-0.0018081611050661255,-0.06546380958380331,0.042942080916068485,9.808030191805123,0.07831220929847724,-0.009610517000000002,-0.005982056500000055,-0.0024516625000003955
102392.0,0.11120741099999999,-0.5565273875,9.703876307999998,0.052284828401994124,-0.015636404768617197,0.017893115491445864,9.720458076771001,0.05743138529675412,0.0993413645,0.01676937150000002,-0.08737725150000131
102402.0,0.226141349,-0.6642044045,9.7206456795,0.1181011944947003,0.026998498199100284,0.004038691889114879,9.745935554222937,0.1212151891400457,0.114933938,-0.10767701699999999,0.01676937150000235
102412.0,0.39971905399999996,-0.643904639,9.854702584999998,0.16659691309061472,0.054710836062266247,0.007501425125071628,9.883802484118247,0.17551090682023457,0.17357770499999997,0.02029976550000001,0.13405690549999782
102422.0,0.47993745099999996,-0.585260872,9.943354701,0.180985407444056,0.0792257307357786,0.013896311504378853,9.972119782426672,0.1980543904884105,0.080218397,0.05864376699999996,0.08865211600000222
102432.0,0.503865677,-0.469150136,10.072606347999999,0.15886859516278384,0.08455422094211729,0.008834856673595296,10.096107225675516,0.1801851866846103,0.023928225999999997,0.11611073599999999,0.12925164699999847
102442.0,0.6176228169999999,-0.31950065699999997,10.176752971,0.11836648454100344,0.08188910317432195,-0.008218755447641297,10.200482324216821,0.14416656277514037,0.11375713999999992,0.14964947900000003,0.10414662300000188
102452.0,0.8079698935,-0.320677455,10.128896518999998,0.09545205679156989,0.09494591130849153,-0.03353301091856705,10.166129748904346,0.13874539286479304,0.19034707650000016,-0.0011767980000000344,-0.0478564520000031
102462.0,1.0150863415,-0.3243059155,10.0881989215,0.10717543337721579,0.09920975067111368,-0.05698150941911087,10.144325117388632,0.15676747291290621,0.20711644799999995,-0.003628460499999986,-0.040697597499997684
102472.0,1.3202692894999999,-0.2788030595,10.140860632,0.13781817905448024,0.08135677775246368,-0.07137174910180412,10.23024420531743,0.17523327975589403,0.3051829479999999,0.04550285599999998,0.05266171050000068
102482.0,1.705768701,-0.18063849299999998,10.420938556,0.16339946990096113,0.07496189137315645,-0.08735896505007218,10.561166484550458,0.1998756130616633,0.3854994115000001,0.09816456650000002,0.28007792399999865
102492.0,2.111567878,0.0181423025,10.672381061999998,0.1639317953228194,0.10267422923632241,-0.10894170658023405,10.879281482665922,0.22199983400815743,0.4057991769999998,0.1987807955,0.2514425059999983
102502.0,2.491085233,0.109049948,10.683168377,0.13861753985189362,0.13278464949172858,-0.13159084428336448,10.970300091636613,0.2327288890413934,0.3795173550000004,0.0909076455,0.01078731500000174
102512.0,2.84785116,0.056388237499999994,10.5263600435,0.10717543337721579,0.13384930033544512,-0.1457140485905026,10.904938864030143,0.22502176045111183,0.35676592699999965,-0.0526617105,-0.156808333499999
102522.0,3.1362647365,-0.0979684335,10.370728508,0.07813140929477816,0.09041678189956624,-0.1395861975867505,10.835024877591179,0.18374987924945482,0.2884135765,-0.154356671,-0.1556315355000013
102532.0,3.4056534119999995,-0.22251288849999998,10.4473184445,0.04535587127157664,0.03312634920285237,-0.12306491088737218,10.990652839072197,0.13527557932616666,0.2693886754999997,-0.12454445499999998,0.07658993650000134
102542.0,3.7325090564999996,-0.39128533499999996,10.592162665,0.022174408146587957,0.014208725440485837,-0.10414554179575364,11.237376828782617,0.10742386201969115,0.32685564450000015,-0.16877244649999998,0.14484422049999957
102552.0,4.1730237745,-0.49906041849999994,10.6436475775,0.02110801197361942,0.059239965471191536,-0.08069704329520981,11.443357133196413,0.10230803719696412,0.4405147180000002,-0.10777508349999998,0.051484912499999425
102562.0,4.4542784965,-0.701371608,10.544306213,0.04668930282010031,0.1359820926813822,-0.02527236756887789,11.467995141715104,0.14597846789979513,0.2812547219999999,-0.20231118950000004,-0.09934136449999897
102572.0,4.657864550499999,-0.794730916,10.394656734,0.08665734269077045,0.17701652872502088,0.07784866595595508,11.418239269578402,0.21190743562981373,0.20358605399999963,-0.09335930800000003,-0.1496494790000007
102582.0,4.723667172,-0.7611921729999999,10.328756045999999,0.11490375130504668,0.18767525446695027,0.20042139399426484,11.383129909381184,0.29764678458503613,0.06580262150000049,0.03353874300000015,-0.06590068800000104
102592.0,4.499781352499999,-0.6666560669999999,10.462911018,0.10477735098497559,0.17248739931609558,0.31553283948029887,11.408986348600845,0.3745546275148113,-0.22388581950000042,0.09453610599999995,0.13415497200000104
102602.0,4.143113492,-0.436788191,10.6197193515,0.05015203605605706,0.15783186958709922,0.39467130375347775,11.407655869459468,0.4280088361055144,-0.3566678604999991,0.22986787599999992,0.15680833350000078
102612.0,3.7312341919999996,-0.203389921,10.7574047175,-0.02552194965191308,0.17301972473795385,0.42211835157034056,11.387942409039725,0.45691475987857266,-0.4118793000000007,0.23339827,0.13768536599999948
102622.0,3.4212459855,0.0575650355,10.601773182,-0.10412983383248568,0.2033971803689152,0.4042653786516906,11.14027972849813,0.46437477499580104,-0.3099882064999995,0.2609549565,-0.15563153549999953
102632.0,3.473907696,0.294591766,10.090552517499999,-0.18140254113528262,0.19940037638184815,0.38161449561930816,10.675863857194349,0.46722266137072116,0.05266171049999979,0.23702673049999998,-0.5112206645000015
102642.0,3.5433387779999994,-0.08482752249999999,9.4560622625,-0.16781340757925478,0.14477506145292962,0.40533002949540714,10.098492903227125,0.4619670886468085,0.06943108199999948,-0.37941928849999995,-0.6344902549999993
102652.0,3.5433387779999994,-0.4763089905,9.2573795335,-0.0732200527796661,0.0690993304157075,0.48926640388231846,9.92376923237206,0.4995172745370196,0.0,-0.391481468,-0.19868272899999972
102662.0,3.464297179,-0.5241654425,9.572271064999999,0.014713125594312197,0.0038170350741115987,0.6126384927180415,10.193354585089974,0.6128270299043155,-0.07904159899999952,-0.047856451999999994,0.31489153149999893
102672.0,3.1913781095,-0.41285996499999994,10.0175910415,0.034964180905202404,-0.035088099282094005,0.74053971096269,10.521762108279992,0.7421945379550473,-0.2729190694999999,0.11130547750000003,0.44531997650000044
102682.0,2.6442651059999998,-0.196133,10.454477298999999,-0.02498962423005481,-0.05853659778263782,0.8447271406604915,10.785485696054884,0.8471215714214669,-0.5471130035000003,0.21672696499999994,0.43688625749999943
102692.0,1.912885149,0.030106415499999997,10.814773619999999,-0.13823705807495887,-0.0614670055967363,0.893222859256406,10.982684755621774,0.9059441226148763,-0.7313799569999997,0.22623941549999999,0.36029632099999986
102702.0,1.3190924914999997,0.1701453775,11.0015903025,-0.25867699376733155,-0.04041658948843269,0.8697743607558622,11.081694077832971,0.9083252316426366,-0.5937926575000003,0.140038962,0.18681668250000172
102712.0,1.092853076,0.48258524649999995,10.636488723,-0.3668612274522001,0.030728266810612165,0.7874384532930296,10.703369035979666,0.8692472055252395,-0.22623941549999982,0.312439869,-0.365101579500001
102722.0,1.299969524,0.8668097934999999,9.365154617,-0.41109310668549237,0.0690993304157075,0.6835180589707833,9.494598516090752,0.800605518821483,0.20711644800000006,0.3842245469999999,-1.2713341059999994
102732.0,1.4579546554999998,0.5855550715,8.090192050499999,-0.2898538101957063,0.0123429684701039,0.6558057211076174,8.241341755638269,0.7171113748875446,0.15798513149999982,-0.2812547219999999,-1.274962566500001
102742.0,1.2269099815,-0.1542586045,7.6724287605,0.012582078577627121,-0.09450783366624095,0.7298809852207606,7.771439178473584,0.7360817155129229,-0.23104467399999984,-0.739813676,-0.417763289999999
102752.0,0.7767847465,-0.2117255735,7.8807220065,0.35205385407828016,-0.17764484725573884,0.814084394983227,7.921742333893621,0.9045623306788165,-0.450125235,-0.05746696900000001,0.2082932460000002
102762.0,0.1471978165,0.25389416849999996,8.523547914,0.5396435874118828,-0.23120376601168882,0.8543194702294524,8.528598858442951,1.0365964210173053,-0.62958693,0.465619742,0.6428259074999998
102772.0,-0.8249353979999999,0.47660318999999995,9.344756785,0.5465725445423002,-0.3388539289454471,0.8607143566087596,9.39319692023941,1.0744267007486559,-0.9721332144999999,0.2227090215,0.8212088709999996
102782.0,-1.5539617589999999,0.40481851199999996,10.046324526,0.3896255568859621,-0.48167771229464706,0.8252754461470146,10.173854316717994,1.03194043195974,-0.729026361,-0.07178467799999999,0.7015677409999999
102792.0,-2.1763898344999997,0.3425462845,10.533518897999999,0.12076456693324364,-0.6162425976234099,0.7594590800543086,10.761460451224211,0.9854527457109035,-0.6224280754999998,-0.062272227499999944,0.4871943719999994
102802.0,-2.2434673204999998,0.2419300555,10.6795399165,-0.19792382783466095,-0.717764909553416,0.6896459099745355,10.915321735891366,1.0148752574358846,-0.06707748600000007,-0.10061622900000003,0.14602101850000082
102812.0,-1.6629136404999998,0.10189109349999999,9.942177903,-0.46252097842475726,-0.7587993455970548,0.6867155021604369,10.080801804697732,1.1230673547338887,0.58055368,-0.140038962,-0.7373620135000003
102822.0,-1.185231719,-0.4786625865,8.961709035999998,-0.5022237282491243,-0.7558689377829563,0.7906358964826833,9.052409676178083,1.2036077621586532,0.4776819214999999,-0.58055368,-0.9804688670000008
102832.0,-1.0164592725,-1.0832425589999999,8.4708862035,-0.2930512533853599,-0.7052404268411047,0.9851528416174512,8.600146334041458,1.2465027950665384,0.1687724465,-0.6045799724999998,-0.49082283249999925
102842.0,-1.3659682784999998,-1.1586556975,8.622889278499999,-0.013531537690712038,-0.620239401610477,1.1668800139936049,8.806961557341312,1.3215479502765357,-0.3495090059999999,-0.07541313850000009,0.15200307499999965
102852.0,-1.811288255,-0.7001948100000001,9.110181717,0.1855162821822333,-0.5832000242246532,1.2878540204370879,9.314850982780827,1.4258704489420928,-0.4453199765000002,0.4584608874999999,0.4872924385000008
102862.0,-2.3607548544999997,-0.355392996,9.555501693499998,0.25692817385683325,-0.5736076946556924,1.3171650798950807,9.849217241950372,1.4594388379047063,-0.5494665994999997,0.34480181400000004,0.44531997649999866
102872.0,-2.8359851135,-0.035794272499999995,9.7985104805,0.23028048683738384,-0.5970561931562361,1.2510816784268195,10.200730387104922,1.4052439526642864,-0.4752302590000004,0.3195987235,0.24300878700000084
102882.0,-3.1676460165,0.3138128,10.534695696,0.06320884419022664,-0.6538125551018399,1.1522244842646086,11.005102142488868,1.3263059516308837,-0.33166090299999995,0.3496070725,0.7361852155000008
102892.0,-3.199909895,0.361669252,10.545483010999998,-0.19419405922314908,-0.721494678164928,1.0299187916018537,11.026216029048712,1.272398766327797,-0.03226387849999979,0.047856451999999994,0.010787314999998188
102902.0,-2.88511643,0.12228892549999999,9.921780071,-0.3202295204974156,-0.7009765874784826,0.9286635150474029,10.33346849674632,1.206785418444879,0.3147934649999997,-0.23938032650000002,-0.6237029399999976
102912.0,-2.524820109,-0.21054877549999998,9.481265353,-0.24455553478944547,-0.6082489896492758,0.9044139104201936,9.813941107611841,1.1170222756807773,0.36029632099999986,-0.332837701,-0.4405147180000011
102922.0,-2.354772798,-0.253599969,9.893046586499999,-0.11132408100920632,-0.4579639237478001,0.93505840142671,10.172592522908642,1.0471190097337073,0.17004731100000026,-0.0430511935,0.4117812334999993
102932.0,-2.6361255865,-0.218884428,9.946885094999999,-0.005270894341022875,-0.2983518183236667,0.9129415891454379,10.292598874616361,0.9604706841000353,-0.2813527885,0.03471554099999999,0.05383850850000016
102942.0,-2.8145085499999998,-0.04412992499999999,9.747025568,0.1290252102829328,-0.15312995258222648,0.8473922584282869,10.145339484292741,0.8707295371759146,-0.17838296349999982,0.174754503,-0.1998595269999992
102952.0,-2.9928915135,0.166516917,9.772130592,0.2145603062646709,-0.05560444463928735,0.7591920446787535,10.221529425791903,0.7908859209718803,-0.17838296350000027,0.21064684199999997,0.025105024000000142
102962.0,-3.0754635064999998,0.18809154699999997,9.9948396135,0.20177053350605648,-0.01909913800457395,0.6637993290817513,10.458999622786825,0.6940501959896126,-0.08257199299999973,0.021574629999999984,0.22270902150000005
102972.0,-3.0623225954999995,-0.1075789505,10.051031717999999,0.1367535282107637,-0.019366173380129078,0.5899893550149111,10.507741503565004,0.605940603673654,0.013140911000000255,-0.29567049749999996,0.05619210449999912
102982.0,-2.967688423,-0.345782479,10.015139379,0.06960373056953387,-0.007108726043372904,0.5622770171517452,10.451304075549048,0.5666133225685925,0.09463417249999972,-0.23820352849999998,-0.03589233899999833
102992.0,-2.919831971,-0.38412648050000003,9.840384876,0.022706733568446227,0.009677850702308557,0.577731907678155,10.27161848978556,0.5782589503786386,0.047856451999999994,-0.03834400150000006,-0.17475450300000084
103002.0,-3.0515352805,-0.37569276149999997,9.6500377995,-0.01113345529847183,0.014208725440485837,0.6054442455413209,10.127992997181549,0.6057132788412563,-0.1317033095000002,0.008433719000000062,-0.19034707650000016
103012.0,-3.207166816,-0.29674922899999995,9.486070611499999,-0.02205921641595633,-0.012704251625266725,0.6070429671361477,10.01795960946777,0.6075764733658654,-0.15563153549999997,0.07894353250000002,-0.16396718800000087
103022.0,-3.106550587,-0.0812971285,9.457337126999999,-0.008468337530676487,-0.056403805436700746,0.5494872443931308,9.954822515063992,0.5524394389967383,0.10061622899999989,0.21545210049999997,-0.028733484500000017
103032.0,-2.873152317,0.028929617499999997,9.493229465999999,0.016311847189139004,-0.09850463765330797,0.43970428911343545,9.918530478532684,0.4508981058539534,0.2333982699999999,0.11022674599999999,0.035892339000000106
103042.0,-2.6085689,-0.1638691215,9.606986606,0.03922802026782455,-0.15046483481443115,0.32166069048405094,9.956187846906655,0.35727315025417644,0.2645834170000003,-0.192798739,0.11375714000000059
103052.0,-2.214733836,-0.3482341415,9.760166479,0.04668930282010031,-0.17924356885056564,0.22067244930515503,10.01434784094425,0.2881049771427955,0.3938350639999997,-0.18436502,0.1531798730000009
103062.0,-1.902293967,-0.5337759595,9.876277215,0.025904176758099837,-0.16885187848419142,0.14313096129755096,10.071965584698594,0.2228642082594602,0.3124398690000001,-0.18554181800000003,0.11611073599999955
103072.0,-1.6700724949999999,-0.7983593764999999,9.991211153,0.005653121447209634,-0.13341122269319455,0.11515333338808188,10.161241072646224,0.1763258413080079,0.2322214720000002,-0.2645834169999999,0.11493393800000007
103082.0,-1.3432168505,-0.9168237085,10.012785783,0.016578882564694135,-0.050542989808503795,0.11595269418549528,10.143997060142603,0.1275714719471067,0.32685564449999993,-0.11846433200000006,0.021574629999999928
103092.0,-1.1827800565,-0.9048595955,9.884710934,0.04402418505230497,0.04511850649330541,0.12394630215962932,9.996261791207836,0.1390557237827777,0.160436794,0.011964112999999998,-0.12807484900000077
103102.0,-1.0403874985,-0.8965239429999999,9.7553612205,0.07413460530771114,0.0893503857265977,0.13646903954268863,9.851559971387404,0.1791737421815089,0.14239255800000006,0.008335652500000013,-0.1293497134999999
103112.0,-0.8309174545,-0.817482344,9.7900767615,0.09278693902377454,0.10693632326969257,0.13566967874527522,9.859224320148458,0.19608940567681882,0.2094700439999999,0.07904159899999996,0.03471554100000063
103122.0,-0.6980373469999999,-0.7791383425,9.8128281895,0.08479333104964051,0.10134079768779874,0.12048182359442057,9.86842995471956,0.17881760562967608,0.13288010750000012,0.03834400149999995,0.022751427999999407
103132.0,-0.4861156405,-0.782766803,9.814004987499999,0.05708099318647455,0.08402189552025902,0.10742501546025099,9.85716623469912,0.14784469099905767,0.21192170649999986,-0.003628460499999986,0.0011767979999994793
103142.0,-0.385597478,-0.793554118,9.7649717375,0.026171212133654972,0.08828398955362918,0.10049780365908549,9.804748165425183,0.13630408539860486,0.10051816250000001,-0.010787314999999964,-0.04903324999999903
103152.0,-0.35441233099999997,-0.8066950289999999,9.665630372999999,0.012315043202071989,0.0901497465240111,0.10023076828353035,9.705708396487001,0.13536928749948823,0.031185147000000024,-0.013140910999999922,-0.09934136450000075
103162.0,-0.338917824,-0.713335721,9.562660547999998,0.005387831400906495,0.10080847226594047,0.0927694857312546,9.595217032384161,0.13710417313356635,0.01549450699999999,0.09335930799999992,-0.10296982500000063
103172.0,-0.40472044549999997,-0.6271352675,9.4070290125,0.0021886428820008896,0.09281486429180645,0.0818454699430221,9.436593247818026,0.12376619143112352,-0.06580262149999999,0.08620045349999994,-0.15563153549999775
103182.0,-0.3580407915,-0.622330009,9.33396947,0.012315043202071989,0.06270444403640027,0.06559121861919891,9.36154228294526,0.09157355268271783,0.04667965399999996,0.00480525850000002,-0.07305954250000113
103192.0,-0.23477120099999998,-0.5804556135,9.380649124,0.02856929452589518,0.01607273708161578,0.0461395241057221,9.401522441799765,0.056598526055937196,0.12326959050000003,0.04187439550000005,0.04667965400000007
103202.0,-0.05874183349999999,-0.5792788154999999,9.445373014,0.03816162409485602,-0.052941072200744003,0.03574783373934786,9.463302062318917,0.07441084797512754,0.17602936749999998,0.0011767980000000344,0.06472388999999978
103212.0,0.06815621749999999,-0.6834254384999999,9.576978256999999,0.04908738521234052,-0.10996272419265074,0.04853760649796231,9.60157425295579,0.12983555500480104,0.12689805099999998,-0.104146623,0.1316052429999992
103222.0,0.1830901555,-0.679796978,9.701522712,0.059479075578714756,-0.11982208913716672,0.06239377542954529,9.727033919329713,0.14760784765467627,0.114933938,0.003628460499999875,0.12454445500000055
103232.0,0.1279767825,-0.689407495,9.72427414,0.06081076179798643,-0.0902457396328708,0.07278546579591953,9.749521439583276,0.13091969410086599,-0.05511337299999999,-0.00961051699999993,0.022751428000001184
103242.0,0.0693330155,-0.7408924075,9.665630372999999,0.06640628737988026,-0.05613851539039761,0.07811395600225822,9.694232261194776,0.11688934098599361,-0.058643767,-0.05148491249999998,-0.05864376700000129
103252.0,-0.008433719,-0.738440745,9.5590320875,0.07413460530771114,-0.017235126363444004,0.07171906962295099,9.587515857162737,0.10457826845227305,-0.07776673449999999,0.0024516624999999515,-0.10659828549999872
103262.0,-0.030008348999999997,-0.6726381235,9.421346721499999,0.0823952486574003,0.0008848819307611251,0.06798930101143912,9.445375407728063,0.10682839074595428,-0.021574629999999997,0.06580262150000005,-0.13768536600000125
103272.0,0.07413827399999999,-0.5900661305,9.4093826085,0.11223863353725134,0.002750638901143063,0.06985331265256906,9.428157592826777,0.132229203133088,0.104146623,0.08257199299999995,-0.011964112999999443
103282.0,0.16867437999999998,-0.5828092094999999,9.484795747,0.15567115197313022,0.013409364643072434,0.06292610085140356,9.504181605138639,0.16844290660379052,0.094536106,0.007256921000000083,0.07541313850000009
103292.0,0.2752726655,-0.566039838,9.576978256999999,0.19857309031640286,0.02060361181979306,0.06132737925657675,9.597639744938611,0.2088464231542092,0.10659828550000003,0.016769371499999908,0.09218250999999889
103302.0,0.2668389465,-0.689407495,9.8116513915,0.22948112603997045,0.049647635902230695,0.06692290483847058,9.839460795483424,0.2441416600076117,-0.008433719000000006,-0.12336765699999996,0.23467313450000127
103312.0,0.19024901,-0.7229462379999999,10.073783145999998,0.23054752221293898,0.11439760582196833,0.0671899402140257,10.101482704112202,0.26599522605168757,-0.07658993650000001,-0.033538742999999926,0.2621317544999986
103322.0,0.2309466075,-0.689407495,10.2976689655,0.2012364627549462,0.21565462770567134,0.07012034802812418,10.323303984321093,0.3031829408139248,0.040697597500000016,0.033538742999999926,0.2238858195000013
103332.0,0.273997801,-0.703725204,10.520377987,0.15833626974092557,0.3614088188689698,0.08450884238156543,10.547447887856656,0.4035200777066827,0.04305119349999997,-0.014317709000000067,0.22270902150000005
103342.0,0.19858466249999998,-0.7336354865,10.640019117,0.10664310795535752,0.5228849359342331,0.12128118439183397,10.667130059456376,0.5472572835411249,-0.0754131385,-0.02991028249999994,0.11964112999999976
