timestamp,ax,ay,az,gx,gy,gz,acc_mag,gyro_mag,dax,day,daz
27492.0,-0.23261373800000001,-0.32460011499999997,9.8173392485,0.011931070766633236,0.08583703794233312,0.08348607943989676,9.825457969270586,0.12033400596920514,0.0,0.0,0.0
27502.0,0.15886772999999998,-0.663321806,9.859213644,0.04710469118207496,0.036274923173450144,0.09174672278958593,9.882779389017353,0.10932604047173522,0.391481468,-0.33872169100000005,0.041874395500000716
27512.0,0.3982480565,-0.6549861535,10.012393517,0.048169342025791505,0.021352358068898628,0.08961567577290085,10.041694693379517,0.10395757812941696,0.23938032650000002,0.008335652500000013,0.15317987299999913
27522.0,0.562313311,-0.49690295549999997,10.057896372999998,0.019392353318908994,0.03227811918638313,0.0962775975277632,10.085850894045526,0.10337947635374108,0.16406525450000004,0.15808319800000004,0.045502855999998815
27532.0,0.7885527264999999,-0.407172108,10.115363341999998,-0.027239353635875502,0.05492725688951355,0.11173248805417299,10.154219815853955,0.1274485575543435,0.22623941549999982,0.08973084749999999,0.057466969000000034
27542.0,0.9932175119999999,-0.3880491405,10.215979571,-0.05575105229645487,0.0911655281486718,0.13811139436881528,10.271480017829738,0.1746255726097605,0.2046647855,0.019122967499999977,0.10061622900000167
27552.0,1.1704236774999999,-0.40952570399999993,10.278153731999998,-0.04322656958414356,0.10715274409693987,0.1623592536667725,10.352683083419235,0.19927562353872705,0.1772061655,-0.021476563499999934,0.06217416099999795
27562.0,1.3428245845,-0.382067084,10.3608237915,-0.006188937527571893,0.09276424974349862,0.18900519535696994,10.454464250258178,0.21063350362684646,0.1724009070000001,0.027458619999999934,0.08267005950000161
27572.0,1.524737942,-0.314989598,10.4194675585,0.031115729904554905,0.044001495772029046,0.22497817656982505,10.53514824011777,0.23134281966456724,0.18191335750000004,0.06707748600000002,0.058643766999999514
27582.0,1.7749055835,-0.23477120099999998,10.554701261999998,0.059627428565134276,-0.005026548245743669,0.2689447657568142,10.705471782094557,0.2755212940092737,0.25016764150000004,0.080218397,0.13523370349999908
27592.0,1.988004088,-0.1330762405,10.593045263499999,0.07721511143748114,-0.0527246513734967,0.32436944148314617,10.778797590373895,0.3375760608586568,0.2130985045,0.10169496049999999,0.0383440015000005
27602.0,2.1544229384999998,-0.050406180999999994,10.601380916,0.07827976228119768,-0.08416675784817455,0.39045109762215546,10.818195612353614,0.40701821082578116,0.16641885049999972,0.0826700595,0.008335652500001345
27612.0,2.2597463595,0.039324666499999994,10.6193270855,0.05323254218582705,-0.10335141698609622,0.4746527620553699,10.857168497702464,0.4886823748278542,0.10532342100000003,0.08973084749999999,0.017946169500000053
27622.0,2.3627161845,-0.016867438,10.662476345499998,0.01033234917180643,-0.10681589555130495,0.5532606462359425,10.92113153923667,0.5635722985165684,0.10296982500000018,-0.05619210449999999,0.04314925999999808
27632.0,2.3711499035,-0.1138552065,10.6026557805,-0.04269424416228529,-0.10068804454755287,0.6214750947208889,10.865156440322673,0.6310247017017137,0.008433719000000117,-0.0969877685,-0.05982056499999899
27642.0,2.250233909,-0.19770206399999998,10.524790979499999,-0.08639379797371932,-0.09216036582230858,0.6734352918820121,10.764472300744139,0.68518064312197,-0.12091599450000023,-0.08384685749999998,-0.07786480100000048
27652.0,2.045471057,-0.317343194,10.423096018999999,-0.10664485328460951,-0.08976228343006837,0.7158014141449224,10.626645245283031,0.7292475963282611,-0.204762852,-0.11964113000000001,-0.10169496049999971
27662.0,1.8575756429999999,-0.4478697055,10.441042188499999,-0.10078229232716056,-0.10681589555130495,0.7424491011643719,10.614449421642574,0.7568337821536035,-0.18789541399999998,-0.1305265115,0.017946169500000053
27672.0,1.604956339,-0.5184775855,10.4804649215,-0.07253762904213634,-0.150515449362739,0.7539054423744626,10.615311998596846,0.7721981767433512,-0.252619304,-0.07060788000000001,0.03942273300000032
27682.0,1.372734867,-0.5616268455,10.488898640499999,-0.04136081261376162,-0.21659885083100028,0.7515073599822224,10.593244093258047,0.7831916056169335,-0.23222147199999998,-0.04314925999999997,0.008433718999999229
27692.0,1.186016251,-0.52563644,10.497234292999998,-0.025905922087351832,-0.29120818569525386,0.7389846225991631,10.57709109428614,0.7947147895019603,-0.18671861599999984,0.03599040549999999,0.008335652499999568
27702.0,1.017145738,-0.4694443355,10.379946759,-0.03603232240742293,-0.35382710859830646,0.7269942106379621,10.440223089385553,0.8093284458971054,-0.1688705130000001,0.056192104500000006,-0.11728753399999903
27712.0,0.982430197,-0.3533335995,10.175281973499999,-0.07573507223178993,-0.39273049762526,0.7171348456934461,10.22870358182048,0.8211305814781845,-0.03471554099999996,0.11611073599999999,-0.20466478550000033
27722.0,0.924963228,-0.2060377165,9.8185160465,-0.145281206936008,-0.3743451992847518,0.721131649680513,9.86414040193826,0.8253919150847444,-0.057466969000000034,0.147295883,-0.35676592699999965
27732.0,0.7106879255,-0.08159132799999999,9.464201782,-0.21589373781319457,-0.2928069072900807,0.7413827049914032,9.491198546162032,0.8258294655945041,-0.21427530249999993,0.1244463885,-0.35431426449999925
27742.0,0.41021216949999995,-0.14621715149999998,9.257085334,-0.2497356720093646,-0.16890249303249927,0.7587033524881951,9.267323365479191,0.8164108861984808,-0.3004757560000001,-0.06462582349999998,-0.20711644800000073
27752.0,-0.0338329425,-0.22163028999999998,9.319357561499999,-0.2238873457873286,-0.07590611449848539,0.7555059092985414,9.322053958893978,0.7916289918939098,-0.44404511199999996,-0.0754131385,0.06227222749999939
27762.0,-0.5078864035,-0.25987622499999996,9.599435485499999,-0.13968568135411416,-0.07084291433844984,0.7344537478609858,9.61637384316235,0.7509681190532502,-0.474053461,-0.03824593499999998,0.2800779240000004
27772.0,-0.845529363,-0.2527173705,9.834108619999999,-0.030702086871832252,-0.1553116141472194,0.707008445373375,9.873625389035473,0.7245172582185858,-0.3376429595,0.007158854499999978,0.2346731344999995
27782.0,-1.0226374619999998,-0.1952504015,9.969342323500001,0.05642998537548066,-0.279483063780356,0.6729012211309018,10.023557076262902,0.7308154210120297,-0.1771080989999998,0.05746696899999998,0.13523370350000263
27792.0,-1.1508103774999998,-0.069627215,9.950219356,0.09826552754578474,-0.39432921922008685,0.6459882440651492,10.016789790474162,0.7631857300192068,-0.12817291549999998,0.12562318649999998,-0.01912296750000131
27802.0,-1.2166129989999999,0.038147868499999994,9.8544083855,0.08467464866050489,-0.47027024030361214,0.6284023065220544,9.929298418187438,0.7894386321198343,-0.06580262150000005,0.10777508350000001,-0.09581097050000054
27812.0,-1.3243880825,0.0705098135,9.664061309,0.03458020846976365,-0.4835940838133368,0.6169442199827117,9.754642813090523,0.7846522792212799,-0.1077750835000002,0.03236194500000001,-0.19034707650000016
27822.0,-1.5242476095,-0.030106415499999997,9.4582197255,-0.030969122247387383,-0.46547407551913167,0.5972254900936796,9.580300493573153,0.757828138518754,-0.19985952699999987,-0.100616229,-0.20584158349999981
27832.0,-1.9815316989999998,-0.29341496799999994,9.2726779075,-0.07360402521510487,-0.4452230202082415,0.5396697673506626,9.486575556744745,0.703480311056061,-0.4572840894999999,-0.26330855249999996,-0.18554181799999903
27842.0,-2.1336328405,-0.46463907699999996,9.163726025999999,-0.06427698569244716,-0.42870347883811516,0.47039066802199975,9.420305369229027,0.6396761557380363,-0.15210114149999998,-0.171224109,-0.10895188150000124
27852.0,-2.3897825384999996,-0.42148981699999993,9.118223169999998,-0.023507839695111624,-0.432433247449627,0.37739428948798587,9.435608513767356,0.5744367517534921,-0.25614969799999976,0.04314926000000002,-0.04550285600000059
27862.0,-2.499911218,-0.4550285599999999,9.100277000499998,0.02765299666859816,-0.46014558531279304,0.2915939034599446,9.448367508417904,0.5454591207804796,-0.11012867950000027,-0.03353874299999998,-0.017946169500000053
27872.0,-2.6004293805,-0.3233252505,9.053597346499998,0.06628935031999662,-0.4737347188688209,0.22817561975947867,9.42520010891707,0.5299839387002122,-0.10051816250000023,0.13170330949999992,-0.04667965400000007
27882.0,-2.6771173834999997,-0.21319657099999997,9.089489685499998,0.08840616260126877,-0.46574111089468684,0.18234501893135957,9.477934005137138,0.5079174518486019,-0.07668800299999967,0.11012867950000002,0.035892339000000106
27892.0,-2.707027666,-0.08394492399999999,9.2534568735,0.1073255316928873,-0.4300351650573868,0.1655566968564261,9.641654922495368,0.4731363786616978,-0.029910282500000385,0.12925164699999997,0.16396718800000087
27902.0,-2.9224797665,0.0057859235,9.42222932,0.1259778654089507,-0.3908647406548781,0.18607478754287146,9.86505584480799,0.45085418332241917,-0.21545210049999985,0.08973084749999999,0.16877244650000023
27912.0,-3.2875813459999996,-0.046875787,9.580312518,0.15528717953769147,-0.38953305443560643,0.2276432943376204,10.12880922855799,0.47714942951195993,-0.36510157949999966,-0.0526617105,0.15808319799999992
27922.0,-3.5701109324999996,-0.15102241,9.751438560499999,0.20644801590140127,-0.414580274530977,0.25855307539044,10.385521356093998,0.5304217945123108,-0.28252958649999993,-0.104146623,0.1711260424999992
27932.0,-3.7915450894999996,-0.30184868699999995,9.947767693499998,0.2725314173696626,-0.43936045925079253,0.26175051858009357,10.650117787113786,0.5795035121408088,-0.22143415700000002,-0.15082627699999995,0.196329132999999
27942.0,-3.9149127464999998,-0.30665394549999997,10.123797061,0.31889608894889193,-0.4366970868122492,0.2353698669361993,10.858722088133167,0.5897440423088383,-0.12336765700000019,-0.00480525850000002,0.17602936750000175
27952.0,-3.945999827,-0.1809326925,10.2231384255,0.3122341671940296,-0.39699433698788217,0.18660711296472973,10.959754127754598,0.5384393126182642,-0.031087080500000308,0.12572125299999998,0.09934136450000075
27962.0,-3.9363893099999996,0.04412992499999999,10.357195331,0.24908291886911874,-0.2866790562863286,0.13997715133919722,11.080099429817901,0.40474780380209163,0.009610517000000485,0.22506261749999998,0.1340569054999996
28782.0,0.011571847,0.275174599,10.01847364,0.1499586893313528,-0.40205579181866574,0.1351809865547168,10.022258679706518,0.44990039716232527,3.9479611569999995,0.23104467400000003,-0.33872169099999994
