timestamp,ax,ay,az,gx,gy,gz,acc_mag,gyro_mag,dax,day,daz
159642.0,0.8189533415,-0.05707470299999999,9.529317938,0.062095324127454256,0.04597022716827865,-0.05336693253823062,9.564614077983759,0.09389952370985065,0.0,0.0,0.0
159652.0,1.113447041,-0.15161080899999999,9.626305706499998,0.046108108179186195,0.09260018879381116,-0.034182273400308945,9.69167228632457,0.10894576824882403,0.29449369949999993,-0.094536106,0.09698776849999824
159662.0,1.081085096,0.0314793465,9.6884798675,0.050637237588111485,0.1528210293046235,-0.010733774899765127,9.748660322167462,0.16134934382227364,-0.03236194499999989,0.1830901555,0.062174161000001504
159672.0,1.1516929759999999,0.13209557549999998,9.736434385999999,0.06449340651969446,0.17174039839624203,0.027637288705330207,9.805202726354901,0.18552084425421383,0.07060787999999985,0.10061622899999997,0.04795451849999921
159682.0,1.115800637,0.152395341,9.773503522999999,0.0724870144938285,0.17520313163219878,0.07000515629749256,9.838170892781925,0.20211686350276278,-0.035892338999999884,0.02029976550000001,0.037069136999999586
159692.0,1.1445341214999998,0.0410898635,9.8465630655,0.08900830119320682,0.1381654995756271,0.11024023154371784,9.912943605964324,0.19790172208724144,0.028733484499999795,-0.1113054775,0.07305954250000113
159702.0,1.2104348095,0.0291257505,9.850093459499998,0.10632720336074655,0.08887042018229926,0.14727960892954148,9.924230040576253,0.20222440249469067,0.06590068800000015,-0.011964112999999998,0.003530393999998438
159712.0,1.2618216555,0.082964259,9.8130243225,0.11218976431819551,0.04383743482234157,0.18378491556425489,9.894166125173802,0.2197388429443816,0.051386845999999986,0.0538385085,-0.03706913699999781
159722.0,1.2989888589999998,0.15720059949999998,9.7794855795,0.10579487793888828,0.020388936321797755,0.22242126921565336,9.866631759822484,0.2471426428642794,0.03716720349999991,0.07423634049999998,-0.03353874300000115
159732.0,1.3037941175,0.20633191599999998,9.705249238999999,0.09860063076216766,0.013194689145077132,0.25972593664778015,9.794606411260123,0.2781254148327679,0.004805258500000242,0.049131316499999994,-0.07423634050000061
159742.0,1.2918300045,0.1775984315,9.7543805555,0.09007295203692336,0.012128292972108596,0.29383316089025335,9.841153691763695,0.3075681365450926,-0.01196411300000011,-0.02873348449999999,0.049131316500000466
159752.0,1.2930068024999999,0.129643913,9.769973129,0.0858108580035532,0.003867649622419434,0.31808102018821055,9.85601588253952,0.32947533666251955,0.0011767979999999234,-0.04795451849999999,0.015592573500001095
159762.0,1.2702553745,0.0279489525,9.797431749,0.07755021465386404,-0.0075886915876713455,0.33673335390427395,9.879473606255809,0.3456312712479792,-0.02275142799999985,-0.1016949605,0.0274586199999991
159772.0,1.2978120610000001,-0.034323275,9.7879192985,0.058098520140387244,-0.01744805653218731,0.35298760522809713,9.87364463745949,0.3581621450738762,0.027556686500000094,-0.0622722275,-0.009512450499999048
159782.0,1.2845730834999998,-0.034323275,9.6884798675,0.036514033280973364,-0.02384294291149454,0.37297337049268425,9.773328411396612,0.37551417503177953,-0.01323897750000036,0.0,-0.09943943100000041
159792.0,1.2606448575,-0.082179727,9.592766963499999,0.02319193510050065,-0.02944021382264035,0.39802059058805483,9.675595949619225,0.3997811683605077,-0.023928225999999775,-0.047856451999999994,-0.09571290400000088
159802.0,1.207983147,-0.1205237285,9.502938049499999,0.023991295897914055,-0.03823318259418778,0.42813101084346106,9.580166012403042,0.4305037990261939,-0.052661710500000014,-0.0383440015,-0.08982891399999993
159812.0,1.1098185805,-0.10140076099999999,9.426348113,0.03944618642432384,-0.042495276627557935,0.4641039920563162,9.491997584460979,0.46771184034796937,-0.09816456649999994,0.019122967500000004,-0.07658993649999957
159822.0,0.9853721919999999,-0.082179727,9.414383999999998,0.06422637114413933,-0.044895104349050134,0.5067371496947817,9.466168071809873,0.5127603105015524,-0.12444638850000012,0.019221033999999998,-0.01196411300000122
159832.0,0.862004535,-0.081002929,9.439489023999998,0.09353743060213211,-0.041962951205699664,0.5536341466958693,9.479112106473032,0.5630460980996174,-0.12336765699999996,0.0011767979999999928,0.025105024000000142
159842.0,0.7590347099999999,-0.16239812399999998,9.502938049499999,0.1207174430434398,-0.036634460999360983,0.5930716064739331,9.53458643121443,0.6063404284667414,-0.10296982500000007,-0.08139519499999998,0.06344902550000064
159852.0,0.6789143795,-0.23663446449999997,9.556874624499999,0.13990210218136148,-0.030771900041912024,0.620516908961544,9.583880904565387,0.6368365114643967,-0.08012033049999989,-0.0742363405,0.05393657499999982
159862.0,0.5867318695,-0.320481322,9.57717439,0.1425672199491568,-0.02410997828704967,0.6381028465046389,9.60048081404831,0.6542797153927027,-0.09218251,-0.08384685750000004,0.020299765500000788
159872.0,0.4872924384999999,-0.3778502245,9.623854044,0.13723698441356613,-0.015584044891057369,0.6450318036350563,9.643588096397997,0.6596536061045901,-0.09943943100000008,-0.057368902499999985,0.04667965400000007
159882.0,0.443064447,-0.45689182349999996,9.694461923999999,0.13510593739688104,-0.012119566325848624,0.6343730778931269,9.715330577930034,0.6487138815868024,-0.04422799149999995,-0.07904159899999996,0.07060787999999896
159892.0,0.45257689749999996,-0.5394638165,9.704072441,0.13830338058653466,-0.012918927123262028,0.6079924262492327,9.729587298423256,0.6236581709046299,0.009512450499999991,-0.08257199300000001,0.009610517000000485
159902.0,0.5184775855,-0.520340849,9.729177465,0.1361723335698496,-0.018514452705155848,0.5736199119604564,9.756867722341415,0.5898520939916646,0.06590068800000004,0.019122967499999977,0.025105024000000142
159912.0,0.6836215714999999,-0.44129925,9.680144214999999,0.12791169022016044,-0.024642303708907937,0.5445741425487667,9.71428203750893,0.5599371753686165,0.1651439859999999,0.07904159900000002,-0.049033250000000805
159922.0,0.9051537949999999,-0.3192064575,9.5796260525,0.11512191746154597,-0.026508060679289874,0.5328507659631209,9.627587000949372,0.5457890361197122,0.22153222350000001,0.12209279249999999,-0.10051816249999845
159932.0,1.136198469,-0.20191892349999999,9.461063653999998,0.11272208974005377,-0.022778292067777994,0.5445741425487667,9.531182700885822,0.5565843303917334,0.23104467400000006,0.117287534,-0.11856239850000172
159942.0,1.320563489,-0.0834545915,9.332988805,0.1255136078279202,-0.009721483933608416,0.5824128807320037,9.426321267152822,0.5958631861781726,0.18436502,0.11846433199999999,-0.128074848999999
159952.0,1.4546203944999998,-0.022359162,9.310237377,0.14096849835433,0.021987657916624565,0.6418343604454028,9.423212851268325,0.657500510172648,0.13405690549999982,0.06109542949999999,-0.022751427999999407
159962.0,1.4306921684999998,-0.0140235095,9.2479651495,0.16308356530635015,0.048633599606821995,0.7105811343522073,9.357987825712987,0.7306757316217755,-0.023928225999999997,0.008335652499999999,-0.06227222749999939
159972.0,1.3840125145,-0.081002929,9.316219433499999,0.19479270715658314,0.04383743482234157,0.77746215128863,9.418810787351141,0.8026912956669818,-0.04667965399999985,-0.0669794195,0.06825428399999822
159982.0,1.2845730834999998,-0.18161915799999998,9.3713328065,0.2326314453398202,0.002535963403147761,0.8272913014330682,9.460707800983418,0.8593804267599394,-0.09943943100000019,-0.10061622899999997,0.055113373000001076
159992.0,1.194842236,-0.221041891,9.4754794295,0.2752646029782857,-0.06354743806511354,0.8576687570640295,9.553073741230305,0.9029975500416321,-0.08973084749999982,-0.039422733000000015,0.1041466230000001
160002.0,1.161303493,-0.2270239475,9.531671534,0.3107052587692825,-0.13495932973971353,0.8789844632186362,9.60483877572437,0.9420007776485291,-0.03353874300000004,-0.005982056499999999,0.05619210449999912
160012.0,1.205629551,-0.172008641,9.6047310765,0.3269595100931057,-0.18878353854196664,0.892308306728361,9.681631507070902,0.968894142784022,0.044326058,0.0550153065,0.07305954250000113
160022.0,1.240345092,-0.09414383999999999,9.609536335,0.3250937531227238,-0.21996035497034136,0.8995025539050816,9.68971142932253,0.981413954740741,0.03471554100000018,0.077864801,0.004805258499999354
160032.0,1.3073245115,-0.024712757999999998,9.623854044,0.30857246642334546,-0.23541524549675116,0.9050980794869754,9.712274437998127,0.984804467058255,0.06697941949999997,0.06943108199999999,0.014317709000000178
160042.0,1.334881198,0.044718324,9.613066729,0.29285228585063255,-0.24074373570308982,0.9149574444314914,9.705408774362986,0.9903873649884805,0.027556686499999872,0.06943108199999999,-0.010787314999999964
160052.0,1.2978120610000001,0.12366185649999999,9.603554278499999,0.2869897248931836,-0.24287652804902693,0.9309446603797594,9.691638828419357,1.0039970471873911,-0.03706913699999981,0.0789435325,-0.009512450500000824
160062.0,1.2822194875,0.14405968849999998,9.656215989,0.2920529250532191,-0.2458069358631254,0.9511957156906495,9.742040198756866,1.0249337784943995,-0.015592573500000206,0.02039783199999999,0.05266171050000068
160072.0,1.3025192529999998,0.1248386545,9.651410730499999,0.3013782192466249,-0.2527341476642909,0.9725131671745084,9.739705857103877,1.0490401521198585,0.0202997654999999,-0.019221033999999984,-0.0048052585000011305
160082.0,1.3792072559999997,0.1201314625,9.717213352,0.3075078155796289,-0.2591307793728501,0.9930312578609538,9.815338993207137,1.0713640354939324,0.0766880029999999,-0.004707191999999999,0.06580262150000138
160092.0,1.406665876,0.13925443,9.750752095,0.3112375841911408,-0.2601954302165666,1.0130152777962889,9.852678168961186,1.0912242889376198,0.02745862000000021,0.019122967500000018,0.03353874299999937
160102.0,1.449815136,0.129643913,9.8477398635,0.31230398036410933,-0.256997987026913,1.031402321466049,9.954735149260358,1.1078684444520956,0.04314926000000008,-0.009610517000000013,0.09698776850000002
160112.0,1.47492016,0.102185293,9.926781462500001,0.3104382233937274,-0.26659031659587384,1.0444591296002186,10.036275281034971,1.1217562840705588,0.02510502399999992,-0.027458620000000003,0.07904159900000174
160122.0,1.4606024509999997,0.1105209455,10.005724995,0.30670845478221553,-0.28231224249783876,1.0556501807640062,10.112373958414965,1.1349747057296615,-0.014317709000000178,0.008335652499999999,0.07894353249999853
160132.0,1.4581507884999998,0.13209557549999998,10.0309280855,0.3011111838710697,-0.29829945844610684,1.0644431495355537,10.137217133885539,1.145726725949363,-0.0024516624999999515,0.021574629999999984,0.025203090499999803
160142.0,1.4342225624999998,0.241047457,10.0703508185,0.30031182307365634,-0.31109097653397333,1.075101875277483,10.174825003063878,1.1587962845055402,-0.023928225999999997,0.10895188150000001,0.03942273300000032
160152.0,1.406665876,0.3296015065,10.107518021999999,0.30297694084145166,-0.3089581841880362,1.094820605166515,10.21025301375263,1.177235041848308,-0.027556686499999872,0.08855404949999998,0.037167203499999246
160162.0,1.344491715,0.38108641899999995,10.178125901999998,0.30910653717445574,-0.2961684114294218,1.116403346696677,10.273613371517012,1.1956667645159964,-0.06217416099999995,0.05148491249999998,0.07060787999999896
160172.0,1.2737857685,0.3739275645,10.259521097,0.3125692704104125,-0.27218758750701966,1.1326575980205,10.345053172763981,1.2061089776431306,-0.07070594649999995,-0.007158854499999978,0.08139519500000247
160182.0,1.2151420015,0.39540412799999997,10.372101439,0.3072407802040738,-0.24181013187605838,1.1414505667920476,10.450521650575856,1.2065564360311587,-0.05864376699999996,0.02147656349999999,0.11258034199999933
160192.0,1.1481625819999999,0.4025629825,10.489388972999999,0.29285228585063255,-0.2234248335355501,1.1401188805727758,10.559716629553947,1.1981453081353899,-0.06697941950000019,0.007158854500000034,0.11728753399999903
160202.0,1.1768960665,0.41462516199999994,10.625897540999999,0.26727099500415163,-0.22102675114330989,1.130526551003815,10.698911015993007,1.182529869396988,0.028733484500000017,0.012062179499999937,0.136508568
160212.0,1.2043546864999999,0.4241376124999999,10.6785592515,0.23316377076167846,-0.21889395879737283,1.1217318369030156,10.754626474825983,1.16643140523376,0.02745861999999999,0.009512450499999991,0.05266171050000068
160222.0,1.1553214365,0.462481614,10.673753992999998,0.19799015034623674,-0.2186286687510697,1.1148046251018502,10.74605421389674,1.1531643189860095,-0.04903324999999992,0.03834400150000006,-0.0048052585000011305
160232.0,1.126587952,0.4564995575,10.615110226,0.16015315749225167,-0.21809459799995945,1.1094743895662593,10.68448208242772,1.1419928671558879,-0.028733484500000017,-0.005982056499999999,-0.05864376699999774
160242.0,1.091872411,0.4002093865,10.506158344499998,0.11911872144861299,-0.20610418603875838,1.1022801423895388,10.570322420562798,1.1276922087203374,-0.03471554099999996,-0.056290171,-0.10895188150000301
160252.0,1.0392107005,0.3678474415,10.4271167455,0.08634318342541147,-0.18718481694713984,1.098817409153582,10.485229336764089,1.117986135727344,-0.052661710500000014,-0.032361945,-0.07904159899999819
160262.0,0.9937078444999999,0.28890390899999996,10.318164864,0.065559802692663,-0.17306335796925373,1.0956199659639283,10.369929937542512,1.1111400107184937,-0.045502856000000036,-0.07894353250000002,-0.10895188149999946
160272.0,0.967327956,0.24340105299999998,10.225982354,0.06449340651969446,-0.16693376163624965,1.092687812820578,10.274516171157648,1.1072456532067132,-0.02637988849999995,-0.04550285599999998,-0.09218251000000066
160282.0,0.9566387074999999,0.24575464899999996,10.167338587,0.08074765784351766,-0.16640143621439138,1.0881586834116526,10.215200776631438,1.1037658005689464,-0.010689248500000081,0.0023535959999999856,-0.058643766999999514
160292.0,0.9686028204999999,0.22300322099999997,10.076430941499998,0.10179807395182126,-0.15707439669173368,1.0897574050064793,10.125333692243208,1.1057153411809155,0.011964112999999998,-0.02275142799999999,-0.09090764550000152
160302.0,0.9817437314999999,0.17161637500000002,10.1015359655,0.11672063905637278,-0.13575869053712694,1.0884239734579557,10.150581352651567,1.1030507130844385,0.013140911000000033,-0.05138684599999996,0.02510502400000192
160312.0,0.9219231665,0.10571568699999999,10.188913217,0.12338081548198315,-0.11950443921330374,1.0820290870786486,10.231083553317534,1.0955779670589123,-0.05982056499999999,-0.06590068800000003,0.08737725149999953
160322.0,0.8727918499999999,0.0985568325,10.273936872499998,0.12258145468456974,-0.1245658940440873,1.067108267303349,10.311413963311429,1.0813246178362645,-0.04913131650000002,-0.007158854499999992,0.0850236554999988
160332.0,0.8991717384999999,0.14759008249999997,10.294236638,0.11565424288340424,-0.14588334552794602,1.0415269764568682,10.33448598658448,1.05803416631352,0.02637988849999995,0.04903324999999997,0.020299765500000788
160342.0,0.9470281905,0.299691224,10.303847155,0.10392912096850634,-0.18238865216265945,1.0204765603485646,10.351615497928133,1.0418441787733115,0.047856452000000105,0.1521011415,0.009610517000000485
160352.0,1.0403874985,0.4827813795,10.273936872499998,0.09646958374548258,-0.21436482938844753,1.0162127209859424,10.337759083454308,1.0430469572173717,0.09335930799999992,0.18309015550000002,-0.029910282500001273
160362.0,1.1516929759999999,0.6983315465,10.2092129825,0.09993231698143933,-0.2364816416697197,1.027138482103427,10.297674173416606,1.058736745485778,0.11130547749999997,0.21555016699999996,-0.06472388999999801
160372.0,1.2582912615,0.8119906199999999,10.1350747085,0.10632720336074655,-0.24021141028123155,1.0553831453884512,10.24511420202877,1.087584745835393,0.10659828550000006,0.11365907349999993,-0.07413827400000095
160382.0,1.29055514,0.8264063955,10.0895718525,0.11032400734781357,-0.21996035497034136,1.0878916480360976,10.205289817867204,1.1153753548571241,0.03226387850000001,0.014415775500000061,-0.045502855999998815
160392.0,1.2139652035,0.8036549674999999,10.107518021999999,0.11458784671043572,-0.19091633088790375,1.1243969546708108,10.211831049677183,1.1462320583923777,-0.07658993650000001,-0.022751428000000073,0.017946169499998277
160402.0,1.101482928,0.6898978275,10.125464191499999,0.11512191746154597,-0.17412800881297028,1.1481124885469098,10.208538031785618,1.1669344050505028,-0.1124822754999999,-0.11375713999999992,0.017946169500000053
160412.0,0.9697796185,0.6001669799999999,10.1158536745,0.1097916819259553,-0.1674678323873599,1.1558390611454887,10.179939512405538,1.1730573828992066,-0.13170330949999998,-0.08973084750000004,-0.009610516999998708
160422.0,0.781786138,0.5450536069999999,10.0417154005,0.09646958374548258,-0.1605388752569424,1.1547744103017723,10.086839008565148,1.1698645433316615,-0.1879934805000001,-0.055113372999999966,-0.07413827400000095
160432.0,0.6465524345,0.5390715505,10.028476423,0.08767486964468314,-0.15147887110983985,1.141982892213906,10.063745205130306,1.1553171241131852,-0.13523370349999997,-0.005982056499999944,-0.013238977499998583
160442.0,0.5842802069999999,0.5845744065,10.050051053,0.09247103442916356,-0.1634692830710409,1.126795037063051,10.083979212837223,1.1423397718131336,-0.062272227500000055,0.045502856000000036,0.021574629999999928
160452.0,0.54721107,0.6432181734999999,10.0321048835,0.10606191331444341,-0.2007739505031677,1.1118742172877516,10.067586501609796,1.1348231508591191,-0.03706913699999992,0.05864376699999985,-0.017946169500000053
160462.0,0.5759445544999999,0.778451877,9.945904429999999,0.11085807809892383,-0.24021141028123155,1.1009484561702672,9.99293322230048,1.1322890700933133,0.028733484499999906,0.13523370350000008,-0.08620045350000183
160472.0,0.6238010064999999,0.8239547329999999,9.807042266,0.10339679554664807,-0.2561986262294996,1.1022801423895388,9.86134408206376,1.136375882231535,0.047856451999999994,0.045502855999999925,-0.13886216399999896
160482.0,0.650180895,0.8371937104999999,9.646605472,0.08767486964468314,-0.24527461044126714,1.1121395073340548,9.70467030030099,1.142235002557513,0.02637988850000006,0.013238977500000026,-0.16043679400000066
160492.0,0.5747677565,0.8419009024999999,9.457435193499999,0.08367806565761614,-0.21409779401289242,1.1180020682915035,9.51221507025544,1.141388850820555,-0.07541313849999998,0.004707192000000027,-0.18917027850000068
160502.0,0.46218741449999995,0.8766164434999999,9.3509349745,0.09886766613772278,-0.177592487378179,1.1177350329159486,9.403300404244463,1.1360658038988347,-0.11258034200000006,0.03471554099999996,-0.10650021899999906
160512.0,0.37245656699999996,0.928101356,9.2132496085,0.12204912926271147,-0.12243484702740222,1.1132059035070232,9.26736555714923,1.1265494509000913,-0.08973084749999999,0.05148491250000009,-0.13768536599999948
160522.0,0.24908890999999997,0.9676221554999999,9.099590534999999,0.14469826696584187,-0.045427429770908405,1.104678224781779,9.154282376328634,1.1150404567303966,-0.12336765699999999,0.03952079949999987,-0.11365907350000093
160532.0,0.0132389775,0.9581097049999999,9.086351557499999,0.17374229104827954,0.04570319179272351,1.0892233342553692,9.136735418289351,1.1039395985855074,-0.23584993249999997,-0.009512450499999936,-0.01323897750000036
160542.0,-0.19024901,0.8395473065,9.202462293499998,0.20198869966255575,0.13843253495118224,1.0556501807640062,9.242637428188267,1.0836790602717483,-0.2034879875,-0.11856239849999994,0.11611073599999955
160552.0,-0.3925601995,0.715100918,9.366527547999999,0.22223975497344595,0.21996908161660136,1.0004925404132294,9.40198442567306,1.0482185978985612,-0.2023111895,-0.1244463885,0.16406525450000053
160562.0,-0.5924197265,0.727065031,9.623854044,0.23289673538612332,0.2604711922383817,0.932278091928283,9.669444211114955,0.9956046263598006,-0.19985952699999998,0.011964112999999998,0.257326496000001
160572.0,-0.7025484059999999,0.7737446849999999,9.865686033,0.23423016693464702,0.24821374490162557,0.8723242867930259,9.920887863597196,0.9367088638361885,-0.11012867949999994,0.04667965399999996,0.24183198899999958
160582.0,-0.7516797224999999,0.8503346214999999,10.050051053,0.22383847656827274,0.19305610455084876,0.8272913014330682,10.113931853717705,0.8785130736213168,-0.04913131650000002,0.07658993650000001,0.18436502000000132
160592.0,-0.801987837,1.0395048999999998,10.087120189999998,0.21824295098637894,0.10112786751905545,0.7939834379880084,10.172204709664742,0.8296183044288815,-0.050308114500000056,0.1891702784999999,0.03706913699999781
160602.0,-0.7767847465,1.2812388224999998,10.05966157,0.22277208039530422,0.003335324200561164,0.7732000572552599,10.170632151720516,0.8046594638297072,0.025203090500000025,0.24173392249999992,-0.0274586199999991
160612.0,-0.7193177774999999,1.444127279,10.018963972499998,0.22943400215016657,-0.06514615965994035,0.7710672649093229,10.148032358306335,0.8071113371002944,0.057466969000000034,0.16288845650000017,-0.04069759750000124
160622.0,-0.652338358,1.4835500119999998,9.982973567,0.21930760183009548,-0.08779529736307076,0.7761304650693585,10.113665369728427,0.8112843750919381,0.06697941949999997,0.03942273299999988,-0.03599040549999799
160632.0,-0.6857790345,1.4620734485,9.913542484999999,0.1969254995025202,-0.07580314007261772,0.7737323826771182,10.044216059746445,0.801989755796417,-0.033440676500000044,-0.021476563499999823,-0.06943108200000125
160642.0,-0.7995361745,1.3327237349999999,9.932763519,0.17693973423793313,-0.04969126913353056,0.7558794097584682,10.053616352961939,0.7779013908440464,-0.11375714000000003,-0.12934971350000013,0.01922103400000097
160652.0,-0.9000543369999999,1.1687565469999999,9.917170945499999,0.15882147127298,-0.03583510020194757,0.7119128205714791,10.02628391967718,0.730293282344728,-0.1005181624999999,-0.16396718799999999,-0.015592573500001095
160662.0,-1.0042990265,1.0634331259999998,9.852545122,0.14922914170401916,-0.03583510020194757,0.6434330820402295,9.960529701233213,0.6614828963805418,-0.1042446895000001,-0.10532342100000003,-0.06462582349999835
160672.0,-1.105993987,1.0717687784999999,9.797431749,0.1556240280833264,-0.044095743551636736,0.5661586294081805,9.917740664594973,0.5888114013583646,-0.10169496049999993,0.008335652500000013,-0.055113373000001076
160682.0,-1.1838587879999998,1.1759154015,9.786644434,0.1750757225968032,-0.05128999072835736,0.4830216158186827,9.927875298318009,0.5163255302033775,-0.07786480099999982,0.1041466230000001,-0.010787314999999964
160692.0,-1.2365204985,1.2872208789999997,9.795078153,0.20012294269217382,-0.040097194235317726,0.3990869867610234,9.956378686948488,0.4482492612144644,-0.052661710500000236,0.11130547749999975,0.008433719000001005
160702.0,-1.2172994645,1.4225526489999998,9.877650145999999,0.2155778332185836,-0.0025272367568877894,0.32234485955083275,10.053529053631998,0.38779685091512917,0.01922103400000008,0.13533177000000007,0.0825719929999984
160712.0,-1.1682662145,1.529052868,9.925506597999998,0.21184631927781972,0.05929232534875137,0.2533310502684729,10.110317989461196,0.33551611565906886,0.04903324999999992,0.10650021900000017,0.04785645199999955
160722.0,-1.1048171889999998,1.6858612015,10.063191964,0.19612613870510678,0.1232429344710756,0.19950509613696782,10.26306881571721,0.305706667518125,0.0634490255000002,0.15680833350000012,0.13768536600000125
160732.0,-1.058137535,1.772061655,10.1350747085,0.172677640204563,0.18479720653041162,0.17046107205453018,10.343094164657575,0.3049992656614764,0.04667965399999985,0.08620045349999983,0.07188274449999987
160742.0,-1.06892485,1.8104056565,10.196072071499998,0.14070146297877487,0.2367574036915348,0.16060170711001423,10.410574175484125,0.31881637068032553,-0.010787314999999964,0.03834400150000006,0.06099736299999847
160752.0,-1.1431611904999999,1.7637260025,10.301395492500001,0.1004663877325496,0.253011655015358,0.16433322105077808,10.513624304313872,0.31798396214048497,-0.07423634049999994,-0.04667965400000007,0.10532342100000314
160762.0,-1.2245563855,1.6894896619999997,10.3900476085,0.05596572779445017,0.22796268959073535,0.1749919467927075,10.597499845065828,0.2927820554188836,-0.08139519500000003,-0.07423634050000016,0.08865211599999867
160772.0,-1.3430207174999997,1.6584025815,10.4498681735,0.015997687923780025,0.15255399392906838,0.1821861939694281,10.665540240113874,0.2381605684316423,-0.11846433199999984,-0.031087080499999642,0.05982056500000077
160782.0,-1.4149034619999998,1.526699272,10.4834069165,-0.014912093129039553,0.05636191753465288,0.1909791627409755,10.688057964421084,0.1996799360750002,-0.0718827445000001,-0.13170330949999998,0.03353874299999937
160792.0,-1.489041736,1.3566519609999999,10.521750918,-0.025038493449110653,-0.052089351525770766,0.18884811572429044,10.712842396641001,0.19749389233389336,-0.07413827400000006,-0.17004731100000026,0.0383440015000005
160802.0,-1.5561192219999997,1.2669211135,10.5659789095,-0.01731017552127976,-0.17972353439486408,0.16699659348932142,10.754836421671357,0.24594319106045012,-0.06707748599999985,-0.08973084749999982,0.044227991499999675
