timestamp,ax,ay,az,gx,gy,gz,acc_mag,gyro_mag,dax,day,daz
35402.0,0.10973641349999999,-0.8093428245000001,10.727102169,0.011398745344774967,-0.2629635224102297,0.13358226495989,10.758150344375283,0.2951676930587842,0.0,0.0,0.0
35412.0,0.022359162,-0.16534011899999998,10.103399228999999,-0.018446384864328067,-0.2925398719145255,0.10773393873785397,10.104776754962677,0.31229224667016886,-0.08737725149999999,0.6440027055,-0.6237029400000011
35422.0,0.5371102205,-0.592713926,10.308162080999999,-0.07093890744730952,-0.2738875381984622,0.11199777810047612,10.339149030515332,0.3042864020453026,0.5147510585,-0.42737380699999994,0.204762852
35432.0,0.5862415369999999,-0.47660318999999995,10.208722649999999,-0.09998293152974716,-0.2712241657599188,0.14770372393777612,10.236642412678354,0.32461596503334955,0.04913131649999991,0.11611073599999999,-0.09943943100000041
35442.0,0.715493184,-0.49219576349999994,10.1082044875,-0.1111739826935348,-0.2816158561262931,0.1927367092977338,10.14544159349769,0.35890748663214944,0.12925164700000003,-0.015592573499999984,-0.10051816249999845
35452.0,0.865142663,-0.569962498,10.101045632999998,-0.09731781376195182,-0.2664262556461864,0.24149946326920338,10.154036239664377,0.3725261028872558,0.14964947900000003,-0.07776673450000005,-0.0071588545000018655
35462.0,0.9489895204999999,-0.5879086675,10.139291567999999,-0.06161186792465183,-0.24644223571085133,0.28333326011025545,10.200561318489111,0.3805358512624444,0.08384685749999987,-0.017946169500000053,0.03824593500000084
35472.0,0.9609536334999998,-0.5280881024999999,10.1992101995,-0.027504643682178642,-0.2221943764128941,0.32516880228055955,10.257982141889492,0.3947931057024326,0.011964112999999998,0.0598205650000001,0.05991863150000043
35482.0,1.025579457,-0.49817781999999994,10.261482427,-0.006721262949430163,-0.19661308556641321,0.3630057951345446,10.324631517036828,0.4128862895433125,0.06462582350000023,0.029910282499999996,0.062272227500001165
35492.0,1.1476722494999998,-0.520929248,10.332090307,-0.002457423586808016,-0.1670367360621173,0.3901840622466003,10.408679502496826,0.42444188360272517,0.12209279249999971,-0.022751428000000018,0.07060787999999896
35502.0,1.256624131,-0.508965135,10.4110338395,-0.020577431881013145,-0.12413654304809668,0.4099027921356323,10.498941628681969,0.4287815423071953,0.10895188150000013,0.011964112999999998,0.0789435325000003
35512.0,1.2529956704999998,-0.4143309625,10.529596238,-0.06107954250279356,-0.07590611449848539,0.4322866397924595,10.611977442120844,0.4431299895895824,-0.003628460500000097,0.09463417249999995,0.11856239849999994
35522.0,1.1967054995,-0.395207995,10.576275892,-0.11597014747801522,-0.05858721233094565,0.46426107168899566,10.651098776912448,0.4820994495335985,-0.05629017099999989,0.019122967500000032,0.04667965400000007
35532.0,1.0878516845,-0.347351543,10.571470633499999,-0.18072186272700483,-0.07670547529589879,0.5103587078926699,10.632970691996045,0.5468181894649845,-0.10885381500000002,0.047856451999999994,-0.0048052585000011305
35542.0,0.9800766009999999,-0.39275633249999997,10.438590526,-0.22335502036547034,-0.11560886432285239,0.5588561718178363,10.491853022704975,0.6128401874970067,-0.10777508349999998,-0.04540478949999999,-0.13288010749999835
35552.0,0.9034866645,-0.5161239895,10.278153731999998,-0.21882589095654506,-0.15397992792794774,0.5969602000473765,10.330688082799336,0.6541835133953052,-0.0765899364999999,-0.12336765700000007,-0.16043679400000244
35562.0,0.8759299779999999,-0.637039984,10.183617626,-0.16526697220059505,-0.19235099153304305,0.6108163689789595,10.241051763376245,0.6613688174209134,-0.027556686500000094,-0.1209159944999999,-0.09453610599999784
35572.0,0.8460196954999999,-0.6848964359999999,10.152530545499998,-0.08585972722260905,-0.23871566311227244,0.6073518904137507,10.210715397587473,0.6582046637353988,-0.02991028250000005,-0.047856451999999994,-0.03108708050000253
35582.0,0.7981632435,-0.61781895,10.134584376,-0.022975514273253353,-0.3005334798886596,0.6092176473841326,10.18472215097284,0.6797016909456421,-0.04785645199999988,0.06707748599999996,-0.017946169499998277
35592.0,0.7777654115,-0.4933725615,10.099868835,-0.000593411945678072,-0.3474322222189992,0.6292016673194678,10.141779232657901,0.7187518621411478,-0.020397832000000005,0.1244463885,-0.03471554099999885
35602.0,0.7011754749999999,-0.36284605,9.934626782499999,-0.032035518420355916,-0.3743451992847518,0.6699708133168033,9.965947702567396,0.7681285656479522,-0.07658993650000012,0.1305265115,-0.1652420525000018
35612.0,0.6221338759999999,-0.31616639599999996,9.693971591499999,-0.09598612754268016,-0.36448583434023585,0.732855026266159,9.719058440324115,0.8240993566548332,-0.07904159899999996,0.046679654000000015,-0.2406551910000001
35622.0,0.5060231399999999,-0.407172108,9.4366450955,-0.1540741757075554,-0.3159883704150694,0.7968073807177353,9.458970303482976,0.8709130288517859,-0.11611073599999999,-0.09100571200000002,-0.25732649599999924
35632.0,0.308517209,-0.6118368934999999,9.260615728,-0.18285290974368992,-0.2493726435249498,0.8466347855329214,9.285931881840284,0.901339204747431,-0.1975059309999999,-0.20466478549999995,-0.17602936749999998
35642.0,0.046287388,-0.7998303739999999,9.0690918535,-0.18791610990372548,-0.2003445995071771,0.86795223701678,9.104410919805899,0.9103798705240977,-0.26222982100000003,-0.18799348049999998,-0.19152387449999964
35652.0,-0.24810824499999998,-0.9554619095,9.0212354015,-0.18311994511924506,-0.16597033988914878,0.8660864800463982,9.075084205175138,0.9006580144219863,-0.294395633,-0.15563153550000008,-0.04785645199999955
35662.0,-0.571335429,-1.091872411,8.9961303775,-0.18098715277330799,-0.14971608856532556,0.8535637426633388,9.080141590488106,0.8852922226212854,-0.32322718400000006,-0.1364105015,-0.025105024000000142
35672.0,-0.8814217019999999,-1.1936654379999998,8.957786376,-0.18525099213593013,-0.16117417510466836,0.8282494871924131,9.079850117302792,0.863882085612679,-0.3100862729999999,-0.10179302699999981,-0.0383440015000005
35682.0,-1.0741223745,-1.239168294,8.895514148499998,-0.18525099213593013,-0.19048523456266112,0.806399710286696,9.045410377778337,0.8490483186628459,-0.1927006725,-0.04550285600000015,-0.062272227500001165
35692.0,-1.2166129989999999,-1.2235757205,8.899142609,-0.16872970543655183,-0.22645821577551625,0.786413945022109,9.064878593144654,0.835583586431766,-0.14249062449999994,0.015592573499999984,0.003628460500001651
35702.0,-1.3697928719999999,-1.1553214365,8.889532092,-0.13861928518114564,-0.26775968719471005,0.7645641681163919,9.068344995009637,0.8218691644527437,-0.15317987300000002,0.068254284,-0.009610517000000485
35712.0,-1.5577863524999997,-1.041662363,8.8213758745,-0.10904293567684972,-0.29707074665270283,0.7501756737629508,9.018227714897014,0.814189739460967,-0.18799348049999987,0.11365907350000004,-0.06815621750000034
35722.0,-1.7109662254999998,-0.9686028204999999,8.829711526999999,-0.08346164483036884,-0.2928069072900807,0.7371188656287812,9.045960562522861,0.7975248918876662,-0.15317987300000002,0.07305954250000002,0.008335652499999568
35732.0,-1.8702262214999998,-0.9674260225,8.884726833499998,-0.06640803270913224,-0.2602984046424343,0.7179342064908595,9.130828556845827,0.7665473312962179,-0.15925999600000007,0.0011767979999999234,0.05501530649999964
35742.0,-2.1036244914999997,-0.9350640775,8.935034948,-0.05655041309386827,-0.21686588620655542,0.6870244254380399,9.226832086488349,0.7226557430545409,-0.2333982699999999,0.032361945,0.05030811450000172
35752.0,-2.3371208279999998,-0.8991717384999999,9.093118145999998,-0.05015378138530906,-0.17796075185034982,0.6425255108291925,9.431619224560698,0.6685988805350349,-0.2334963365,0.035892339000000106,0.15808319799999815
35762.0,-2.5070700725,-0.918294706,9.235510704,-0.03736400862669461,-0.1630399320750503,0.5913646744654827,9.61370498190949,0.6145651037907692,-0.16994924450000015,-0.019122967500000088,0.14239255800000095
35772.0,-2.606411437,-0.9530102469999999,9.4582197255,-0.011784463109465713,-0.18515674435632246,0.5388704065532492,9.85695335718135,0.5699150889477089,-0.0993413645000003,-0.03471554099999996,0.22270902150000005
35782.0,-2.7261506335,-0.8501384885,9.604240744,0.01779363172408219,-0.23311839220112662,0.4943714919444018,10.019784079253963,0.5468674155219931,-0.11973919649999987,0.10287175849999997,0.14602101850000082
35792.0,-2.8362793129999995,-0.7315760899999999,9.686812736999999,0.04230852639759455,-0.2904088248978405,0.4637287462671374,10.1199814682892,0.5487910778237668,-0.11012867949999938,0.11856239850000005,0.0825719929999984
35802.0,-3.1211624954999997,-0.6525344909999999,9.7024053105,0.059095103143276005,-0.35062966540865287,0.43388536138728634,10.212939116360138,0.5609722812281142,-0.2848831825000002,0.07904159899999996,0.015592573500001095
35812.0,-3.185788319,-0.6693038625,9.6125763965,0.08041255462713476,-0.40205579181866574,0.413367270700841,10.14883440856058,0.5822263641945962,-0.06462582350000012,-0.01676937150000002,-0.08982891399999993
35822.0,-3.2397248939999996,-0.6393935799999999,9.541968516499999,0.11798251210556468,-0.44175854164303274,0.38672132901064354,10.097217671657164,0.5988521258116041,-0.05393657499999982,0.02991028250000005,-0.07060788000000073
35832.0,-3.1918684419999996,-0.6585165475,9.4833247495,0.16434718368479403,-0.4622766323294781,0.34355410062106784,10.027717412195361,0.5989483296884278,0.047856451999999994,-0.019122967500000088,-0.058643766999999514
36622.0,-0.45041943449999994,1.0533322765,10.0268092925,0.0830759270656781,-0.2648275340513596,-0.1344793641954151,10.092040979893824,0.3084151939252491,2.7414490074999995,1.711848824,0.5434845429999999
36632.0,0.3743198305,-0.014513841999999999,10.146548488999999,0.07135255048003217,-0.3274464569544121,-0.09557597516846147,10.153461095938829,0.34849266227770936,0.8247392649999999,-1.0678461184999999,0.11973919649999942
36642.0,0.482094914,-0.19642719949999998,10.1799891655,0.0785467976567528,-0.2997341190912462,-0.04574682502402338,10.193290860193555,0.3132138463882381,0.10777508349999998,-0.18191335749999998,0.03344067650000149
36652.0,0.48690017249999995,-0.198878862,10.150078882999999,0.09160360579092239,-0.27788434218552915,-0.014039428503042387,10.163696468847023,0.29293008343028715,0.004805258499999965,-0.002451662500000007,-0.029910282500001273
