timestamp,ax,ay,az,gx,gy,gz,acc_mag,gyro_mag,dax,day,daz
153612.0,1.1288434815,-0.24516625,9.2432579575,0.11333295497825178,0.0063337998554874216,0.06343922765148989,9.315160318789534,0.13003465426465893,0.0,0.0,0.0
153622.0,1.4640347785,-0.2295736765,9.319847893999999,0.12478929618834256,-0.021645573383233675,0.07489731419083266,9.43693099862956,0.14714111241686037,0.33519129700000017,0.015592573500000012,0.07658993649999957
153632.0,1.6783100809999998,-0.372064301,9.2205065295,0.1903403722347456,0.006866125277345693,0.07143283562562393,9.379386826046625,0.20341890517919697,0.2142753024999997,-0.1424906245,-0.09934136449999897
153642.0,1.7967744129999998,-0.179265562,9.239629497,0.2849337270343343,0.07241545599449672,0.0690347532333837,9.414419136344161,0.30198845047875855,0.11846433200000006,0.192798739,0.019122967499999532
153652.0,1.738130646,0.10081236199999999,9.281601959,0.33849264579028426,0.15688415580326628,0.05784370206959607,9.443484325195284,0.37753914163345575,-0.05864376699999996,0.280077924,0.04197246200000038
153662.0,1.787163896,0.124740588,9.364173952,0.3614088188689698,0.21790435711149203,0.048783697922493506,9.534005916128633,0.4248276031373545,0.04903325000000014,0.02392822600000001,0.08257199300000018
153672.0,1.9045494964999998,0.214569502,9.456356462,0.36380690126121,0.2664018210366585,0.044786893935426494,9.648628212974947,0.45313492198826916,0.1173856004999998,0.089828914,0.09218251000000066
153682.0,1.9643700614999997,0.3929524655,9.558149489,0.3352952026006306,0.29384712352426934,0.05357986270697392,9.765827309180262,0.44904321237291106,0.05982056499999988,0.17838296350000002,0.10179302699999937
153692.0,2.0230138285,0.445614176,9.608359537,0.2806698876717121,0.289316248786092,0.07702836120751774,9.829126611068414,0.41038134227523454,0.05864376700000018,0.05266171049999996,0.050210048000000285
153702.0,2.1259836535,0.3498032055,9.6382698195,0.2244475964772188,0.2552090245436189,0.09727941651840794,9.876153800493988,0.35351330194360125,0.10296982500000018,-0.09581097049999998,0.029910282499999497
153712.0,2.1954147355,0.2876290445,9.584431311,0.187142929045092,0.21177650610773996,0.10447366369512857,9.836864331857367,0.3013079999546324,0.06943108199999992,-0.062174161000000006,-0.05383850850000016
153722.0,2.2779867284999997,0.2695848085,9.5664851415,0.17674949334946577,0.16887631309371934,0.09967749891064816,9.83765914568788,0.263998477860201,0.08257199299999973,-0.01804423599999999,-0.017946169500000053
153732.0,2.3546747315,0.367749375,9.510194970499999,0.1948695016436709,0.13157164566159255,0.09621302034543941,9.804261373040855,0.2540515024496888,0.07668800300000012,0.0981645665,-0.056290171000000555
153742.0,2.3977259249999996,0.5102399995,9.525787544,0.22657864349390386,0.10785611178549359,0.10607238528995537,9.836160978854119,0.2724374670601003,0.04305119349999975,0.1424906245,0.015592573500001095
153752.0,2.442051983,0.6371380504999999,9.531769600499999,0.24896249115073113,0.09373290747835547,0.13778152714018838,9.860232984067114,0.29958626331226584,0.044326058000000224,0.12689805099999996,0.0059820564999988335
153762.0,2.524623976,0.714904785,9.5904133675,0.2580207499685817,0.08813738189646166,0.18894236350389815,9.942879041370896,0.33172597460607645,0.08257199300000018,0.07776673450000005,0.05864376700000129
153772.0,2.5485522019999998,0.680189244,9.627580571,0.2454980125855224,0.08440761328494976,0.24543169007394663,9.982388661290894,0.3572542985835954,0.023928225999999775,-0.03471554099999996,0.037167203499999246
153782.0,2.5186419195,0.5485840009999999,9.6694549665,0.22125015328756517,0.07188313057263845,0.2915310716068728,10.007140494366377,0.37297343136334216,-0.02991028249999994,-0.1316052430000001,0.041874395500000716
153792.0,2.489908435,0.49464742599999995,9.720939879,0.2052611920100451,0.05482951845140187,0.3128467777614796,10.046939445515987,0.3781686652734965,-0.028733484500000017,-0.05393657499999999,0.051484912499999425
153802.0,2.4791211200000003,0.4959222904999999,9.7639910725,0.1932707800488441,0.033246776921239986,0.32110742111116874,10.086005260245729,0.37625645308619604,-0.01078731499999952,0.0012748644999999725,0.043051193500000196
153812.0,2.469510603,0.47915291899999995,9.7843889045,0.18154740346319814,0.00606676447993229,0.3240395742545192,10.102590577303346,0.3714807007349564,-0.009610517000000485,-0.016769371499999963,0.02039783200000045
153822.0,2.477944322,0.46238354749999994,9.75565542,0.17275268936239874,-0.029639181357367702,0.3240395742545192,10.07605177049553,0.3684068653493396,0.008433719000000117,-0.01676937150000002,-0.028733484500000017
153832.0,2.512659863,0.480329717,9.743691306999999,0.17275268936239874,-0.06028192703463215,0.32164149186227897,10.07391167870117,0.3700414188929972,0.03471554100000018,0.017946169500000053,-0.01196411300000122
153842.0,2.5317828305,0.6670483329999999,9.723293475,0.1663578029830915,-0.07973362154810894,0.33896039402981876,10.069623318692226,0.38590998657638825,0.019122967499999977,0.1867186159999999,-0.020397831999998672
153852.0,2.4935368954999997,0.8334671834999999,9.6933831925,0.15116994783223686,-0.10025171223455429,0.37653209683750066,10.043608490569149,0.4179463827842108,-0.0382459350000004,0.16641885050000005,-0.029910282499999497
153862.0,2.4947136935,0.7580540449999998,9.597572222,0.13704674352509874,-0.11384084579058214,0.4316897371882775,9.945432866606827,0.46700918328747393,0.0011767980000003675,-0.07541313850000009,-0.09581097050000054
153872.0,2.4683338049999994,0.6934282214999999,9.616793256,0.12559040231500798,-0.10371619079976303,0.4879137737120228,9.952699483051093,0.5143829779119499,-0.026379888500000614,-0.0646258234999999,0.019221033999999193
153882.0,2.2708278739999996,0.6407665109999999,9.572467198,0.11359824502455493,-0.0871949041003847,0.5257507665660078,9.858974044581943,0.5449049285136619,-0.1975059309999998,-0.052661710500000014,-0.044326057999999335
153892.0,2.08293246,0.5485840009999999,9.5772724565,0.09894271529555854,-0.08133234314293576,0.5446701356576265,9.816501400453644,0.5595267354009774,-0.18789541399999976,-0.09218251,0.004805258499999354
153902.0,1.8985674399999999,0.48866536949999995,9.5760956585,0.0901497465240111,-0.08906066107076666,0.5436037394846579,9.774710237563017,0.5581790068879421,-0.18436502,-0.059918631499999986,-0.0011767979999994793
153912.0,1.7884387604999998,0.505434741,9.525787544,0.09441358588663326,-0.09945235143714089,0.5393399001220357,9.705390554269007,0.5564999759838241,-0.11012867950000005,0.01676937150000002,-0.050308114499999945
153922.0,1.6723280244999998,0.5473091364999999,9.537751657,0.10267422923632241,-0.09518851207451874,0.5454694964550398,9.698707902758526,0.5631516862650314,-0.11611073599999999,0.04187439549999994,0.011964112999999443
153932.0,1.6183914495,0.471895998,9.589236569499999,0.10480527625300749,-0.0871949041003847,0.5665199125633434,9.736289575735679,0.582693666142273,-0.05393657499999982,-0.07541313849999992,0.051484912499999425
153942.0,1.566906537,0.45394982849999993,9.6598444495,0.10134079768779874,-0.07200704894953006,0.5990284152109898,9.796624996958109,0.6117924604018992,-0.05148491250000009,-0.017946169500000053,0.07060788000000073
153952.0,1.483157746,0.40844697249999995,9.750850161499999,0.09681166827887347,-0.05175599363863984,0.6270060431204588,9.87145707081223,0.636543604242503,-0.08374879099999988,-0.04550285599999998,0.0910057119999994
153962.0,1.3622417515,0.364218981,9.844209469499999,0.09414655051107812,-0.04509407188377749,0.6453930867902191,9.94468793552839,0.6537807620057366,-0.12091599450000001,-0.04422799149999995,0.09335930800000014
153972.0,1.3059515805,0.261249156,9.953161350999999,0.10293951928262556,-0.06268000942687235,0.6544530909373217,10.04187141578507,0.6654578697778735,-0.05629017100000011,-0.10296982500000001,0.10895188149999946
153982.0,1.2461310154999998,0.1978001305,10.018963972499998,0.1314512179432049,-0.09065938266559345,0.6493898907772861,10.098099151903284,0.6687344589654358,-0.0598205650000001,-0.06344902549999998,0.0658026214999996
153992.0,1.1635590225,0.10081236199999999,10.056131176,0.16262803437157963,-0.11810468515320428,0.631269882483081,10.123724954782814,0.6624939688396447,-0.08257199299999973,-0.09698776850000002,0.03716720350000102
154002.0,1.031855713,0.0242224255,10.103987627999999,0.18554420745026518,-0.1463493484382285,0.5966303328187496,10.156568265173275,0.6417262179045304,-0.1317033095000002,-0.07658993649999998,0.04785645199999955
154012.0,0.9695834855,0.07090207949999999,10.17341871,0.19140502307846213,-0.16500168215429192,0.551864382834347,10.219763573058323,0.6069725982402726,-0.062272227499999944,0.046679653999999994,0.06943108200000125
154022.0,1.0042990265,0.158279331,10.1794007665,0.1810133327120879,-0.16580104295170534,0.5214869272033857,10.230047353080604,0.576371779069239,0.03471554100000007,0.0873772515,0.00598205650000061
154032.0,0.9767423399999999,0.29831829299999996,10.184206025,0.16049698735489457,-0.15381063099050427,0.516158436997047,10.235285621922497,0.5619933498173522,-0.027556686500000094,0.14003896199999996,0.004805258499999354
154042.0,0.9288858879999999,0.409721837,10.154295742499999,0.129587206302075,-0.1362229481181574,0.5422720532653862,10.204921508899213,0.5739412124807179,-0.047856451999999994,0.11140354400000002,-0.029910282500001273
154052.0,0.9061344599999999,0.386970409,10.132721112499999,0.08881806030473943,-0.12476660690806664,0.5801090461193713,10.180513881958234,0.5999848826638678,-0.022751428000000073,-0.022751427999999962,-0.021574629999999928
154062.0,0.8426854345,0.2660544145,10.094377110999998,0.05151339287261263,-0.1258312577517832,0.5992954505865449,10.132983418128841,0.6145259735490223,-0.06344902549999987,-0.12091599450000001,-0.0383440015000005
154072.0,0.7780596109999999,0.16073099349999997,9.951984553,0.027265533574655415,-0.1327602148822007,0.5862386424523753,9.98364701668141,0.6017012796073171,-0.06462582350000012,-0.10532342100000003,-0.1423925579999974
154082.0,0.7541313849999999,0.20741064749999996,9.807140332500001,0.019004890224966254,-0.13595765807185428,0.5523967082562052,9.838279058040925,0.5691992567925026,-0.023928225999999997,0.04667965399999999,-0.14484422049999957
154092.0,0.7373620135,0.318716125,9.701718844999998,0.02806489437206882,-0.12050276754544449,0.5150920408240784,9.734918143195447,0.5297436793417557,-0.016769371499999908,0.11130547750000006,-0.1054214875000028
154102.0,0.7660954979999999,0.436003659,9.607182738999999,0.043252749522923475,-0.08666257867852643,0.4908441815261213,9.647536560348282,0.5003091178686957,0.028733484499999906,0.11728753399999997,-0.09453610599999962
154112.0,0.7720775544999999,0.49229383,9.583254513,0.04938060052667557,-0.05175599363863984,0.48711441291460944,9.626901060370031,0.4923388851746759,0.005982056500000055,0.056290171,-0.023928225999998887
154122.0,0.7612902395,0.538973484,9.5545210285,0.05311211446743944,-0.02057917721026514,0.500171221048779,9.599944131569817,0.5034040619654161,-0.010787314999999964,0.046679654000000015,-0.028733484500000017
154132.0,0.7456976659999999,0.4743476605,9.583254513,0.04645019271257709,0.00606676447993229,0.516158436997047,9.623920083470901,0.5182798067815542,-0.015592573500000095,-0.06462582350000001,0.028733484500000017
154142.0,0.7050000685,0.424039546,9.6574908535,0.04431914569589201,0.024186772774137416,0.5177571585918738,9.692469459255111,0.5202130928048353,-0.040697597499999905,-0.0503081145,0.07423634050000061
154152.0,0.6835235049999999,0.41442902899999995,9.536574859,0.0488482751048173,0.03591014935978333,0.5142926800266651,9.570016501724343,0.5178538920745576,-0.021476563500000045,-0.00961051700000004,-0.12091599450000068
154162.0,0.6750897859999999,0.3809883525,9.421640921,0.05497612610856939,0.050033353666921444,0.5169577977944604,9.453476396975026,0.5222749042616951,-0.008433719000000006,-0.03344067649999993,-0.11493393800000007
154172.0,0.6295869299999999,0.35706012649999996,9.4036947515,0.0613727578171286,0.08014377392232762,0.5148267507777754,9.431508183517186,0.5246296057381767,-0.045502856000000036,-0.023928226000000052,-0.017946169500000053
154182.0,0.5541737914999999,0.2791953255,9.397712695,0.07363020515388478,0.10732204103438331,0.49937186025136554,9.41817723971739,0.5160539530065614,-0.07541313849999998,-0.07786480099999998,-0.00598205650000061
154192.0,0.49553002449999994,0.19064127599999997,9.4491976075,0.08695230333435751,0.11824780215186782,0.47112545163708935,9.464102151122399,0.4934596609137862,-0.05864376699999996,-0.08855404950000001,0.0514849125000012
154202.0,0.547014937,0.14396162199999998,9.531769600499999,0.11066783721045645,0.1150503589622142,0.4380846235675847,9.5485382130945,0.4662639731917177,0.05148491250000009,-0.04667965399999999,0.0825719929999984
154212.0,0.561332646,0.191818074,9.662296112,0.1367814534787956,0.10998715880217866,0.4063754817173517,9.680488348681008,0.4426594325869011,0.014317708999999956,0.04785645200000002,0.13052651150000116
154222.0,0.5266171049999999,0.29831829299999996,9.780760444,0.1530357048026188,0.09160186046167039,0.3728023282259888,9.79946907960488,0.41327037604356726,-0.03471554100000007,0.10650021899999995,0.11846433200000028
154232.0,0.584084074,0.36304218299999996,9.850191526,0.14344337523365797,0.06841865200742972,0.3490867943498899,9.87416968311868,0.3835605608380769,0.057466969000000034,0.06472389,0.06943108199999948
154242.0,0.615269221,0.389324005,9.813122389,0.1064039978478343,0.04976631829136631,0.33416422924533834,9.840096565413992,0.3542093015455841,0.03118514700000008,0.02628182200000001,-0.037069136999999586
154252.0,0.7397156094999999,0.3019467535,9.73408079,0.06403613025567195,0.04124038489537401,0.33096678605568475,9.766815235845007,0.33961803367381627,0.1244463884999999,-0.08737725149999997,-0.07904159899999996
154262.0,0.665479269,0.25409030149999995,9.6012006825,0.037657223941029654,0.055895914624370394,0.3229731780815507,9.627589474236196,0.32993043743604017,-0.07423634049999994,-0.04785645200000005,-0.13288010750000012
154272.0,0.5410328805,0.2217283565,9.622775312499998,0.04858123972926216,0.07135080515078018,0.30165572659769196,9.640523054104365,0.3137630501484809,-0.1244463885,-0.03236194499999995,0.02157462999999815
154282.0,0.5086709355,0.2336924695,9.6131647955,0.08562061711508583,0.07854505232750082,0.26488338458742344,9.629449396323967,0.2892463011877366,-0.032361945,0.011964112999999998,-0.009610516999998708
154292.0,0.5649611065,0.2803721235,9.662296112,0.12638976311242137,0.09426697822946573,0.22118383077598938,9.682858861692859,0.2716301205699951,0.056290171,0.046679654000000015,0.049131316500000466
154302.0,0.6020302435,0.4216859499999999,9.719665014499999,0.15356803022447707,0.11611675513518274,0.18361387329755946,9.747417475855404,0.26604566374493327,0.03706913700000003,0.1413138264999999,0.0573689024999986
154312.0,0.6343921884999999,0.552114395,9.791547759,0.15090291245668175,0.13716717124348635,0.16282874723555898,9.827598448795818,0.26095923586098735,0.03236194499999989,0.13042844500000011,0.07188274450000165
154322.0,0.665479269,0.5928119924999999,9.8106707265,0.12079249220127555,0.1475588616098606,0.16069770021887392,9.851068410062162,0.24937560960813365,0.031087080500000086,0.040697597499999905,0.019122967499999532
154332.0,0.6295869299999999,0.6874461649999999,9.852545122,0.08988271114845597,0.15422078336472295,0.16815898277114966,9.896545221098423,0.24523538747834372,-0.035892339000000106,0.09463417249999995,0.041874395500000716
154342.0,0.6080123,0.7208868415,9.875296549999998,0.07522892674871158,0.15661886575696315,0.1761525907452837,9.920223724576024,0.24742391912876183,-0.021574629999999928,0.033440676500000155,0.02275142799999763
154352.0,0.569766365,0.700587076,9.8789250105,0.07202973822980598,0.14942461858024253,0.18307980254644918,9.920111658889025,0.247051035067154,-0.03824593499999995,-0.02029976550000001,0.003628460500001651
154362.0,0.5385812179999999,0.7053923344999999,9.8765714145,0.08055741695505027,0.14089693985499824,0.18574492031424453,9.916365815139752,0.24666296947356703,-0.03118514700000008,0.004805258499999909,-0.0023535959999989586
154372.0,0.5111225979999999,0.7364794149999999,9.839404210999998,0.09201550349439305,0.12171228071707657,0.1916074812716935,9.880158068894925,0.24493705117838233,-0.02745861999999999,0.031087080499999975,-0.0371672035000028
154382.0,0.5099457999999999,0.7723717539999999,9.8106707265,0.10027614684408222,0.10465866859583997,0.2049295794521662,9.854230713207334,0.25100771914941483,-0.0011767980000000344,0.035892338999999995,-0.02873348449999824
154392.0,0.4631680795,0.8083621595,9.766442735,0.10187486843890901,0.10146122540618636,0.2142566189748239,9.810778651402421,0.2580286182866018,-0.0467777204999999,0.0359904055000001,-0.044227991499999675
154402.0,0.4596376855,0.7999284405,9.732903991999999,0.10693632326969257,0.10199355082804462,0.21931981913485946,9.776531717809853,0.2644602894770793,-0.0035303939999999923,-0.008433719000000006,-0.03353874300000115
154412.0,0.478760653,0.7484435279999999,9.694559990499998,0.1149316765730786,0.11238524119441887,0.22011917993227284,9.735187357563767,0.272565929808336,0.019122967499999977,-0.05148491250000009,-0.0383440015000005
154422.0,0.491901564,0.783159069,9.7269219355,0.12478929618834256,0.1390311828846163,0.2158553405696507,9.770788894215945,0.2854742830973,0.013140911000000033,0.03471554100000007,0.03236194500000167
154432.0,0.499158485,0.8226798685,9.767619533,0.13304993953803174,0.1686092777181642,0.21612237594520584,9.8149046200473,0.3046969910056806,0.007256920999999972,0.03952079949999998,0.04069759749999946
154442.0,0.503865677,0.9244728955,9.881278606499999,0.13464866113285853,0.18992672920202294,0.22464830934119812,9.9372127709055,0.32352633169513195,0.004707191999999971,0.10179302700000004,0.11365907349999915
154452.0,0.469150136,1.0429372275,10.0058230615,0.1359820926813822,0.205913945150291,0.24356767843281665,10.070963958264343,0.34672308304252986,-0.03471554099999996,0.11846433199999995,0.12454445500000055
154462.0,0.475230259,1.027344654,10.047697457,0.1383801750736224,0.2051145843528776,0.268082573106329,10.11125635243098,0.36481410549891075,0.006080122999999993,-0.015592573499999984,0.041874395500000716
154472.0,0.4978836205,0.9998860339999999,10.0201407705,0.15196930862965027,0.19338946243797966,0.2984582834080383,10.082206169345415,0.3867447502970112,0.022653361500000024,-0.0274586200000001,-0.027556686500000538
154482.0,0.41413482949999997,1.0226374619999998,10.010628319999999,0.1740861209109224,0.1787356780382353,0.325638295849346,10.071244927856576,0.4102349568494452,-0.08374879100000004,0.022751427999999962,-0.009512450500000824
154492.0,0.397365458,0.980665,10.0848646605,0.18794228984250538,0.16914160314002247,0.33443126462089345,10.140221810692225,0.4192558371447573,-0.016769371499999963,-0.04197246199999982,0.07423634050000061
154502.0,0.27164420499999997,0.9100571199999998,10.206957453,0.17968164649281623,0.15848287739809308,0.3171106171241017,10.251047506627067,0.3974436563936793,-0.12572125300000003,-0.07060788000000018,0.12209279250000016
154512.0,0.1842669535,0.886128894,10.257167501,0.14557442225034303,0.12091291991966317,0.2803382751138332,10.297022087502018,0.33823275286527066,-0.08737725149999997,-0.023928225999999886,0.050210048000000285
154522.0,0.2501676415,0.828661925,10.302670357,0.10373888008003897,0.07348185216746526,0.2443670392302301,10.338969045306445,0.2754570523700033,0.06590068799999999,-0.05746696899999992,0.04550285600000059
154532.0,0.29557243099999997,0.826308329,10.3325806395,0.06510252642864049,0.030581659153444643,0.21692173674261922,10.36978163648166,0.22853581053174904,0.04540478949999999,-0.002353596000000069,0.029910282499999497
154542.0,0.2729190695,0.8477848924999999,10.266778018,0.035259141548789445,-0.013917255455402783,0.2041302186547528,10.305336234851147,0.20761994901792483,-0.02265336149999997,0.021476563499999934,-0.0658026214999996
154552.0,0.34950900599999996,0.805910497,10.124287393499998,0.014741050862344108,-0.05841617006425021,0.206528301046993,10.162324709466475,0.21513643726449266,0.07658993649999996,-0.04187439549999994,-0.14249062450000238
154562.0,0.4512039665,0.767664562,10.090846717,0.0054157566689384045,-0.07866722537514041,0.20919341881478837,10.130058310055558,0.22356151109692327,0.10169496050000004,-0.03824593499999995,-0.033440676499997934
154572.0,0.44051471799999997,0.7556023824999999,10.062113232499998,-0.005777039824101231,-0.07866722537514041,0.21372254822371364,10.10005499395255,0.2278140341519591,-0.010689248500000026,-0.012062179500000103,-0.028733484500001794
154582.0,0.38059608649999993,0.7508951905,9.932763519,-0.02869146757353478,-0.09145874346300685,0.22091854072968625,9.968374395685206,0.2408171582456062,-0.05991863150000004,-0.004707191999999916,-0.12934971349999813
154592.0,0.35784465849999997,0.6670483329999999,9.8765714145,-0.04654444049218478,-0.10478084164347957,0.22331662312192646,9.90553729910163,0.25102932872241646,-0.022751427999999962,-0.0838468575000001,-0.05619210449999912
154602.0,0.4631680795,0.517398854,9.78311404,-0.05480508384187394,-0.09945235143714089,0.21772109754003266,9.807728919766967,0.2455541564203869,0.10532342100000003,-0.14964947899999992,-0.09345737450000158
