timestamp,ax,ay,az,gx,gy,gz,acc_mag,gyro_mag,dax,day,daz
51812.0,-1.318994425,-2.266709081,10.327186981999999,-0.035414475852216944,0.3223466048800847,-0.08032703349378703,10.654975706788786,0.33408674186132664,0.0,0.0,0.0
51822.0,-0.9083899894999999,-2.617394885,10.379848692499998,-0.05273512334900867,0.3489925465702821,-0.07499679795819633,10.743239140791845,0.36083418698929876,0.41060443550000014,-0.3506858039999998,0.052661710499998904
51832.0,-0.6102678295,-2.6318106605,10.504295080999999,-0.04580791154784317,0.3998880928876888,-0.0678025507814757,10.846154587002937,0.40817402843174927,0.2981221599999999,-0.014415775499999839,0.12444638850000089
51842.0,-0.42835447199999993,-2.6138644909999997,10.6791476505,-0.027954938629193175,0.38896233177020434,-0.06327342137255043,11.00272555652338,0.39506543759491897,0.1819133575000001,0.017946169500000053,0.1748525695000005
51852.0,-0.070411747,-2.5419817465,10.803594039,-0.009302604913129777,0.3524570251354909,-0.052080624879510796,11.09884107342614,0.3564055057281946,0.3579427249999999,0.07188274449999987,0.12444638850000089
51862.0,0.26595634799999995,-2.453427697,10.9221564375,-0.002907718533822553,0.2996974671769543,-0.03316300111714426,11.197479247074803,0.30154072909384766,0.336368095,0.0885540494999999,0.11856239849999994
51872.0,0.668225131,-2.3456526135,10.9904107215,-0.0055710909723658995,0.24187470905838215,0.002542944720155738,11.257785698625707,0.24195222359910057,0.4022687830000001,0.10777508349999998,0.068254284
51882.0,1.0153805409999999,-2.2391523945,10.985605462999999,-0.012500048102783387,0.2016396338121569,0.06036570283872787,11.257367741951578,0.2108525816908255,0.34715540999999983,0.10650021899999995,-0.0048052585000011305
51892.0,1.2763354974999999,-2.084697657,10.942456202999999,-0.027155577831779774,0.16540136255299864,0.13950591244115876,11.21215163908574,0.2180755276224423,0.2609549565,0.15445473750000005,-0.043149259999999856
51902.0,1.422356516,-1.968586921,10.9221564375,-0.04953768015935505,0.1334251853272105,0.23596502421112936,11.188920134193586,0.2755644289202253,0.14602101850000015,0.11611073599999999,-0.020299765499999012
51912.0,1.5480777689999998,-1.944658695,10.788099531999999,-0.07538426105213909,0.09212371390801669,0.3465473402882381,11.07074223940065,0.3664213756584556,0.1257212529999998,0.023928225999999997,-0.13405690550000138
51922.0,1.6258445034999998,-1.9398534365,10.569018970999998,-0.10069851652306483,0.05881585046295691,0.46618791518319735,10.86786840709897,0.48055246098473253,0.07776673449999993,0.00480525850000002,-0.21908056100000017
51932.0,1.6258445034999998,-1.9984972035,10.4037769185,-0.11668573247133289,0.03643200280612964,0.5866295962048221,10.718019200947152,0.599230451607952,0.0,-0.05864376699999996,-0.16524205249999824
51942.0,1.53964405,-2.079990465,10.2074477855,-0.11348828928167928,0.015116296651522887,0.697477202328234,10.530377696402924,0.706811532161268,-0.08620045349999983,-0.08149326149999991,-0.19632913300000077
51952.0,1.4259849765000001,-2.1972779989999998,10.069762419499998,-0.09137322232965912,-0.012596041211643077,0.7950027102711731,10.404882456965462,0.8003355767124323,-0.11365907349999982,-0.11728753399999992,-0.13768536600000125
51962.0,1.3134046345,-2.257098564,9.9405107725,-0.044474479999319506,-0.04270646146704925,0.8768062923121472,10.277805217055121,0.8789716124314944,-0.11258034200000022,-0.059820565000000325,-0.12925164699999847
51972.0,1.178170931,-2.3133887349999998,9.900989973,0.009349728802933622,-0.07281688172245543,0.9407586467637236,10.235695219540528,0.9436188569296307,-0.13523370349999997,-0.05629017099999967,-0.03952079949999998
51982.0,0.9974343714999999,-2.2738679354999998,9.887849062,0.05305102794361964,-0.09493369400372757,0.9852575613725709,10.194847217415223,0.9912412824660267,-0.1807365595,0.03952079949999998,-0.013140910999998923
51992.0,0.7675664955,-2.2367987984999997,9.9081488275,0.07490080484933666,-0.10372666277527501,1.015100946252422,10.186453768504268,1.0231320942185993,-0.22986787599999992,0.03706913700000003,0.020299765499999012
52002.0,0.5628036434999999,-2.154128739,9.892654320499998,0.07356737330081298,-0.10878986293531055,1.0412145625207612,10.140100002969886,1.0494642242102228,-0.2047628520000001,0.08267005949999984,-0.015494507000001434
52012.0,0.32460011499999997,-1.9471103575,9.927369861499999,0.05997823974478514,-0.09413433320631417,1.076388182936203,10.121722992947412,1.0821599615102109,-0.23820352849999993,0.20701838149999996,0.03471554100000063
52022.0,0.0265760215,-1.79265562,9.910600489999998,0.04692143161061556,-0.06988647390835695,1.1430021644970705,10.071460794205802,1.1460975909689022,-0.2980240935,0.15445473750000005,-0.016769371500000574
52032.0,-0.326561445,-1.7627453374999997,9.916582546499999,0.04585503543764702,-0.0376432613070137,1.2399953470181513,10.077327170623512,1.2414137747034555,-0.3531374665,0.029910282500000163,0.00598205650000061
52042.0,-0.7216713735,-1.850122589,9.978854774,0.06557376532667895,-0.00486946861306418,1.3479125453274645,10.174542042089168,1.3495154168348193,-0.3951099285,-0.0873772515000002,0.062272227500001165
52052.0,-1.2231834544999998,-2.049982116,10.120070534,0.09728290717691193,0.02124414765527498,1.443572296300022,10.39780900249747,1.4470025060390563,-0.5015120809999998,-0.19985952699999987,0.1412157599999997
52062.0,-1.7487218279999999,-2.3109370725,10.296001835,0.13378821381162534,0.03483328121130283,1.501395054418594,10.696079280329869,1.5077465811824824,-0.5255383735000001,-0.2609549565,0.17593130100000032
52072.0,-2.3664427115,-2.5527690615,10.488800574,0.16203287709664957,0.029771826380519274,1.5155182587257323,11.051317499253463,1.5244463281589566,-0.6177208835000001,-0.24183198900000002,0.19279873900000055
52082.0,-2.9518016499999997,-2.7706728245,10.664731875,0.17562375598192942,0.004722860955896656,1.4726163203824596,11.407290074641152,1.4830592827454956,-0.5853589384999998,-0.21790376300000025,0.17593130099999854
52092.0,-3.4833220799999998,-3.030450983,10.758091183000001,0.1732256735896892,-0.02591988472136779,1.3694952868576267,11.706993285003778,1.3806506854160554,-0.53152043,-0.2597781585000001,0.09335930800000192
52102.0,-3.7886030945,-3.41467553,10.7748605545,0.15803607310958256,-0.06215815598052605,1.20775387974606,11.921037805147495,1.2196345644497197,-0.3052810145000002,-0.38422454699999964,0.016769371499998798
52112.0,-3.9131475494999997,-3.6529771249999996,10.721022046,0.14791141811876346,-0.09093689001666055,0.9924518085492916,11.983208223624803,1.0075256313705203,-0.12454445499999967,-0.2383015949999998,-0.05383850850000016
52122.0,-3.8484236595,-3.634932889,10.627662738,0.152972872949547,-0.09173625081407395,0.7619618822016685,11.87309214329641,0.7825612752367512,0.06472388999999978,0.018044235999999714,-0.09335930800000014
52132.0,-3.5276481379999995,-3.435073362,10.5318517675,0.15430630449807067,-0.06455623837276626,0.5653121447209634,11.62600241013435,0.5895386030530216,0.3207755215000003,0.1998595270000001,-0.09581097050000054
52142.0,-3.005738225,-3.063989726,10.5091003395,0.13458757460903872,0.02071182223341671,0.44247238130709843,11.351814183818316,0.4629520526349856,0.5219099129999996,0.37108363599999983,-0.022751427999999407
52152.0,-2.6046462399999997,-2.5492386675,10.571372567,0.07809824803899026,0.16700008414782544,0.4115626002542789,11.181981835513035,0.45096800150365857,0.4010919850000003,0.5147510584999999,0.06227222749999939
52162.0,-2.403609915,-2.2977961615,10.698270617999999,-0.010101965710543179,0.31408596153039553,0.46618791518319735,11.203133581246478,0.5622127828540953,0.20103632499999957,0.25144250600000007,0.1268980509999995
52172.0,-2.3245683159999997,-2.3193707915,10.8335043215,-0.09297194392448595,0.4084140262836811,0.5658444701428216,11.320243575479001,0.7040069343504761,0.0790415990000004,-0.021574629999999928,0.13523370350000086
52182.0,-2.520897449,-2.4007659864999997,10.995117913499998,-0.1393348701744633,0.4206714736204372,0.6833557433503478,11.533048998511996,0.8144653256796333,-0.19632913300000032,-0.08139519499999981,0.16161359199999836
52192.0,-2.8859990284999997,-2.5288408354999996,11.039443971499999,-0.14679615272673907,0.3378014954064945,0.7984671888363819,11.687315755282858,0.8793229283957689,-0.36510157949999966,-0.12807484899999988,0.04432605800000111
52202.0,-3.2929750034999996,-2.7095773949999997,10.9939411155,-0.11535404625206122,0.17872346073347134,0.8805378062529111,11.792041183961842,0.905867241732452,-0.40697597499999993,-0.18073655950000012,-0.045502855999998815
52212.0,-3.6485641325,-2.8939424149999997,10.941279404999998,-0.03621383664963034,-0.03338116727364355,0.9122469481031441,11.891110879500646,0.913575524309259,-0.35558912900000017,-0.18436502,-0.05266171050000246
52222.0,-3.8724499519999998,-3.005345959,10.8335043215,0.08182801665050214,-0.2566768464445461,0.8890637396489035,11.890869978600456,0.9289850165466423,-0.22388581949999997,-0.1114035440000003,-0.1077750834999982
52232.0,-3.9035370325,-3.029274185,10.741321811499999,0.21612586660370983,-0.4349395402554909,0.8181859187254138,11.823286248341107,0.9514783189823149,-0.031087080500000308,-0.023928225999999775,-0.09218251000000066
52242.0,-3.6964205844999998,-3.0220172639999996,10.6718907295,0.3235089941619129,-0.5255360910680126,0.7153301752468839,11.691251653429473,0.9447452100632406,0.20711644800000029,0.007256921000000194,-0.06943108199999948
52252.0,-3.3624060855,-2.9238526975,10.616875422999998,0.36694325792704385,-0.5178095184694337,0.6090116985323973,11.51402332062893,0.8795847320781413,0.3340144989999998,0.0981645664999995,-0.055015306500001415
52262.0,-2.9865171909999995,-2.627005402,10.618052221,0.3410966770342598,-0.4160201711638724,0.5176157869224622,11.338583477761176,0.7465559783233885,0.3758888945000005,0.2968472955000001,0.0011767980000012557
52272.0,-2.6825110409999997,-2.3097602745,10.680324448499999,0.26542094599703764,-0.2598742896341997,0.46032535422574844,11.251674912472899,0.5915085432433779,0.30400614999999975,0.3172451275000001,0.06227222749999939
52282.0,-2.4705893344999996,-2.079990465,10.8168330165,0.17695544220120107,-0.09626538022299924,0.4541975032219963,11.288669031426183,0.49686580068183056,0.21192170650000008,0.22976980950000003,0.13650856800000177
52292.0,-2.393999398,-1.965056527,10.9364741465,0.09515186016022686,0.030304151802377544,0.4837755980555442,11.36658026976419,0.49397474366855276,0.07658993649999957,0.11493393799999985,0.11964112999999976
52302.0,-2.403609915,-2.0033024619999997,11.057390140999999,0.04692143161061556,0.08892627071836309,0.5240106733017695,11.491581183980973,0.5335697593590168,-0.00961051700000004,-0.03824593499999973,0.1209159944999989
52312.0,-2.569930699,-2.149421547,11.222632193499999,0.04612207081320215,0.06467841142040587,0.542663007017833,11.712046368374448,0.5484466077072607,-0.16632078399999983,-0.14611908500000048,0.16524205250000001
52322.0,-2.5257027075,-2.1768801669999998,11.286081219,0.08715825218609283,-0.009398598021989463,0.5551874897301442,11.768330837889259,0.5620658709811266,0.04422799150000012,-0.027458619999999545,0.06344902550000064
52332.0,-2.461076884,-2.1373593674999998,11.270488645499999,0.139118449347216,-0.11438538851720437,0.5410642854230061,11.732396123688611,0.5702530324472759,0.06462582349999968,0.03952079949999998,-0.015592573500001095
52342.0,-2.3197630575,-2.0931313759999997,11.1567315055,0.17135991661930725,-0.20258385693748582,0.518947473141734,11.585989706794741,0.5828472527134655,0.14131382650000024,0.04422799150000012,-0.11375713999999881
52352.0,-2.1199035305,-2.0320359464999997,10.983153800499998,0.16736311263224024,-0.2529453325037822,0.4925685668270917,11.368941396274856,0.5784596318944789,0.1998595270000001,0.06109542949999991,-0.17357770500000136
52362.0,-1.894840913,-2.0285055525,10.8168330165,0.139118449347216,-0.2508142854870971,0.47364919773547315,11.167324360335671,0.5537195240088923,0.2250626174999999,0.00353039399999977,-0.16632078399999806
52372.0,-1.7295988605,-1.942305099,10.655219424499998,0.10847395834069957,-0.20338321773489923,0.47364919773547315,10.968033656954486,0.5267588588811379,0.16524205250000001,0.08620045350000005,-0.16161359200000192
52382.0,-1.6397699465,-1.8812096694999998,10.5402854865,0.07889760883640368,-0.1277074866976771,0.501094500223084,10.831685622976115,0.5230962941873722,0.08982891399999993,0.06109542950000013,-0.11493393799999829
52392.0,-1.642221609,-1.9183768729999997,10.488800574,0.04825311782988723,-0.048569022424498204,0.5514559757893803,10.788512368305028,0.555689667488423,-0.0024516624999999515,-0.03716720349999991,-0.051484912499999425
52402.0,-1.7056706345,-2.1002902304999997,10.418192693999998,0.01867676832559132,0.011119492664455874,0.6042155337479169,10.763794422741654,0.6046063810567027,-0.06344902549999998,-0.18191335750000004,-0.07060788000000251
52412.0,-1.8121708535,-2.301424622,10.361902522999998,0.00029146998508305304,0.03216990877275948,0.643918283572284,10.767986923709394,0.6447214467534612,-0.10650021900000017,-0.20113439150000012,-0.056290171000000555
52422.0,-1.9930054794999998,-2.4331279314999996,10.318753263,2.4434609527920612e-05,0.02630734781531053,0.6607066056472174,10.787439514316437,0.6612301383724077,-0.18083462599999978,-0.13170330949999975,-0.04314925999999808
52432.0,-2.1868829499999998,-2.44381718,10.255304237499999,0.020275489920418124,0.008986700318518804,0.6591061387231386,10.766892051560157,0.6594791568932661,-0.19387747049999993,-0.010689248500000303,-0.06344902550000064
52442.0,-2.431068535,-2.350457872,10.296001835,0.06210928676147021,0.003658210112180115,0.6479150875593509,10.837084488746832,0.6508954652555852,-0.24418558500000032,0.09335930800000014,0.04069759750000124
52452.0,-2.681334243,-2.277496396,10.4265283465,0.11113907610849491,0.008721410272215664,0.632194906986638,11.00404637016972,0.6419488746428567,-0.2502657079999997,0.07296147599999969,0.1305265114999994
52462.0,-2.8848222304999998,-2.3037782179999997,10.573726162999998,0.152972872949547,0.014849261275967756,0.6111444908783344,11.199699922293853,0.630173618259142,-0.20348798749999997,-0.02628182199999962,0.14719781649999852
52472.0,-2.8836454325,-2.4294994709999997,10.7521091265,0.17748776762305934,0.013517575056696082,0.5879612824240937,11.394109413558041,0.6143151488617349,0.0011767979999999234,-0.12572125300000003,0.1783829635000025
52482.0,-2.85961914,-2.50854107,10.906563863999999,0.17029352044633872,0.014849261275967756,0.56451278392355,11.550901923453496,0.5898263022954862,0.02402629249999988,-0.0790415990000004,0.15445473749999827
52492.0,-2.8896274889999995,-2.5288408354999996,10.966384429,0.13085780599752686,0.006321582550723462,0.5453281247856283,11.619232781947801,0.5608444449922294,-0.0300083489999996,-0.020299765499999456,0.05982056500000077
52502.0,-2.9411124015,-2.5731668935,10.9341205505,0.08156098127494701,-0.020057323763918836,0.5314719558540453,11.611473732172326,0.5380677743206957,-0.05148491250000031,-0.044326058000000224,-0.03226387850000023
52512.0,-2.984163595,-2.6569156845,10.8287971295,0.04825311782988723,-0.06375687757535285,0.5146836337791119,11.54241225169734,0.5208575099761301,-0.043051193500000196,-0.0837487910000001,-0.10532342099999958
52522.0,-3.0452590244999995,-2.7575319135,10.685129707,0.04558974539134388,-0.1053253843701018,0.4933679276245051,11.447688921161491,0.5065409889496172,-0.061095429499999465,-0.10061622899999989,-0.14366742250000009
52532.0,-3.0966458704999997,-2.7587087114999997,10.5522495995,0.06504143990482068,-0.14156365562926007,0.46538855438578397,11.337974290513213,0.49077200822102923,-0.05138684600000021,-0.0011767979999999234,-0.13288010750000012
52542.0,-3.1039027915,-2.777831679,10.407405379,0.08582482063756916,-0.1604830247208786,0.43447877333296436,11.210024446841121,0.47105467361862624,-0.007256921000000194,-0.01912296750000042,-0.14484422049999957
52552.0,-3.04398416,-2.8256881309999997,10.291294642999999,0.09994802494470728,-0.1559538953119533,0.39211090574080204,11.097797007021063,0.43366137429357443,0.059918631499999986,-0.04785645199999955,-0.11611073600000132
52562.0,-2.985340393,-2.8256881309999997,10.120070534,0.09914866414729387,-0.12664283585396055,0.34068477933078917,10.923030636635911,0.3767425969319034,0.05864376699999996,0.0,-0.17122410899999885
52572.0,-2.8956095454999997,-2.8161756805,10.048285856,0.0908880207976047,-0.08240921129141626,0.2841937074314887,10.829748323360059,0.30954478476277664,0.08973084750000027,0.009512450499999936,-0.07178467800000021
52582.0,-2.7806756075,-2.8077419615,9.969244257,0.08395906366718722,-0.03204773572511988,0.22877077703440873,10.723870701022129,0.245789035886276,0.11493393799999962,0.008433718999999673,-0.07904159899999996
52592.0,-2.6418134435,-2.728798429,9.9416875705,0.08582482063756916,0.008454374896660533,0.17734290529514382,10.64249364039295,0.19720010738051474,0.1388621640000003,0.0789435325000003,-0.027556686500000538
52602.0,-2.546002473,-2.5719900955,10.0230827655,0.1063429113240145,0.03883008519836985,0.13950591244115876,10.65642762692711,0.17966215492256607,0.09581097049999965,0.1568083334999999,0.0813951950000007
52612.0,-2.5305079659999996,-2.3791913565,10.1715554465,0.14711205732135005,0.05135456791068115,0.11658973936247322,10.748235309950074,0.19460836667323012,0.015494507000000546,0.1927987390000001,0.14847268099999944
52622.0,-2.546002473,-2.222383023,10.4277051445,0.1974735328876464,0.040962877544306914,0.11312526079726447,10.961667276198112,0.23123814165982082,-0.015494507000000546,0.1568083334999999,0.25614969800000154
52632.0,-2.5508077315,-2.0069309225,10.723375641999999,0.24437052988873406,0.027906069410137336,0.1336433514837098,11.203801898025766,0.27992186406892633,-0.004805258499999798,0.21545210049999985,0.29567049749999796
52642.0,-2.6477955,-1.7866735634999997,10.985605462999999,0.2579596634447619,0.026040312439755398,0.17681057987328555,11.440566018384994,0.3138204374982968,-0.09698776850000002,0.22025735900000032,0.26222982100000003
52652.0,-2.7483136624999998,-1.6885089969999998,11.172324079,0.22651755697008408,0.03883008519836985,0.2285037416588536,11.628633451383584,0.32408631425023804,-0.10051816249999979,0.09816456649999994,0.18671861600000028
52662.0,-2.947094458,-1.6478113995,11.312363041,0.1615005516747913,0.0673417838589492,0.27326969164325615,11.805515902495713,0.3244898587249957,-0.19878079550000027,0.04069759749999968,0.1400389620000002
52672.0,-3.2055977519999996,-1.7423475055,11.3614943575,0.0791628988827068,0.09398772554914665,0.3044447627423789,11.9329453955448,0.3283094130156471,-0.2585032939999996,-0.09453610599999984,0.049131316500000466
52682.0,-3.4498814034999996,-1.966233325,11.3889529775,0.0013561208287995942,0.10704453368331623,0.30737691588572935,12.061343420625326,0.32548569811069067,-0.24428365149999998,-0.22388581949999997,0.027458620000000877
52692.0,-3.6269895025,-2.257098564,11.3507070425,-0.05513320574124888,0.10171604347697752,0.27326969164325615,12.12798817378691,0.29675267184427767,-0.17710809900000024,-0.29086523900000016,-0.03824593500000084
52702.0,-3.7323129234999994,-2.44381718,11.276470702,-0.08471130057479678,0.0961205178950837,0.20345652156348298,12.12687897446217,0.24043650840129227,-0.10532342099999958,-0.18671861599999984,-0.07423634050000061
