timestamp,ax,ay,az,gx,gy,gz,acc_mag,gyro_mag,dax,day,daz
73342.0,0.2786069265,0.8258179964999999,9.9118753545,-0.04322656958414356,0.01096066770252439,0.013140583938265307,9.950119106120367,0.046490294694017185,0.0,0.0,0.0
73352.0,0.8603374045,0.23565379949999998,9.9214858715,-0.06001314632982502,-0.011688470000606025,0.016070991752363786,9.961505662357206,0.06321767821792099,0.5817304779999999,-0.5901641969999999,0.009610517000000485
73362.0,1.0064564894999999,0.228494945,9.9573782105,-0.07147123286916779,-0.0002303834612632515,0.03205995302988384,10.010721524050473,0.0783328206606681,0.14611908499999993,-0.007158854499999978,0.035892339000000106
73372.0,1.1847413864999998,0.31704899449999996,9.8675492965,-0.09385508052599507,0.0218846834907569,0.05337565918449058,9.943473303461777,0.11016658524893345,0.17828489699999994,0.08855404949999995,-0.08982891399999993
73382.0,1.3428245845,0.30508488149999996,9.838815811999998,-0.12156567305990905,0.0847706417693646,0.08668352262955037,9.934714451463547,0.17169247994005563,0.15808319800000015,-0.011964112999999998,-0.028733484500001794
73392.0,1.4469712074999999,0.25124637299999997,9.920309073499999,-0.14341719529487804,0.15405148642727948,0.1226565038424055,10.0284287168552,0.24360823120647113,0.10414662299999988,-0.05383850849999999,0.08149326150000036
73402.0,1.5714175959999999,0.1279767825,10.043578663999998,-0.14981208167418528,0.20094848342836713,0.15116820250298488,10.166572859023509,0.2927042504913397,0.1244463885,-0.12326959049999997,0.12326959049999964
73412.0,1.7235187374999998,-0.052857843499999994,10.166848254499998,-0.14421655609229145,0.23318995070045836,0.17195158323573334,10.312037345750971,0.3236407192182075,0.15210114149999998,-0.180834626,0.12326959049999964
73422.0,1.9652526599999998,-0.19407360349999997,10.239907797,-0.14341719529487804,0.2550397276061754,0.1748837363790838,10.428595028683105,0.3408783885986177,0.24173392249999992,-0.14121575999999997,0.0730595425000029
73432.0,2.1795279625,-0.29341496799999994,10.2794285965,-0.16180249363538632,0.27475845749520733,0.1655566968564261,10.512044841671282,0.35927882874695727,0.21427530250000015,-0.09934136449999997,0.03952079949999998
73442.0,2.4321472665,-0.352058735,10.351213274500001,-0.19564268250230438,0.2763571790900341,0.14850308473518953,10.63893330804448,0.3697330331836277,0.252619304,-0.05864376700000007,0.07178467800000021
73452.0,2.6751560534999994,-0.428746738,10.448201043,-0.2230879849899152,0.22759442511856456,0.1258539470320591,10.793756932174709,0.34264659253443464,0.2430087869999995,-0.076688003,0.09698776849999824
73462.0,2.913359582,-0.44424124499999995,10.543913947,-0.21962525175395847,0.0948952967601837,0.1101320211300942,10.948019714063886,0.26338077119143016,0.2382035285000006,-0.015494506999999935,0.09571290400000088
73472.0,3.2006944269999997,-0.361669252,10.5332246985,-0.18285290974368992,-0.1086816525216869,0.1109313819275076,11.014720696048606,0.23990135408731078,0.28733484499999973,0.08257199299999995,-0.010689248500000303
73482.0,3.4963649245,-0.21084297499999996,10.445749380499999,-0.12103334763805078,-0.3474322222189992,0.1389107551662287,11.017381838059206,0.3932612594412997,0.2956704975000002,0.15082627700000004,-0.08747531800000097
73492.0,3.8602897059999997,0.010591182,10.212351110499998,-0.042427208786730154,-0.5749899954232719,0.18820583455955653,10.917603399625591,0.6064940222661277,0.36392478149999974,0.22143415699999996,-0.23339827000000035
73502.0,4.2218608914999995,0.308713342,9.919034209,0.02765299666859816,-0.7210112219621254,0.25935243618785336,10.784556224250409,0.7667369539657296,0.3615711854999999,0.29812216,-0.293316901499999
73512.0,4.474382128999999,0.634294122,9.653273994,0.051633820591000246,-0.7513886775930868,0.35661090875523743,10.658711145009748,0.833320068453381,0.2525212374999999,0.32558078,-0.26576021500000024
73522.0,4.60128018,0.8018897704999999,9.449786006499998,0.023122121930420878,-0.67837806432366,0.4597319422800703,10.541027562222602,0.8198078368926994,0.1268980510000004,0.16759564849999986,-0.20348798750000086
73532.0,4.5497952674999995,0.8629851999999999,9.338480529,-0.03763104400224974,-0.5174342726802549,0.5551246578770724,10.423655741729796,0.7598142587501109,-0.05148491250000031,0.06109542950000002,-0.11130547749999842
73542.0,4.330714706499999,0.7659974315,9.3324984725,-0.11650421822912549,-0.31172627638169925,0.6350642282769167,10.3168488247805,0.7169749495546793,-0.21908056100000017,-0.0969877684999999,-0.00598205650000061
73552.0,3.9381545069999997,0.5600577815,9.398301093999999,-0.2007058826623399,-0.10388548773720649,0.6886231470328666,10.205429392882236,0.7247598805998544,-0.39256019949999965,-0.20593965000000003,0.0658026214999996
73562.0,3.4975417225,0.26919254249999996,9.502447716999999,-0.2875726648633497,0.07304551985446668,0.7102058885630286,10.129253444350397,0.7696922045188055,-0.44061278449999985,-0.290865239,0.1041466230000001
73572.0,3.040257633,-0.0193191005,9.5311812015,-0.37070967845284764,0.2132059307651233,0.7126039709552688,10.004346795192872,0.8310757209985465,-0.4572840894999999,-0.288511643,0.028733484500001794
73582.0,2.6105302299999997,-0.30184868699999995,9.5156866945,-0.43812476614038054,0.30859864636212536,0.6960844295851425,9.871893130472584,0.8784759349879612,-0.42972740300000023,-0.28252958649999993,-0.015494507000001434
73592.0,2.2705336745,-0.5424058115,9.4474324105,-0.4818243199518146,0.3493677923594609,0.6630418561863858,9.731572657199518,0.8909753266450423,-0.3399965554999995,-0.24055712450000005,-0.068254284
73602.0,1.9580938054999997,-0.6693038625,9.336126933,-0.4980785712756378,0.3499001177813192,0.6150784630123296,9.562706997528622,0.8653518771280105,-0.31243986900000054,-0.12689805099999996,-0.1113054775000002
73612.0,1.649282397,-0.6538093554999999,9.225900186999999,-0.49354769653746045,0.3219224898718501,0.5649840228215884,9.394936580886537,0.8163518630384755,-0.3088114084999998,0.015494507000000102,-0.11022674600000038
73622.0,1.3236035505,-0.488567303,9.120576766,-0.4711655942098852,0.3014043991854048,0.5452652929325564,9.22905980655429,0.7811247459223755,-0.3256788465,0.16524205249999985,-0.10532342099999958
73632.0,0.9644840275000001,-0.36402284799999995,9.059579402999999,-0.4493158173041682,0.3069999247672986,0.5644516973997301,9.11804370643344,0.7840531717838249,-0.35911952299999983,0.12454445500000005,-0.06099736300000025
73642.0,0.6065413024999999,-0.24075325749999998,9.130187283,-0.4269319696473409,0.3211231290744367,0.6084182865867193,9.15347880891687,0.8096689336924289,-0.35794272500000013,0.12326959049999997,0.07060788000000073
73652.0,0.27262486999999996,-0.166516917,9.258262132,-0.3880285806203873,0.31419417194401916,0.6638412169837992,9.26377190501876,0.8306439179506414,-0.33391643249999997,0.0742363405,0.12807484900000077
73662.0,0.03912853349999999,-0.1570044665,9.4258577805,-0.33180628942589396,0.26623077876996304,0.730991014625029,9.42724648785886,0.8457671693377383,-0.23349633649999996,0.009512450499999991,0.16759564849999897
73672.0,-0.14523648649999998,-0.19770206399999998,9.491660401999999,-0.2699867273202548,0.17430254173816973,0.784549933380979,9.49483001059079,0.8478164936786655,-0.18436502,-0.04069759749999999,0.0658026214999996
73682.0,-0.255365166,-0.27429200049999997,9.512058234,-0.20257163963272187,0.06185446869067904,0.8087977926789363,9.519437972724633,0.8360712373493153,-0.11012867949999999,-0.07658993649999998,0.02039783200000045
73692.0,-0.293611101,-0.30420228299999996,9.464201782,-0.14315015991932292,-0.042865286428980735,0.8040016278944558,9.473640370946367,0.8177701503004993,-0.03824593500000001,-0.029910282499999996,-0.04785645199999955
73702.0,-0.3547065305,-0.247912112,9.325339618,-0.10264804929754251,-0.1310637548492622,0.77868737242353,9.335375521589693,0.7962840911581993,-0.06109542950000002,0.05629017099999997,-0.13886216400000073
73712.0,-0.44924263649999996,-0.162986523,9.2534568735,-0.0815976331892389,-0.16224057127763689,0.762700156475262,9.26578910092678,0.784022770969038,-0.09453610599999995,0.084925589,-0.07188274449999987
73722.0,-0.5749638895,-0.1126784085,9.258262132,-0.07600210760734506,-0.15877609271242815,0.7741564976853528,9.276782718313298,0.7939171561858552,-0.12572125300000003,0.0503081145,0.0048052585000011305
73732.0,-0.8287599915,-0.0779628675,9.316905899,-0.06934018585248272,-0.17343162244142452,0.8146603536363852,9.354018220157629,0.835797870793939,-0.253796102,0.03471554099999999,0.058643766999999514
73742.0,-1.034601575,-0.069627215,9.363585553,-0.03283487921776932,-0.21659885083100028,0.8847388137624616,9.420827074965947,0.9114581504668017,-0.20584158349999992,0.008335652499999999,0.04667965400000007
73752.0,-1.2094541444999998,-0.142588691,9.4474324105,0.031649800655665174,-0.2741545735740173,0.9641443134111956,9.525601818962157,1.0028642466337307,-0.17485256949999983,-0.07296147599999998,0.08384685749999932
73762.0,-1.3770497929999999,-0.208489379,9.5504022355,0.10545977472250537,-0.3516943162523694,1.038488358229146,9.651420455736066,1.1014847826212626,-0.16759564850000008,-0.06590068800000001,0.10296982500000063
73772.0,-1.5745557239999999,-0.2754687985,9.6341510265,0.17367422320745174,-0.4239055687243828,1.0931136731580646,9.765857606392753,1.1852241009392992,-0.19750593100000002,-0.0669794195,0.08374879099999966
73782.0,-1.7589207439999999,-0.326953711,9.734669189,0.22589971041487805,-0.4713366364765807,1.1194925794727069,9.897701002357875,1.2354968796176853,-0.18436502,-0.05148491249999998,0.10051816250000023
73792.0,-1.936028843,-0.347351543,9.7814469095,0.2538790836535992,-0.47613280126106106,1.1168274617049114,9.977252348152746,1.2403469727345375,-0.17710809900000024,-0.020397832000000005,0.04677772049999973
73802.0,-2.109606548,-0.359315656,9.8544083855,0.2610733308303198,-0.4430919731915564,1.0971104771451317,10.084092034299562,1.2116687582995787,-0.1735777049999998,-0.011964112999999998,0.07296147599999969
73812.0,-2.2820074549999996,-0.36647451049999996,9.964537065,0.26293908780070174,-0.39139881140598837,1.0728626178471743,10.229069386375311,1.1719062207520605,-0.17240090699999966,-0.007158854499999978,0.11012867950000071
73822.0,-2.4507799015,-0.2766455965,10.067506889999999,0.2690669388044538,-0.3375728572744833,1.044616209232898,10.36520862751236,1.1302988437215038,-0.16877244650000023,0.08982891399999998,0.10296982499999885
73832.0,-2.605234639,-0.1809326925,10.3068872165,0.2706656603992806,-0.27975009915591115,1.0131741027582204,10.632587091442604,1.0853763311391333,-0.15445473750000005,0.09571290399999999,0.23938032650000096
73842.0,-2.7704766915,-0.08394492399999999,10.4900754385,0.2581429230162213,-0.21500012923617348,0.9843953687220858,10.85008159203566,1.0401428105007606,-0.16524205250000001,0.0969877685,0.18318822200000007
73852.0,-3.044572559,-0.1246425215,10.6971918865,0.21950482403557087,-0.15930841813428642,0.9364337208772816,11.12271873607272,0.9749203318525089,-0.27409586750000026,-0.040697597500000016,0.20711644800000073
73862.0,-3.1702938119999997,-0.12827098199999998,10.8599822765,0.16221613666810897,-0.08949524805451324,0.909520743811529,11.313992723398883,0.9281979626369272,-0.1257212529999996,-0.003628460499999972,0.16279038999999962
73872.0,-3.4432128814999996,-0.131801376,11.0335599815,0.10785785711474558,-0.03753505089339005,0.8724813664257054,11.559088736375427,0.8799238217863068,-0.2729190694999999,-0.00353039400000002,0.17357770499999958
73882.0,-3.643170475,-0.29586663049999995,11.213119743,0.07268423669930386,-0.05645441998500858,0.8306475695846532,11.793823915245282,0.8357305095886446,-0.1999575935000002,-0.16406525449999995,0.1795597615000002
73892.0,-3.7568295485,-0.4347287945,11.4154309325,0.07668104068637088,-0.14172248059119158,0.7797537685964987,12.025590245635678,0.7962293533562472,-0.11365907350000004,-0.13886216400000007,0.2023111894999996
73902.0,-3.7568295485,-0.5759445544999999,11.563903613499999,0.11745018668370641,-0.2816158561262931,0.7107399593141389,12.172483196482927,0.7734683746215137,0.0,-0.1412157599999999,0.14847268099999944
74602.0,0.4761128575,0.4559111584999999,9.740651245499999,-0.022443188851395086,-0.16490568904543224,-0.1494019292999666,9.762931174805152,0.2236482047411076,4.232942405999999,1.031855713,-1.8232523680000003
