timestamp,ax,ay,az,gx,gy,gz,acc_mag,gyro_mag,dax,day,daz
42102.0,2.6253382715,-1.4469712074999999,9.39084804,0.04633151032344147,0.1887049987256269,0.14058627124814324,9.857695147726393,0.23983470361135506,0.0,0.0,0.0
42112.0,2.1656025194999997,-1.0172438045,9.371627006,0.0449980787749178,0.2289418193011042,0.14591476145448193,9.672228903921107,0.27519139036069334,-0.4597357520000003,0.4297274029999998,-0.019221033999999193
42122.0,2.193159206,-1.0052796915,9.3417167235,0.005295328950550796,0.24093223126230523,0.13259266327400923,9.648222940164912,0.275058529996476,0.027556686500000094,0.01196411300000011,-0.029910282500001273
42132.0,2.0830305264999995,-1.0747107735,9.3776090625,-0.030675906933052336,0.30461755033832627,0.1682986091113092,9.666104238528051,0.34936697764541125,-0.11012867950000027,-0.06943108200000014,0.035892339000000106
42142.0,1.8843477974999998,-1.0220490629999999,9.448315009,-0.03947062103385176,0.3347279705937325,0.19494455080150663,9.688447110781837,0.38936374010659724,-0.19868272899999972,0.052661710500000236,0.0707059465000004
42152.0,1.601818211,-1.1189387649999998,9.473420033,-0.030675906933052336,0.3533803043097959,0.2170613630827788,9.672824440800975,0.4158536835037092,-0.2825295864999997,-0.09688970199999991,0.025105024000000142
42162.0,1.324093883,-1.2375011635,9.5607972845,-0.005895722213236845,0.34165518239489795,0.22505497105691283,9.731057417154851,0.40916104799349423,-0.27772432800000013,-0.11856239850000017,0.08737725149999953
42172.0,1.174444404,-1.3559654955,9.633856826999999,0.033807027611130164,0.3035511541653578,0.20640263734084943,9.799446894912384,0.36863025786318565,-0.14964947900000003,-0.11846433200000006,0.07305954249999935
42182.0,1.1553214365,-1.4110788684999997,9.706818303,0.06871361265101675,0.28090201646222734,0.16563349134351388,9.876650887938657,0.3332595938165041,-0.019122967499999977,-0.055113372999999743,0.07296147600000147
42192.0,1.229557777,-1.4218661835,9.8169469825,0.0908304249322889,0.2766381770996052,0.11553905115277263,9.995297085528668,0.3132540813200296,0.07423634049999994,-0.010787315000000186,0.11012867949999894
42202.0,1.4820790144999998,-1.4326534985,9.8828476705,0.0924291465271157,0.2859652166222629,0.0750369405309922,10.095530314465549,0.30975763863026917,0.2525212374999999,-0.010787314999999964,0.06590068800000104
42212.0,1.820898772,-1.3404709885,9.915111549,0.06738192643174508,0.3152745307510037,0.04492652027558604,10.169659376694701,0.32550997830172784,0.33881975750000026,0.09218251,0.03226387850000023
42222.0,2.075871672,-1.1788573965,9.99297635,0.03114190984333482,0.3501828611201423,0.031070351344003055,10.274167815037583,0.3529351519806706,0.25497289999999984,0.16161359199999992,0.0778648009999987
42232.0,2.1860003514999997,-0.9981208369999999,10.0564253755,0.01382300767579509,0.36989984567992223,0.05265309287416493,10.339561599749382,0.3738840991061947,0.11012867949999983,0.18073655950000012,0.06344902550000064
42242.0,2.281811322,-0.9034866645,10.0934945125,0.013023646878381687,0.3533803043097959,0.1006164860482211,10.38756865373242,0.3676559969819459,0.09581097050000009,0.09463417249999984,0.037069136999999586
42252.0,2.2937754349999997,-0.9082919229999998,10.109087085999999,0.015954054692480166,0.31980540548918096,0.15497476560158452,10.405769634002496,0.35573474277120615,0.011964112999999887,-0.004805258499999798,0.015592573499999318
42262.0,2.306916346,-0.9586000375,10.109087085999999,0.025813419636996137,0.26704584753064436,0.1984090293667154,10.413184852467998,0.33368542109441635,0.013140911000000255,-0.05030811450000017,0.0
42272.0,2.3356498305,-1.048330885,10.076725140999999,0.0356727845815121,0.20602564622241862,0.22691898269804275,10.396857570555682,0.3085633470940429,0.028733484500000017,-0.08973084749999993,-0.03236194499999989
42282.0,2.4266555425,-1.0854980884999998,10.008470856999999,0.039402553193023986,0.14474015486788974,0.2402428262077675,10.355503470015421,0.2832293932020569,0.09100571199999985,-0.03716720349999991,-0.068254284
42292.0,2.505599075,-1.079516032,9.927075662,0.03673743542522865,0.08931547914155782,0.2402428262077675,10.295154820936819,0.2589276144411879,0.0789435325000003,0.005982056499999944,-0.08139519499999892
42302.0,2.6265150695,-1.0554897395,9.844503669,0.03700447080078378,0.04321784293788359,0.2442396301948345,10.243382863559031,0.25077900583015145,0.12091599449999979,0.02402629249999988,-0.08257199300000018
42312.0,2.7366437489999997,-1.045977289,9.7128003595,0.043399357180091004,0.018435912888816103,0.24317323402186594,10.145037127657439,0.24770266214221903,0.11012867949999983,0.009512450499999936,-0.13170330950000064
42322.0,2.922185567,-1.116585169,9.631405164499999,0.050328314310508486,0.007511897100583594,0.2290517750439798,10.126692271930214,0.2346360660047492,0.18554181800000036,-0.07060787999999985,-0.0813951950000007
42332.0,3.130478813,-1.106974652,9.5356922605,0.05858895766019765,0.010709340290237207,0.21412920993942833,10.097262865042783,0.22225812578721232,0.20829324599999977,0.00961051700000004,-0.0957129039999991
42342.0,3.300526124,-0.9896871179999999,9.500976719499999,0.0761748952032925,0.0277629524114738,0.2085336843575345,10.106508393665072,0.22374023709999544,0.17004731100000026,0.11728753400000003,-0.03471554100000063
42352.0,3.43821149,-0.8986814059999999,9.5141176305,0.09829170748456466,0.04907865856608054,0.23278154365549172,10.156148916122149,0.25740478152806473,0.13768536599999992,0.09100571199999996,0.013140911000000699
42362.0,3.5399064504999997,-0.7610941065,9.569132937,0.11507828423024612,0.06693163148473055,0.2916706979470324,10.231251491543876,0.32061604893625345,0.10169496049999971,0.13758729949999993,0.05501530649999964
42372.0,3.5387296525,-0.735891016,9.614635793,0.12200549603141161,0.07945611419704186,0.37853748014804217,10.271580432092668,0.4055727296330383,-0.0011767979999999234,0.025203090500000025,0.04550285600000059
42382.0,3.477634223,-0.8197378734999999,9.681713279,0.10841636247538376,0.08824908296858928,0.4699333917579772,10.319955522529932,0.490285020152918,-0.06109542949999991,-0.08384685749999998,0.06707748600000052
42392.0,3.3890801735,-0.9262380925,9.658961850999999,0.08230274620704461,0.08451931435707741,0.5376155148210653,10.278099311909871,0.5504068479851343,-0.0885540494999999,-0.10650021900000006,-0.022751428000001184
42402.0,3.2502180094999997,-1.0303847154999999,9.569132937,0.06471680866394974,0.07172954159846295,0.5797163470376725,10.158440576052625,0.5877111837325159,-0.1388621640000003,-0.10414662299999988,-0.08982891399999993
42412.0,3.1460713864999996,-1.1249208215,9.479402089499999,0.05858895766019765,0.04854633314422228,0.5943718767666689,10.050983832342743,0.599222279552914,-0.1041466230000001,-0.09453610600000006,-0.08973084750000027
42422.0,3.1437177905,-1.1943519034999999,9.3393631275,0.05805488690908738,0.014971434323607358,0.5877099550118066,9.926386132072784,0.590760107793098,-0.0023535959999994027,-0.06943108199999992,-0.14003896199999843
42432.0,3.198733097,-1.103444258,9.162156962,0.06524913408580801,-0.014871950556243681,0.5773182646454323,9.76701606698184,0.5811841387249901,0.05501530649999964,0.09090764549999997,-0.17720616550000123
42442.0,3.3196490914999996,-0.9777230049999999,9.0161359435,0.07670722062515077,-0.024197244749649387,0.5791840216158143,9.657469633236008,0.5847423665552018,0.12091599449999979,0.12572125300000003,-0.14602101849999904
42452.0,3.4261493105,-0.8412144369999999,8.932289085999999,0.09109746030784403,-0.016470672151070488,0.6018331593189448,9.603745578821398,0.6089114730167839,0.1065002190000004,0.136508568,-0.08384685750000109
42462.0,3.450175603,-0.7945347829999999,8.858150812,0.10282083689348995,0.005113814708343385,0.6431346307381385,9.539488090095272,0.6513220623125173,0.02402629249999988,0.04667965399999996,-0.07413827399999917
42472.0,3.3734875999999994,-0.725103701,8.806665899499999,0.10734996630241522,0.038954003575261444,0.6993586672618839,9.458517760726243,0.7086211788635657,-0.07668800300000056,0.06943108199999992,-0.0514849125000012
42482.0,3.2801282919999997,-0.7717833550000001,8.870114925,0.11587764502765953,0.06666634143842741,0.7579790408486174,9.488615807468529,0.7696780210345955,-0.0933593079999997,-0.04667965400000007,0.06344902550000064
42492.0,3.1592122975,-0.8149326149999999,8.894043151,0.13506230416558118,0.09357931850417997,0.810738598807154,9.473581217233322,0.8272218508078774,-0.12091599449999979,-0.043149259999999856,0.023928226000000663
42502.0,2.9533707139999996,-0.7850223324999999,8.884432634,0.15424870863275486,0.13701183694005886,0.872558160912793,9.395307438552544,0.896617338529697,-0.20584158350000026,0.02991028250000005,-0.009610517000000485
42512.0,2.680353578,-0.8639658649999999,8.9023788035,0.168370167610641,0.1974997128264263,0.9426383663681215,9.337188049942482,0.9777125035801256,-0.27301713599999955,-0.07894353250000008,0.017946169500000053
42522.0,2.363206517,-1.048330885,8.9382711425,0.18382505813705077,0.2625167181217191,0.9866049555551106,9.304645812887474,1.037350479644363,-0.317147061,-0.18436502,0.035892339000000106
42532.0,2.0459613895,-1.287809278,8.986225661,0.1990146586171574,0.32060476628659434,0.9882036771499374,9.305732769333243,1.0577999612605604,-0.3172451275000001,-0.23947839299999996,0.04795451850000099
42542.0,1.7705906574999999,-1.4649173770000001,9.176572737499999,0.21260379217318526,0.3485823941960635,0.9485009273255705,9.459939820341939,1.032649053225415,-0.27537073200000006,-0.17710809900000024,0.19034707649999838
42552.0,1.624569639,-1.5067917725,9.312983239,0.22885804349700847,0.327799013463315,0.8834839220302776,9.572946503952124,0.9697278163416798,-0.14602101849999993,-0.04187439549999983,0.13641050150000034
42562.0,1.5611206135,-1.4554049264999998,9.4123246035,0.24271421242859142,0.26944392992288463,0.8259281992872607,9.651277403101961,0.9020352602116044,-0.06344902549999998,0.05138684600000021,0.09934136450000075
42572.0,1.510812499,-1.348806641,9.4590042575,0.25070782040272543,0.2033605284546233,0.7971494652511261,9.673396265290876,0.8600332468542045,-0.050308114499999945,0.10659828549999983,0.04667965400000007
42582.0,1.4473634734999998,-1.1943519034999999,9.405165749,0.2555039851872059,0.1615267316135712,0.7982158614240946,9.590541187022701,0.8535348457452198,-0.0634490255000002,0.15445473750000005,-0.05383850850000016
42592.0,1.266626914,-1.011261748,9.310629643,0.2642969539587533,0.15326608826388205,0.8144701127479178,9.450651745321457,0.8698878883184852,-0.1807365594999999,0.18309015549999996,-0.09453610599999962
42602.0,0.9937078444999999,-0.838860841,9.243552157,0.28721312703743884,0.18444290469225677,0.8221966853464968,9.334580829901437,0.8902347751176131,-0.2729190695,0.17240090699999988,-0.06707748600000052
42612.0,0.699214145,-0.828073526,9.2626751245,0.31012930011612444,0.26118328657319545,0.8000798730652247,9.32586492755826,0.8969530061601662,-0.29449369949999993,0.010787315000000075,0.019122967499999532
42622.0,0.318519992,-0.8496481559999999,9.3644681515,0.3095952293650141,0.3651036808954418,0.7313330991584199,9.408327201726975,0.8740697945665641,-0.38069415300000004,-0.021574629999999928,0.10179302700000115
42632.0,0.065900688,-0.9346718115,9.651802996499999,0.29307568799488787,0.4365155725700418,0.6095597319175236,9.697177701740745,0.8049858823390579,-0.252619304,-0.08502365550000013,0.2873348449999984
42642.0,-0.0106892485,-0.9154507774999999,9.912757953,0.2741563189032693,0.4373149333674552,0.4803250821243515,9.954945234446225,0.705066112260785,-0.0765899365,0.01922103400000008,0.2609549565000009
42652.0,0.004903325,-0.7059807334999999,10.1150691425,0.25683567140647756,0.37336432424513094,0.404117025665271,10.139677341820347,0.6071869985090135,0.0155925735,0.20947004400000002,0.2023111894999996
42662.0,0.04314926,-0.365984178,10.292275307999999,0.24218014167748117,0.26784520832805775,0.4150427867827556,10.298870680460618,0.5501388838353651,0.038245935,0.3399965554999999,0.17720616549999946
42672.0,-0.06452775699999999,0.0685484835,10.343662153999999,0.22086443552287444,0.1583292884239176,0.5069710238145488,10.344090558483403,0.5752120317232888,-0.10767701699999999,0.4345326615,0.051386845999999764
42682.0,-0.247715979,0.37618309399999994,10.330521243,0.20007930946087393,0.08585100057634908,0.6370050344051345,10.34033587841989,0.6731846241795686,-0.183188222,0.30763461049999996,-0.013140910999998923
42692.0,-0.435611393,0.35706012649999996,10.346113816499999,0.1886212229215312,0.05281017250684442,0.7715699197338973,10.361434279269437,0.7960446099904134,-0.187895414,-0.019122967499999977,0.015592573499999318
42702.0,-0.6379225824999999,0.08286619249999999,10.285018387,0.17796424250885381,0.04668057617384033,0.8656309491116276,10.305115974507563,0.8849673936725404,-0.20231118949999988,-0.274193934,-0.06109542949999991
42712.0,-0.9563445079999999,-0.1852476185,10.286195184999999,0.16197528123133376,0.06879738845511249,0.8986717771811322,10.332217713640128,0.9157401571898591,-0.31842192550000004,-0.268113811,0.0011767979999994793
42722.0,-1.3083051765,-0.40315138149999996,10.270700677999999,0.15185062624051465,0.08665036137376247,0.8912104946288566,10.361538779946331,0.9081976896868056,-0.3519606685000001,-0.21790376299999997,-0.015494506999999658
42732.0,-1.531014198,-0.515633657,10.192835876999998,0.15185062624051465,0.1031716480731408,0.8629658313438322,10.320067139227685,0.8822771830455075,-0.22270902150000005,-0.1124822755,-0.07786480100000048
42742.0,-1.774022985,-0.5682953675,10.170084449,0.15584743022758166,0.1404763155052676,0.834721168058808,10.339281158563294,0.8606866126134048,-0.24300878699999995,-0.052661710500000014,-0.02275142799999763
42752.0,-1.9476006899999998,-0.6544958209999999,10.1378205705,0.15744615182240848,0.18257714772187483,0.803012026208575,10.343931513068322,0.8384223397724689,-0.1735777049999998,-0.08620045349999994,-0.03226387850000023
42762.0,-1.9535827465,-0.8448428975,10.076725140999999,0.15904487341723528,0.2145533249476629,0.7603771232408576,10.299059890890048,0.8059167268114269,-0.005982056500000166,-0.19034707650000005,-0.061095429500001686
42772.0,-1.9057262945,-0.8783816404999999,10.0803536015,0.17210168155140484,0.2316069370688995,0.6998909926837421,10.296449667103229,0.757039076753038,0.047856451999999994,-0.033538742999999926,0.003628460500001651
42782.0,-1.799128009,-0.8113041544999999,10.109087085999999,0.1904869798919131,0.22840949387924592,0.6306101480258273,10.299937753996828,0.6972268964947288,0.10659828550000006,0.06707748599999996,0.02873348449999824
42792.0,-1.703415105,-0.686857766,10.160571998499998,0.20061338021198424,0.21855012893472994,0.5711886683124283,10.325241883237357,0.6436352864674143,0.09571290399999999,0.1244463884999999,0.051484912499999425
42802.0,-1.6207450454999999,-0.6018341105,10.2215693615,0.19634954084936207,0.21135588175800932,0.5357497578506834,10.366749684015218,0.608483569196841,0.08267005950000006,0.08502365550000002,0.060997363000002025
42812.0,-1.5692601329999998,-0.5060231399999999,10.253931306499998,0.17476505398994818,0.2180160581836197,0.5258903929061675,10.385650871354159,0.5955119907046676,0.05148491250000009,0.09581097050000009,0.032361944999998116
42822.0,-1.645948136,-0.5144568589999999,10.310221477499999,0.14412230831268374,0.2462624667978959,0.5376155148210653,10.453443358112974,0.6086434786334938,-0.07668800300000012,-0.008433719000000006,0.056290171000000555
42832.0,-1.7584304114999998,-0.5707470299999999,10.301787758499998,0.10895043322649403,0.2811690518377825,0.5613310486971643,10.46635852173631,0.6371960285838705,-0.1124822754999999,-0.056290171,-0.008433719000001005
42842.0,-1.9140619469999998,-0.6496905625,10.17734137,0.07350977743549718,0.33019709585555523,0.5613310486971643,10.37612684605718,0.6553826025471818,-0.15563153549999997,-0.07894353250000008,-0.12444638849999734
42852.0,-2.1032322254999998,-0.653319023,10.1019282315,0.05459040834387864,0.3789598498270248,0.5317529538636163,10.339214938019815,0.6552494825688563,-0.1891702785,-0.003628460499999986,-0.07541313850000009
42862.0,-2.2336606705,-0.7048039355,10.083982062,0.05166000052978016,0.40747154848760414,0.47393019574504425,10.35242400624958,0.6271456361329152,-0.13042844500000017,-0.05148491249999998,-0.017946169500000053
42872.0,-2.237289131,-0.7850223324999999,10.118697603,0.04526511415047294,0.4128000386939429,0.3897285313118298,10.392774600614237,0.5695095527058804,-0.003628460499999875,-0.08021839699999989,0.03471554099999885
42882.0,-2.1151963384999997,-0.8328787845,10.1760665055,0.028478537404791473,0.395214101150848,0.2932694195418592,10.4268917777271,0.4929626408558846,0.12209279250000016,-0.047856452000000105,0.057368902500000374
42892.0,-2.0266422889999998,-0.8556302124999999,10.203623192,0.010625564486141478,0.3581764690942763,0.20800135893567623,10.43807014119115,0.4143281923217152,0.0885540494999999,-0.022751427999999962,0.027556686500000538
42902.0,-1.8781696079999999,-0.793357985,10.203623192,-0.005628686837681713,0.31261115831246034,0.14778051842486387,10.4053286451269,0.3458272690851552,0.14847268099999988,0.062272227499999944,0.0
42912.0,-1.6602658449999999,-0.7742350175,10.184500224499999,-0.02001892652037496,0.25665415716427015,0.1147396903553592,10.347945079156407,0.28184625303802385,0.21790376300000003,0.019122967499999977,-0.01912296750000131
42922.0,-1.4077446075,-0.745501533,10.130661715999999,-0.022949334334473437,0.2001630852649697,0.11287393338497728,10.255136479817258,0.23093821140509263,0.2525212374999999,0.028733484500000017,-0.05383850850000016
42932.0,-1.3059515805,-0.6820525075,10.051620116999999,-0.016821483330721348,0.1567305668290908,0.14191795746741492,10.159024172137626,0.21210407712190926,0.10179302700000004,0.06344902549999998,-0.07904159899999996
42942.0,-1.2724128375,-0.6940166204999999,9.923545267999998,-0.005096361415823442,0.13328206832854697,0.1853522212325458,10.028830648914667,0.2283539545386827,0.03353874300000004,-0.011964112999999887,-0.12807484900000077
42952.0,-1.2891822089999998,-0.8257199299999999,9.852937388,0.009026842891314672,0.13088398593630676,0.2117311275471881,9.971167401194787,0.24908266105765664,-0.016769371499999908,-0.13170330949999998,-0.07060787999999718
42962.0,-1.2820233545000002,-1.0088100855,9.85764458,0.0162210900680353,0.1388775939104408,0.20293815877564067,9.991718487612296,0.24644270356534348,0.007158854499999645,-0.18309015550000007,0.004707191999999694
42972.0,-1.2712360395,-1.206414083,9.807434532,0.009026842891314672,0.15326608826388205,0.15230964783378914,9.962793188019635,0.2162642053774721,0.010787315000000186,-0.19760399750000013,-0.050210048000000285
42982.0,-1.301146322,-1.1549291705,9.881670872499999,-0.0024312436480281013,0.16978737496326035,0.07770031296953556,10.033656480692413,0.1867377901715521,-0.02991028249999994,0.05148491250000009,0.07423634049999883
42992.0,-1.2041585535,-1.256624131,9.955809146499998,-0.013889330187370874,0.1644571394276697,-0.0014381513036433276,10.106791666503854,0.1650488790660451,0.09698776850000002,-0.10169496049999993,0.07413827399999917
43002.0,-0.9946885095,-1.3177195604999998,9.995329945999998,-0.018952530347406425,0.1474035273064331,-0.06592283117707783,10.130765558459043,0.162581726954013,0.2094700439999999,-0.06109542949999991,0.03952079949999998
43012.0,-0.8079698935,-1.2758451649999998,10.001312002499999,-0.029344220713780664,0.12182398178920421,-0.10056238084140928,10.1146842761011,0.16067034035181502,0.18671861599999995,0.04187439550000005,0.00598205650000061
43022.0,-0.5912429285,-1.2147497354999999,9.946296696,-0.049328240649115736,0.09597740089642018,-0.11361918897557886,10.037629355841899,0.15669797992264461,0.216726965,0.06109542949999991,-0.05501530649999964
43032.0,-0.330287972,-1.140513395,9.8744139515,-0.06398377037811212,0.06853035307955735,-0.10322749860920463,9.94554733708508,0.1394498068629753,0.26095495650000006,0.07423634049999994,-0.07188274449999987
43042.0,-0.20819517949999997,-1.1680700814999998,9.777524249499999,-0.06318440958069872,0.053342497928702694,-0.08217708250090101,9.84924938244651,0.11657943466879155,0.12209279250000002,-0.027556686499999872,-0.09688970200000036
43052.0,-0.154356671,-1.1345313385,9.660138649,-0.04772951905428893,0.056007615696498037,-0.05393241921587678,9.727757504061476,0.09123412655162222,0.053838508499999965,0.033538742999999815,-0.11738560049999869
43062.0,-0.09443803949999999,-1.1333545405,9.6159106575,-0.0312099776841626,0.07412762399070318,-0.027284732196427353,9.682930797583895,0.08493187832953984,0.059918631500000014,0.0011767979999999234,-0.044227991499999675
43072.0,-0.033440676499999995,-1.171698542,9.718782416,-0.013622294811815741,0.09038187531452635,-0.0017051866791984599,9.789214851136965,0.09141858652878815,0.06099736299999999,-0.038344001499999836,0.10287175849999919
43082.0,-0.029812216,-1.241129624,9.919916807499998,0.015154693895066762,0.07652570638294337,0.016147786239451536,9.997301684930498,0.07966554766583014,0.0036284604999999963,-0.06943108200000014,0.20113439149999834
43092.0,-0.0010787315,-1.2554473329999998,10.0599557695,0.03087661979703168,0.018170622842512963,0.0244084295891407,10.137990888430252,0.04335099329407969,0.0287334845,-0.014317708999999734,0.140038962000002
43102.0,0.09826263299999999,-1.2303423089999999,10.0803536015,0.021549580274373984,-0.05137725719095708,0.031869712141416456,10.15563520778654,0.06418477637605499,0.09934136449999999,0.02510502399999992,0.02039783200000045
