timestamp,ax,ay,az,gx,gy,gz,acc_mag,gyro_mag,dax,day,daz
41402.0,-0.053936574999999994,0.088848249,9.5078413745,0.13624738272768533,-0.053620005279769796,0.08049283977272649,9.50840947625454,0.1670854617284961,0.0,0.0,0.0
41412.0,0.477583855,-0.002157463,9.485089946499999,0.12372464534462602,-0.0746704213880734,0.073563882642309,9.497105995322922,0.16215765330485438,0.53152043,-0.091005712,-0.022751428000001184
41422.0,0.5626075104999999,0.055309505999999994,9.50068252,0.13731377890065388,-0.026441738167714092,0.04958305871990691,9.51748678476406,0.14836683964191372,0.0850236554999999,0.05746696899999999,0.015592573500001095
41432.0,0.533874026,0.25291350349999997,9.4252693815,0.1647590813882647,0.017791886394830196,0.032794736644973455,9.44376458991495,0.16893075762869394,-0.028733484499999906,0.19760399749999996,-0.07541313850000009
41442.0,0.48954796799999994,0.5245577084999999,9.469497373,0.18128036808764303,0.0465688751017127,0.04451985855987136,9.496641432620986,0.19238827871890016,-0.04432605800000006,0.27164420499999997,0.044227991499999675
41452.0,0.544661341,0.6263507355,9.525787544,0.1980669448333245,0.0652212088177761,0.0759619650345492,9.561882636472111,0.22193364063874868,0.05511337300000002,0.10179302700000004,0.056290171000000555
41462.0,0.6750897859999999,0.5677069684999999,9.5915901655,0.1988663056307379,0.09373290747835547,0.1148653540615028,9.632063087633993,0.24804780793878908,0.13042844499999995,-0.05864376700000007,0.0658026214999996
41472.0,0.677443382,0.471895998,9.6598444495,0.18314612505802497,0.12784013172082864,0.14017960953242858,9.695061121895002,0.2636966540000701,0.002353596000000069,-0.09581097049999993,0.068254284
41482.0,0.604481906,0.32469818149999996,9.7628142745,0.16049698735489457,0.15475310878658122,0.13644984092091667,9.78689786613367,0.2613931267582453,-0.07296147600000003,-0.14719781650000002,0.10296982500000063
41492.0,0.487194372,0.12238699199999999,9.8310685585,0.13278464949172858,0.17153968553226268,0.09168389093651412,9.84389384003335,0.23550703325040506,-0.11728753399999997,-0.2023111895,0.068254284
41502.0,0.418940088,0.0218688295,9.89687118,0.11439760582196833,0.17047503468854613,0.020804324683772406,9.905758335258929,0.2063525371673614,-0.068254284,-0.10051816249999998,0.0658026214999996
41512.0,0.42972740299999995,0.1391563635,9.966302262,0.11306591960269666,0.15715119117882143,-0.05060756699082758,9.976533010617365,0.20010378532465858,0.010787314999999964,0.117287534,0.06943108199999948
41522.0,0.442868314,0.37618309399999994,9.986700093999998,0.11919377060644874,0.13556844964865955,-0.09324072462929306,10.00359059694349,0.20317429025572972,0.013140911000000033,0.23702673049999995,0.020397831999998672
41532.0,0.4967068225,0.5700605645,10.024946028999999,0.12079249220127555,0.1118529157725606,-0.10496584654419097,10.05341880153607,0.19524274603620334,0.05383850849999999,0.19387747050000004,0.03824593500000084
41542.0,0.5745716235,0.6442969049999999,10.082412997999999,0.11226655880528326,0.09613098987059568,-0.09057735219074972,10.119303479714565,0.17334706276533157,0.07786480100000004,0.07423634049999994,0.057466969000000034
41552.0,0.6667541334999999,0.6934282214999999,10.098005571499998,0.09681166827887347,0.08920377806943018,-0.06126629273275695,10.143723196881755,0.14520114242668566,0.09218250999999988,0.04913131650000002,0.015592573499999318
41562.0,0.718239046,0.6718535915,10.149490484000001,0.07496189137315645,0.08414057790939464,-0.02449395072248842,10.197029550825917,0.1153207510865391,0.05148491250000009,-0.021574629999999928,0.05148491250000298
41572.0,0.756484981,0.6323327919999999,10.1350747085,0.05524316148412452,0.07508057376229207,0.009080948098126497,10.182919700812407,0.09365555544438839,0.03824593499999995,-0.03952079950000009,-0.014415775500001615
41582.0,0.8091466915,0.6000689135,10.150667281999999,0.04645019271257709,0.0652212088177761,0.03386113281794199,10.200531718453686,0.08693677471819283,0.052661710500000014,-0.0322638784999999,0.015592573499999318
41592.0,0.8031646349999999,0.574865823,10.154295742499999,0.04405211032033688,0.06015975398699254,0.050647709563623446,10.202218688673643,0.09013864269829976,-0.005982056500000055,-0.025203090500000025,0.003628460499999875
41602.0,0.8175804105,0.49229383,10.17341871,0.03366041995396264,0.06149144020626422,0.05091474493917858,10.218083929566614,0.08664024666596526,0.014415775500000061,-0.08257199300000001,0.01912296750000131
41612.0,0.860631604,0.4216859499999999,10.1590029345,0.017406168630139447,0.07108376977522506,0.040790089948359476,10.204109290938167,0.08378370050214604,0.043051193500000084,-0.07060788000000007,-0.014415775499999839
41622.0,0.9288858879999999,0.4264912085,10.137526371,0.004349360495969869,0.07481528371598893,0.02959729345531984,10.188923626496264,0.08057445869571908,0.06825428399999989,0.004805258500000076,-0.021476563500000267
41632.0,1.054607141,0.4311984005,10.05966157,0.00035255650890285455,0.07241545599449672,0.026666885641221362,10.123977438999793,0.07717023618458635,0.12572125300000003,0.004707192000000027,-0.07786480100000048
41642.0,1.174248271,0.3929524655,9.9579666095,0.002750638901143063,0.0753476091378472,0.024801128670839424,10.034658421590938,0.07937206183854499,0.11964112999999998,-0.03824593500000001,-0.10169496049999971
41652.0,1.3263494125,0.3390158905,9.882553471,0.0011519173063162576,0.08733802109904824,0.019737928510803873,9.976923255454295,0.08954799084779061,0.15210114149999998,-0.05393657500000004,-0.07541313850000009
41662.0,1.4675651725,0.39412926349999994,9.8430326715,-0.005777039824101231,0.10439163322028484,0.019472638464500733,9.959637422321077,0.10634928737089347,0.14121576000000013,0.055113372999999966,-0.03952079949999998
41672.0,1.611232595,0.4934706279999999,9.884907067,-0.016435765566030602,0.12677548087711213,0.03466049361535539,10.027510730939943,0.13245190356889794,0.14366742249999986,0.09934136449999997,0.041874395500000716
41682.0,1.7417591064999998,0.5773174855,9.9460024965,-0.027892106776121382,0.1438290929983487,0.06636963546558837,10.113851191535495,0.16084062336665225,0.13052651149999983,0.08384685750000004,0.06109542949999991
41692.0,1.8111901885,0.597617251,9.9722843185,-0.042015311083259496,0.15102334017506935,0.1031419774758569,10.153029636843009,0.18764755037220165,0.06943108200000014,0.02029976550000001,0.02628182199999962
41702.0,1.8662054949999998,0.537796686,9.997487409,-0.05507211921742908,0.1438290929983487,0.13218600155829452,10.184385240069933,0.20296030477853494,0.05501530649999986,-0.05982056499999999,0.025203090499999803
41712.0,1.9153368115,0.45757828899999997,9.955514947,-0.06093468017487803,0.12704077092341526,0.14710856666284605,10.148407306173297,0.20369909943450257,0.049131316500000244,-0.080218397,-0.04197246200000038
41722.0,1.9763341744999998,0.4384553215,9.856173582499999,-0.05267403682518886,0.10652268023696991,0.14844025288211773,10.06192315249024,0.19014769058822711,0.060997362999999805,-0.019122967499999977,-0.09934136450000075
41732.0,2.063711426,0.41442902899999995,9.7496733635,-0.03881786789360588,0.08733802109904824,0.14311001734652706,9.974306340032987,0.1720907721588421,0.08737725149999997,-0.024026292500000046,-0.10650021899999906
41742.0,2.1703097115,0.480329717,9.6347394255,-0.026293385181294572,0.07827801695194568,0.13644984092091667,9.88782911857545,0.15949090610302671,0.10659828550000006,0.06590068800000004,-0.11493393800000007
41752.0,2.2588637609999997,0.6383148484999999,9.5521674325,-0.00870744763819971,0.08467290333125291,0.14497577431690897,9.836351660808406,0.1681169097434967,0.0885540494999999,0.15798513149999988,-0.08257199300000018
41762.0,2.2756331325,0.8466080945,9.549715769999999,0.011276572297135364,0.11664908055704103,0.18814300270648474,9.853543662418682,0.22165729977825654,0.01676937150000013,0.2082932460000001,-0.0024516625000003955
41772.0,2.1930611394999997,0.9280032895,9.5521674325,0.014208725440485837,0.16381311293368378,0.25982192975663987,9.84452182309641,0.3074801766457982,-0.08257199300000018,0.08139519500000003,0.0024516625000003955
41782.0,2.0482169189999997,0.8442544984999999,9.583254513,-0.0028448866807507574,0.21230883152959823,0.3325655076505115,9.835991320982863,0.39456678801507367,-0.1448442205,-0.0837487910000001,0.031087080500000752
41792.0,1.911708351,0.645473703,9.629934166999998,-0.034021703109125466,0.2469483811939297,0.3874561126257332,9.839049607624794,0.4607203256508147,-0.13650856799999977,-0.19878079549999994,0.046679653999998294
41802.0,1.7800050415,0.48866536949999995,9.677790619,-0.058002527031527557,0.2661347856611033,0.4141037996451826,9.852250659434036,0.4956550959704763,-0.13170330949999998,-0.1568083335,0.047856452000001326
41812.0,1.7512715569999997,0.3964828595,9.710152564,-0.07025997436828373,0.26746647188037503,0.41889996442966304,9.874776632430239,0.5019481624406452,-0.02873348450000024,-0.09218250999999994,0.03236194499999989
41822.0,1.69262779,0.446790974,9.772424791499999,-0.07132637054125228,0.23868948317349253,0.41810060363224966,9.927985561807187,0.4866911086817475,-0.058643766999999736,0.0503081145,0.06227222749999939
41832.0,1.6602658449999999,0.5078864035,9.8106707265,-0.0638650879889765,0.19152545079684974,0.42769293320121043,9.963116549490815,0.47295030698481555,-0.032361945000000114,0.06109542950000002,0.03824593500000084
41842.0,1.5824991105000001,0.609581364,9.7879192985,-0.05507211921742908,0.14302973220093532,0.45620463186178983,9.933743356258915,0.4812619959447465,-0.07776673449999971,0.10169496049999993,-0.022751427999999407
41852.0,1.4579546554999998,0.6874461649999999,9.7065241035,-0.04920955825998012,0.10918779800476526,0.5007035464706372,9.839452432889434,0.5148277355636013,-0.12454445500000033,0.07786480099999993,-0.0813951950000007
41862.0,1.2688824435,0.677835648,9.713682958,-0.047877872040708445,0.09080249966425699,0.5486669396446934,9.8196313795204,0.5581870611502002,-0.1890722119999999,-0.00961051699999993,0.007158854500000089
41872.0,1.1107992455,0.5808478794999999,9.711329362,-0.04574507969477138,0.07055144435336679,0.589701375688332,9.791893443056168,0.5956658720334232,-0.15808319799999992,-0.09698776850000002,-0.0023535959999989586
41882.0,1.0019454305,0.412075433,9.723293475,-0.03908490326916101,0.042572071114645685,0.6083537094043955,9.783462414153771,0.6110926661715371,-0.10885381500000002,-0.16877244649999995,0.011964112999999443
41892.0,0.9803708005,0.28635417999999996,9.600023884499999,-0.032422981514298656,0.016458454846306526,0.6046239407928836,9.654200340051316,0.6057163034343065,-0.021574629999999928,-0.12572125300000003,-0.12326959050000141
41902.0,0.986352857,0.272036471,9.409676808,-0.028958502949089915,0.007400196028455957,0.5825071285116115,9.465142018537243,0.5832734457877841,0.005982056499999944,-0.014317708999999956,-0.19034707649999838
41912.0,0.986352857,0.28880584249999997,9.2636557895,-0.02602809513499144,0.025518458993409092,0.5513320574124887,9.32049458770891,0.5525356920746769,0.0,0.016769371499999963,-0.14602101850000082
41922.0,0.9719370815,0.297141495,9.2085424165,-0.02442937354016463,0.06309016180109102,0.520155240984114,9.264459411909863,0.5245365931285391,-0.01441577549999995,0.008335652500000013,-0.0551133729999993
41932.0,0.837880176,0.3223445855,9.264832587499999,-0.017767451785302275,0.09986250381135955,0.49564034631060166,9.308226044501545,0.505912596108567,-0.13405690550000005,0.025203090500000025,0.05629017099999878
41942.0,0.67273619,0.389324005,9.3713328065,-0.0023125612588924867,0.11957948837113949,0.488179063758326,9.403511351212806,0.5026165539162387,-0.16514398600000002,0.06697941949999997,0.10650021900000084
41952.0,0.5649611065,0.4396321195,9.4839131485,0.013674654689375572,0.11238524119441887,0.5020352326899089,9.510891969770498,0.5146424132164122,-0.10777508349999998,0.0503081145,0.11258034199999933
41962.0,0.4978836205,0.4216859499999999,9.5305928025,0.029396580591340492,0.09293354668094206,0.53001460592863,9.55290041333282,0.5389028535337729,-0.06707748599999996,-0.017946169500000053,0.04667965400000007
41972.0,0.43806305549999996,0.309105608,9.515000229,0.038189549362887924,0.06921801280484312,0.5481346142228352,9.53009311997323,0.5538060403123174,-0.05982056500000005,-0.11258034199999994,-0.015592573499999318
41982.0,0.38177288449999996,0.17142024199999997,9.480284688,0.042720424101065205,0.04283910649020082,0.5308139667260434,9.489517016172847,0.5342505881622319,-0.056290171,-0.137685366,-0.03471554100000063
41992.0,0.39618865999999997,0.1391563635,9.412030404,0.06243740866084514,0.020722294208928675,0.48897842455573937,9.42139301131396,0.4933839713231224,0.014415775500000005,-0.03226387849999998,-0.068254284
42002.0,0.42727574049999995,0.19299487199999998,9.4299765735,0.09494591130849153,0.004735078260660616,0.44261549830576197,9.441624317658318,0.45270920730728736,0.031087080499999975,0.05383850849999999,0.017946169500000053
42012.0,0.3794192885,0.206135783,9.469497373,0.12878784550466157,-0.003525565089028546,0.4071748425147651,9.479337078866473,0.4270715292967366,-0.04785645199999994,0.013140911000000005,0.03952079949999998
42022.0,0.40579917699999996,0.206135783,9.517451891499999,0.1615616381986111,-0.0005951572749300664,0.3754657006645321,9.528329100115288,0.40875054681933926,0.02637988849999995,0.0,0.04795451849999921
42032.0,0.39618865999999997,0.2193747605,9.558149489,0.1762171679276075,0.012995721610349778,0.3490867943498899,9.56887205442355,0.3912581871885656,-0.009610516999999985,0.013238977499999999,0.04069759750000124
42042.0,0.385401345,0.284000584,9.6563140555,0.1684905953290286,0.03191334537271632,0.3283016682878894,9.668174164074983,0.37039104704058406,-0.010787314999999964,0.06462582350000001,0.0981645664999995
42052.0,0.43570945949999995,0.4157038934999999,9.7628142745,0.14024418671475233,0.049501028245063174,0.3115150915422079,9.781369792546942,0.34519622819948514,0.050308114499999945,0.13170330949999992,0.10650021900000084
42062.0,0.48837116999999997,0.5042579429999999,9.8669608975,0.0970787036544286,0.07587993455970547,0.2933950832480028,9.891900718545438,0.3182180291028653,0.052661710500000014,0.08855404950000001,0.1041466230000001
42072.0,0.548191735,0.6826409065,9.985425229499999,0.054710836062266247,0.10252587624990289,0.2854014752738687,10.023733326435044,0.3081539111741782,0.05982056499999999,0.17838296350000005,0.1184643319999985
42082.0,0.5984998495,0.7843358669999999,10.0525027155,0.017671458676442587,0.1273078062989704,0.3019227619732471,10.100801733884742,0.3281416038754662,0.050308114500000056,0.10169496049999993,0.06707748600000052
42092.0,0.5290687675,0.7736466184999999,10.0632900305,0.006747442888210078,0.15475310878658122,0.32883573903899965,10.10684169703974,0.36349277287721443,-0.06943108200000003,-0.01068924849999997,0.010787314999999964
42102.0,0.33391643249999997,0.7256921,10.117128539,0.02060361181979306,0.17553648951932968,0.34429062956540946,10.14861660929923,0.3870059503151553,-0.195152335,-0.04795451849999999,0.05383850850000016
42112.0,0.154356671,0.726868898,10.210487847,0.04032234170882499,0.18326480744716056,0.3416255117976141,10.237491218579708,0.3897689972284992,-0.17955976149999997,0.0011767980000000344,0.09335930800000014
42122.0,0.0058839899999999995,0.8155210139999999,10.388870810499998,0.0597740362223018,0.16221439133885698,0.33416422924533834,10.420832301830444,0.3762342040150947,-0.148472681,0.08865211599999989,0.17838296349999894
42132.0,-0.07433440699999999,0.9304549520000001,10.502627950499999,0.08748462875621577,0.0924012212590838,0.339494464780929,10.544025127454372,0.3625576334538724,-0.080218397,0.11493393800000018,0.11375714000000059
42142.0,-0.109049948,0.9017214675,10.5014511525,0.12185888837424409,-0.012051498485020845,0.36587337109557133,10.5406579398277,0.3858213977585725,-0.034715541,-0.028733484500000017,-0.0011767979999994793
42152.0,-0.192798739,0.7364794149999999,10.35778373,0.14823954001813835,-0.11304148499316874,0.39971355996248936,10.385723714789039,0.44104905460973004,-0.083748791,-0.16524205250000013,-0.14366742250000009
42162.0,-0.43345393,0.550937597,10.0848646605,0.15330099484892193,-0.17432872167694963,0.4199646152733796,10.109199264324664,0.4798562037787011,-0.240655191,-0.18554181799999991,-0.27291906950000033
42172.0,-0.609385231,0.340290755,9.746044903,0.14131058288772091,-0.17912488646143002,0.41516845048889917,9.771005035767388,0.47372908720833384,-0.17593130099999998,-0.210646842,-0.3388197574999996
42182.0,-0.7661935645,0.12238699199999999,9.5305928025,0.1258556923613111,-0.13089445791181872,0.3821276224193945,9.562124780672798,0.42307745653446627,-0.1568083335,-0.21790376300000003,-0.2154521005000003
42192.0,-0.9374176734999999,0.0612915625,9.3030785225,0.12852081012910643,-0.06640977803838424,0.3328325430260667,9.350389218958997,0.36291232956810354,-0.17122410899999996,-0.061095429499999986,-0.2275142799999994
42202.0,-0.9889025859999999,0.12356378999999999,9.295919668,0.12265824917165749,-0.00699004365423729,0.28753426761980583,9.349188136341352,0.312681726130266,-0.05148491249999998,0.06227222749999999,-0.007158854500000089
42212.0,-1.1457109195,0.1522972745,9.4527280015,0.11999313140386214,0.04443782808502762,0.22225022694895794,9.523125255987335,0.2564531838910999,-0.1568083335,0.028733484500000003,0.15680833350000078
42222.0,-1.210336743,0.23486926749999998,9.686224338,0.11626336279235028,0.07001737360225652,0.1404466449079837,9.76437507116228,0.19530709715689515,-0.06462582350000012,0.08257199299999998,0.2334963365
42232.0,-1.235441767,0.37971348799999993,9.9375687775,0.14024418671475233,0.06095911478440595,0.06796835706041518,10.021265982906552,0.16734438485970415,-0.02510502399999992,0.14484422049999995,0.25134443949999863
42242.0,-1.2510343404999997,0.723338504,10.1662598555,0.16342739516899302,0.018057176441133332,0.02346944245156775,10.268453873978794,0.16608850002855668,-0.015592573499999762,0.34362501600000006,0.22869107800000066
42252.0,-1.2282829124999999,0.9746829435,10.264424422,0.16902292075088687,-0.04349535028895069,0.027998571860493034,10.383501069891567,0.17676117577722292,0.02275142799999985,0.25134443949999996,0.0981645664999995
42262.0,-1.1947441694999998,1.0788295664999998,10.174595508,0.1562331479922724,-0.09518851207451874,0.06956707865524198,10.301149480301827,0.19572743240322935,0.03353874300000004,0.10414662299999988,-0.08982891399999993
42272.0,-1.2845730834999998,0.887305692,9.9842484315,0.13971186129289406,-0.11304148499316874,0.10633942066551051,10.10557549770514,0.20882014726281098,-0.08982891399999993,-0.19152387449999986,-0.19034707650000016
42282.0,-1.478450554,0.6394916465,9.701718844999998,0.1437086652799611,-0.09891828068603062,0.09994453428620328,9.834536804242195,0.20106197219791289,-0.19387747050000015,-0.24781404549999997,-0.2825295865000008
42292.0,-1.559845749,0.5306378315,9.549715769999999,0.15170227325409513,-0.061880648629458954,0.0471849763276667,9.690808354140488,0.17049696881852525,-0.08139519500000003,-0.10885381500000002,-0.15200307499999965
42302.0,-1.5814203789999999,0.5353450235,9.5880597715,0.1445080260773745,0.0020699604928652747,-0.01623330737279926,9.732336558666647,0.14543168363696046,-0.021574629999999928,0.004707192000000027,0.0383440015000005
42312.0,-1.6544799215,0.5090632015,9.650233932499999,0.15356803022447707,0.057494636219197204,-0.08098327729253689,9.804257447953031,0.1828853856983757,-0.07305954250000002,-0.026281822000000066,0.06217416099999973
42322.0,-1.6664440344999998,0.665871535,9.719665014499999,0.18447781127729665,0.06921801280484312,-0.12628329802804972,9.883941957303227,0.23403133873726084,-0.011964112999999887,0.1568083335,0.06943108199999948
42332.0,-1.6556567195,0.7748234165,9.874119751999999,0.21139078834304922,0.03591014935978333,-0.1441362709466997,10.04190178085898,0.2583618950730897,0.010787314999999742,0.10895188150000001,0.15445473750000005
42342.0,-1.5491565004999999,0.922021233,9.907658495,0.23723736923583325,-0.012318533860575978,-0.15133051812342035,10.07033792236834,0.28166334755149824,0.10650021900000017,0.14719781650000008,0.03353874300000115
42352.0,-1.4030374155,1.1650300199999999,9.884907067,0.2558897029518966,-0.047492154276017697,-0.13827370998925076,10.051726053769107,0.294711152942637,0.14611908499999982,0.24300878699999984,-0.022751427999999407
42362.0,-1.233088171,1.347041444,9.840581009,0.26095290311193214,-0.06108128783204555,-0.1044335211223327,10.008599386727655,0.2876346670687929,0.16994924450000015,0.18201142400000014,-0.04432605800000111
42372.0,-1.0870671525,1.4535416629999998,9.8765714145,0.2494948165725894,-0.04242895411598215,-0.057269488745689934,10.041969989291932,0.25947576762610963,0.14602101849999993,0.10650021899999973,0.03599040550000154
42382.0,-0.9505585845,1.4045084129999998,9.974735980999998,0.21458823153270282,-0.006455972903127025,-0.01836609971873633,10.117883345611888,0.21546949277644234,0.136508568,-0.04903324999999992,0.09816456649999772
42392.0,-0.9062325265,1.3183079594999998,10.0752541435,0.1740861209109224,0.018591247192243598,-0.00024609142453120044,10.201467508367685,0.17507619063414828,0.044326058,-0.08620045350000005,0.100518162500002
42402.0,-0.8320942524999999,1.3458646459999999,10.1650830575,0.1405112220903075,0.02391973739858229,0.0018849555921538759,10.28749950455745,0.14254511716685792,0.07413827400000006,0.027556686500000094,0.08982891399999993
42412.0,-0.7399117425,1.4595237195,10.2859009855,0.11546400199493687,0.01672549022186166,0.00481710873550435,10.415250259018377,0.11676849881889399,0.09218250999999988,0.11365907350000004,0.12081792799999924
42422.0,-0.6776395149999999,1.593580625,10.341014358499999,0.09228253886994818,0.010063568466999304,0.014941763726323455,10.485002264347298,0.0940244579555062,0.062272227500000166,0.13405690550000005,0.0551133729999993
42432.0,-0.5316184964999999,1.51218543,10.350624875499998,0.06590188722605389,0.016458454846306526,0.02959729345531984,10.474003929436181,0.0740941242998644,0.14602101849999993,-0.08139519500000003,0.009610516999998708
42442.0,-0.483663978,1.4367722914999999,10.3433679545,0.04538379653960855,0.04150742027092914,0.03999072915094608,10.453875171600934,0.07336084339700881,0.04795451849999993,-0.07541313850000009,-0.007256920999997973
42452.0,-0.5231847775,1.324290016,10.3757298995,0.035259141548789445,0.05989271861143741,0.040256019197249214,10.472976525575872,0.08031744447525511,-0.03952079950000004,-0.1124822754999999,0.03236194499999989
42462.0,-0.5675108354999999,1.1866046499999998,10.405640181999999,0.0411217025062384,0.05083271446433485,0.03359409744238686,10.488443485144233,0.07350865703978515,-0.04432605799999989,-0.13768536600000014,0.029910282499999497
42472.0,-0.5686876335,1.0907936795,10.362588988499999,0.05950700084674666,0.01992293341151527,0.016807520696705394,10.435347958756067,0.06496536906279037,-0.0011767980000000344,-0.09581097049999987,-0.043051193500000196
42482.0,-0.47169986499999994,1.092068544,10.2931579065,0.0784263699383652,-0.02564237737030069,0.005616469532917752,10.36167043268501,0.08270291257824247,0.09698776850000002,0.001274864500000028,-0.06943108199999948
42492.0,-0.3507838705,1.1459070525,10.2464782525,0.07815933456281007,-0.06507809181911256,0.007482226503299691,10.316320510517674,0.10198050464458784,0.12091599449999996,0.05383850849999994,-0.04667965400000007
42502.0,-0.318519992,1.0860864875,10.086041458499999,0.06563485185049876,-0.07733553915586874,0.013343042131496648,10.149348311404754,0.10230716576706014,0.03226387850000001,-0.05982056499999988,-0.16043679400000066
42512.0,-0.33999655549999996,0.977134606,10.042892198499999,0.05417676531115598,-0.07786786457772701,0.009080948098126497,10.096042462603194,0.09529422779914938,-0.02147656349999999,-0.10895188150000001,-0.043149259999999856
42522.0,-0.39873838899999997,0.864554264,9.9603202055,0.04165402792809667,-0.08133234314293576,-0.006640977803838424,10.00571961301907,0.09161937933617528,-0.05874183350000001,-0.112580342,-0.0825719929999984
42532.0,-0.3951099285,0.8705363205,9.954338149,0.019537215646824525,-0.08026594696996722,-0.022362903705803346,10.000139665301965,0.08558285167234818,0.003628460499999986,0.005982056499999944,-0.00598205650000061
42542.0,-0.343625016,0.9005446694999999,9.920799406,-0.027092745978707977,-0.0653451271946677,-0.02502627614434669,9.967513215816462,0.07503543849680092,0.05148491249999998,0.030008348999999934,-0.03353874299999937
42552.0,-0.2586013605,0.933985346,9.928056327,-0.09957103382627651,-0.03230429912516305,-0.014901621153527585,9.975244644733278,0.10573559869885246,0.08502365550000002,0.033440676500000155,0.00725692099999975
42562.0,-0.2778223945,0.9065267259999998,9.870589358,-0.18244101204021926,0.00873188224772763,-0.014901621153527585,9.916022905484882,0.18325672417363265,-0.019221034000000026,-0.02745862000000021,-0.057466969000000034
