timestamp,ax,ay,az,gx,gy,gz,acc_mag,gyro_mag,dax,day,daz
122302.0,-0.14229449149999998,-3.102235661,10.907740661999998,0.04692143161061556,0.22855261087790946,0.013735741213195374,11.341204528979253,0.23372331349305883,0.0,0.0,0.0
122312.0,0.3533335995,-3.0711485805,10.686306504999997,0.022141246890800062,0.18272026472053834,0.05024104784790877,11.124475041764805,0.19079070428686726,0.49562809099999994,0.031087080499999864,-0.2214341570000009
122322.0,0.5508395304999999,-2.9370916749999996,10.680324448499999,-0.0013072516097437528,0.21203132417853113,0.08594699368520876,11.090503235694158,0.2287922137293965,0.1975059309999999,0.1340569055000005,-0.0059820564999988335
122332.0,0.6310579275,-2.8449091650000002,10.699447416,-0.016496852089850404,0.2040377162043971,0.1275137551507057,11.089180189387791,0.24117067300029377,0.08021839700000011,0.09218250999999933,0.01912296750000131
122342.0,0.8752435124999999,-2.8508912215,10.626485939999998,-0.018360863730980347,0.18272026472053834,0.18133970928221085,11.03702112872929,0.2580850763198988,0.24418558499999987,-0.005982056499999722,-0.07296147600000147
122352.0,0.9949827089999999,-2.8867835605,10.6024596475,-0.012500048102783387,0.15687368382775435,0.23250054564592063,11.033388441147528,0.2807527517334656,0.11973919649999998,-0.035892339000000106,-0.024026292499998547
122362.0,1.0225393955,-2.7407625419999997,10.551072801499998,0.002155481626212997,0.1347568715464822,0.29405307237600464,10.949086874691096,0.3234675716417395,0.027556686500000094,0.14602101850000038,-0.05138684600000154
122372.0,1.0105752825,-2.5719900955,10.495959428499999,0.013880603541110903,0.11130837304593838,0.3691964779913685,10.853642696241113,0.3858604209115394,-0.011964112999999887,0.16877244649999978,-0.0551133729999993
122382.0,0.9878238545,-2.5396281504999996,10.4828185175,0.015212289760382577,0.09185667853246156,0.4517994208297561,10.831204512018605,0.4612935939430255,-0.022751428000000073,0.032361945000000336,-0.013140910999998923
122392.0,0.9746829435,-2.580325748,10.422899886,0.008817403381075353,0.08812690992094968,0.5264087556940098,10.781694200807236,0.5338073406444647,-0.013140911000000033,-0.04069759750000035,-0.05991863150000043
122402.0,0.9183927725,-2.627005402,10.343956353499998,0.00029146998508305304,0.0990509257091822,0.5866295962048221,10.711770895133558,0.5949331508514472,-0.056290171,-0.04667965400000007,-0.07894353250000208
122412.0,0.852590151,-2.6736850559999996,10.2972766995,0.0013561208287995942,0.10704453368331623,0.6329942677840514,10.67283510461609,0.6419829548380925,-0.06580262149999994,-0.046679653999999626,-0.046679653999998294
122422.0,0.7878662609999999,-2.6904544274999997,10.2733484735,0.01814444290373305,0.10224836889883579,0.6671014920265246,10.648989019134223,0.675135801461287,-0.06472389000000012,-0.01676937150000013,-0.023928225999998887
122432.0,0.7100995265,-2.652110426,10.305612351999999,0.04345695304540681,0.08039859199311879,0.7022733671127144,10.665063384665295,0.7081951161355858,-0.07776673449999993,0.038344001499999614,0.032263878499998455
122442.0,0.6502789614999999,-2.6354391209999997,10.3355226345,0.06743952229706089,0.03243519881906262,0.7457076308778453,10.6860390330809,0.7494531353190382,-0.0598205650000001,0.01667130500000047,0.029910282500001273
122452.0,0.5928119924999999,-2.6258286039999996,10.2972766995,0.0876905776079511,-0.02645221014322606,0.7862097414996256,10.643322288745276,0.7915270775226744,-0.05746696899999992,0.00961051700000004,-0.03824593500000084
122462.0,0.47905485249999996,-2.6258286039999996,10.2853125865,0.1055435505266011,-0.08347560746438479,0.8307086561084731,10.626011688837147,0.841536980430958,-0.11375713999999998,0.0,-0.011964112999999443
122472.0,0.367749375,-2.5623795785,10.225393955,0.12446291961821962,-0.1410313302074018,0.8730765237006355,10.547971854440894,0.893108879531016,-0.11130547749999997,0.06344902549999976,-0.05991863150000043
122482.0,0.263602752,-2.4821611815,10.143998759999999,0.14497926497541297,-0.17620495062284353,0.9165090421365143,10.446593769487208,0.9444871604287698,-0.104146623,0.08021839699999989,-0.0813951950000007
122492.0,0.137881499,-2.4031195824999996,10.001606201999998,0.1591024692825511,-0.18686367636477288,0.961542027496472,10.287182396334105,0.992368227987167,-0.125721253,0.0790415990000004,-0.14239255800000095
122502.0,-0.021378497,-2.372032502,9.922564603,0.1694941596489253,-0.1714087858383631,0.9999130911015673,10.20217053040121,1.0285598824443662,-0.159259996,0.03108708049999942,-0.07904159899999819
122512.0,-0.2476179125,-2.4343047295,9.890202658,0.18388265400236659,-0.13117196526288583,1.0372177585336941,10.188388624457117,1.0615270102694243,-0.2262394155,-0.06227222749999983,-0.03236194499999989
122522.0,-0.476210924,-2.5025590134999995,9.878238545,0.19400905432243767,-0.07468263869283737,1.0678605042109586,10.201430057208192,1.087907655150424,-0.22859301149999997,-0.06825428399999955,-0.011964112999999443
122532.0,-0.7515816559999999,-2.6557388865,9.9512980875,0.19161097193019747,-0.019524998342060566,1.0819837085180968,10.326962653422598,1.0989926003494592,-0.27537073199999995,-0.15317987300000047,0.07305954249999935
122542.0,-1.0221471295,-2.8556964799999998,10.096142308,0.18521608555089025,0.012718214259282679,1.0753217867632343,10.541910483570662,1.0912303590023578,-0.27056547350000004,-0.19995759349999975,0.14484422049999957
122552.0,-1.2663327144999998,-3.005345959,10.2637379565,0.18548137559719338,-0.0035360370645405115,1.0446790410859699,10.76940201296197,1.0610231586237175,-0.24418558499999987,-0.14964947900000025,0.16759564850000075
122562.0,-1.4387336215,-3.1249870889999998,10.4049537165,0.20013690532618977,-0.07254984634690029,0.999113730304154,10.95894888128229,1.02154124104746,-0.1724009070000001,-0.11964112999999976,0.1412157599999997
122572.0,-1.4925721299999999,-3.1704899449999995,10.46957954,0.2291826747378794,-0.17487151907431983,0.9498169055815741,11.040465289062116,0.9926010783350608,-0.05383850849999994,-0.0455028559999997,0.06462582350000012
122582.0,-1.4555029929999999,-3.1357744039999997,10.4983130245,0.2664873421700062,-0.28838424296552706,0.9095818303353489,11.052879554025722,0.9907169531222516,0.03706913700000003,0.03471554099999974,0.028733484500000017
122592.0,-1.3297817399999998,-3.031627781,10.4743847985,0.3075217782136449,-0.3717882919305801,0.8821365278477381,10.985072752859503,1.005465579647361,0.12572125300000003,0.10414662299999966,-0.023928226000000663
122602.0,-1.263881052,-2.8090168259999997,10.445651314000001,0.337632198469051,-0.4074942377678801,0.8808030962992143,10.890344448915547,1.0275510448183842,0.06590068799999993,0.2226109550000004,-0.02873348449999824
122612.0,-1.168168148,-2.5647331744999997,10.372689838,0.34269539862908666,-0.38377870389178115,0.9082501441160771,10.748728648250966,1.0438604092929662,0.09571290399999999,0.24428365149999998,-0.07296147600000147
122622.0,-1.1621860915,-2.4881432379999997,10.318753263,0.32324370411560976,-0.2779925525991528,0.9540807449441963,10.677930613501584,1.0450054638250679,0.005982056499999944,0.07658993650000001,-0.05393657499999982
122632.0,-1.318994425,-2.4953020925,10.294825036999999,0.27528031094155364,-0.12024794947465332,0.9948498909415319,10.674722542926256,1.0392137048996781,-0.15680833350000012,-0.007158854500000089,-0.023928226000000663
122642.0,-1.582401044,-2.616218087,10.315222869,0.2206549960126351,0.04416032073396052,1.0124358284846267,10.758829535778453,1.0371427423416772,-0.26340661899999995,-0.12091599450000023,0.02039783200000045
122652.0,-1.8816019355,-2.81254722,10.4373156615,0.18281800315865004,0.1837866608935069,0.9983143695067405,10.972165051902941,1.0314220956354105,-0.29920089149999995,-0.19632913299999988,0.12209279250000016
122662.0,-2.1868829499999998,-2.9909301834999997,10.6467857055,0.17748776762305934,0.2599947173525873,0.9572781881338499,11.273072618341955,1.0077106182748574,-0.3052810144999998,-0.17838296349999982,0.2094700439999997
122672.0,-2.44185585,-3.0723253785,10.889794492499998,0.21026330564626086,0.23947662666614195,0.9005218261882463,11.575381951038924,0.955248277602269,-0.2549729000000003,-0.08139519500000025,0.24300878699999906
122682.0,-2.6298493305,-3.0017174984999997,11.232144643999998,0.2795441503041758,0.1161045378304188,0.8472299428078515,11.920045668774522,0.8996798161925686,-0.18799348049999987,0.07060788000000029,0.3423501514999998
122692.0,-2.7591009774999997,-2.90472973,11.59734429,0.37360517968190615,-0.09999689416376312,0.8072601576079292,12.269820193840777,0.8951252265402462,-0.1292516469999998,0.09698776849999957,0.36519964600000243
122702.0,-2.7830292034999995,-2.8401039064999996,11.836724616499998,0.4562081225202938,-0.3664580563949894,0.7752839803821411,12.486772657260458,0.9713303291813042,-0.023928225999999775,0.06462582350000057,0.2393803264999974
122712.0,-2.474217795,-2.8090168259999997,11.836724616499998,0.4935127899524206,-0.5801614059969311,0.7395780345448412,12.414522901533623,1.0616580428914804,0.30881140849999955,0.031087080499999864,0.0
122722.0,-2.1043109569999996,-2.5253104415,11.582928514499999,0.47326173464153043,-0.6750217961720749,0.7179952930146793,12.040330161657376,1.0932284004610016,0.36990683800000035,0.28370638449999985,-0.253796101999999
122732.0,-1.838550742,-2.3313349045,11.310009444999999,0.4039808899836155,-0.6422480034781254,0.719326979233951,11.693233295963864,1.0455210951948475,0.2657602149999996,0.19397553700000003,-0.27291906950000033
122742.0,-1.6578141825,-2.1768801669999998,11.082495165000001,0.32270963336449954,-0.49862311400226,0.7398450699203963,11.415290368949206,0.94875562963762,0.18073655950000012,0.15445473750000005,-0.22751427999999763
122752.0,-1.6445752049999998,-2.127846917,10.975994946,0.23983965515055677,-0.28039063499139305,0.767025082361704,11.30065596156722,0.8511577088563513,0.013238977500000138,0.04903324999999992,-0.10650021900000084
122762.0,-1.805011999,-2.209242112,11.043072431999999,0.16416566944258665,-0.0850743290592116,0.7883407885163107,11.40562439169231,0.8097340349317955,-0.16043679400000022,-0.08139519500000025,0.06707748599999874
122772.0,-2.130592779,-2.39478393,11.222632193499999,0.10367779355621916,0.07320434481639816,0.7944703848493148,11.671413325381627,0.8045440655298518,-0.3255807800000001,-0.18554181799999991,0.1795597615000002
122782.0,-2.451466367,-2.660544145,11.4297486415,0.08049633043123047,0.13742198931427754,0.7707548509732159,11.988633637904574,0.7870371672664078,-0.320873588,-0.2657602149999998,0.20711644800000073
122792.0,-2.6621132089999997,-2.843732367,11.587733772999998,0.0759654556930532,0.11503988698670226,0.7163965714198525,12.224943128971212,0.7295402481006008,-0.2106468419999996,-0.18318822200000007,0.1579851314999985
122802.0,-2.7004572104999998,-2.927481158,11.6631469115,0.07356737330081298,0.036966073557239895,0.6484491583104612,12.324431465808816,0.6536550771792154,-0.03834400150000006,-0.0837487910000001,0.07541313850000186
122812.0,-2.5604182484999995,-2.8424575025,11.625979708,0.07410144405192326,-0.06615495996759306,0.5860955254537119,12.239228342979718,0.5944539239468075,0.1400389620000002,0.08502365550000013,-0.03716720350000102
122822.0,-2.3209398555,-2.727621631,11.399740292499999,0.07410144405192326,-0.15062365977636263,0.5455934148319315,11.949090354968257,0.5708333252386144,0.23947839299999973,0.11483587149999996,-0.22623941550000026
122832.0,-2.162954724,-2.5743436915,11.181934595999998,0.07570016564675006,-0.18872768800590284,0.5349346890900021,11.676526876141784,0.5722794569882934,0.15798513149999982,0.15327793949999968,-0.21780569650000103
122842.0,-2.117451868,-2.4378351234999998,11.0382671735,0.07570016564675006,-0.18286512704845387,0.5557198151520025,11.50086886701325,0.5899107413176746,0.04550285600000015,0.13650856800000044,-0.1436674224999983
122852.0,-2.221598491,-2.358891591,10.942456202999999,0.0666401614996475,-0.14715918121115387,0.5975536119930546,11.41215216985285,0.6190048908897104,-0.1041466230000001,0.07894353249999986,-0.09581097050000054
122862.0,-2.465784076,-2.5037358114999995,10.906563863999999,0.0410588706531666,-0.09919753336634972,0.6319278716110829,11.458704963596597,0.640982695869549,-0.24418558499999987,-0.14484422049999957,-0.035892339000000106
122872.0,-2.6873162995,-2.7239931705,10.896953347,0.0042882739721500675,-0.04990070864376988,0.6356576402225947,11.549259713643274,0.6376277170811886,-0.22153222350000012,-0.22025735900000054,-0.009610516999998708
122882.0,-2.9195377714999995,-2.9658251594999996,10.8287971295,-0.03807959362001228,-0.010464994194958001,0.6010180905582634,11.600976982470305,0.6023141345942885,-0.23222147199999954,-0.24183198899999958,-0.06815621750000034
122892.0,-3.0954690725,-3.1764720014999996,10.7748605545,-0.0708551316432138,0.019912461436003306,0.5360010852629705,11.65201798505467,0.541030608379692,-0.17593130100000032,-0.21064684200000006,-0.05393657499999982
122902.0,-3.148130783,-3.2710081075,10.719845248,-0.08710938296703698,0.0446926461558188,0.4494013384375159,11.641533559083662,0.45994243140934266,-0.052661710500000236,-0.09453610600000051,-0.05501530649999964
122912.0,-3.182846324,-3.2817954224999997,10.644432109499999,-0.07911577499290297,0.05828177971184665,0.36120287001723445,11.584672064892336,0.3743308496608248,-0.03471554099999974,-0.01078731499999952,-0.07541313850000186
122922.0,-3.120672163,-3.1752952035,10.670713931499998,-0.04660727234525657,0.05908114050926005,0.29192202535931955,11.562232923886343,0.3014652349595672,0.06217416099999973,0.10650021899999951,0.02628182199999962
122932.0,-3.0643819919999995,-3.0580076695,10.7509323285,-0.01063429113240145,0.05721712886813011,0.24662374995305872,11.589840112426105,0.2533972415491331,0.056290171000000555,0.11728753400000036,0.08021839700000122
122942.0,-3.0607535314999996,-2.916693843,10.8407612425,0.003754203221039803,0.05801648966554351,0.22344054149881803,11.636039681578692,0.2308802345377837,0.003628460499999875,0.1413138264999998,0.08982891399999993
122952.0,-3.1193972984999996,-2.8831550999999997,10.925686831499998,-0.002907718533822553,0.060414572057783715,0.20745332555055002,11.722365613499589,0.21609085502625872,-0.05864376699999996,0.03353874300000026,0.08492558899999914
122962.0,-3.2115798085,-2.9442505294999997,10.926961695999998,-0.02369109926657103,0.05881585046295691,0.18640290944224638,11.76356017337766,0.19689239979916376,-0.09218251000000022,-0.06109542949999991,0.0012748644999991399
122972.0,-3.306213981,-3.0879179519999997,10.938925808999999,-0.03807959362001228,0.04495968153137393,0.1474995204152928,11.837499145564912,0.15883178817985152,-0.09463417250000017,-0.14366742250000009,0.01196411300000122
122982.0,-3.3899627719999996,-3.1992234295,10.8766535815,-0.03861366437112255,0.02124414765527498,0.08567995830965362,11.833362636180995,0.09635031988379077,-0.08374879099999966,-0.1113054775000002,-0.06227222749999939
122992.0,-3.3480883765,-3.2435494874999997,10.8168330165,-0.025822146283256107,0.002324778563656447,0.009471901850573226,11.77854768473433,0.02760262231583815,0.04187439549999983,-0.04432605799999978,-0.05982056499999899
123002.0,-3.2547290685,-3.1860825185,10.7832942735,-0.007436847942747838,0.004989896331451788,-0.07366511173892466,11.705717342945201,0.07420750945982789,0.0933593079999997,0.05746696899999959,-0.03353874300000115
