timestamp,ax,ay,az,gx,gy,gz,acc_mag,gyro_mag,dax,day,daz
178012.0,0.6585165475,-1.22190859,10.305416218999998,0.08789827178893843,0.1932358734638042,-0.1309398364723706,10.398476238972483,0.24942223187240664,0.0,0.0,0.0
178022.0,0.6525344909999999,-0.18044236,10.0360275435,0.09749234668715125,0.20309523840832017,-0.1349366404594376,10.058837386155401,0.2626029902060897,-0.005982056500000055,1.04146623,-0.26938867549999834
178032.0,0.699214145,-0.10267562549999999,10.142625828999998,0.05459040834387864,0.2204141405758599,-0.10402685940661803,10.167216994425653,0.24976807947964572,0.04667965400000007,0.0777667345,0.10659828549999872
178042.0,0.7362832819999999,-0.10267562549999999,10.239515531,0.01861917246027551,0.23720246265079334,-0.029682814588667564,10.266466464417771,0.23977646121463153,0.03706913699999992,0.0,0.09688970200000213
178052.0,0.6392955134999999,-0.215157901,10.218038967499998,0.0010314895879286487,0.2350696703048563,0.013482668471656195,10.24027890329616,0.23545826852569954,-0.09698776850000002,-0.11248227550000002,-0.021476563500002044
178062.0,0.4872924384999999,-0.33489709749999996,10.191659079,-0.015222761735894541,0.20682500701983203,0.045725881072999436,10.208796440770888,0.21236565683632436,-0.152003075,-0.11973919649999995,-0.026379888499997506
178072.0,0.30175062049999996,-0.448556171,10.147333021,-0.03707253864161155,0.16259312778653973,0.053185418296023204,10.161723451983493,0.17504167230710171,-0.18554181799999997,-0.11365907350000004,-0.04432605800000111
178082.0,0.16406525449999998,-0.644885304,10.0934945125,-0.05012934677578113,0.10290461269758566,0.036398841550341746,10.115405376796172,0.12011322320549686,-0.13768536599999998,-0.196329133,-0.05383850850000016
178092.0,0.041972461999999995,-0.7406962745,9.9642428655,-0.04746422900798579,0.03122568564743055,0.0012269664641520136,9.991823083966818,0.05682782704079775,-0.12209279249999999,-0.09581097049999998,-0.12925164700000025
178102.0,0.0263798885,-0.7981632435,9.8852012665,-0.027213173697095586,-0.034323645069720486,-0.03554537554611652,9.917407148090922,0.05641048799873035,-0.015592573499999995,-0.057466969000000034,-0.07904159899999996
178112.0,0.12101406099999999,-0.7395194765,9.8061596675,0.0007661995416255107,-0.0748257556915009,-0.06485643500410929,9.83474966044313,0.09902443101570449,0.09463417249999999,0.05864376699999996,-0.07904159899999996
178122.0,0.3256788465,-0.6161518195,9.771444126499999,0.016753415489893567,-0.059103829789535975,-0.08297644329831441,9.79626613016623,0.10324257730609902,0.2046647855,0.12336765700000007,-0.03471554100000063
178132.0,0.5148491249999999,-0.482094914,9.775072586999999,0.0031642819338657193,0.018702948264371237,-0.08191004712534589,9.800486172059873,0.08407775433497923,0.1891702784999999,0.1340569055,0.003628460499999875
178142.0,0.6824447735,-0.37912508899999997,9.783506306,-0.034939746295674486,0.1335473583748501,-0.06885323899117629,9.814604543308329,0.15426098443768205,0.16759564850000008,0.10296982500000001,0.008433719000001005
178152.0,0.7997323074999999,-0.3397023559999999,9.810964925999999,-0.0746424961200415,0.2526573531772031,-0.05153433682363657,9.84936557517962,0.26844557774974126,0.11728753399999992,0.03942273300000004,0.0274586199999991
178162.0,0.8656329955,-0.351666469,9.8049828695,-0.09782570457428218,0.3464513471793784,-0.03208089698090777,9.849399923828136,0.3614243882044494,0.06590068800000004,-0.011964113000000054,-0.0059820564999988335
178172.0,0.932612415,-0.38991240399999993,9.775072586999999,-0.10954908115992808,0.4183955642758367,-0.0128962378429861,9.827199076060484,0.432691763659979,0.06697941950000008,-0.03824593499999995,-0.029910282500001273
178182.0,1.003220295,-0.47258246349999994,9.7690905305,-0.11727739908775897,0.45703366325648714,0.0001605702911834783,9.831831718363185,0.47184084548632704,0.07060787999999996,-0.0826700595,-0.0059820564999988335
178192.0,1.1217826935,-0.5707470299999999,9.7367285855,-0.11940844610444404,0.4804821617570309,0.008154178265317507,9.817740683649307,0.4951645942421268,0.11856239849999994,-0.0981645665,-0.03236194499999989
178202.0,1.2618216555,-0.5742774239999999,9.745162304499999,-0.11701036371220384,0.4839466403222397,0.009220574438286043,9.843280794077378,0.497976701149981,0.140038962,-0.0035303939999999923,0.008433718999999229
178212.0,1.500025184,-0.5192621175,9.7906651605,-0.09595994760390024,0.46982343601510157,-0.0019722220547535923,9.918509615074903,0.47952712356342553,0.23820352850000015,0.05501530649999997,0.04550285600000059
178222.0,1.8184471095,-0.3815767515,9.822929039,-0.06398377037811212,0.44904005528235313,-0.013695598640399502,9.997113864139173,0.4537823966857866,0.31842192550000004,0.13768536599999998,0.03226387850000023
178232.0,2.1404974955,-0.1385679645,9.8744139515,-0.04399975044277705,0.45570197703721543,-0.01262920246743097,10.104700960177162,0.45799537843696286,0.3220503859999999,0.24300878699999998,0.051484912499999425
178242.0,2.4158682275,0.014709975,9.951101954499999,-0.04240102884795024,0.4919402482963737,0.004157374278250493,10.240169226378155,0.493781671290209,0.27537073199999984,0.15327793950000002,0.07668800299999923
178252.0,2.6720179254999996,-0.005687856999999999,10.111440682,-0.0490629506028126,0.5148564213750593,0.023609068791727295,10.45853454416608,0.5177274339671398,0.25614969799999976,-0.020397831999999998,0.160338727500001
178262.0,2.9414066009999997,-0.1852476185,10.277859532499999,-0.048263589805399194,0.512191303607264,0.0430607633052041,10.692080529175199,0.516259174183122,0.2693886755000001,-0.1795597615,0.1664188504999995
178272.0,3.000050368,-0.042756994,10.377200896999998,-0.03813718948532809,0.4770176831918222,0.07104013654392519,10.802241842681102,0.4837840595758742,0.0586437670000004,0.1424906245,0.09934136449999897
178282.0,3.0970381364999997,0.00392266,10.456242496,-0.03920358565829663,0.43918069033783713,0.1285958592869422,10.905258719597311,0.4592967395049018,0.09698776849999957,0.046679654,0.07904159900000174
178292.0,3.0634993935,0.08286619249999999,10.443101584999999,-0.056789523201391495,0.42958836076887635,0.21999177089687724,10.883485933030089,0.48597076961055563,-0.033538742999999815,0.0789435325,-0.013140911000000699
178302.0,2.9520958495,0.0685484835,10.432314270000001,-0.0887657004271796,0.44157877273007734,0.32337983979726537,10.842174589411062,0.5544778470646362,-0.11140354399999985,-0.014317708999999998,-0.010787314999998188
178312.0,2.7965623804999997,-0.04873905049999999,10.4634013505,-0.12154123845038112,0.46955640063954646,0.4145087160316453,10.830785034553898,0.6380226968469239,-0.1555334690000003,-0.11728753399999998,0.031087080499998976
178322.0,2.5379610199999996,-0.2295736765,10.506550610499998,-0.13859485057161772,0.46955640063954646,0.4867199685036587,10.811177361554062,0.6903535860171495,-0.25860136050000015,-0.180834626,0.04314925999999808
178332.0,2.33202137,-0.38638200999999994,10.5759816925,-0.139127175993476,0.3882868893496825,0.5322852792854746,10.836927769800972,0.6733874798990459,-0.20593964999999947,-0.15680833349999995,0.06943108200000125
178342.0,2.2218926905,-0.5120051965,10.539991287,-0.1399265367908894,0.2499922354094078,0.5599976171486407,10.783801406710726,0.6290253450183391,-0.11012867950000027,-0.12562318650000004,-0.03599040549999977
178352.0,2.181195093,-0.5491724,10.407111179499998,-0.156980148912126,0.1039710088705542,0.5858441980414246,10.647401817397654,0.6153585639420598,-0.040697597499999905,-0.03716720350000002,-0.1328801075000019
178362.0,2.1584436649999996,-0.4917054309999999,10.246772452,-0.17829760039598472,-0.015404275978101954,0.6196861322375947,10.48317695018641,0.645010254579697,-0.022751428000000296,0.05746696900000009,-0.16033872749999745
178372.0,2.12019773,-0.4425741145,10.0456380605,-0.1860241729945636,-0.08814959920122561,0.6697805724283359,10.276475772544243,0.7007006207932724,-0.03824593499999951,0.04913131649999991,-0.20113439150000012
178382.0,2.054297042,-0.4749360595,9.864901501,-0.18868929076235896,-0.09987297578687152,0.721473734213904,10.087714420115956,0.7523979059656414,-0.06590068800000015,-0.032361945,-0.18073655949999967
178392.0,1.938186306,-0.6066393689999999,9.7810546435,-0.18895632613791408,-0.0764244772863277,0.7633092763842081,9.989675040756808,0.7900545837663431,-0.11611073599999999,-0.13170330949999992,-0.08384685750000109
178402.0,1.824429166,-0.7658012985,9.6900489315,-0.17989632199081151,-0.035655331288992155,0.7958177790318545,9.889997052850928,0.8166761455671049,-0.11375713999999992,-0.15916192950000008,-0.0910057119999994
178412.0,1.6185875825,-0.836507245,9.715252022,-0.16550608230811828,0.0077771871468867325,0.8251288384898473,9.884618959987066,0.8415998740663546,-0.20584158350000004,-0.07070594649999995,0.025203090499999803
178422.0,1.3636146825,-0.9023098664999999,9.771444126499999,-0.14951886635985023,0.027228881660363535,0.8541728625722849,9.907306819455233,0.8675877952973637,-0.25497290000000006,-0.06580262149999994,0.05619210449999912
178432.0,1.1696391455,-1.049507683,9.868431894999999,-0.12260588929409766,-0.0020821777976292354,0.8696277530986947,9.992770895683302,0.878230589602447,-0.19397553700000003,-0.1471978165000002,0.09698776850000002
178442.0,1.0296001835,-1.116585169,9.915111549,-0.08317017484528579,-0.06017022596250451,0.8648315883142143,10.030766471541803,0.8709026410697471,-0.140038962,-0.06707748599999985,0.04667965400000185
178452.0,0.8919148175,-1.1416901929999999,9.9905246875,-0.04959527602467087,-0.13344787460748644,0.8475109408174225,10.09502610546478,0.8593851415090042,-0.13768536599999992,-0.02510502399999992,0.07541313850000009
178462.0,0.7769808794999999,-1.1142315729999999,9.995329945999998,-0.033875095451957944,-0.21605081744587407,0.8395173328432884,10.087211310108605,0.8675337630059238,-0.11493393800000007,0.02745861999999999,0.004805258499997578
178472.0,0.628606265,-1.049507683,9.915111549,-0.028012534494508988,-0.27174078321850914,0.8373845404973514,9.99029775543184,0.8808181560441265,-0.1483746144999999,0.06472388999999978,-0.08021839699999767
178482.0,0.45375369549999994,-1.0782411675,9.890006524999999,-0.020818287317788363,-0.29438992092163957,0.8259281992872607,9.958952028000446,0.8770725266504431,-0.1748525695000001,-0.028733484500000017,-0.02510502400000192
178492.0,0.32214845249999996,-1.103444258,9.899617042,-0.011758283170685798,-0.28719567374491894,0.8115379596045674,9.966131969536532,0.860937554135063,-0.13160524299999998,-0.025203090499999803,0.009610517000000485
178502.0,0.13415497199999998,-1.0782411675,9.856467782,-0.021350612739646634,-0.24616123770128023,0.8035443516304334,9.916176617497698,0.8406751623832823,-0.18799348049999998,0.025203090499999803,-0.043149259999999856
178512.0,-0.1064021525,-1.0890284824999998,9.912757953,-0.053326789965434745,-0.19659912293239726,0.7926203358422008,9.972967195800738,0.8183776380476245,-0.2405571245,-0.010787314999999742,0.056290171000000555
178522.0,-0.30155448749999997,-1.183662655,9.911581154999999,-0.09595994760390024,-0.16835445964737306,0.7617105547893813,9.986562640965316,0.7859736031857872,-0.19515233499999995,-0.09463417250000017,-0.0011767980000012557
178532.0,-0.41285996499999994,-1.2973217284999998,9.9103062905,-0.14019357216644454,-0.19873016994908235,0.7052194828900809,10.00338281730045,0.7459775044681524,-0.11130547749999997,-0.11365907349999982,-0.0012748644999991399
178542.0,-0.4763089905,-1.2602525915,9.718782416,-0.16470672151070487,-0.2776033441759581,0.6300778226039689,9.811719446578381,0.7079477264218305,-0.06344902550000003,0.03706913699999981,-0.19152387449999964
178552.0,-0.46679654,-1.207590881,9.473420033,-0.15511439194174403,-0.3769946090892792,0.5573324993808453,9.56147801687982,0.6905106260847369,0.009512450499999991,0.052661710500000014,-0.2453623829999998
178562.0,-0.350685804,-1.1656184189999999,9.198049301,-0.12020780690185746,-0.44840650076387917,0.4987121257941117,9.278241092764606,0.68134579413213,0.11611073599999999,0.041972462000000155,-0.27537073200000073
178572.0,-0.2309466075,-1.1429650574999999,8.937094344499998,-0.06318440958069872,-0.45799883033283995,0.475528917339871,9.012844211494814,0.6632367220131443,0.11973919649999998,0.02265336149999997,-0.2609549565000009
178582.0,-0.0705098135,-1.092656943,8.7947017865,-0.0032306044454415038,-0.3943135112568189,0.48725403925476896,8.8625983967656,0.6268253989228997,0.160436794,0.050308114499999945,-0.14239255799999917
178592.0,-0.046581587499999993,-0.9740945445,8.7491989305,0.04153534553896105,-0.28586398752564723,0.5301542322687895,8.803380711486982,0.6037440801246948,0.02392822600000001,0.11856239849999994,-0.045502855999998815
178602.0,-0.0346174745,-0.9478127224999999,8.712031727,0.07084465966770183,-0.18247591862525914,0.5943718767666689,8.763506383790007,0.6257750031542463,0.011964112999999992,0.026281822000000066,-0.03716720350000102
178612.0,-0.1399408955,-1.0160670065,8.723995839999999,0.09402786812194251,-0.11772594870552151,0.6657837684412689,8.784081001007932,0.6826189751992173,-0.105323421,-0.068254284,0.011964112999999443
178622.0,-0.2560516315,-1.1321777425,8.735959952999998,0.1305331747566559,-0.09161233243718235,0.7193426871972189,8.812739935969173,0.7368077298663122,-0.11611073599999999,-0.11611073599999999,0.011964112999999443
178632.0,-0.3447037475,-1.2637829855,8.795878584499999,0.1958172154275038,-0.09560913642424937,0.7425241503222076,8.89288750526203,0.7738395199505441,-0.088652116,-0.1316052430000001,0.05991863150000043
178642.0,-0.39373699749999996,-1.382345384,8.932289085999999,0.28481504464519863,-0.12332147428741534,0.7505177582963416,9.047192708223978,0.8121605144273107,-0.04903324999999997,-0.11856239849999994,0.13641050150000034
178652.0,-0.3913834015,-1.383522182,9.1418571965,0.3690167090784131,-0.15130084752613646,0.7414594994784911,9.254235116758952,0.8419189197351986,0.002353595999999958,-0.0011767980000001454,0.20956811050000113
178662.0,-0.3327396345,-1.3416477864999998,9.418306659999999,0.420444580817678,-0.1542312553402349,0.7177439656023921,9.519203474513395,0.8460007835820399,0.05864376700000001,0.04187439550000027,0.27644946349999877
178672.0,-0.33391643249999997,-1.174052138,9.636210423,0.428438188791812,-0.11932467030034832,0.689764592363671,9.713210073038148,0.8207148417301325,-0.001176797999999979,0.16759564849999986,0.2179037630000007
178682.0,-0.3447037475,-1.1225672254999999,9.763108474,0.3964620115660239,-0.05937086516509111,0.6548580073237844,9.833476746522457,0.7678190125293247,-0.01078731500000002,0.05148491250000009,0.1268980509999995
178692.0,-0.38775494099999996,-0.9393790034999999,9.83018596,0.3405050104178337,0.02429847384626506,0.6215501438787246,9.882577741392561,0.7091252775825793,-0.04305119349999997,0.18318822199999996,0.06707748600000052
178702.0,-0.505042475,-0.6689115965,9.784683103999999,0.261631836190958,0.12049055024068053,0.5877099550118066,9.820515977849094,0.6545014756484006,-0.11728753400000003,0.27046740699999994,-0.04550285600000059
178712.0,-0.6176228169999999,-0.571923828,9.69485419,0.1768978463358853,0.2105565209605959,0.5565331385834319,9.731328407492665,0.6207705138767705,-0.11258034199999989,0.09698776850000002,-0.08982891399999993
178722.0,-0.7505029245,-0.5179872529999999,9.595512825499998,0.10095507992310801,0.28250073805705417,0.5280231852521045,9.638746382091838,0.6072948866315603,-0.13288010750000012,0.05393657500000004,-0.09934136450000075
178732.0,-0.8642600644999999,-0.376771493,9.500976719499999,0.040468949365992525,0.32486860564921655,0.5051070121734189,9.54764163767723,0.6019222877963665,-0.11375713999999992,0.1412157599999999,-0.09453610599999962
178742.0,-1.0593143329999999,-0.18407082049999998,9.3740786685,0.014622368473208493,0.3365919822348624,0.5037735806248953,9.435538130190853,0.6060493352031566,-0.19505426849999996,0.19270067250000003,-0.1268980509999995
178752.0,-1.314287233,-0.018828768,9.3058243845,0.036205110003370365,0.31740732309694075,0.5373484794455102,9.39819519527478,0.6251412697209517,-0.25497290000000006,0.1652420525,-0.068254284
178762.0,-1.6614426429999998,0.12356378999999999,9.3154349015,0.09962339370383633,0.2803696910403691,0.6034318809137715,9.463244003525551,0.6728016194468276,-0.34715540999999983,0.142392558,0.009610517000000485
178772.0,-2.123531991,0.2780185275,9.414776265999999,0.19075401526746824,0.24839351381458097,0.6793729019972967,9.655293602851783,0.7480868746436101,-0.46208934800000034,0.1544547375,0.09934136449999897
178782.0,-2.6083727669999996,0.34391921549999993,9.5966896235,0.297337782028258,0.21775076813731656,0.733464146175105,9.95079598063441,0.8208500516965636,-0.48484077599999953,0.06590068799999993,0.18191335750000093
178792.0,-2.943564064,0.157102533,9.807434532,0.388735438967445,0.18764034788191036,0.7494531074526251,10.240850682644156,0.8648723038303703,-0.33519129700000017,-0.18681668249999994,0.2107449085000006
178802.0,-3.150680512,-0.018828768,10.038479206,0.4358994713440878,0.17671458676442586,0.7140124516616282,10.521321541541033,0.8550147223418003,-0.20711644800000029,-0.17593130099999998,0.23104467399999962
178812.0,-3.217757998,-0.2223167555,10.270700677999999,0.4388298791581863,0.17271778277735886,0.6338075912154808,10.765253535822492,0.7900095936201568,-0.06707748600000007,-0.2034879875,0.2322214719999991
178822.0,-3.253650337,-0.2797837245,10.525673578,0.414582019860229,0.1676545826173233,0.5344180716314118,11.020631729559,0.696842152535431,-0.03589233899999966,-0.05746696900000001,0.2549729000000003
178832.0,-3.2679680459999996,-0.3360738955,10.745930936999999,0.3746122346603069,0.16472417480322482,0.43502680671809063,11.236885356525057,0.597257651843098,-0.014317708999999734,-0.056290171,0.22025735899999965
178842.0,-3.2967015305,-0.190052877,10.8417419075,0.3298462846759044,0.15379841368574032,0.3460289775003958,11.33347822453896,0.5021838078201221,-0.02873348450000046,0.1460210185,0.09581097050000054
178852.0,-3.1698034795,-0.17808876399999998,10.8799878425,0.26749439714840695,0.12342270338403101,0.27914621523472105,11.33373306371123,0.4058435975795126,0.12689805099999996,0.011964113000000026,0.03824593500000084
178862.0,-3.069285317,-0.19485813549999997,10.862041673,0.1998140194145708,0.10050653030534547,0.24930283035487005,11.289040320421881,0.33493149480390005,0.10051816250000023,-0.01676937149999999,-0.017946169500000053
178872.0,-2.9136537815,-0.179265562,10.768682365,0.15105126544310124,0.059737384308009914,0.24637242254077155,11.157330970193113,0.29510067852265875,0.15563153549999997,0.015592573499999984,-0.09335930800000014
178882.0,-2.827453328,-0.20201698999999998,10.613050829499999,0.12014148439028167,0.020034634483642906,0.24717178333818493,10.98508766900918,0.2755526325930712,0.08620045350000005,-0.02275142799999999,-0.1556315355000013
178892.0,-2.790384191,-0.146903617,10.4490836415,0.11374659801097445,0.0003159045946109737,0.2405098615833226,10.816245816046033,0.26605146470863883,0.03706913700000003,0.05511337299999999,-0.1639671879999991
178902.0,-2.66348614,-0.31214566949999994,10.346113816499999,0.10815107242908063,-0.004213224814314312,0.2149285707368417,10.688014990676795,0.24064225782243187,0.12689805099999996,-0.16524205249999996,-0.10296982500000063
178912.0,-2.536588089,-0.455813092,10.285018387,0.09722531131159612,0.011241665712095476,0.1613696519808917,10.603001835754974,0.18873076269663455,0.12689805099999996,-0.14366742250000003,-0.06109542949999991
178922.0,-2.4563696919999995,-0.6353728535,10.168907651,0.0753755344058791,0.031492721022985684,0.07716798754767729,10.480655205725796,0.11237509050746942,0.08021839700000033,-0.17955976149999997,-0.11611073599999955
178932.0,-2.203750388,-0.781393872,10.062407432,0.041001274787850796,0.044549529157155265,-0.01476199481336804,10.330495413259625,0.06231919105077489,0.25261930399999954,-0.14602101850000004,-0.10650021899999906
178942.0,-1.879346406,-0.7897295245,9.9905246875,-0.0008325220532012952,0.07146250622290783,-0.09923069462213761,10.19638167033576,0.1222878311354819,0.324403982,-0.008335652500000013,-0.07188274449999987
178952.0,-1.644771338,-0.7048039355,9.8755907495,-0.023481659756331708,0.10583676584093614,-0.15625409194329634,10.036399453659294,0.19017925911519737,0.23457506800000005,0.08492558900000002,-0.11493393800000007
178962.0,-1.5262089394999998,-0.559959715,9.822929039,-0.023748695131886842,0.1388775939104408,-0.18636276686945052,9.956545762193938,0.23362805372227408,0.11856239850000017,0.1448442205,-0.05266171050000068
178972.0,-1.3622417515,-0.470130801,9.8408752085,-0.01495572636033941,0.1700526650095635,-0.1956898063921082,9.94583080636548,0.25968458358863156,0.16396718799999976,0.08982891399999998,0.017946169500000053
178982.0,-1.217397531,-0.490528633,9.941491437499998,-0.0005672320068981572,0.17831330835925266,-0.1746393902838046,10.027757829652824,0.24958941149189523,0.1448442205,-0.020397832000000005,0.10061622899999811
178992.0,-1.13953273,-0.4880769705,10.028868688999998,0.024747023464027598,0.15566417065612226,-0.13546896588129587,10.105194760769248,0.20783548761781562,0.07786480100000004,0.002451662500000007,0.08737725149999953
179002.0,-1.082065761,-0.5467207374999999,10.1150691425,0.05619087526795744,0.10050653030534547,-0.09709790227620053,10.187462570900408,0.15062197623134901,0.057466969000000034,-0.05864376699999996,0.08620045350000183
179012.0,-1.0856942215,-0.552702794,10.1976411355,0.07510849903032397,0.05121145091201762,-0.07258475293194018,10.270155648749224,0.11632904061021464,-0.003628460500000097,-0.005982056500000055,0.08257199300000018
179022.0,-1.0772605025,-0.5335798265,10.239515531,0.07697425600070593,0.03735528198043463,-0.07178539213452678,10.309843642416919,0.11168525284301314,0.008433719000000117,0.019122967499999977,0.041874395500000716
179032.0,-1.0294040505,-0.6389032474999999,10.289823645499999,0.057789596862784245,0.048014007722364006,-0.09363516904024378,10.360904435151534,0.12005218583733235,0.047856451999999994,-0.10532342099999992,0.05030811449999817
179042.0,-0.9468320574999999,-0.655672619,10.373670503,0.024747023464027598,0.06826506303325422,-0.1394657698683629,10.437405675417061,0.15723623935415926,0.08257199300000007,-0.01676937150000002,0.08384685750000109
179052.0,-0.9576193725,-0.605462571,10.468206609000001,-0.013089969389957472,0.07892378877518359,-0.19728852798693503,10.529338507056393,0.21289216756027327,-0.010787315000000075,0.05021004799999995,0.0945361060000014
179062.0,-0.9229038314999999,-0.5455439394999999,10.6609072815,-0.052260393792466206,0.07093018080104956,-0.25164680754029845,10.71467749103361,0.2666239956437478,0.03471554100000007,0.0599186315000001,0.19270067249999911
