timestamp,ax,ay,az,gx,gy,gz,acc_mag,gyro_mag,dax,day,daz
131252.0,-0.44718324,2.6837859055,9.948356092500001,-0.12011006846374578,0.37746061199956166,0.30953414284119435,10.313702951892653,0.502706999893459,0.0,0.0,0.0
131262.0,-0.38245935,1.884053598,10.1554725405,-0.1630102614777664,0.33775786217519466,0.3031392564618871,10.335838409891512,0.48223036778750605,0.06472389,-0.7997323075000002,0.20711644799999895
131272.0,-0.1562199345,1.672229958,10.1207569995,-0.16620770466742,0.3867859061929674,0.2946133230658948,10.259165655319935,0.5138339697297724,0.22623941549999999,-0.21182363999999998,-0.03471554100000063
131282.0,-0.266348614,1.9427954315,10.0393618045,-0.1334321666442185,0.4232912128276808,0.3052703034785722,10.229085057545005,0.538673882918412,-0.11012867949999999,0.27056547350000004,-0.08139519499999892
131292.0,-0.226925881,2.0648882239999997,10.080059401999998,-0.09665982463394995,0.4438093035141261,0.33191799049802156,10.291883028917985,0.5625649935787014,0.03942273299999999,0.12209279249999971,0.040697597499997684
131302.0,-0.169458912,2.125885587,10.185382823000001,-0.07108027911672107,0.44673971132822454,0.3718860303686918,10.406254326266202,0.5856005424692842,0.05746696900000001,0.06099736300000025,0.10532342100000314
131312.0,-0.18495341899999998,2.2240501535,10.267954816,-0.05082922380583086,0.4326182523503384,0.4270436707194686,10.50768780255203,0.6100069335351216,-0.01549450699999999,0.09816456649999994,0.0825719929999984
131322.0,-0.194563936,2.2767118639999997,10.301493558999999,-0.02684665455417678,0.39451422412079823,0.4771398562394618,10.551873842260845,0.6196972311593791,-0.009610517000000013,0.05266171049999979,0.03353874299999937
131332.0,-0.19574073399999997,2.2803403244999996,10.337385897999999,0.009923942126839757,0.33855722297260804,0.5024523663811356,10.587719945042789,0.6059520264313537,-0.001176797999999979,0.003628460499999875,0.035892339000000106
131342.0,-0.1526895405,2.2479783794999997,10.303847155,0.05602157833051399,0.2804674294784808,0.5005883547400056,10.54732132269038,0.5765319567363236,0.04305119349999997,-0.03236194499999989,-0.03353874299999937
131352.0,-0.0042168595,2.227678614,10.205682588499998,0.09705775970340466,0.22770787151994418,0.4718096207038711,10.445981374978084,0.5327995886442838,0.148472681,-0.0202997654999999,-0.09816456650000127
131362.0,0.17053764349999997,2.2384659289999997,10.114774942999999,0.12477009756657062,0.20479169844125866,0.4387687926343665,10.36091139575496,0.5000252697484865,0.17475450299999998,0.010787314999999964,-0.09090764549999975
131372.0,0.315381864,2.389292206,10.0273976915,0.13116498394587786,0.189603843290404,0.4289094276898505,10.312947562617197,0.48694678104003275,0.14484422050000004,0.15082627700000018,-0.08737725149999953
131382.0,0.49621648999999995,2.5353132245,9.9040300345,0.1119803248079562,0.1786780821729195,0.44729472603035875,10.235421577812541,0.49450785850951007,0.18083462599999994,0.14602101849999993,-0.1233676569999993
131392.0,0.56682437,2.6718217925000003,9.8669608975,0.09252688496522739,0.18027854909699828,0.4901966643736314,10.238009518949365,0.5304284583889913,0.07060788000000001,0.13650856800000044,-0.037069136999999586
131402.0,0.5656475719999999,2.750765325,9.838227413,0.0871983947588887,0.193600647277471,0.565071289284188,10.231196688503086,0.6036475235168924,-0.0011767980000000344,0.07894353249999986,-0.028733484500000017
131412.0,0.48062391649999997,2.7424296725,9.877748212499998,0.10105456369047168,0.211453620196121,0.6410140556969655,10.262642428111151,0.6825127676005698,-0.08502365549999996,-0.008335652500000013,0.039520799499998205
131422.0,0.36206151799999997,2.7220318404999997,9.943550834,0.12743347000511399,0.21838257732653849,0.6961716960477422,10.315752472401341,0.7406654236126564,-0.1185623985,-0.02039783200000045,0.06580262150000138
131432.0,0.278312727,2.6633880734999997,10.021317568499999,0.149284992240083,0.21598449493429828,0.7316106065094871,10.372940750471823,0.7772962051350341,-0.08374879099999999,-0.05864376699999996,0.07776673449999905
131442.0,0.26154335549999996,2.5640467090000003,10.048874255,0.14821859606711446,0.2082561770064674,0.7518616618203772,10.374131975521697,0.7941255228216474,-0.01676937150000002,-0.09934136449999942,0.027556686500000538
131452.0,0.29508209849999995,2.5161902569999994,9.9603202055,0.12503538761287378,0.21571745955874316,0.7627874229378618,10.277463960061764,0.8025039084678429,0.03353874299999998,-0.04785645200000088,-0.08855404949999901
131462.0,0.2986124925,2.4886335705,9.9148173495,0.10105456369047168,0.24049764427855866,0.7702487054901375,10.226733082604769,0.8132245754128685,0.0035303940000000478,-0.02755668649999965,-0.04550285600000059
131472.0,0.31057660549999994,2.48500511,9.886083865,0.09386031651375105,0.2588846879483189,0.7822391174513386,10.198350965250379,0.8292943250385891,0.011964112999999943,-0.003628460499999875,-0.028733484500000017
131482.0,0.2758610645,2.5376668204999997,9.9124637535,0.11437840720019639,0.26474550357651583,0.8016908119648154,10.235858043331051,0.8519863612091697,-0.03471554099999996,0.05266171049999979,0.02637988850000106
131492.0,0.265171816,2.5557110565,9.992682150499999,0.14821859606711446,0.25169044077159825,0.8357980362072885,10.317735781519042,0.8853672613801957,-0.01068924849999997,0.018044236000000158,0.08021839699999767
131502.0,0.269879008,2.5580646525,10.103987627999999,0.18632262429665464,0.21758321652912507,0.8888246295413802,10.426269487794091,0.9338457038072854,0.004707191999999971,0.002353596000000291,0.1113054775000002
131512.0,0.2627201535,2.5305079659999996,10.142233562999998,0.2209621739609861,0.1701521487769272,0.9509094816933226,10.45645227079855,0.9909615928123723,-0.007158854499999978,-0.027556686500000538,0.038245934999999065
131522.0,0.2495792425,2.5017744815,10.2021521945,0.2532053865623294,0.1173925908183906,1.0028696788544458,10.507381917219561,1.0409810665563768,-0.013140911000000005,-0.028733484499999573,0.059918631500002206
131532.0,0.20289958849999998,2.45754649,10.315811268,0.2811830144717985,0.06116855429464527,1.036976903096919,10.606444508435452,1.076162895299044,-0.046679654000000015,-0.04422799150000012,0.11365907349999915
131542.0,0.11189387649999999,2.4826515139999996,10.3553320675,0.2947721480278263,-0.0014503686084072877,1.0534981897962972,10.649365286614902,1.0939612235934664,-0.09100571199999999,0.025105023999999698,0.03952079949999998
131552.0,0.1130706745,2.5137385945,10.330227043499999,0.2931734264329995,-0.0606048129462511,1.058826680002636,10.632274331918333,1.1003351942040753,0.0011767980000000067,0.031087080500000308,-0.025105024000000142
131562.0,0.16700724949999998,2.5640467090000003,10.2511854445,0.2747881280924912,-0.08378627607123978,1.070817091963837,10.568303078775134,1.1086829573148267,0.05393657499999999,0.05030811450000039,-0.07904159899999819
131572.0,0.17416610400000002,2.6155316214999997,10.1446852255,0.2409479392255732,-0.04408352624687277,1.0900034964310106,10.477880406805898,1.1171870429499429,0.007158854500000034,0.051484912499999425,-0.10650021900000084
131582.0,0.1369989005,2.621513678,10.111146482499999,0.19165111450299335,0.04305029132969213,1.1070571085522471,10.44635753998739,1.1243482195787355,-0.03716720350000002,0.005982056500000166,-0.03353874300000115
131592.0,0.058055367999999996,2.5293311679999997,10.153020878,0.1354288233085,0.1392423677241076,1.1129196695096961,10.463494613764263,1.129743153966295,-0.0789435325,-0.09218251000000022,0.041874395500000716
131602.0,-0.025791489499999997,2.4670589405,10.208134250999999,0.08293455539626655,0.2151851341368849,1.1019939083922117,10.502049795314766,1.1258656032430459,-0.0838468575,-0.06227222749999983,0.0551133729999993
131612.0,-0.0760015375,2.4072383755,10.366119382499999,0.050693088124175306,0.24449444826562566,1.0934662296669675,10.64222739291096,1.1216129991393518,-0.05021004799999999,-0.05982056499999988,0.15798513150000026
131622.0,-0.0784532,2.3653639799999997,10.4679124095,0.04030139775780106,0.21491809876132975,1.10492431620631,10.732114976808429,1.1263532911038165,-0.002451662500000007,-0.04187439550000027,0.10179302700000115
131632.0,-0.114345539,2.462253682,10.545679144000001,0.04642924876155316,0.140041728521521,1.1451611367817873,10.829917668431666,1.1546260823587924,-0.035892338999999995,0.09688970200000036,0.07776673450000082
131642.0,-0.114345539,2.3952742624999996,10.5385202895,0.06641501402614022,0.03931877738892826,1.2061813380900133,10.807905605948234,1.2086481459465643,0.0,-0.06697941950000041,-0.0071588545000018655
131652.0,-0.10120462799999999,2.311427405,10.452319836,0.08506734774220362,-0.05927138139772743,1.2783925905620266,10.705322460316303,1.2825900225358753,0.013140911000000005,-0.08384685749999976,-0.08620045350000005
131662.0,-0.123956056,2.2371910644999997,10.269131614,0.09732479507895979,-0.1312173438234377,1.3324838347398347,10.51073037750241,1.3424616482046015,-0.022751428000000004,-0.07423634050000016,-0.1831882219999983
131672.0,-0.10954028049999999,2.1403013625,10.131544314500001,0.11357904640278299,-0.18211114481159235,1.3540665762699968,10.355726878980956,1.370970809980251,0.014415775500000005,-0.09688970199999991,-0.13758729949999982
131682.0,-0.11915079749999999,2.089993248,9.998664207,0.1346294625110866,-0.2060937140632464,1.3588627410544771,10.215456652229179,1.380980687836906,-0.009610516999999999,-0.050308114499999945,-0.1328801075000019
131692.0,-0.22212062249999998,2.0636133595,9.930409923000001,0.1447541175019057,-0.19969708235468722,1.3474063998443864,10.144992799764008,1.3697943953660858,-0.10296982499999999,-0.026379888499999726,-0.06825428399999822
131702.0,-0.30949787399999995,2.0145801094999998,9.8681376955,0.14955028228638612,-0.18317754098456088,1.3071695792689093,10.07643109086504,1.3283868440402238,-0.08737725149999997,-0.04903325000000036,-0.062272227500001165
131712.0,-0.32381558299999996,1.9260260599999999,9.803511872,0.15914261185534695,-0.161593054125147,1.2488144957284786,9.996163160935183,1.269242423964472,-0.014317709000000012,-0.0885540494999999,-0.06462582350000012
131722.0,-0.4231569475,1.9260260599999999,9.719665014499999,0.16953604755097318,-0.12935158685305576,1.1848638866061543,9.917687541968233,1.2039006330358213,-0.09934136450000003,0.0,-0.08384685750000109
131732.0,-0.6003631129999999,1.9235743974999997,9.616793256,0.17699558477399696,-0.09284628021834235,1.106523037801137,9.825644348276382,1.1244292338624644,-0.1772061654999999,-0.0024516625000001735,-0.10287175849999919
131742.0,-0.775117616,1.8768947434999999,9.562856681,0.18499093807738298,-0.06353522076034958,1.0023373534325875,9.776081479721709,1.0212436249661783,-0.17475450300000006,-0.04667965399999985,-0.05393657499999982
131752.0,-0.8709285864999999,1.7835354355,9.582077714999999,0.2116368797675804,-0.04754800481208152,0.8712369466690334,9.78548560822439,0.8978333914934036,-0.09581097049999998,-0.09335930799999992,0.019221033999999193
131762.0,-0.8098331569999999,1.8003048069999998,9.633464560999998,0.2502732334189789,-0.06540097773073152,0.7409376460321447,9.833644623857769,0.7847946066084948,0.06109542950000002,0.016769371499999908,0.051386845999999764
131772.0,-0.5010217485,1.7751997829999997,9.829793694,0.29397278723041287,-0.08698371926089339,0.6522051068607531,10.001359963956672,0.7206647406830182,0.3088114084999999,-0.025105024000000142,0.19632913300000077
131782.0,-0.10002783,1.777553379,10.082412997999999,0.33767234104184696,-0.12535478286598872,0.616499161023453,10.238396038648249,0.7140081561401677,0.40099391850000005,0.002353596000000291,0.25261930399999954
131792.0,0.21241203899999997,1.9247511954999998,10.2823705915,0.371514275238017,-0.16239241492256037,0.6591323186619186,10.463122431656569,0.7738537113916603,0.312439869,0.14719781649999986,0.19995759350000064
131802.0,0.17897136249999998,2.1318676434999997,10.4439841835,0.3712472398624619,-0.17385050146190317,0.7707810309119958,10.660848747787181,0.8730131199345234,-0.03344067649999999,0.20711644799999984,0.16161359200000014
131812.0,0.004118793,2.1677599825,10.465460747,0.32008640349875206,-0.18157881938973408,0.9010803315488846,10.687612874406613,0.9733303330627189,-0.17485256949999997,0.035892339000000106,0.021476563500000267
131822.0,-0.2688002765,2.11039108,10.366119382499999,0.22495897794805314,-0.1749168976348717,1.0105979967822767,10.582175350627686,1.0500051304341285,-0.2729190695,-0.05736890249999993,-0.09934136450000075
131832.0,-0.485429175,1.9140619469999998,10.1554725405,0.10105456369047168,-0.14907031674208768,1.0740145351534904,10.34567045395049,1.089009277231937,-0.2166288985,-0.1963291330000001,-0.21064684199999917
131842.0,-0.6398839125,1.7189096119999998,9.906481697,-0.03457497248200767,-0.07872307591120424,1.0977300690295895,10.074843983342785,1.1010922104232506,-0.1544547375,-0.19515233499999995,-0.24899084349999967
131852.0,-0.8732821825,1.6793888125,9.712506159999998,-0.16967218323262875,0.028660051646998884,1.1129196695096961,9.895238474228908,1.126143969084285,-0.23339827000000002,-0.03952079949999976,-0.1939755370000018
131862.0,-1.0109675485,1.6111345284999998,9.536574859,-0.28798107190831634,0.13151579512552872,1.1238436852979286,9.72440588901738,1.1675847425900152,-0.13768536600000003,-0.06825428400000022,-0.17593130099999854
131872.0,-1.1355120035,1.558472818,9.4168356625,-0.36845296773001895,0.23357043247739315,1.1406302620436102,9.612232775430964,1.2212084715749434,-0.12454445499999989,-0.05266171049999979,-0.11973919649999942
131882.0,-1.2396586264999998,1.5728885934999999,9.4048715495,-0.38044337969121994,0.3193708185054344,1.1654121920926777,9.615734028165129,1.2668545545333803,-0.10414662299999988,0.014415775499999839,-0.01196411300000122
131892.0,-1.4311825009999999,1.6230986414999997,9.655039190999998,-0.29997148386951744,0.35934060370535653,1.1923251691584302,9.894569941687898,1.280916808233419,-0.19152387450000008,0.05021004799999984,0.25016764149999915
131902.0,-1.5101260334999997,1.5740653915,9.991407286,-0.1699374732789319,0.30045144941381585,1.2282964050420333,10.22674836145421,1.2758769050807657,-0.07894353249999986,-0.049033249999999695,0.336368095000001
131912.0,-1.511400898,1.672229958,10.205682588499998,-0.06068858875034682,0.17681407053178952,1.286918523958019,10.451633499320568,1.3004251641862423,-0.00127486450000025,0.09816456649999994,0.21427530249999904
131922.0,-1.4503054684999999,1.6793888125,10.223628757999998,0.006726498937186146,0.036653659621132914,1.358597451008174,10.461659415069665,1.3591084469009387,0.06109542950000013,0.007158854500000089,0.017946169500000053
131932.0,-1.421571984,1.6135861909999998,10.060838367999999,0.04776268031007683,-0.05927138139772743,1.437735915281353,10.28809972582403,1.4397496075266376,0.028733484499999795,-0.06580262150000027,-0.16279038999999962
131942.0,-1.549646833,1.5513139635,9.816652783,0.05389053131382891,-0.07339458570486554,1.5142110071159884,10.058561138769235,1.5169462510739435,-0.12807484899999988,-0.06227222749999983,-0.24418558499999854
131952.0,-1.7711790564999998,1.4854132754999998,9.567661939499999,0.013655456067603634,-0.008644615785127915,1.5608427140707728,9.842950921231536,1.560926384853015,-0.2215322234999999,-0.06590068800000015,-0.24899084350000145
131962.0,-2.0237002939999997,1.339392257,9.4144820665,-0.06361899656444531,0.1235204418221427,1.5640401572604266,9.722232617999701,1.5701994426807775,-0.2525212374999999,-0.1460210184999997,-0.15317987299999913
131972.0,-2.4140049639999996,1.0868710195,9.437135428,-0.15235153573583704,0.27487190389658694,1.5160767640863704,9.801440387292999,1.5483069167950527,-0.3903046699999999,-0.2525212375000001,0.022653361499999747
131982.0,-2.575618556,0.9372215405,9.495877261499999,-0.21177301544923596,0.4136988832587199,1.4502603979936641,9.883515575313343,1.5229083354131054,-0.16161359200000014,-0.14964947900000003,0.058741833499999174
131992.0,-2.7324268894999997,0.8629851999999999,9.600023884499999,-0.2344221531523664,0.5024314224301116,1.3609955334004142,10.018550730762016,1.4695917535389258,-0.1568083334999999,-0.07423634050000005,0.1041466230000001
132002.0,-2.6354391209999997,0.8270928609999999,9.823811637499999,-0.22669383522453548,0.5213490461924781,1.2679991548664002,10.204748749983745,1.3896102977585194,0.09698776850000002,-0.035892338999999995,0.22378775299999987
132012.0,-2.6030771759999998,0.922805765,9.9734611165,-0.19258661098206228,0.4789829239295678,1.2227008794601395,10.348792582058392,1.3272195314936686,0.03236194499999989,0.0957129040000001,0.1496494790000007
132022.0,-2.5037358114999995,0.93359308,9.9950357465,-0.15421729270621895,0.3785252628432782,1.2274970442446198,10.346063436236232,1.2937593831966927,0.0993413645000003,0.010787314999999964,0.021574629999999928
132032.0,-2.4402867859999997,0.8306232549999999,9.8669608975,-0.10918430734626126,0.28579766501407144,1.25894089604855,10.198129825731138,1.2955823779450322,0.06344902549999976,-0.10296982500000007,-0.128074848999999
132042.0,-2.563654443,0.6846022365,9.6598444495,-0.06415306731555558,0.22237938131360552,1.2802566022031565,10.017664354223013,1.3010092900376182,-0.12336765700000019,-0.14602101849999993,-0.20711644800000073
132052.0,-2.7611603739999997,0.49906041849999994,9.434781832,-0.03457497248200767,0.21118658482056585,1.2565428136563097,9.843179167814558,1.2746352595474602,-0.1975059309999998,-0.18554181800000003,-0.225062617499999
132062.0,-2.9395433375,0.3494109395,9.295919668,-0.0161896741414994,0.2796680686810674,1.1816664434165007,9.755876460451523,1.214418345416936,-0.17838296350000027,-0.14964947899999992,-0.13886216400000073
132072.0,-2.99102825,0.228494945,9.412030404,-0.0017994344588061538,0.3995756789515818,1.074813895950904,9.878500709014956,1.1466860390286218,-0.05148491249999987,-0.12091599450000001,0.11611073599999955
132082.0,-3.1191030989999997,0.28831551,9.6933831925,0.012056734472776828,0.5274786425254823,0.9730262939745947,10.186933183845836,1.1068691214107507,-0.12807484899999988,0.05982056499999999,0.28135278850000134
132092.0,-3.2674777134999995,0.3721623675,10.0093534555,0.025378832653249545,0.5935602986644916,0.8885575941658251,10.535752086734586,1.0688744133186467,-0.14837461449999978,0.08384685749999998,0.31597026299999875
132102.0,-3.2196212614999995,0.321854253,10.295511502499998,0.04376587632300981,0.5551909803886482,0.8102167453608076,10.791992787515511,0.9831600333100858,0.047856451999999994,-0.0503081145,0.2861580469999989
132112.0,-3.120279897,0.3482341415,10.4331968685,0.0810705437551366,0.43022016995809825,0.7515963717740741,10.895366471569773,0.8698039628373055,0.09934136449999942,0.026379888500000004,0.13768536600000125
132122.0,-3.01848687,0.422470482,10.384065552,0.1306326585240196,0.28792871203075654,0.7305442103365185,10.822132954309735,0.7960293197746869,0.10179302700000026,0.0742363405,-0.049131316500000466
132132.0,-2.9035529319999998,0.45355756249999996,10.247655050499999,0.19245047530040674,0.157894701440171,0.7124259473715654,10.66071142679816,0.754664596144874,0.11493393800000007,0.031087080499999975,-0.13641050150000034
132142.0,-2.8053883655,0.40687790849999994,10.047697457,0.22922281731067526,0.09127897455005143,0.6777863977072339,10.439922303404003,0.7212969929839587,0.09816456649999994,-0.046679654000000015,-0.19995759349999886
132152.0,-2.853342884,0.549368533,9.89687118,0.2193634523661593,0.09820793168046893,0.6266255613435241,10.314622172054515,0.6711368833613919,-0.0479545185000001,0.14249062450000005,-0.15082627700000018
132162.0,-2.9000225379999995,0.6857790345,9.7435932405,0.17593093393028042,0.15283150128013548,0.5669370462545701,10.18911344727229,0.6129655583415575,-0.046679653999999626,0.1364105015,-0.15327793950000057
132172.0,-2.8401039064999996,0.676266584,9.680144214999999,0.1322313801188464,0.2042593730194004,0.5093813235115531,10.110821861527851,0.5645142709416608,0.059918631499999986,-0.009512450500000047,-0.06344902550000064
132182.0,-2.771947689,0.7229462379999999,9.575997592,0.1284998661780825,0.23037298928773955,0.4560894401311582,9.995302653525835,0.5268790252043702,0.06815621749999945,0.04667965399999996,-0.10414662299999833
132192.0,-2.6845704374999997,0.7887488595,9.5221590835,0.16180772962314227,0.2543538132101416,0.4134545371634407,9.924744672219182,0.5116857023225981,0.08737725150000042,0.06580262150000005,-0.05383850850000016
132202.0,-2.5552207239999998,0.9036827974999999,9.546087309499999,0.21216920518943866,0.28419719808999266,0.37881498749910925,9.923385433784855,0.5189264049813528,0.1293497134999999,0.11493393799999996,0.023928225999998887
132212.0,-2.464215012,1.0066526225,9.802335074,0.2761198143117629,0.3039159279790246,0.3628260262215892,10.157336168047353,0.5479505164142684,0.09100571199999985,0.10296982500000018,0.2562477645000012
132222.0,-2.4654898765,1.0545090744999999,10.186559620999999,0.3336755370547799,0.26154806038686224,0.3670898655842113,10.53359514275703,0.5608045304164009,-0.001274864500000028,0.04785645199999977,0.38422454699999875
132232.0,-2.4331279314999996,1.1048171889999998,10.442709318999999,0.3611225848716427,0.1522991758582772,0.36309306159714433,10.77918876693811,0.5342669104964998,0.032361945000000336,0.050308114499999945,0.25614969799999976
132242.0,-2.3421222194999998,1.2076889474999999,10.463107150999999,0.3552600239141938,0.04225093053227873,0.35430009282559694,10.789840607640901,0.5035110539984039,0.09100571199999985,0.10287175850000008,0.02039783200000045
132252.0,-2.2284631459999997,1.3131104349999998,10.388870810499998,0.31235983090017316,0.005745623897565333,0.34950392804111646,10.706023712137247,0.46877998236926344,0.11365907350000004,0.10542148749999991,-0.07423634050000061
132262.0,-2.1123524099999997,1.3345869984999998,10.266778018,0.22815642113770673,0.05184326010123957,0.34071095926956907,10.566450966691042,0.413312271642981,0.11611073599999999,0.021476563500000045,-0.12209279249999838
132272.0,-2.1457930865,1.4267695085,10.198523734,0.11464369724649953,0.15070045426345038,0.31806182156643864,10.519029686877865,0.3701582453109999,-0.033440676500000155,0.09218251000000022,-0.068254284
132282.0,-2.2595502265,1.510616366,10.19499334,0.020849703244324263,0.2455608444385942,0.297011405458135,10.551086116317485,0.38594120461410764,-0.11375714000000015,0.08384685749999998,-0.0035303940000002143
132292.0,-2.1889423464999997,1.467467106,10.223628757999998,-0.043100905877999966,0.30924616351461526,0.2684997067975557,10.557817638361517,0.4118045292203399,0.07060788000000029,-0.04314926000000008,0.02863541799999858
132302.0,-2.1195112645,1.4734491625,10.3757298995,-0.08440412262644578,0.3486818779634272,0.23918864733956288,10.692013439113918,0.4311778252097065,0.06943108199999992,0.005982056499999944,0.1521011415000011
132312.0,-2.0381160694999996,1.5656316724999997,10.385242349999999,-0.10811791117329274,0.33455867365628905,0.22826288622207838,10.698522249120332,0.41919319419757384,0.08139519500000025,0.09218250999999977,0.009512450499999048
132322.0,-1.8417869365,1.510616366,10.367296180499999,-0.11477983292815508,0.2975210415997174,0.23119503936542884,10.637432538864768,0.39388364585087576,0.19632913299999966,-0.05501530649999964,-0.017946169500000053
132332.0,-1.6753680859999998,1.5513139635,10.376906697499999,-0.09133133442761127,0.2676776567198663,0.25037969850335057,10.625141215323103,0.37773368128616164,0.16641885050000016,0.040697597499999905,0.009610517000000485
132342.0,-1.665757569,1.5740653915,10.350526809,-0.058023470982551485,0.21252001636908954,0.29381221693922943,10.601218578976031,0.3672289467963084,0.009610516999999819,0.022751428000000073,-0.026379888499999282
132352.0,-1.7328350549999998,1.5476855029999999,10.167436653500001,-0.04283561583169683,0.16269086622465143,0.34151032006698245,10.429516568229255,0.3807000218661157,-0.06707748599999985,-0.02637988850000017,-0.18309015549999863
132362.0,-1.8106017894999997,1.410000137,10.042892198499999,-0.0417692196587283,0.15576365442348594,0.364426493145668,10.301750479271606,0.39851430671521426,-0.07776673449999993,-0.13768536599999992,-0.12454445500000233
132372.0,-1.9686849875,1.35135637,10.012981916,-0.04230154508058657,0.17548063898326588,0.3638924223945577,10.293769546132772,0.4062026224070438,-0.15808319800000037,-0.05864376699999996,-0.029910282499999497
132382.0,-2.1602088619999997,1.271137973,9.9699307225,-0.04070282348575976,0.20266065142457357,0.34444072788108093,10.280165985299812,0.4017057063308838,-0.19152387449999964,-0.08021839699999989,-0.043051193500000196
132392.0,-2.2032600555,1.0988351324999999,10.0093534555,-0.042568580456141696,0.21651682035615655,0.29834309167740675,10.307713137146761,0.37107979989595863,-0.043051193500000196,-0.17230284050000022,0.03942273300000032
132402.0,-2.135103838,1.0701016479999998,10.096828773499999,-0.04123689423687002,0.20239361604901843,0.24158672973180312,10.375439133717288,0.3178487144007469,0.0681562174999999,-0.028733484500000017,0.08747531799999919
132412.0,-2.000948866,1.1023655264999999,10.069272087,-0.033243286262735997,0.15976045841055297,0.2072124701137748,10.325175372864116,0.2637527780398687,0.13415497200000015,0.03226387850000001,-0.02755668649999876
132422.0,-1.8250175649999998,1.1322758089999998,10.0883950545,-0.006330309196983434,0.10193770029198082,0.20161694453188095,10.31447780529219,0.22601053045758437,0.1759313010000001,0.02991028249999994,0.019122967499999532
132432.0,-1.652616658,1.163460956,10.1015359655,0.04483052716672635,0.022265165267691664,0.22719823537836184,10.301738303642038,0.23264683945733225,0.17240090699999988,0.03118514700000019,0.013140911000000699
132442.0,-1.6550683204999999,1.281925288,10.1087928865,0.12157265437691703,-0.052611204972117076,0.2868850051380639,10.323288100779209,0.31599185963238735,-0.0024516624999999515,0.11846433200000006,0.00725692099999975
132452.0,-1.7758862485,1.3837183149999999,10.106341224,0.210837518970167,-0.12615414366340214,0.3572305006396954,10.35406110078551,0.4335677086179612,-0.12081792800000013,0.10179302699999981,-0.0024516625000003955
132462.0,-2.058415835,1.4567778574999999,10.111146482499999,0.2955715088252397,-0.16265945029811552,0.41771837652606286,10.420871396694862,0.5369443692675093,-0.28252958649999993,0.07305954250000002,0.004805258499999354
132472.0,-2.452250899,1.4543261949999997,10.273936872499998,0.36298659651277265,-0.14613816359873721,0.4374371064150948,10.662193864924072,0.5869129868871098,-0.3938350640000001,-0.0024516625000001735,0.16279038999999962
132482.0,-2.786265398,1.3418439195,10.509786805000001,0.38883317740555673,-0.11682710414074443,0.3889396424899284,10.955338363507689,0.5622400355839193,-0.3340144989999998,-0.11248227549999967,0.23584993250000252
