timestamp,ax,ay,az,gx,gy,gz,acc_mag,gyro_mag,dax,day,daz
92102.0,-1.0923627435,1.325074548,10.859295810999999,0.3667181104535365,0.3294972188255055,0.08517381282657527,10.994243240530308,0.500305075068974,0.0,0.0,0.0
92112.0,-1.1055036544999999,1.7667660639999998,10.800652043999998,0.2875779008511057,0.3942471887452431,0.05799380038526758,10.999894782704798,0.4914215865980879,-0.01314091099999981,0.4416915159999999,-0.05864376700000129
92122.0,-0.955952242,1.7117507575,10.86772953,0.19591495386561547,0.415829930275405,0.08090997346395312,11.043164423389731,0.4667372107160002,0.14955141249999993,-0.05501530649999986,0.0670774860000023
92132.0,-1.0109675485,1.9355385104999998,10.896463014499998,0.1564792394168036,0.4014414359219638,0.160048437737132,11.113112567418503,0.4596264584046986,-0.05501530650000008,0.22378775299999987,0.02873348449999824
92142.0,-1.016949605,1.8853284625,10.925196499,0.1658045336102093,0.37106398029100246,0.2748945931768629,11.13321914148752,0.49065941160134025,-0.005982056499999944,-0.05021004799999984,0.028733484500001794
92152.0,-1.133060341,1.6782120145,10.950301522999998,0.1905864636592768,0.35054763493380914,0.3766821951531722,11.135947411270191,0.5487224440764643,-0.11611073599999999,-0.20711644800000006,0.025105023999998366
92162.0,-1.3677334755000001,1.4627599139999998,11.083181630499999,0.21456728758167887,0.3449521093519152,0.42597901987575204,11.262649620789116,0.5886333358048973,-0.23467313450000016,-0.21545210050000008,0.13288010750000012
92172.0,-1.6944910535,1.3370386609999998,11.150259116500001,0.22522601332360825,0.3425540269596751,0.40013243898296796,11.357255420060412,0.572866465409169,-0.3267575779999998,-0.12572125300000003,0.0670774860000023
92182.0,-1.8369816779999997,1.28074849,11.17173568,0.20124518940120617,0.3356250698292576,0.30953414284119435,11.39396754794966,0.4989541054440321,-0.14249062449999972,-0.05629017099999989,0.02147656349999849
92192.0,-1.883661332,1.267607579,11.119073969499999,0.1647398827664928,0.33136123046663546,0.20854590166229844,11.348515979070687,0.42477157052988085,-0.04667965400000029,-0.01314091099999981,-0.05266171050000068
92202.0,-1.7376403134999998,1.3980360239999998,11.025714661499999,0.1476862706452562,0.34042123461373797,0.12327784105611547,11.249012506896689,0.3910182573851282,0.14602101850000015,0.13042844499999973,-0.09335930800000014
92212.0,-1.491003066,1.5513139635,10.938337409999999,0.1564792394168036,0.35907356832980136,0.06998421234646864,11.147954541133407,0.39789115323077173,0.24663724749999982,0.15327793950000013,-0.08737725149999953
92222.0,-1.2324017055,1.797951211,10.9790350075,0.18019302796365055,0.37772590204586476,0.06651973378125989,11.193330702555258,0.4237584918150914,0.25860136049999993,0.24663724750000005,0.04069759750000124
92232.0,-1.02773692,2.01820857,11.0149273465,0.2031092010423361,0.3705316548691442,0.11235207993863097,11.24535608406537,0.4372299677225467,0.2046647855000001,0.2202573590000001,0.035892339000000106
92242.0,-0.8134616174999999,2.157070734,11.031696718,0.19937943243082423,0.34601676019563177,0.18749374022474283,11.270004721940314,0.4411730488551882,0.21427530250000004,0.13886216399999984,0.016769371499998798
92252.0,-0.700979342,2.2899508414999996,11.073571113499998,0.18419157727996957,0.3204372146784029,0.26743331062458714,11.32957298842895,0.45620951472252613,0.1124822754999999,0.13288010749999968,0.04187439549999894
92262.0,-0.6302733954999999,2.3653639799999997,11.161046431499999,0.17219941998951654,0.2887280728281699,0.33245031591987984,11.426335753733802,0.47279990782467674,0.07070594650000006,0.07541313850000009,0.08747531800000097
92272.0,-0.5943810565,2.389292206,11.2818643595,0.16660389440762272,0.2455608444385942,0.38361115228358966,11.547400985162625,0.484989177311747,0.035892338999999995,0.02392822600000022,0.12081792800000102
92282.0,-0.5010217485,2.43597186,11.4160193315,0.1812594241366191,0.17921215292402976,0.4233139021079567,11.683769899838133,0.4941322032734452,0.09335930799999992,0.04667965400000007,0.13415497199999926
92292.0,-0.30586941349999996,2.462253682,11.494962864,0.21136984439202527,0.08035495876181893,0.4486281575788824,11.75969474677708,0.5023956153158038,0.19515233500000007,0.026281822000000066,0.0789435325000003
92302.0,-0.013827376499999999,2.4527412314999997,11.4268066465,0.2404138684744629,-0.030761428066400056,0.47340834229869794,11.687088640099278,0.5318463614330193,0.292042037,-0.00951245050000038,-0.06815621750000034
92312.0,0.3286208415,2.4203792865,11.273528707,0.23455305284626596,-0.11442902174850424,0.5107130097308248,11.535106287136651,0.573530220586623,0.34244821799999997,-0.03236194499999989,-0.1532779394999988
92322.0,0.578788483,2.5257027075,11.0916153495,0.1953826284437572,-0.14240839498722532,0.5725325718364639,11.390263444538508,0.6214885906226313,0.2501676415,0.10532342100000003,-0.18191335750000093
92332.0,0.6685193304999999,2.574834024,11.016202211,0.15994197265276036,-0.13254903004270935,0.6514057460633397,11.332846045898686,0.6837251830857597,0.08973084749999993,0.04913131650000002,-0.07541313850000009
92342.0,0.6050703049999999,2.5975854519999997,11.032873516,0.13276370554070466,-0.11149861393440574,0.7190878691264277,11.350676555804462,0.7396928456751349,-0.06344902549999998,0.02275142799999985,0.016671305000000913
92352.0,0.5631959095,2.4994208854999997,11.0149273465,0.10185392448788508,-0.0995082019732047,0.7569248619804129,11.308975145609999,0.7702021493592386,-0.04187439549999994,-0.09816456649999994,-0.017946169500000053
92362.0,0.6338037895,2.4323433994999997,10.853313754499998,0.05495692748679745,-0.10776884532289387,0.7726467878823777,11.140575438921216,0.7820597462636565,0.07060788000000007,-0.06707748600000007,-0.16161359200000192
92372.0,0.775117616,2.4288130055,10.605597775499998,0.006459463561631014,-0.11123157855885062,0.7785076035105748,10.90773322510273,0.7864402567658755,0.1413138264999999,-0.00353039399999977,-0.24771597900000053
92382.0,0.9977285709999999,2.3640891155,10.381711956,-0.033243286262735997,-0.0995082019732047,0.7902327254254726,10.69412562039406,0.7971667069533553,0.22261095499999994,-0.06472388999999978,-0.22388581949999775
92392.0,1.1186445655,2.3353556309999997,10.132721112499999,-0.06388603194000043,-0.07126353868818047,0.8251393104653592,10.458359753368082,0.830671294013853,0.12091599450000001,-0.02873348450000046,-0.24899084350000145
92402.0,1.1701294779999998,2.2899508414999996,9.933940317,-0.0814719694830953,-0.04781504018763665,0.8731027036394153,10.261396009972968,0.8781983209856737,0.05148491249999987,-0.04540478950000004,-0.19878079549999939
92412.0,1.103051992,2.228855412,9.8430326715,-0.06974859289744939,-0.04728096943652639,0.9253299361760936,10.152330388480927,0.9291586770114593,-0.06707748599999985,-0.061095429499999465,-0.09090764549999975
92422.0,1.0049854919999999,2.1414781605,9.816652783,-0.020718803550424686,-0.07312755032931041,0.9650326860004607,10.097653015082791,0.9680211735736934,-0.09806650000000006,-0.08737725149999997,-0.026379888499999282
92432.0,0.8624948674999999,2.079205933,9.7651678705,0.03790331536556085,-0.1141637317022011,0.9855490313576539,10.02125232929157,0.9928629876079998,-0.14249062449999994,-0.06227222750000028,-0.0514849125000012
92442.0,0.8062046965,2.0074212549999997,9.643075077999999,0.08506734774220362,-0.16452520726849748,0.9850167059357957,9.882742689538624,1.0022788576295725,-0.05629017099999989,-0.07178467800000021,-0.12209279250000016
92452.0,0.7954173815,1.9451490274999998,9.550892568,0.12343666601804697,-0.2122215650669985,0.9666314075952874,9.779357974604169,0.997321854441576,-0.010787315000000075,-0.06227222749999983,-0.09218250999999889
92462.0,0.8732821825,2.0385083355,9.43595863,0.1647398827664928,-0.24845983632615676,0.9551733210559448,9.693062120467733,1.000613607991707,0.07786480100000004,0.09335930800000014,-0.11493393800000007
92472.0,1.009692684,2.192963073,9.305530184999999,0.19671431466302888,-0.254854722705464,0.9666314075952874,9.613607979297411,1.0188344956018474,0.1364105015,0.15445473750000005,-0.1304284450000015
92482.0,1.122273026,2.3389840915,9.262380924999999,0.20950408742164334,-0.22181389463595932,1.0065994474659576,9.618837961260242,1.0518249921630114,0.112580342,0.14602101849999993,-0.043149259999999856
92492.0,1.0252852575,2.3833101494999998,9.376138065,0.20737304040495827,-0.15413351690212324,1.0854726216928334,9.728480978133147,1.1158008475369279,-0.09698776850000002,0.04432605799999978,0.11375714000000059
92502.0,0.8337613829999999,2.3246663825,9.4766562275,0.18312518110700104,-0.08511970761976345,1.1806000472435323,9.793173392109537,1.1977464957711947,-0.19152387450000008,-0.05864376699999996,0.10051816250000023
92512.0,0.5835937415,2.2012987255,9.6382698195,0.13729283494962993,-0.039020326086837226,1.2597402568459632,9.903663102483366,1.2678002299632078,-0.2501676414999999,-0.12336765699999974,0.16161359200000014
92522.0,0.29145363799999996,2.0492956505,9.732903991999999,0.07920478678475466,-0.03209311428567173,1.3186276658082519,9.950576767391484,1.3213940696359623,-0.2921401035,-0.1520030750000001,0.09463417249999928
92532.0,0.0293218835,1.9223975995,9.779583645999999,0.021382028666182534,-0.06593330315258979,1.3617948941978275,9.966781255376581,1.3635577455604018,-0.2621317545,-0.12689805099999996,0.04667965400000007
92542.0,-0.21731536399999998,1.8099153239999999,9.676613820999998,-0.017521360360771076,-0.1205586180815083,1.3927046752506471,9.846820526862905,1.3980227791161435,-0.2466372475,-0.11248227550000012,-0.10296982500000063
92552.0,-0.43639592499999996,1.6494785299999999,9.5113717685,-0.03830474109351955,-0.1559975285432532,1.3903065928584069,9.6631989394251,1.399555252302458,-0.21908056099999998,-0.160436794,-0.16524205249999824
92562.0,-0.5333836934999999,1.522580479,9.401243089,-0.04976282763286232,-0.16052840328143045,1.3522025646288667,9.538664534304255,1.3626068703272372,-0.09698776849999996,-0.12689805099999996,-0.11012867950000071
92572.0,-0.4950396919999999,1.405292945,9.212170877,-0.06308667114258704,-0.13095030844788255,1.301041728265157,9.331881097879954,1.3091361617668482,0.0383440015,-0.11728753399999992,-0.18907221199999924
92582.0,-0.4208033514999999,1.4603082514999999,9.149898649499999,-0.06868219672448085,-0.06966481709335366,1.2701319472123376,9.275247756591439,1.2738938708608951,0.0742363405,0.05501530649999986,-0.062272227500001165
92592.0,-0.48660597299999997,1.636337619,9.25159361,-0.04550073359949217,0.018800686702482916,1.2821223591735385,9.407782443323544,1.2830672338078377,-0.06580262150000005,0.1760293675000002,0.10169496050000149
92602.0,-0.633901856,1.6076041344999998,9.482638284,-0.01725432498521594,0.10700090045201636,1.3180953403863935,9.638809648576125,1.3225438483379521,-0.14729588300000007,-0.02873348450000024,0.23104467399999962
92612.0,-0.8972104085,1.614762989,9.814299187,0.00752585973459955,0.16775406638468696,1.3455406428740044,9.986636799228949,1.3559784979781693,-0.26330855249999996,0.007158854500000089,0.3316609029999995
92622.0,-1.2539763355,1.5968168194999999,10.204505790499999,0.032573079829970174,0.18640640010075038,1.3548676823966623,10.404528775171901,1.368018562860546,-0.356765927,-0.017946169500000053,0.39020660349999936
92632.0,-1.4622695814999997,1.502182647,10.519397322,0.06188413928796294,0.15043341888789524,1.3452736074984495,10.726253076075954,1.3550723003757421,-0.20829324599999977,-0.09463417249999995,0.3148915315000007
92642.0,-1.572398261,1.4148053955,10.7360262205,0.09092816337040059,0.09447641773970505,1.33275087011539,10.942411507779957,1.3391857997291379,-0.11012867950000027,-0.08737725149999997,0.21662889849999978
92652.0,-1.7364635154999999,1.3705774039999998,10.868906328,0.10105456369047168,0.0318574948366525,1.3194270266056654,11.091749759522004,1.3236746591807997,-0.16406525449999987,-0.04422799150000012,0.13288010750000012
92662.0,-1.8417869365,1.304676716,10.812616156999999,0.08586670853961703,-0.03715631444570728,1.2930481202910231,11.04567918289102,1.2964286037907233,-0.10532342100000003,-0.06590068799999993,-0.056290171000000555
92672.0,-1.7878503614999999,1.220927925,10.625897540999999,0.04509756254228148,-0.0971101195809645,1.2602725822678214,10.844204556581838,1.2648126924917724,0.05393657500000004,-0.08374879099999988,-0.18671861600000028
92682.0,-1.7137120874999998,1.1658145519999998,10.381711956,-0.002865830631774689,-0.13921095179757173,1.2344260013750374,10.586589433139075,1.2422541829095846,0.07413827400000006,-0.05511337300000019,-0.24418558499999854
92692.0,-1.6263348359999998,1.1119760435,10.045343861,-0.04763178061617725,-0.14187606956536705,1.2107104674989384,10.236717687121953,1.2199251787513374,0.08737725149999997,-0.05383850849999994,-0.336368095000001
92702.0,-1.5903444305,1.0149882749999999,9.713682958,-0.08440412262644578,-0.07792371511379083,1.179800686446119,9.895202535297065,1.1853800323238994,0.03599040549999977,-0.09698776850000002,-0.3316609029999995
92712.0,-1.583185576,0.9252574275,9.4766562275,-0.10545453873474937,0.032391565587762766,1.1329036894450313,9.65243964650455,1.1382621151646704,0.007158854500000089,-0.08973084749999993,-0.23702673050000023
92722.0,-1.5448415745,0.9048595955,9.491072003,-0.10598686415660766,0.14643661490082824,1.086806053241357,9.658455059894543,1.1017369445196163,0.03834400150000006,-0.020397832000000005,0.014415775499999839
92732.0,-1.6095654645,0.9742906774999999,9.625128908499999,-0.08173900485865043,0.21944722817025503,1.0593590054244943,9.80729574419049,1.0849331100306894,-0.06472389,0.06943108199999992,0.1340569054999996
92742.0,-1.7029247724999999,1.012634679,9.779583645999999,-0.04043753343945662,0.225309789127704,1.0441711502736395,9.978258268005407,1.0689682344444165,-0.09335930799999992,0.03834400150000017,0.15445473750000005
92752.0,-1.7758862485,0.9862547905,9.919622608,0.006726498937186146,0.18320895691109676,1.0308490520931668,10.125481873201903,1.0470246109245878,-0.07296147600000014,-0.02637988850000006,0.1400389620000002
92762.0,-1.7866735634999997,1.0760837044999998,9.942374036,0.04536459791783662,0.13711132070742255,1.0167258477860288,10.158787330844522,1.0269317945056526,-0.010787314999999742,0.08982891399999982,0.022751428000001184
92772.0,-1.686155401,1.116781302,9.9148173495,0.0608194884442464,0.11232939065835505,1.0031367142300007,10.118988268931064,1.011236950282405,0.10051816249999979,0.04069759750000013,-0.027556686500000538
92782.0,-1.5532752935,1.0844193569999998,9.894517584,0.07147646885692378,0.11552683384800866,0.9980735140699654,10.07422988120278,1.0072765630288285,0.1328801074999999,-0.032361945000000114,-0.020299765499999012
92792.0,-1.616724319,1.1694430125,9.8789250105,0.0693454218402387,0.13657724995631226,0.9964747924751386,10.078420205876192,1.0081786274139124,-0.06344902549999998,0.08502365550000013,-0.015592573500001095
92802.0,-1.6693860294999998,1.2161226664999998,9.899224775999999,0.05548925290865572,0.14430556788414317,0.9863483921550673,10.112391172281512,0.9983918593506321,-0.05266171049999979,0.04667965399999985,0.020299765499999012
92812.0,-1.6562451185,1.13953273,9.905206832499998,0.05682093912792739,0.13497852836148547,0.981552227370587,10.107166028610639,0.9924175518894114,0.01314091099999981,-0.07658993649999979,0.0059820564999988335
92822.0,-1.653793456,1.071278446,9.8334221545,0.07600734359510106,0.11126473981463851,0.9823515881680004,10.028901314330698,0.9915501002887326,0.0024516624999999515,-0.068254284,-0.07178467799999844
92832.0,-1.6550683204999999,1.0149882749999999,9.7843889045,0.10904817166460572,0.09980665327529573,0.9858160667332092,9.975155065381834,0.9968380957862433,-0.001274864499999806,-0.05629017100000011,-0.04903324999999903
92842.0,-1.7699041919999998,1.0593143329999999,9.7628142745,0.13729283494962993,0.1259185242143829,0.9927450238636266,9.97833905333645,1.0100730071013813,-0.11483587149999996,0.044326058,-0.021574629999999928
92852.0,-1.9686849875,1.0353861069999999,9.750850161499999,0.1471521998941459,0.17388191738843906,0.9876818237035911,10.001341102202296,1.0136094297128546,-0.19878079550000027,-0.023928225999999997,-0.01196411300000122
92862.0,-2.094308174,0.922805765,9.805865468,0.13569411335480314,0.23783427184001527,0.9628998936545236,10.06939396310003,1.0010765397614256,-0.12562318649999993,-0.11258034199999989,0.055015306500001415
92872.0,-2.1901191444999997,0.8880902239999999,9.979443173,0.10771648544533405,0.3081797673416467,0.9154705712315776,10.255467427485014,0.9719382578263484,-0.09581097049999965,-0.03471554100000007,0.17357770499999958
92882.0,-2.252391372,0.9754674755,10.126739056,0.07307519045175058,0.3494812387608406,0.8699052604497618,10.41996389613391,0.940325625442346,-0.06227222750000028,0.08737725150000009,0.14729588299999996
92892.0,-2.3374150275,0.9419287324999999,10.299139962999998,0.037369244614450584,0.3446850739763601,0.824872275089804,10.602972353324112,0.8947728934634602,-0.08502365550000013,-0.03353874300000015,0.17240090699999833
92902.0,-2.2392504609999997,1.0521554784999998,10.346996415,-0.0007347836150896127,0.3084468027172019,0.8112831415337762,10.638684532875722,0.8679402662339952,0.09816456650000038,0.11022674599999993,0.047856452000001326
92912.0,-2.1135292079999997,1.1071707849999999,10.29305984,-0.03937113726648808,0.2644802135302127,0.8136812239260164,10.565979071058557,0.8564910997601689,0.12572125300000003,0.05501530650000008,-0.05393657499999982
92922.0,-1.990161551,0.9180005065,10.137526371,-0.07720813012047316,0.24369508746821225,0.8371297224265603,10.371736057754912,0.8752911305290425,0.12336765699999974,-0.1891702784999999,-0.15553346899999987
92932.0,-2.0836189254999997,0.7671742294999999,9.9842484315,-0.11851134686891895,0.26074869958944885,0.8464567619492178,10.228159212048906,0.8936016302155164,-0.0934573744999998,-0.15082627700000006,-0.15327793950000057
92942.0,-2.358891591,0.7001948100000001,9.894517584,-0.13183344504939168,0.2999191239919576,0.8272703574820442,10.195887432201605,0.889779625827746,-0.2752726655000002,-0.06697941949999986,-0.08973084749999849
92952.0,-2.5073642720000002,0.6103658959999999,9.8430326715,-0.12543855867008447,0.3388225130189112,0.7862359214384056,10.175692324933886,0.8652759395070321,-0.14847268100000033,-0.08982891400000015,-0.0514849125000012
92962.0,-2.6055288384999997,0.669009663,9.825086502,-0.13689664520942724,0.39877631815416836,0.7302789202902155,10.186691279764254,0.843249989511078,-0.0981645664999995,0.05864376700000007,-0.017946169500000053
92972.0,-2.7395857439999998,0.7264766319999999,9.91844581,-0.16274322610221126,0.46938884903135497,0.673787848390915,10.315457606498931,0.8371387662009174,-0.13405690550000005,0.05746696899999992,0.09335930800000014
92982.0,-2.8018579715,0.8282696589999999,10.022592432999998,-0.19045556396537722,0.5200173599732065,0.6274249221409375,10.439770006973664,0.8368712024215165,-0.06227222750000028,0.10179302700000004,0.10414662299999833
92992.0,-2.8138220845,0.8390569739999999,10.057307974,-0.21150598007368082,0.550927141026026,0.5954487449151494,10.477168272616506,0.8383404452530402,-0.011964112999999887,0.010787314999999964,0.0347155410000024
93002.0,-2.771947689,0.885736628,10.03808694,-0.227760231397504,0.5517265018234395,0.5794615289668813,10.451383295034768,0.8318969403557211,0.04187439549999983,0.04667965400000007,-0.01922103400000097
93012.0,-2.7347804855,0.9599729685,9.750850161499999,-0.251475765273603,0.5410677760815101,0.5919842663499406,10.172494840310653,0.8404997147171513,0.037167203500000134,0.07423634050000005,-0.2872367785000005
93022.0,-2.6498548965,0.865338796,9.4168356625,-0.27918810313676895,0.5653156353794674,0.6109036354415592,9.820760464388671,0.8779128751381379,0.08492558900000002,-0.09463417250000006,-0.33401449899999847
93032.0,-2.7432142044999996,0.6965663495,9.213347675,-0.26373321261035915,0.6204732757302441,0.6122353216608308,9.638267698681865,0.9106999409346316,-0.0933593079999997,-0.1687724465,-0.20348798750000086
93042.0,-2.9670019574999995,0.6846022365,9.100767332999999,-0.20164661512916485,0.6623088179005482,0.5983791527292479,9.5966529002267,0.915080290511627,-0.22378775299999987,-0.011964112999999998,-0.11258034200000111
93052.0,-3.164605955,0.576827153,9.1067493895,-0.12570559404563958,0.7004128461300884,0.5696021640223654,9.65817502730294,0.9114969427581092,-0.19760399750000035,-0.10777508349999998,0.00598205650000061
93062.0,-3.512938163,0.5457400724999999,9.2420811595,-0.060421553374791694,0.7227949484576637,0.5368266259991639,9.902253830445824,0.902366958620375,-0.348332208,-0.031087080500000086,0.13533177000000052
93072.0,-3.7906624909999995,0.4978836205,9.341422523999999,-0.020186478128566415,0.6958819713919111,0.47580642469093815,10.093521932018131,0.8432383801658349,-0.2777243279999997,-0.04785645199999988,0.09934136449999897
93082.0,-3.9630633979999996,0.49660875599999993,9.390455774,0.0003316125578789226,0.620207985683941,0.4014641252022396,10.204565223298497,0.7388041007583943,-0.1724009070000001,-0.0012748645000000836,0.049033250000000805
93092.0,-3.9403119699999998,0.6367457845,9.3115122415,0.010458012877950023,0.5645162745820539,0.3311186297006082,10.130931045003127,0.6545437657148411,0.02275142799999985,0.14013702850000004,-0.0789435325000003
93102.0,-3.6410130119999997,0.6749917195,9.2108960125,6.45771823237902e-05,0.5693124393665343,0.2772926755691031,9.927396180672718,0.6332518343534096,0.29929895800000006,0.038245935000000064,-0.10061622899999989
93112.0,-3.5452020414999996,0.8246411985,9.201383562,-0.011658799403322121,0.6266028720632482,0.25704162025821287,9.89514780467493,0.6773754360961177,0.09581097050000009,0.14964947899999992,-0.009512450499999048
93122.0,-3.7667342649999997,0.9503624514999999,9.317494298,0.004328416544945937,0.6383262486488941,0.2634365066375201,10.094908409966317,0.6905634858094776,-0.22153222350000012,0.12572125299999992,0.11611073599999955
93132.0,-3.86970409,0.7923773199999999,9.443215551,0.05042605274862017,0.5711781963369164,0.2583733064774846,10.236053512172615,0.6289229557478465,-0.10296982500000018,-0.15798513149999993,0.12572125300000003
93142.0,-3.850483056,0.6259584694999999,9.444392349,0.10558369309939697,0.47418501381583544,0.23172736478728712,10.218345786473053,0.5382349999463916,0.01922103400000008,-0.16641885050000005,0.0011767979999994793
93152.0,-3.8313600884999994,0.6953895514999999,9.409676808,0.1727334907406268,0.3609393253001833,0.18882717177326652,10.183560496560089,0.44245876211403523,0.01912296750000042,0.06943108200000003,-0.03471554099999885
93162.0,-3.6386594159999994,0.8138538834999999,9.258850530999998,0.23934921763074635,0.2895274336255833,0.14938971199520265,9.981408399856827,0.4042665814190885,0.1927006725,0.11846433199999995,-0.15082627700000195
93172.0,-3.396827427,0.9036827974999999,9.194126641,0.28651325000738914,0.2964546454267489,0.13766633540955672,9.843121652101168,0.4346575883727243,0.24183198899999958,0.08982891400000004,-0.06472388999999801
93182.0,-3.420755653,1.071278446,9.2575756665,0.308095991537551,0.3454844347737735,0.15232186513855311,9.927331664015691,0.4873239018063325,-0.02392822600000022,0.16759564850000008,0.06344902549999887
93192.0,-3.3931989664999995,1.028129186,9.5090181725,0.3086283169594093,0.36866589789876225,0.1723058850738882,10.148510996904765,0.5107399537277206,0.027556686500000538,-0.04314926000000008,0.25144250600000007
93202.0,-3.5368663889999996,0.8917186844999999,9.687401136,0.3032998267530706,0.35401036816976583,0.1840310069887861,10.351344204290495,0.5011801444724665,-0.14366742250000009,-0.1364105015,0.1783829635000007
93212.0,-3.7044620374999995,0.8078718269999999,9.792724557,0.2891766224459325,0.2839319080436895,0.1723058850738882,10.501102329060974,0.4403745739772717,-0.16759564849999986,-0.08384685749999998,0.10532342099999958
93222.0,-3.6840642055,0.6714613255,9.725647071,0.26759388091577063,0.2202465889676684,0.13233609987396605,10.421679343154798,0.3709823289394106,0.02039783199999956,-0.1364105014999999,-0.06707748600000052
93232.0,-3.5727587279999997,0.6701864609999999,9.606005941,0.25480410815715615,0.1928012864800576,0.08570613824843354,10.270788916122031,0.33082172198268445,0.1113054775000002,-0.001274864500000139,-0.11964112999999976
93242.0,-3.4590996544999997,0.7659974315,9.528141139999999,0.2526713158112191,0.20052960440788847,0.053729961022645434,10.165510123382255,0.3270196091815475,0.11365907350000004,0.09581097050000009,-0.07786480100000048
93252.0,-3.2878755455,0.864161998,9.536574859,0.24920683724601034,0.23543618944777508,0.03721041965251911,10.124384504886958,0.34484614302985134,0.17122410899999974,0.09816456650000005,0.008433719000001005
93262.0,-3.1897109789999996,0.9264342254999999,9.608359537,0.24760811565118354,0.26954341369024826,0.03667634890140884,10.166273136995178,0.36784315321731903,0.09816456650000038,0.06227222749999983,0.07178467800000021
93272.0,-3.1370492684999998,1.0521554784999998,9.735257588,0.26013259836349484,0.2839319080436895,0.05319763560078716,10.282186030637916,0.3887367818591233,0.05266171049999979,0.12572125299999992,0.1268980509999995
93282.0,-3.1490133815,1.1035423245,9.805865468,0.28278173606662527,0.2676776567198663,0.080642938088398,10.358044627985718,0.3976432089492065,-0.011964113000000332,0.05138684600000021,0.07060788000000073
93292.0,-3.2207980595,1.094029874,10.0058230615,0.3246172782369293,0.21864786737284161,0.10142631882114647,10.568204040579868,0.40431493341979413,-0.07178467799999977,-0.009512450499999936,0.19995759349999886
93302.0,-3.2854238829999995,1.0437217595,10.133897910499998,0.3739123576302572,0.14910173266862356,0.1171482447231114,10.70416984462956,0.41924394940787046,-0.06462582349999968,-0.05030811450000017,0.128074848999999
93312.0,-3.2759114325,1.0533322765,10.315811268,0.42320743702358504,0.05850518185610192,0.1280740058405959,10.874606508526947,0.4460160782170798,0.009512450499999492,0.00961051700000004,0.18191335750000093
93322.0,-3.2280549805,1.1107992455,10.5014511525,0.46211082605053866,-0.05767265980290062,0.14885738657334438,11.042404187009176,0.4889080412299417,0.047856451999999994,0.057466969000000034,0.18563988450000046
93332.0,-3.15381864,1.2651559165000001,10.611579831999999,0.48635868534849586,-0.1901047527857264,0.18269757544026244,11.142388345322358,0.5532296014471656,0.07423634050000016,0.15435667100000017,0.11012867949999894
93342.0,-3.0377079039999995,1.4004876864999998,10.671400397,0.5010142150774922,-0.32600132433376083,0.23865457658845263,11.18337254602358,0.6436210951357135,0.11611073600000044,0.13533176999999963,0.05982056500000077
93352.0,-2.8593249404999996,1.5956400215,10.6426669125,0.5068767760349412,-0.4112693849399438,0.31566373917419843,11.134997314952532,0.7250587350704024,0.17838296349999982,0.19515233500000018,-0.028733484500000017
93362.0,-2.7252680349999996,1.8433560004999998,10.52057412,0.4898231639137046,-0.43178747562638914,0.41825070194792113,11.023045269869206,0.7754358810979605,0.13405690550000005,0.24771597899999986,-0.12209279250000016
93372.0,-2.9287560225,2.169034847,10.56960737,0.4623778614260938,-0.3747640783052304,0.5402911045643726,11.180291765548368,0.8038382168050525,-0.2034879875000004,0.3256788465,0.049033250000000805
93382.0,-3.6302256969999998,2.195316669,10.581571483,0.4122834212353525,-0.2780379311597047,0.6498070244685128,11.400333720474467,0.8182492771996307,-0.7014696744999998,0.026281822000000066,0.011964112999999443
