timestamp,ax,ay,az,gx,gy,gz,acc_mag,gyro_mag,dax,day,daz
52832.0,-1.313306568,1.0056719575,10.239025198499998,-0.04870515810615376,0.12372464534462602,0.06878866180885251,10.37177840310772,0.14970591265962613,0.0,0.0,0.0
52842.0,-0.721965573,0.7626631705,10.2258842875,-0.1475623522683646,0.10880208024007451,0.08877268174418758,10.279669200007056,0.20369862418680043,0.591340995,-0.24300878699999995,-0.013140910999998923
52852.0,-0.46218741449999995,0.7818842045,10.203132859499998,-0.1819366118863929,0.1546344263974456,0.1036952468487391,10.243479890348661,0.26031796094581705,0.2597781585,0.01922103399999997,-0.022751428000001184
52862.0,-0.5184775855,0.7626631705,10.25579457,-0.1670140467818414,0.19593589781663942,0.11248821562028653,10.29717419394003,0.2809593681105788,-0.056290171000000055,-0.01922103399999997,0.05266171050000246
52872.0,-0.6812679755,0.8309174545,10.248635715499999,-0.1353049049316084,0.18447781127729665,0.12767607077114118,10.304808775501698,0.26199362434946943,-0.16279038999999995,0.068254284,-0.0071588545000018655
52882.0,-0.8213069375000001,0.811794487,10.2976689655,-0.08600982553828056,0.12478929618834256,0.14046758885900762,10.36221701653324,0.20664269174633432,-0.1400389620000001,-0.019122967499999977,0.049033250000000805
52892.0,-0.9230999645,0.7399117425,10.4341775335,-0.020193459445574394,0.03952298091141159,0.15378968703948034,10.501030603314392,0.16006595410706542,-0.10179302699999992,-0.07188274449999998,0.136508568
52902.0,-0.9565406409999999,0.6465524345,10.490369637999999,0.03469714552964727,-0.06812892735159866,0.15698713022913396,10.553712862794534,0.17461500997212123,-0.03344067649999993,-0.09335930800000003,0.05619210449999912
52912.0,-0.9123126495,0.548387868,10.455654096999998,0.06107779717354156,-0.1733810078931167,0.15005991842796845,10.509697722595076,0.2372961237024613,0.0442279914999999,-0.09816456650000005,-0.03471554100000063
52922.0,-0.85121722,0.48974410099999993,10.304827819999998,0.06054547175168329,-0.25784970770188625,0.13833479651307057,10.35151662511029,0.29881221835442856,0.06109542950000002,-0.05864376700000001,-0.15082627700000018
52932.0,-0.7207887749999999,0.5041598764999999,10.039067605,0.036030577078170936,-0.30368205385925734,0.1223475805648025,10.077529063068928,0.3293780848672597,0.13042844500000006,0.014415775500000005,-0.26576021499999847
52942.0,-0.559175183,0.5292649005,9.7541844225,-0.0026075219024795284,-0.29142460652250113,0.1130205410421448,9.784524105357706,0.3125839777639373,0.16161359199999992,0.02510502400000003,-0.2848831824999998
52952.0,-0.5040618099999999,0.6106600955,9.5829603135,-0.023390902635228007,-0.21814695787751928,0.1130205410421448,9.615618151250212,0.24679722902570447,0.05511337300000008,0.08139519500000003,-0.17122410900000062
52962.0,-0.492097697,0.5963423865,9.555501693499998,-0.025256659605609945,-0.1299484894572378,0.12447862758148759,9.586730255922014,0.1817125133039059,0.011964112999999943,-0.014317708999999956,-0.027458620000000877
52972.0,-0.5268132379999999,0.6035012409999999,9.5602088855,-0.028454102795263555,-0.04601211507032651,0.13513735332341695,9.59371355993151,0.1455639205379768,-0.034715540999999905,0.007158854499999867,0.00470719200000147
52982.0,-0.5771213525,0.5496627325,9.6500377995,-0.033250267579743975,0.02033657644423793,0.1417992750782793,9.682893560645475,0.1470584613285561,-0.050308114500000056,-0.05383850849999994,0.08982891399999993
52992.0,-0.6357651194999999,0.5292649005,9.79488202,-0.03591538534753931,0.055777232235234786,0.147127765284618,9.829752408265094,0.1613926697781879,-0.05864376699999996,-0.020397832000000005,0.14484422049999957
53002.0,-0.7399117425,0.5269113045,9.969636523,-0.0311174752338069,0.06643421264791216,0.14472968289237778,10.010931890200572,0.16226054044407356,-0.1041466230000001,-0.002353595999999958,0.17475450300000084
53012.0,-0.805714364,0.49817781999999994,10.0523065825,-0.021525145664846066,0.04698251813443536,0.1348703179478618,10.096842298722343,0.14443230791447847,-0.06580262149999994,-0.028733484500000073,0.08267005949999984
53022.0,-0.8261121959999999,0.477779988,10.1360553735,-0.012999212268853767,0.005681046715241543,0.11515333338808188,10.180881769865096,0.11602389409849252,-0.020397831999999894,-0.02039783199999995,0.08374879099999966
53032.0,-0.8105196225,0.4933725615,10.116932405999998,-0.013798573066267169,-0.03295530693615693,0.09143779951198293,10.161332582416124,0.09816987345166038,0.015592573499999873,0.015592573499999984,-0.01912296750000131
53042.0,-0.7148067184999999,0.524459642,10.023573097999998,-0.03005282439009036,-0.0622663663941497,0.06985331265256906,10.062704617141893,0.09828406750989536,0.0957129040000001,0.031087080499999975,-0.09335930800000014
53052.0,-0.5962443199999999,0.5232828439999999,9.8008640765,-0.05243492671766565,-0.07425677835535074,0.0570635398939546,9.832917617369993,0.10733004358906971,0.11856239849999994,-0.0011767980000000344,-0.22270902149999827
53062.0,-0.505238608,0.5149471915,9.703876307999998,-0.06176196624032334,-0.056403805436700746,0.053866096704300995,9.730655274030171,0.09948611016503328,0.09100571199999996,-0.008335652499999902,-0.09698776850000179
53072.0,-0.5148491249999999,0.6190938145,9.676417687999999,-0.04604004033835842,-0.012437216249711593,0.06319313622695868,9.709861278375952,0.07916907305633127,-0.00961051699999993,0.104146623,-0.0274586199999991
53082.0,-0.5771213525,0.6945069529999999,9.715840421,-0.026056020403023343,0.026731462823545153,0.08104610914560868,9.75771305427733,0.08922981066645418,-0.062272227500000055,0.07541313849999987,0.03942273300000032
53092.0,-0.5914390615,0.6669502665,9.831951156999999,-0.01699601625592078,0.04645019271257709,0.10076309370538862,9.872278682000728,0.11224832303730867,-0.014317709000000067,-0.027556686499999872,0.11611073599999955
53102.0,-0.6369419175,0.6035012409999999,9.9516903535,-0.017795377053334185,0.04431914569589201,0.1130205410421448,9.990297775647234,0.1226968003541379,-0.045502855999999925,-0.06344902550000009,0.1197391965000012
53112.0,-0.6309598609999999,0.54721107,10.016316176999998,-0.018327702475192456,0.0232687295875884,0.11035716860360147,10.051076562187532,0.11426304353045742,0.005982056500000055,-0.05629017099999989,0.06462582349999835
53122.0,-0.6070316349999999,0.508965135,10.054660178499999,-0.013531537690712038,-0.011105530030439919,0.09330355648236487,10.08581797474305,0.09493149615269958,0.023928225999999997,-0.038245935000000064,0.0383440015000005
53132.0,-0.49092089899999997,0.443064447,10.054660178499999,-0.005005604294719737,-0.052407001449633735,0.06505714786808864,10.076383316368231,0.0836897984465704,0.11611073599999994,-0.06590068799999999,0.0
53142.0,-0.30773267699999995,0.42747187349999993,9.940903038499998,-0.0007417649320975901,-0.08465021405097699,0.024822072621863353,9.954847302896498,0.08821759599612636,0.183188222,-0.01559257350000004,-0.11375714000000059
53152.0,-0.0599186315,0.4598338185,9.857154247499999,-0.0028728119487826664,-0.08465021405097699,-0.0191445165651258,9.868055899823652,0.08683561655151455,0.24781404549999997,0.03236194500000006,-0.08374879099999966
53162.0,0.21662889849999997,0.513672327,9.7565380185,-0.015929620082952244,-0.04414635809994457,-0.057248544794666005,9.772452171570185,0.07402735717680739,0.27654753,0.05383850849999999,-0.10061622899999811
53172.0,0.5649611065,0.5903603299999999,9.7314329945,-0.04071155013201973,0.04058763175512813,-0.0892247220204541,9.765679418122359,0.10614064812911757,0.348332208,0.0766880029999999,-0.025105024000000142
53182.0,0.8295445235,0.6106600955,9.836756415499998,-0.07028789963631564,0.1498382616129652,-0.1100081027532026,9.89054228273583,0.1987301591350426,0.264583417,0.020299765500000122,0.10532342099999781
53192.0,0.9336911465,0.6932320885,10.097711372,-0.09160535112017437,0.24176649864475852,-0.1294597972666794,10.164453986210802,0.28914082957812476,0.104146623,0.08257199299999995,0.2609549565000009
53202.0,1.011457881,0.6860732339999999,10.419761757999998,-0.10519448467620222,0.27880587603058216,-0.1558387035813217,10.491195290381713,0.33628008809529464,0.07776673449999993,-0.007158854500000089,0.322050385999999
53212.0,1.208963812,0.683719638,10.7466174025,-0.11345512802589139,0.2633509855041724,-0.19954000272200773,10.835997953018829,0.3493451306769411,0.19750593100000002,-0.002353595999999847,0.32685564450000193
53222.0,1.4424601485,0.7040194035,10.926177164,-0.12704426158191923,0.2159199177519745,-0.24403891733085514,11.043445206077234,0.34973797113686483,0.2334963365,0.02029976550000001,0.1795597615000002
53232.0,1.7476430965,0.7699200915,10.999138639999998,-0.15981979960512074,0.16715716378050494,-0.2744146276325644,11.163694915303825,0.358869438107625,0.3051829480000001,0.06590068799999993,0.07296147599999792
53242.0,2.0278190869999997,0.8201301394999999,11.024341730499998,-0.21977360474037796,0.13304993953803174,-0.2816106201385371,11.239251500262885,0.3811919006569594,0.28017599049999964,0.05021004799999995,0.025203090499999803
53252.0,2.1427530249999998,0.9542851114999998,11.019536471999999,-0.2885203786471826,0.11093487258601158,-0.2592267724817098,11.266420667537467,0.4034217079207221,0.11493393800000007,0.13415497199999993,-0.004805258499999354
53262.0,2.1223551929999998,1.091872411,10.9201951075,-0.34794185836058156,0.08721933870991264,-0.1987406419245943,11.177980055136256,0.41008364097706856,-0.020397832000000005,0.13758729950000015,-0.09934136449999897
53272.0,2.0972501689999996,1.1074649845,10.811243226,-0.39830333392687794,0.08029038157949514,-0.10014873780868663,11.06832946089856,0.41847563952531336,-0.025105024000000142,0.015592573499999984,-0.10895188149999946
53282.0,2.008598053,0.9518334489999999,10.6675758035,-0.4289460796041424,0.09974207609297195,0.01283166066066231,10.896679612458527,0.44057674980235834,-0.08865211599999956,-0.15563153550000008,-0.14366742250000009
53292.0,1.9165136094999997,0.6478272989999999,10.541854550499998,-0.43534271131270164,0.12825377475355132,0.11648501960735355,10.734216412418089,0.4685520961692035,-0.09208444350000033,-0.30400615,-0.1257212530000018
53302.0,1.8901337209999998,0.09355544099999999,10.678363118499998,-0.41002845584177583,0.14957122623741007,0.1799033033078195,10.84475896432664,0.47208059148753284,-0.02637988849999995,-0.5542718579999999,0.136508568
53312.0,1.8625770344999997,-0.20211505649999997,10.796827450499999,-0.3684599490470269,0.13464866113285853,0.20335180180836332,10.958171686069766,0.4418653089973424,-0.027556686500000094,-0.29567049749999996,0.11846433200000028
53322.0,1.821879437,-0.330287972,10.904602534,-0.3423463327786877,0.08295549934729049,0.19269307606643396,11.060682223621223,0.4015136959095154,-0.04069759749999968,-0.1281729155,0.10777508350000176
53332.0,1.8087385259999997,-0.17220477399999998,11.020713269999998,-0.35060697612837693,0.005948082090796675,0.1751071385233391,11.169481210834238,0.3919478809131069,-0.013140911000000255,0.158083198,0.11611073599999777
53342.0,1.774022985,-0.020201699,11.092497947999998,-0.3897774005308856,-0.0761225353257327,0.17484010314778395,11.233480154713185,0.4339240993742564,-0.03471554099999974,0.152003075,0.07178467800000021
53352.0,1.7428378379999998,-0.022555295,11.1284883535,-0.4585241744376903,-0.168052517686778,0.19375947223940249,11.2641575585963,0.525384430990415,-0.03118514700000019,-0.0023535959999999995,0.03599040550000154
53362.0,1.8362952124999998,-0.18544375149999998,10.9788388745,-0.5331335093019438,-0.26397930403489034,0.20628220962246183,11.132891471879766,0.6296576543694805,0.09345737450000002,-0.16288845649999997,-0.1496494790000007
53372.0,1.9775109724999997,-0.35303939999999995,10.673557859999999,-0.5925549890153428,-0.340719685915829,0.2153422137695644,10.860940284113434,0.716647464524037,0.1412157599999999,-0.16759564849999997,-0.3052810145000002
53382.0,2.087639652,-0.30989014000000004,10.1827350275,-0.6205326169248119,-0.3937462792499207,0.22067244930515503,10.399152073883107,0.7673286069038793,0.11012867950000027,0.04314925999999991,-0.49082283249999925
53392.0,2.3150558654999998,-0.21770762999999999,9.696717453499998,-0.6125390089506779,-0.39774308323698776,0.2209377393514582,9.971620211658568,0.7630315081429317,0.22741621349999974,0.09218251000000005,-0.4860175740000017
53402.0,2.4192024885,0.152199208,9.294546737,-0.5842943456656537,-0.33219375251983674,0.23639262987786797,9.605430980729484,0.7124844188125377,0.1041466230000001,0.369906838,-0.4021707164999988
53412.0,2.329471641,0.5831034089999999,9.2322745095,-0.5493877606257671,-0.2013603811318378,0.2851553838493376,9.539462266321625,0.6509120582330744,-0.08973084749999982,0.43090420099999993,-0.06227222749999939
53422.0,2.0278190869999997,0.7626631705,9.493229465999999,-0.5091526853795418,-0.06546380958380331,0.38268089179227666,9.737305122844269,0.6402863674461259,-0.30165255400000035,0.17955976150000008,0.2609549564999991
53432.0,1.6303555625,0.6118368934999999,10.005626928499998,-0.4641197000195841,-0.02203129114792442,0.4908651254771452,10.156031403887383,0.6759001739499753,-0.3974635244999998,-0.15082627700000006,0.5123974624999992
53442.0,1.242502555,0.33774102599999994,10.5646059785,-0.39723693775390945,-0.11689168132306822,0.5654744603413988,10.642780702466014,0.7008724671272465,-0.38785300749999996,-0.2740958675,0.5589790500000014
53452.0,0.9491856535,0.2515405725,10.879497509999998,-0.307172712363246,-0.34285073293251406,0.6051772101657659,10.923721533182729,0.7603559403312209,-0.2933169015,-0.08620045349999994,0.31489153149999893
53462.0,1.012634679,0.25036377449999997,10.798102315,-0.2200406401159331,-0.6277006841627526,0.631290826434105,10.848369675573545,0.9170355171643422,0.06344902550000009,-0.0011767980000000344,-0.08139519499999892
53472.0,1.2808465565,0.36284605,10.25579457,-0.16115148582439243,-0.8616533437463326,0.6547393249346488,10.341834818799805,1.0941205919771937,0.2682118775,0.1124822755,-0.5423077449999987
53482.0,1.6914509919999998,0.6118368934999999,9.511175635499999,-0.15022747003615994,-0.9626433302544805,0.681118231249291,9.679763055566719,1.1887693295913488,0.4106044354999998,0.24899084349999995,-0.7446189345000018
53492.0,2.040959998,0.917117908,8.697125619,-0.19072958065794035,-0.8880339953902269,0.7245524950144221,8.980346151640068,1.1618771311710663,0.3495090060000001,0.3052810145000001,-0.8140500164999995
53502.0,2.2216965575,1.099129332,8.2182668995,-0.2517497819661661,-0.6506151119121862,0.8124856733884003,8.583934512418386,1.0708925931343072,0.18073655950000012,0.18201142399999992,-0.4788587194999998
53512.0,2.1067626195,0.9805669334999999,8.0099736535,-0.30370997912728925,-0.32819520320351775,0.9443836956201158,8.340242093354378,1.0448982760921774,-0.11493393800000007,-0.11856239850000005,-0.2082932460000002
53522.0,1.6327091585,0.7830610025,8.371544838999998,-0.31756614805887223,-0.0769218961231461,1.0952010869434496,8.565143706983182,1.1429044830335748,-0.474053461,-0.1975059309999999,0.361571185499999
53532.0,0.9611497665,0.4035436475,8.8982600105,-0.30317590837617897,-0.0065764006215146345,1.1983221204682828,8.95911198521059,1.236096592046292,-0.671559392,-0.379517355,0.5267151715000011
53542.0,0.525440307,-0.06452775699999999,9.135286741,-0.20245295724358625,-0.14167186604288373,1.2556125531649966,9.150612831277154,1.2796956674109152,-0.43570945949999995,-0.46807140449999995,0.23702673050000023
53552.0,0.315970263,-0.29674922899999995,9.1508793145,-0.023923228057086274,-0.3950779654691924,1.2705333729402961,9.161140187801754,1.330756916718825,-0.20947004400000002,-0.23222147199999996,0.015592573499999318
53562.0,0.23575186599999998,-0.25487483349999995,8.9820088015,0.17912139580292605,-0.6748629712101435,1.2316299839133424,8.988716384072733,1.4157813820005374,-0.080218397,0.041874395499999995,-0.1688705129999999
53572.0,0.343428883,0.027654752999999997,8.594155794,0.3400634421170792,-0.880572712837951,1.153290880437577,8.601059353044013,1.4903460343691282,0.10767701700000004,0.28252958649999993,-0.3878530074999986
53582.0,0.618799615,0.36402284799999995,8.187179819,0.4293283067103292,-0.9402612279269051,1.079480906370737,8.218597142215394,1.4945544482903117,0.275370732,0.336368095,-0.40697597499999993
53592.0,0.7780596109999999,0.8093428245000001,7.964568863999999,0.4538432013838415,-0.8430010100302692,1.0515015331320157,8.043305897156799,1.4220688550606007,0.15925999599999985,0.4453199765000001,-0.22261095500000128
53602.0,0.7073536644999999,1.1086417825,7.859147376499999,0.4261308635206756,-0.6218381232053037,1.07788218477591,7.96841472904951,1.315332721623567,-0.07070594649999995,0.29929895799999984,-0.10542148750000013
53612.0,0.366180311,1.1996474945,7.834042352499999,0.3818989842873832,-0.3702977807493769,1.141565758522679,7.933817600120884,1.2594203673353501,-0.34117335349999994,0.09100571200000007,-0.025105024000000142
53622.0,-0.076688003,1.0536264759999998,7.9860454275,0.36511066221244975,-0.16085827051005738,1.214843407167661,8.055614897127715,1.2786812279811697,-0.442868314,-0.14602101850000015,0.15200307500000054
53632.0,-0.5698644315,0.7159835165,8.17286211,0.3821642743336864,-0.042015311083259496,1.2550784824138865,8.223931720002433,1.3126449695027063,-0.4931764285,-0.3376429594999998,0.18681668250000083
53642.0,-1.0188128685,0.45620535799999995,8.434993864499999,0.3683081054021034,-0.010838494654884786,1.2334957408837244,8.508538328281876,1.2873539048177696,-0.448948437,-0.2597781585000001,0.2621317544999986
53652.0,-1.3229170849999998,0.3209716545,8.5499278025,0.33073814792367345,-0.0028448866807507574,1.1540902412349905,8.657620795850315,1.2005499159910207,-0.30410421649999986,-0.13523370349999997,0.11493393800000007
53662.0,-1.7227342055,0.49817781999999994,8.622889278499999,0.29050132734819617,0.022734658836478135,1.0405775173437832,8.807395403432839,1.080606059350412,-0.39981712050000007,0.17720616549999996,0.07296147599999969
53672.0,-1.9944764769999999,0.8177765435000001,8.880313841,0.26252369943872705,0.04804891430740389,0.9275971188744343,9.138198334850328,0.9652273337806315,-0.27174227149999997,0.3195987235000001,0.2574245625000007
53682.0,-2.111764011,1.2127884055,9.275325703,0.23641008317038792,0.07336316977832966,0.8527207486346257,9.58968559710914,0.8879214814703776,-0.11728753400000014,0.39501186199999994,0.3950118620000005
53692.0,-2.5259969069999997,1.0823599604999998,9.538732322,0.24120624795486834,0.08428718556656216,0.7778443783948168,9.926710319588995,0.8187347926548721,-0.4142328959999997,-0.13042844500000017,0.2634066189999995
53702.0,-2.5499251329999995,1.296635263,9.703876307999998,0.2713166682102745,0.09094910732142451,0.7842392647741241,10.116748320983566,0.8348147692660611,-0.023928225999999775,0.21427530250000015,0.16514398599999858
53712.0,-3.1113558455,1.0763779039999999,9.693088993,0.29956133149529873,0.10160783306335389,0.8524537132590704,10.236947729463319,0.9092516023171167,-0.5614307125000004,-0.2202573590000001,-0.010787314999998188
53722.0,-3.5877629024999997,0.8453332299999999,9.7410435115,0.32221046919842916,0.08428718556656216,1.0075349439450265,10.415112078476817,1.0611553040823534,-0.47640705699999986,-0.23104467399999995,0.04795451849999921
53732.0,-3.846364263,0.7016658075,9.909815958,0.31474918664615337,0.07629357759242812,1.117317899224722,10.653229804642796,1.163308664286574,-0.25860136050000015,-0.14366742249999997,0.16877244650000023
53742.0,-3.994836944,0.25634583099999997,9.968459724999999,0.2897019665507828,0.08641997791249924,1.092003643753796,10.742189007979956,1.1330788145479358,-0.14847268099999988,-0.4453199765,0.058643766999999514
53752.0,-4.097806769,-0.034519408,9.9948396135,0.2571934639031364,0.1064039978478343,0.9742270804999668,10.802315992655451,1.0132071323337517,-0.10296982500000018,-0.29086523899999994,0.02637988850000106
53762.0,-4.1312474455,-0.019024901,10.046324526,0.25479538151089615,0.1173297589653188,0.8135503242321168,10.86260575941691,0.8605527809706534,-0.03344067649999971,0.015494507000000001,0.051484912499999425
53772.0,-3.993660146,0.11150161049999999,10.194699140500001,0.2758457976191998,0.11466464119752345,0.6733916586507123,10.949595633456255,0.7366784983596892,0.13758729949999982,0.1305265115,0.14837461450000156
53782.0,-3.8380286105,0.5400522154999999,10.490369637999999,0.24653473816120705,0.07549421679501472,0.5977159276134901,11.183468833611299,0.650955516154954,0.15563153549999997,0.428550605,0.29567049749999796
53792.0,-3.7063253009999997,0.7734504855,10.583728945999999,0.18658093302594983,0.013409364643072434,0.5798629546948401,11.240568993282821,0.6092891775309939,0.1317033095000002,0.23339827000000002,0.09335930800000014
53802.0,-3.6560171864999997,0.733929686,10.442513186,0.22681775360142709,-0.06013531937746462,0.6406161206275107,11.088336038006753,0.6822401072886793,0.050308114499999945,-0.03952079949999998,-0.1412157599999997
53812.0,-3.778109979,1.0009647654999998,10.671204264,0.2060326275394266,-0.12168784610754864,0.7709171665936513,11.364446573379789,0.8071992648967652,-0.12209279250000016,0.26703507949999983,0.22869107800000066
53822.0,-4.0714268805,0.555644789,10.2629534245,0.16473115612023279,-0.12914912865982442,0.8966873378216147,11.05502017041385,0.9207953263564683,-0.2933169014999999,-0.44531997649999977,-0.40825083950000085
53832.0,-4.0953551065,0.08992698049999999,9.926585329499998,0.2262836828503168,-0.0638650879889765,1.0027387791605462,10.738580754177995,1.029935975592913,-0.023928225999999775,-0.46571780850000005,-0.336368095000001
53842.0,-4.353956467,-0.3949137955,9.457337126999999,0.22388560045807662,0.0309953021861673,0.9816883630522426,10.418930816362105,1.0073715863584187,-0.25860136050000015,-0.484840776,-0.4692482024999993
53852.0,-4.701111877,-0.898877539,9.349562043499999,0.22788240444514363,0.13704674352509874,0.8303386463070502,10.50346343428895,0.8718798470646967,-0.34715541000000005,-0.5039637435,-0.10777508349999998
53862.0,-4.8687075255,-1.09638347,9.496857926499999,0.2284164751962539,0.22977608668355748,0.6232972184599709,10.72831208337432,0.7024745964749383,-0.16759564849999986,-0.1975059309999999,0.14729588299999996
53872.0,-4.8567434125,-0.9131952479999998,9.6476842035,0.2686515504424792,0.25668906374931005,0.4154564298154782,10.839727516238375,0.5573750766572441,0.011964112999999443,0.18318822200000007,0.15082627700000195
53882.0,-4.643644908,-0.7432460034999999,9.8942233845,0.34059751286818946,0.21298950993787602,0.22280349632184013,10.954976450714062,0.4593610726746546,0.21309850450000045,0.16994924449999993,0.24653918099999927
53892.0,-4.217447899,-0.587614468,10.090552517499999,0.3925577100293126,0.10826975481821624,0.08344419153784889,10.952232998444106,0.41567635079862286,0.426197009,0.15563153549999997,0.196329132999999
53902.0,-3.6297353645,-0.3243059155,10.1707709145,0.38536171752334,-0.004443608275577563,0.006969099703213358,10.803922164583074,0.3854503435433916,0.5877125344999996,0.26330855249999996,0.08021839700000122
53912.0,-3.1005685305,-0.040599530999999994,10.1731245105,0.33340152036221676,-0.07212573133866568,-0.009817477042468103,10.635207371761972,0.3412551505200389,0.5291668340000002,0.28370638449999996,0.0023535959999989586
53922.0,-2.8348083154999997,0.176127434,10.1097735515,0.2737147506025147,-0.07372445293349247,0.0392105669753046,10.50117518762754,0.2861687058716666,0.26576021500000024,0.216726965,-0.06335095899999921
53932.0,-2.7989159765,0.32214845249999996,9.9852290965,0.23188095376146264,-0.03775147172063734,0.13140758471190506,10.375090861218773,0.2691874879228531,0.03589233899999966,0.14602101849999996,-0.12454445500000055
53942.0,-2.8097032914999995,0.255169033,9.878728877499999,0.21322687471614726,0.028330184418371956,0.22200413552442674,10.273695929743125,0.30911831980706445,-0.01078731499999952,-0.06697941949999997,-0.10650021900000084
53952.0,-2.849224091,-0.021378497,9.860684641499999,0.22415263583363174,0.11333295497825178,0.27583008965593186,10.264094531909901,0.37305629762123915,-0.039520799500000425,-0.27654753,-0.018044235999999714
53962.0,-2.9054161954999995,-0.218884428,10.040342469499999,0.252397299118656,0.1778158895224343,0.2782281720481721,10.454560276106305,0.41561256344137876,-0.05619210449999956,-0.197505931,0.17965782799999985
53972.0,-2.9736704795,-0.434434595,10.328756045999999,0.274247076024373,0.18447781127729665,0.2289330926548442,10.757074462685665,0.40206203809125224,-0.06825428400000044,-0.215550167,0.2884135765
53982.0,-2.898257341,-0.5385812179999999,10.5526418655,0.27478114677548326,0.1290531355509647,0.1417992750782793,10.956651663922974,0.33506182240224097,0.07541313850000009,-0.10414662299999994,0.2238858195000013
53992.0,-2.710361927,-0.434434595,10.6471779715,0.24946689130455751,0.04778187893184876,0.037878880756032934,10.99532600469212,0.25681052824747574,0.18789541399999976,0.10414662299999994,0.09453610599999962
54002.0,-2.4433268475,-0.20809711299999997,10.6652222075,0.19910541573826113,-0.011372565405995051,-0.05138598383721705,10.943496480901539,0.20594373298340052,0.26703507950000027,0.226337482,0.018044235999999714
54012.0,-2.1644257215,-0.004609125499999999,10.5526418655,0.1375528890081771,-0.026827455932404837,-0.10414554179575364,10.77232613178008,0.1746047065294406,0.27890112600000005,0.20348798749999997,-0.11258034199999933
54022.0,-1.8735604824999998,0.1366066345,10.477228727,0.07946309551404983,-0.00817512221634144,-0.12199851471440364,10.644304207041863,0.14582473646280897,0.29086523899999994,0.14121576,-0.07541313850000009
54032.0,-1.7011595755,0.25752262899999995,10.435354331499997,0.03709522792188748,0.03872362011399819,-0.11560362833509641,10.576241384807657,0.1274353701824934,0.17240090699999988,0.12091599449999996,-0.04187439550000249
54042.0,-1.5622974115,0.31018433949999996,10.408974443,0.006986552995733301,0.08295549934729049,-0.09855001621385981,10.530134684868841,0.12900593974880586,0.13886216400000007,0.052661710500000014,-0.026379888499997506
54052.0,-1.4928663295,0.42747187349999993,10.406620847,-0.012199851471440364,0.13011953172393326,-0.08709192967451705,10.521841071485703,0.15705073424346638,0.06943108199999992,0.11728753399999997,-0.002353596000000735
54062.0,-1.454522328,0.548387868,10.425743814499999,-0.018062412428889316,0.1716880385186822,-0.0828280903118949,10.540991345314971,0.1914772202061102,0.03834400150000006,0.12091599450000001,0.019122967499999532
54072.0,-1.3755787955,0.626252669,10.490369637999999,-0.005270894341022875,0.1887416506399188,-0.0852261727041351,10.598691644251714,0.20715861924436174,0.07894353249999986,0.07786480100000004,0.06462582350000012
54082.0,-1.257016397,0.6357651194999999,10.604126778,0.010183996185386913,0.16955524617274514,-0.09002408281786753,10.697279665101608,0.1922421149753676,0.11856239850000017,0.009512450499999936,0.11375714000000059
54092.0,-1.126587952,0.6310579275,10.726219570499998,0.014180800172453928,0.11706272358976368,-0.09561960839976134,10.8036670069023,0.15181530179236938,0.13042844499999995,-0.004707191999999916,0.12209279249999838
54102.0,-0.9900793839999998,0.5903603299999999,10.814773619999999,-0.00020943951023931956,0.04298571414736834,-0.1006810632305449,10.87603378799953,0.10947370450889425,0.1365085680000001,-0.04069759750000013,0.08855404950000079
54112.0,-0.8368995109999999,0.61781895,10.7740760225,-0.023390902635228007,-0.03455402853098374,-0.10014873780868663,10.824177344496004,0.10849370902722338,0.1531798729999999,0.0274586200000001,-0.04069759749999946
54122.0,-0.6896036279999999,0.6274294669999999,10.648452835999999,-0.04843812273059863,-0.08065166473465797,-0.08975704744231237,10.689189337846303,0.13002795977672543,0.14729588300000007,0.00961051699999993,-0.12562318650000037
54132.0,-0.6082084329999999,0.6789143795,10.529890437499999,-0.08014726458083161,-0.09370847286882755,-0.07190407452366239,10.569268416424011,0.14274122684179932,0.08139519499999992,0.05148491250000009,-0.11856239849999994
54142.0,-0.573492892,0.7232404374999999,10.337189765,-0.11798425743481668,-0.08331678250245331,-0.052185344634630454,10.378316966889692,0.15357500266528196,0.03471554099999996,0.04432605799999989,-0.19270067249999911
54152.0,-0.5555467224999999,0.7411866069999999,10.194699140500001,-0.1462306660490929,-0.04681147586773991,-0.03273365012115365,10.236692840590075,0.1569911265528451,0.017946169500000053,0.017946169500000053,-0.14249062449999883
54162.0,-0.5435826094999999,0.8010071719999999,10.083393662999999,-0.15475659944508519,0.00701447826376521,-0.015413002624361924,10.129754306298588,0.1556803411706756,0.011964112999999998,0.05982056499999999,-0.11130547750000197
54172.0,-0.501708214,0.7973787114999998,10.023573097999998,-0.13903641887237228,0.05204571829447091,0.0016406094968746698,10.067747592808322,0.14846741785712586,0.04187439549999994,-0.003628460500000097,-0.05982056500000077
