timestamp,ax,ay,az,gx,gy,gz,acc_mag,gyro_mag,dax,day,daz
175182.0,0.776882813,-0.199663394,9.7161346205,0.12159185299868897,0.08520697408236316,0.03545985441276879,9.749188906761274,0.15265060898306973,0.0,0.0,0.0
175192.0,1.157576966,0.08051259649999999,9.724470273,0.133584010289142,0.04816759669653951,0.03306177202052859,9.793456427680148,0.14580084343235977,0.380694153,0.28017599049999997,0.008335652499999568
175202.0,1.2796697584999999,0.06374322499999999,9.8334221545,0.13971186129289406,0.06548824419333124,0.030930725003843508,9.916542197669722,0.15736843413694387,0.12209279249999994,-0.016769371500000005,0.10895188149999946
175212.0,1.355082897,0.027850886,9.8465630655,0.13518273188396882,0.08787034652090651,0.038657297602422404,9.939407906533551,0.16580095130981437,0.07541313850000009,-0.03589233899999999,0.013140911000000699
175222.0,1.32389775,0.07090207949999999,9.856173582499999,0.10826975481821624,0.1142509981648008,0.04958305871990691,9.94494293828292,0.16502760406087133,-0.03118514699999997,0.043051193499999994,0.009610516999998708
175232.0,1.381364719,0.0577611685,9.8669608975,0.08508654636397556,0.14036461443313994,0.050647709563623446,9.963353963012578,0.17177641235383323,0.057466969000000034,-0.013140910999999991,0.01078731500000174
175242.0,1.392152034,0.098458766,9.857350380499998,0.06643421264791216,0.1771352111141565,0.06450387849520643,9.95565858887879,0.1998778075913611,0.010787314999999964,0.0406975975,-0.009610517000002261
175252.0,1.334685065,0.12003339599999999,9.905304898999999,0.049115310480372425,0.19845266259801525,0.08289092216496668,9.995541875308348,0.22060525377511667,-0.057466969000000034,0.021574629999999984,0.04795451850000099
175262.0,1.2856518149999998,0.11042287899999999,9.9722843185,0.031794662983580704,0.2005854549439523,0.10154325588103008,10.055423826503807,0.2270604724390226,-0.04903325000000014,-0.009610516999999999,0.06697941950000086
175272.0,1.238972161,-0.005687856999999999,10.018963972499998,0.014208725440485837,0.18246544664974718,0.10420662831957345,10.095282237248409,0.21060519577035267,-0.04667965399999985,-0.11611073599999999,0.046679653999998294
175282.0,1.2222027895,-0.1505320775,10.045343861,0.0006178465552059926,0.1579505519762348,0.08582132997906518,10.120542122374099,0.17976111727328195,-0.016769371499999908,-0.1448442205,0.02637988850000106
175292.0,1.2029817555,-0.20201698999999998,10.040538602499998,-0.012437216249711593,0.12437565315561991,0.053845152753277066,10.114365595360251,0.13610028626330253,-0.01922103400000008,-0.05148491249999998,-0.0048052585000011305
175302.0,1.205433418,-0.094339973,9.986700093999998,-0.01856681258271568,0.08414057790939464,0.027199211063079633,10.059629641454817,0.0903557439395114,0.0024516624999999515,0.10767701699999999,-0.05383850850000016
175312.0,1.2796697584999999,-0.0212804305,9.9687539245,-0.026827455932404837,0.05936039318957914,0.021870720856740945,10.050575225069252,0.06871460617816304,0.07423634049999994,0.07305954249999999,-0.017946169499998277
175322.0,1.297615928,0.008629852,9.910012090999999,-0.03935019331546415,0.04497015350688589,0.029332003409016705,9.99460960791921,0.06656664964067104,0.017946169500000053,0.0299102825,-0.05874183350000095
175332.0,1.3190924914999997,-0.0201036325,9.874119751999999,-0.047877872040708445,0.0271171805882359,0.038657297602422404,9.961859767834914,0.06724595729204622,0.021476563499999823,-0.0287334845,-0.035892339000000106
175342.0,1.3491008405,-0.11581653649999998,9.809493928499998,-0.0436140326780863,0.007665486074759095,0.04265410158948942,9.902507646108788,0.061484273644680794,0.030008349000000267,-0.09571290399999999,-0.06462582350000012
175352.0,1.3861699775,-0.17808876399999998,9.750850161499999,-0.023362977367196096,-0.013650220079847652,0.03306177202052859,9.850495504613459,0.04272280408430374,0.03706913700000003,-0.0622722275,-0.058643766999999514
175362.0,1.461583116,-0.1373911665,9.675437023,0.002750638901143063,-0.024308945821777023,0.017074556072260525,9.786173058128883,0.029833392807311423,0.07541313849999987,0.04069759749999999,-0.07541313849999831
175372.0,1.553765626,-0.0571727695,9.62032365,0.02033657644423793,-0.016050047801339853,0.006948155752189426,9.745156924178328,0.026822700167103055,0.09218251,0.080218397,-0.055113373000001076
175382.0,1.6507533945,0.088848249,9.597572222,0.02380105500944667,0.002336995868420407,0.006948155752189426,9.738905140584832,0.024904389926444764,0.09698776850000002,0.1460210185,-0.022751427999999407
175392.0,1.7417591064999998,0.157102533,9.536574859,0.004616395871525002,0.020189968787070404,0.019472638464500733,9.695600344087083,0.02842762035828296,0.09100571199999985,0.06825428399999998,-0.06099736300000025
175402.0,1.8351184145,0.14513842,9.485089946499999,-0.01909913800457395,0.0380429417057204,0.04185474079207602,9.662073072037513,0.0596980888547906,0.09335930800000014,-0.011964112999999998,-0.0514849125000012
175412.0,1.9057262945,0.0385401345,9.38692538,-0.023095941991640962,0.056162949999925535,0.05517858430180073,9.57849915911695,0.0820510551713158,0.07060788000000007,-0.10659828549999999,-0.0981645664999995
175422.0,1.9631932635,-0.01765197,9.3474045805,-0.010573204608581648,0.07907737774935908,0.04958305871990691,9.55135654100762,0.09393350860811864,0.057466969000000034,-0.056192104500000006,-0.03952079949999998
175432.0,2.0110497155,-0.01765197,9.354563435,0.009677850702308557,0.09746442141911935,0.03199537584756005,9.5683065173361,0.1030372666194445,0.047856451999999994,0.0,0.007158854500000089
175442.0,2.118824799,0.051779111999999995,9.385748582,0.027265533574655415,0.0963980252461508,0.022670081654154347,9.62207753293497,0.10271280930183059,0.10777508349999998,0.06943108199999999,0.031185147000000413
175452.0,2.2205197594999997,0.14994367849999998,9.40850001,0.045650831915163684,0.07934441312491422,0.027998571860493034,9.668146851761305,0.0957259336591228,0.10169496049999971,0.0981645665,0.022751427999999407
175462.0,2.3078970109999997,0.2468333805,9.423994516999999,0.06643421264791216,0.03297974154568485,0.0479843371250801,9.705616311577428,0.0883383527801007,0.08737725149999997,0.09688970200000002,0.015494506999999658
175472.0,2.4958904915,0.2911594385,9.412030404,0.09201550349439305,-0.030703832201084247,0.07223219642303733,9.741691818673393,0.12094241768401708,0.1879934805000003,0.044326057999999974,-0.011964112999999443
175482.0,2.6478935664999996,0.249285043,9.3211227585,0.10587167242597603,-0.09119170808745172,0.08821941237130537,9.693132251816348,0.16524951850253183,0.15200307499999965,-0.04187439549999997,-0.09090764549999975
175492.0,2.7616507065,0.2336924695,9.155880706,0.11359824502455493,-0.14528295226525997,0.09035045938799047,9.566163196261916,0.205365291622488,0.11375714000000059,-0.015592573500000012,-0.16524205250000001
175502.0,2.884920297,0.273213269,8.8745279175,0.11146719800786985,-0.1764597686936347,0.08209156136755329,9.33566582354398,0.22428109739097382,0.12326959049999964,0.03952079949999998,-0.28135278849999956
175512.0,2.9759260089999997,0.3809883525,8.559734452499999,0.1064039978478343,-0.1796572118832883,0.07622900041010434,9.070299974813334,0.22228221935908946,0.09100571199999985,0.10777508350000004,-0.31479346500000105
175522.0,3.0561444059999996,0.467188806,8.262887157,0.08988271114845597,-0.15301127019309088,0.07836004742678941,8.822334621861287,0.19398878215564044,0.08021839699999989,0.0862004535,-0.2968472954999992
175532.0,3.2093242789999996,0.43482686099999995,7.9132800845,0.05231275367002604,-0.09172403350931,0.08955109859057704,8.550370659952135,0.1384533198537944,0.15317987300000002,-0.03236194500000006,-0.34960707249999956
175542.0,3.2584555955,0.445614176,7.6822354105,0.01820552942755285,0.019390607989657,0.11460006401519966,8.356604918508324,0.11764612893008382,0.049131316500000466,0.01078731500000002,-0.2310446740000005
175552.0,3.126752286,0.5366198879999999,7.70018158,0.019537215646824525,0.15901694814920336,0.15323641766659815,8.328105254328541,0.22169684772952697,-0.1317033095000002,0.09100571199999996,0.017946169500000053
175562.0,3.001031033,0.5114167975,8.000657336,0.03312634920285237,0.29171433117833223,0.1996010892458275,8.56027173691845,0.35501436710991263,-0.12572125300000003,-0.025203090499999914,0.300475756
175572.0,2.7520401894999997,0.40128811799999997,8.614749759,0.04458443574219515,0.37085454078076313,0.2571568119888445,9.052550511787368,0.45348703209730984,-0.24899084350000011,-0.11012867950000005,0.6140924230000007
175582.0,2.4503876355,0.34264435099999996,9.139111334499999,0.07202973822980598,0.3543332540813848,0.3067189267577275,9.468112837301309,0.474148540194705,-0.3016525539999999,-0.05864376700000001,0.5243615754999986
175592.0,2.225325018,0.29596469699999994,9.5880597715,0.12718912390983478,0.2581411776869693,0.34668871195764966,9.847362932250626,0.4505629854497825,-0.2250626174999999,-0.046679654000000015,0.4489484370000003
175602.0,2.072145145,0.2768417295,10.021415635,0.21805271009791155,0.1414292652768565,0.3666727318929847,10.237147951190414,0.44944200267849904,-0.15317987300000002,-0.01912296749999992,0.433355863500001
175612.0,1.9739805784999997,0.22290515449999998,10.324244987,0.31051501788081515,0.023387411976724018,0.38239465779494963,10.51362547287055,0.4931452338597714,-0.09816456650000016,-0.05393657500000004,0.30282935199999983
175622.0,1.8949389795,0.24085132399999998,10.460753554999998,0.3619411442908281,-0.09598787287193214,0.4077089132658754,10.633727852204332,0.5535716951086582,-0.07904159899999974,0.017946169499999998,0.13650856799999822
175632.0,1.8746392139999999,0.20976424349999997,10.557643257,0.37553202317610795,-0.18445337666776873,0.42955869017159237,10.724835866464122,0.5996399060242878,-0.020299765500000122,-0.031087080500000003,0.09688970200000213
175642.0,1.8482593255,0.135527903,10.518220523999998,0.3590107364767296,-0.22975165207402956,0.4428807883520651,10.680233767960518,0.6146689541758689,-0.02637988849999995,-0.07423634049999997,-0.0394227330000021
175652.0,1.8147205825,0.13670470099999998,10.416427496999999,0.3147771119141853,-0.23214973446626977,0.4551382356888213,10.574207335213467,0.6001074428664654,-0.03353874300000004,0.001176797999999979,-0.10179302699999937
175662.0,1.774022985,0.13797956549999998,10.295511502499998,0.25242522438668785,-0.2060361181979306,0.4812518519571604,10.448145912548966,0.5811821753296792,-0.040697597499999905,0.0012748645000000003,-0.12091599450000068
175672.0,1.7859870979999999,-0.0583495675,10.247655050499999,0.18847461526436365,-0.1586067957749847,0.5142926800266651,10.402287662831096,0.570241840795699,0.011964112999999887,-0.196329133,-0.04785645199999955
175682.0,1.6268251685,-0.3013583545,10.299139962999998,0.12638976311242137,-0.1258312577517832,0.5273494881608347,10.431186939373466,0.556691440845379,-0.15916192949999997,-0.24300878699999998,0.051484912499999425
175692.0,1.4507958009999997,-0.3815767515,10.3206165265,0.0877516641317709,-0.13782341504223622,0.5140273899803619,10.42907161546748,0.5393698229803209,-0.1760293675000002,-0.080218397,0.021476563500002044
175702.0,1.381364719,-0.3109688715,10.345819617,0.0808244523306054,-0.1756604078962213,0.4839169697249558,10.442262861728867,0.5211188008358487,-0.0694310819999997,0.07060787999999996,0.025203090499999803
175712.0,1.4316728335,-0.18044236,10.325421785,0.08961742110215283,-0.2182935655346868,0.4655299260551955,10.42576527577793,0.5219209470521403,0.050308114499999945,0.13052651150000003,-0.02039783200000045
175722.0,1.461583116,-0.0583495675,10.269229680499999,0.10134079768779874,-0.2539995113719868,0.4633988790385104,10.372883307348339,0.5380745581676906,0.02991028249999994,0.12209279249999999,-0.056192104500000895
175732.0,1.4723704309999999,0.0697252815,10.1435084275,0.10853679019377137,-0.2673233548817115,0.4602014358488568,10.250048756943887,0.5431642223564893,0.010787314999999964,0.128074849,-0.12572125299999826
175742.0,1.5609244805,0.20495898499999998,10.10281083,0.11040080183490131,-0.2510691035578883,0.4607337612707151,10.224738631677667,0.5361899202538323,0.08855404950000012,0.13523370349999997,-0.04069759750000124
175752.0,1.5836759084999998,0.3594137225,10.121933797499999,0.10880208024007451,-0.2036380358056904,0.47405760478043985,10.251378024834386,0.5272920964148192,0.02275142799999985,0.1544547375,0.019122967499999532
175762.0,1.4962986569999999,0.5222041125,10.223726824499998,0.09841038987370027,-0.16207127434019344,0.5196229155622558,10.345829932298942,0.5531362193698467,-0.08737725149999997,0.16279039,0.10179302699999937
175772.0,1.3897984380000001,0.6203686789999999,10.283547389499999,0.0861529425369441,-0.14048678748077958,0.5822418384653083,10.395563664767952,0.60511521665209,-0.10650021899999973,0.09816456649999994,0.05982056500000077
175782.0,1.3502776385,0.5006294825,10.3062988175,0.08322253472284562,-0.1258312577517832,0.6379318042379435,10.406424693206752,0.6555276367716076,-0.0395207995000002,-0.11973919649999998,0.022751428000001184
175792.0,1.3251726145,0.2660544145,10.335032301999998,0.08348782476914876,-0.11011107717907026,0.662979024333314,10.423039868151665,0.677226589044001,-0.02510502399999992,-0.23457506799999994,0.02873348449999824
175802.0,1.20425662,0.109246081,10.391322472999999,0.08162381312801882,-0.11037636722537339,0.6461924475876325,10.461441174661477,0.6606134033084126,-0.12091599450000001,-0.1568083335,0.056290171000000555
175812.0,1.1192329644999999,0.006276256,10.392499270999998,0.0722967736053611,-0.14128614827819297,0.5984943444598796,10.45259598941566,0.6191801672530326,-0.08502365550000013,-0.102969825,0.0011767979999994793
175822.0,1.1036403909999999,0.0230456275,10.217744768,0.04458443574219515,-0.18285465507294194,0.546001821876898,10.277201046860222,0.5775305933759582,-0.015592573499999984,0.016769371499999998,-0.17475450299999906
175832.0,1.089322682,0.1642613875,9.997487409,0.009145525280450288,-0.20550379277607234,0.5094965152421846,10.057999811197881,0.5494562298508735,-0.014317708999999956,0.14121576,-0.22025735899999965
175842.0,1.1215865605,0.27085967299999997,9.8226348395,-0.013503612422680129,-0.1935133808148713,0.49004482072870786,9.890170704558697,0.5270424104622842,0.03226387850000001,0.10659828549999997,-0.1748525695000005
175852.0,1.1323738755,0.20378218699999998,9.730452329499998,-0.023895302789054367,-0.15434295641236254,0.47992016573788876,9.798239653648269,0.5046940649258437,0.010787314999999964,-0.06707748599999999,-0.09218251000000066
175862.0,1.0941279405,0.157102533,9.6910295965,-0.023095941991640962,-0.11357381041502701,0.4801854557841919,9.753863429241601,0.49397419456419167,-0.03824593499999995,-0.04667965399999999,-0.039422732999998544
175872.0,1.0031222285,0.13072264449999998,9.723293475,-0.004178318229274425,-0.08852659031965637,0.47139248701264447,9.77577509029711,0.4796512194801714,-0.09100571199999985,-0.026379888500000004,0.03226387850000023
175882.0,0.962424631,0.158279331,9.817829580999998,0.03046297676430903,-0.08479682170814451,0.45274015329658107,9.86615888776052,0.4616190424280149,-0.04069759750000013,0.02755668650000001,0.09453610599999784
175892.0,0.9061344599999999,0.1762255005,9.852545122,0.06989869121312091,-0.1034491554242079,0.42156333686820635,9.895695047224928,0.43966259993629886,-0.05629017100000011,0.017946169499999998,0.0347155410000024
175902.0,0.9097629205,0.170243444,9.713682958,0.08135677775246368,-0.14581702301637023,0.39598379135097744,9.75767841293621,0.42974956951731186,0.003628460500000097,-0.005982056499999999,-0.13886216400000073
175912.0,0.9935117115,0.018240369,9.4766562275,0.0768276483435384,-0.1841863412922136,0.3759997714156424,9.528610155010197,0.4256793675681563,0.08374879099999999,-0.152003075,-0.23702673050000023
175922.0,1.0390145675,-0.164947853,9.274345038,0.0613727578171286,-0.1881831452792806,0.33416422924533834,9.333822097595483,0.3883880066073279,0.045502856000000036,-0.183188222,-0.2023111894999996
175932.0,1.031855713,-0.21045070899999999,9.111554647999998,0.043785074944781746,-0.17459401172325276,0.2702136201230141,9.172210410629475,0.32467768974403527,-0.007158854500000089,-0.04550285599999998,-0.1627903900000014
175942.0,1.115604504,-0.282235387,8.9643568315,0.02380105500944667,-0.16153720358908316,0.21345725817741049,9.037915889489172,0.2687466454331315,0.0837487910000001,-0.07178467800000002,-0.14719781649999852
175952.0,1.173071473,-0.22241482199999998,8.8243178695,0.017139133254584316,-0.10984404180351512,0.16416217878408262,8.904726323463775,0.19826417818554082,0.057466969000000034,0.05982056500000002,-0.1400389620000002
175962.0,1.157576966,0.0265760215,8.878156378,0.04538379653960855,-0.02564237737030069,0.12205960123822344,8.953343028687922,0.1327244015243,-0.015494507000000102,0.24899084349999998,0.05383850850000016
175972.0,1.065394456,0.285177382,9.026629059,0.08455422094211729,0.056162949999925535,0.08528900455720691,9.093757400264376,0.13258170133989752,-0.09218251,0.2586013605,0.14847268099999944
175982.0,1.100109997,0.42041108549999995,9.295919668,0.11866144518459047,0.09533162907318228,0.0690347532333837,9.370224648332604,0.16713603809183872,0.03471554099999996,0.13523370349999997,0.26929060900000046
175992.0,1.193469305,0.4767012565,9.503036115999999,0.14237697906068944,0.09479930365132401,0.07383091801786412,9.589541620532557,0.1863038287169228,0.09335930800000014,0.056290171000000055,0.20711644799999895
176002.0,1.1215865605,0.571335429,9.6694549665,0.16982228154830026,0.04816759669653951,0.08475493380609662,9.75103789010669,0.1958140022732452,-0.0718827445000001,0.0946341725,0.16641885050000127
176012.0,1.11207411,0.6442969049999999,9.647880336499998,0.19833398020887963,-0.029372145981812574,0.09168389093651412,9.733109591253362,0.22046547693988686,-0.009512450499999936,0.07296147599999991,-0.021574630000001704
176022.0,1.159930562,0.643120107,9.493425599,0.22258183950683685,-0.10158339845382595,0.09541365954802601,9.585623192283213,0.26261307764089487,0.047856451999999994,-0.0011767979999999234,-0.15445473749999827
176032.0,1.229361644,0.6143866225,9.298371330499998,0.23270823982690794,-0.12316788531323984,0.09168389093651412,9.399388829786204,0.27879990802210053,0.06943108199999992,-0.028733484500000017,-0.19505426850000163
176042.0,1.238972161,0.6084045659999999,9.1522522455,0.23537161226545128,-0.08959298649262493,0.07995876902161621,9.25575114709349,0.2642349405974876,0.00961051700000004,-0.005982056500000055,-0.1461190849999987
176052.0,1.2222027895,0.5928119924999999,9.0912548825,0.22311416492869512,-0.008588765249064096,0.056243235145517274,9.192177166248129,0.23025420512982267,-0.016769371499999908,-0.015592573499999984,-0.06099736300000025
176062.0,1.126391819,0.692153357,9.176278538,0.20286310961780493,0.07348185216746526,0.027466246438634767,9.271025973778517,0.217502686271215,-0.09581097050000009,0.09934136450000008,0.08502365550000057
176072.0,1.089322682,0.8681827244999999,9.328281613,0.1794146111172611,0.13317036725641934,0.004283037984394084,9.431712622852427,0.22347772553868403,-0.03706913700000003,0.17602936749999987,0.15200307499999965
176082.0,1.146789651,0.977134606,9.418012460499998,0.1485048300644415,0.17846864266268017,0.003750712562535814,9.537760599219121,0.23220423943385451,0.057466969000000034,0.10895188150000013,0.08973084749999849
176092.0,1.2066102159999998,1.038131969,9.493425599,0.12612272773686625,0.21097714531032657,0.027199211063079633,9.625941813774062,0.24730162833579625,0.05982056499999988,0.060997362999999916,0.07541313850000186
176102.0,1.2891822089999998,1.027344654,9.5915901655,0.11706272358976368,0.21897075328446056,0.0666366708411435,9.732216073897085,0.25708426235187637,0.08257199299999995,-0.010787314999999964,0.0981645664999995
176112.0,1.2832001524999999,0.9723293475,9.6563140555,0.12026016677941728,0.19578929015947188,0.10820343230664047,9.78960817039337,0.25397625207467894,-0.005982056499999944,-0.05501530649999997,0.06472388999999978
176122.0,1.2939874675,0.933985346,9.652685595,0.13331697491358685,0.15475310878658122,0.13938024873501517,9.783714600728615,0.24728282232426918,0.010787315000000186,-0.03834400149999995,-0.003628460499999875
176132.0,1.266430781,0.883775298,9.535398060999999,0.14131058288772091,0.12011355912224976,0.16256345718925583,9.659643983198437,0.24662284065837178,-0.027556686500000094,-0.05021004800000006,-0.1172875340000008
176142.0,1.3227209519999998,0.8203262725,9.3258299505,0.13331697491358685,0.11744844135445442,0.18121579090531922,9.454820472957504,0.25378478096635554,0.05629017099999989,-0.06344902549999998,-0.20956811049999935
176152.0,1.3095800409999998,0.7484435279999999,9.0947852765,0.1141323157756652,0.16381311293368378,0.20066748541879606,9.219017671315736,0.28306953417427794,-0.013140911000000033,-0.0718827445000001,-0.23104467399999962
176162.0,1.1838587879999998,0.7640361014999999,9.038593172,0.09494591130849153,0.25600838534103226,0.20519661482772134,9.1477559719991,0.34155624745549396,-0.12572125300000003,0.015592573499999984,-0.05619210449999912
176172.0,1.1072688515,0.7771770124999999,9.160685964499999,0.0776270091409518,0.3660583759962827,0.1996010892458275,9.260033248236631,0.42410527232436773,-0.07658993649999979,0.013140911000000033,0.12209279249999838
176182.0,1.1252150209999998,0.805910497,9.465966979,0.0714974128079477,0.4470625972398435,0.18761067728462646,9.566615463170724,0.49007612890270513,0.01794616949999983,0.028733484500000017,0.3052810145000002
176192.0,1.0426430279999999,0.8310155209999999,9.701718844999998,0.06696828339902243,0.4609187661714265,0.1916074812716935,9.792907628861206,0.503631101968181,-0.08257199299999995,0.02510502399999992,0.2357518659999993
176202.0,0.950460518,0.9017214675,9.8646073015,0.07282909902721937,0.4156204907651657,0.20546365020327645,9.951228769053312,0.4693184223571967,-0.09218250999999988,0.07070594650000017,0.16288845650000106
176212.0,0.8918167509999999,0.93163175,9.941197237999999,0.10240719386076728,0.3540679640350817,0.2142566189748239,10.024503846065953,0.4263299840322136,-0.05864376700000007,0.02991028249999994,0.07658993649999957
176222.0,0.8318981194999999,0.9268264915,9.944727632000001,0.13464866113285853,0.2935800881487142,0.22677935635788318,10.022408368313386,0.3946497264313938,-0.059918631499999986,-0.00480525850000002,0.0035303940000019907
176232.0,0.861808402,0.9184908389999998,9.9614970035,0.16529315213937495,0.26560246023924505,0.2273134271089935,10.040804832971519,0.38670128933499304,0.02991028250000005,-0.008335652500000124,0.016769371499998798
176242.0,0.8175804105,0.8394492399999999,9.997487409,0.19407014084625748,0.25920582853068586,0.23051087029864709,10.065926050159689,0.39747470666472,-0.04422799150000001,-0.07904159899999996,0.03599040549999977
176252.0,0.7624670375,0.8346439815,10.076430941499998,0.20792630977784046,0.2648013541125797,0.23104319572050536,10.139647285677482,0.40833082877298166,-0.055113372999999966,-0.004805258499999909,0.07894353249999853
176262.0,0.6882306970000001,0.8454312964999999,10.132721112499999,0.2073939843559822,0.273329032837824,0.23051087029864709,10.191194861894163,0.4133476578679857,-0.07423634049999994,0.010787314999999964,0.056290171000000555
176272.0,0.639197447,0.8514133529999999,10.2368677355,0.1919390938295724,0.2837207232041982,0.23184255651791877,10.292081378809582,0.41362910382176327,-0.04903325000000003,0.005982056499999944,0.10414662300000188
176282.0,0.549368533,0.7891411254999999,10.360137326,0.15943059118192604,0.2901156095835054,0.22544767013861153,10.404662172054623,0.40051445953867326,-0.08982891400000004,-0.062272227499999944,0.12326959049999964
176292.0,0.43325779699999994,0.7580540449999998,10.424763149499999,0.1274544139561379,0.2810556054364029,0.20972574423664664,10.461264023863238,0.37312433421011404,-0.11611073600000005,-0.031087080500000086,0.06462582349999835
176302.0,0.373437232,0.7208868415,10.473894466,0.09041678189956624,0.24988053433728016,0.18361387329755946,10.505312869657768,0.32300082098516497,-0.05982056499999994,-0.0371672034999998,0.04913131650000224
176312.0,0.3686319735,0.701763874,10.436727262499998,0.0613727578171286,0.21230883152959823,0.15883194324849198,10.466787378109325,0.272156648905801,-0.00480525850000002,-0.019122967500000088,-0.0371672035000028
176322.0,0.3674551755,0.7281437624999999,10.392499270999998,0.05151339287261263,0.1787356780382353,0.13671513096721982,10.424454793542196,0.2308486501680699,-0.001176797999999979,0.02637988849999995,-0.044227991499999675
176332.0,0.33754489299999996,0.7580540449999998,10.3159093345,0.05551019685967965,0.14809118703171886,0.12126024044081003,10.349230304112258,0.1992898079271165,-0.02991028250000005,0.02991028249999994,-0.07658993649999779
176342.0,0.3458805455,0.7723717539999999,10.2488318485,0.06590188722605389,0.11371867274294253,0.11753047182929816,10.283712643639959,0.17631904910924806,0.008335652500000068,0.014317709000000067,-0.06707748600000052
176352.0,0.34107528699999995,0.7604076409999999,10.171065114000001,0.0722967736053611,0.0932005820564972,0.12126024044081003,10.205151526808466,0.1691662433264325,-0.004805258500000076,-0.011964112999999998,-0.07776673449999905
176362.0,0.280077924,0.793946384,10.1231105955,0.0675006088208807,0.08254185631456783,0.13671513096721982,10.158058999282451,0.17337969105529166,-0.06099736299999997,0.03353874300000004,-0.04795451850000099
176372.0,0.256149698,0.6527306239999999,10.185382823000001,0.049115310480372425,0.07508057376229207,0.14524280969246411,10.209490349001578,0.170718716160296,-0.023928225999999997,-0.14121576000000002,0.062272227500001165
176382.0,0.1962310665,0.5952636549999999,10.278742131,0.022734658836478135,0.057227600843642076,0.13644984092091667,10.297834007499738,0.14970110920789378,-0.059918631499999986,-0.057466969000000034,0.09335930799999836
176392.0,0.129251647,0.5162220559999999,10.2715832765,-0.02363001274275123,-0.0021938788697568722,0.12792216219567237,10.285359216159033,0.1301048430594867,-0.0669794195,-0.07904159899999996,-0.007158854500000089
176402.0,0.13160524299999998,0.552114395,10.1350747085,-0.06279869181600797,-0.06134832320760068,0.12499175438157391,10.15095510737919,0.15274236844297617,0.0023535959999999856,0.035892339000000106,-0.136508568
176412.0,0.1830901555,0.607227768,9.942374036,-0.07132637054125228,-0.07546978218548679,0.11006918927702239,9.962582448291116,0.15132205915138022,0.05148491250000001,0.055113372999999966,-0.19270067249999911
176422.0,0.292042037,0.525832573,9.804688669999999,-0.0537404329981574,-0.06028192703463215,0.08875173779316364,9.823121111023179,0.11999506584499477,0.10895188149999999,-0.08139519500000003,-0.13768536600000125
