timestamp,ax,ay,az,gx,gy,gz,acc_mag,gyro_mag,dax,day,daz
129272.0,-1.8564969114999998,-3.1537205735,10.5414622845,0.01414589358741404,0.09505412172211518,-0.15573572915545403,11.158627215462579,0.1830000264954354,0.0,0.0,0.0
129282.0,-1.4877668715,-3.619438382,10.3929896035,0.09142034621946299,0.014582225900412624,-0.17065654893075355,11.105314825050515,0.19414937215466813,0.36873003999999976,-0.4657178085,-0.14847268099999944
129292.0,-1.1550272369999999,-3.5703070654999998,10.658749818499999,0.15537270067103923,0.009786061115932205,-0.17758550606117102,11.30000567050941,0.23616319583918938,0.3327396345000002,0.04913131650000002,0.26576021499999847
129302.0,-1.064021525,-3.330926739,10.871848322999998,0.18335032858050831,-0.0011379546723003027,-0.16292997633217465,11.420345910022444,0.2452851710132913,0.09100571199999985,0.23938032649999963,0.21309850449999956
129312.0,-0.7755098819999999,-3.2256033179999997,10.999923171999999,0.16656375183482686,0.004190535534038385,-0.13175315990379993,11.489309906694778,0.21241454554241831,0.2885116430000001,0.10532342100000047,0.12807484900000077
129322.0,-0.5253422405,-3.1896129124999995,11.0837700295,0.11833332328521555,0.06068160743333885,-0.1072382652302876,11.545543428876908,0.17083640832685135,0.2501676414999999,0.03599040550000021,0.08384685750000109
129332.0,-0.2715461385,-3.0939000085,11.161536764,0.047188466986170685,0.13848838548724607,-0.08991936306274786,11.585588353728701,0.1717302424879766,0.253796102,0.09571290399999954,0.07776673449999905
129342.0,-0.032067745499999994,-2.9334632144999997,11.209393216,-0.02369109926657103,0.2088338809888775,-0.07153231939298758,11.586920688519143,0.22201290672182905,0.23947839299999998,0.16043679400000022,0.047856452000001326
129352.0,0.2468333805,-2.83412185,11.175952539499999,-0.10602700672940353,0.2770483294738239,-0.03529404813382934,11.532349654061525,0.29873595842132317,0.278901126,0.09934136449999986,-0.03344067650000149
129362.0,0.5006294825,-2.7706728245,11.1555547075,-0.16225104325314887,0.3116878791381553,0.020929988389916002,11.505375205146352,0.352012499000218,0.2537961019999999,0.06344902549999976,-0.020397831999998672
129372.0,0.6849945024999999,-2.801759905,11.020321004,-0.184367855534421,0.3015632241473363,0.08940972692116551,11.391512237842893,0.3645901583704847,0.18436502,-0.031087080499999864,-0.13523370350000086
129382.0,0.8657310619999999,-2.8975708755,10.964030832999999,-0.16624784724021588,0.23867726586872856,0.1616209793931789,11.373450635459413,0.33275595401823876,0.1807365595,-0.09581097050000009,-0.056290171000000555
129392.0,1.0452908235,-2.9813196664999997,10.839486378,-0.12174893263136845,0.14701431888323835,0.22823670628329848,11.290498872875393,0.2975365635491353,0.17955976150000008,-0.08374879099999966,-0.12454445499999878
129402.0,1.2200453265,-2.9263043599999996,10.651590964,-0.08364490440182826,0.06361201524743733,0.3055111589153474,11.113422419328618,0.32307897910267985,0.17475450299999995,0.05501530650000008,-0.18789541399999976
129412.0,1.3552790299999997,-2.8149988825000003,10.409758975,-0.069256410048387,0.007922049474802262,0.39504305888415253,10.868490321807673,0.40114614241348445,0.13523370349999975,0.1113054774999993,-0.24183198899999958
129422.0,1.3565538945,-2.7849905335000003,10.2086245835,-0.058864719682012755,-0.015261158979438416,0.49443257846822164,10.668290707850453,0.4981581404005878,0.00127486450000025,0.030008349000000045,-0.20113439150000012
129432.0,1.2140632699999998,-2.801759905,10.030241619999998,-0.03967831521483909,-0.012330751165339939,0.5839644784370267,10.484729617134096,0.5854407982015075,-0.14249062450000016,-0.016769371499999686,-0.1783829635000025
129442.0,0.9949827089999999,-2.8652089304999997,9.9154057485,-0.011965977351673124,0.0012601277199399059,0.6503131699515912,10.36892877610859,0.6504244702871644,-0.21908056099999995,-0.06344902549999976,-0.11483587149999863
129452.0,0.7818842045,-2.986124925,9.81841798,0.01734508210631965,0.02364223004751519,0.689750629729655,10.292211453664374,0.6903736221259834,-0.2130985044999999,-0.12091599450000023,-0.09698776850000002
129462.0,0.649004097,-3.1094925819999997,9.854310319,0.0410588706531666,0.07080626242415795,0.7086682534920217,10.353626528834507,0.7133793178703911,-0.1328801075,-0.12336765699999974,0.035892339000000106
129472.0,0.5137703935,-3.1070409194999997,9.9189361425,0.04825311782988723,0.13369222070276565,0.7163965714198525,10.406870686795207,0.730360199352937,-0.13523370349999997,0.0024516624999999515,0.06462582350000012
129482.0,0.344997947,-3.0352562415,10.071037284,0.03546334507127278,0.18831579030243217,0.7305197757269906,10.524143481097026,0.7552348167617051,-0.16877244649999995,0.07178467799999977,0.1521011415000011
129492.0,0.125917386,-3.005345959,10.224217157,0.010948450397760429,0.21283068497594454,0.7539682742275343,10.657512655158701,0.783508090306085,-0.21908056100000003,0.02991028249999994,0.15317987299999913
129502.0,-0.094339973,-2.9897533854999994,10.2757020695,-0.004771730174952497,0.19524474743284967,0.7800801451666216,10.702223056811183,0.804156896191382,-0.22025735899999999,0.01559257350000065,0.051484912499999425
129512.0,-0.3278363095,-2.9921069814999997,10.276878867499999,0.01681101135520938,0.1518104836677188,0.8077924830297875,10.708614293728003,0.8221056675961073,-0.23349633649999998,-0.002353596000000291,0.0011767979999994793
129522.0,-0.495431958,-3.0735021765,10.2301992135,0.0666401614996475,0.10464645129107601,0.8280435383406777,10.69340190967561,0.8372860277588919,-0.16759564850000003,-0.08139519500000025,-0.046679653999998294
129532.0,-0.6582223479999999,-3.1286155494999996,10.191855211999998,0.12499524504007789,0.08146498816608733,0.8317750522814417,10.681545046403697,0.8450503494924577,-0.1627903899999999,-0.055113372999999743,-0.03834400150000228
129542.0,-0.892797416,-3.1656846864999997,10.1966604705,0.17508968523081916,0.08253138433905587,0.8104576007975829,10.71403432470767,0.8332522727036048,-0.23457506800000005,-0.03706913700000003,0.0048052585000011305
129552.0,-1.1741502045,-3.2603188589999994,10.169201850499999,0.21772458819853663,0.09585348251952858,0.7614278114505583,10.743415380654843,0.7977243875347744,-0.2813527885000001,-0.09463417249999972,-0.027458620000000877
129562.0,-1.3872487089999999,-3.305821715,10.1284061865,0.2587590242421753,0.12143477336600947,0.6785595785658673,10.744185779793607,0.7363054654643711,-0.21309850449999979,-0.04550285600000059,-0.04079566399999912
129572.0,-1.4997309845,-3.2794418265,10.201465728999999,0.29233392306279027,0.14381687569358476,0.5823657568421999,10.820066300130904,0.6673022486474429,-0.11248227550000012,0.02637988850000017,0.07305954249999935
129582.0,-1.5464106384999998,-2.916693843,10.4169178295,0.31977922555040106,0.13449158150017904,0.5085557827753597,10.927518744125543,0.6156100411642849,-0.04667965399999985,0.3627479834999998,0.2154521005000003
129592.0,-1.502182647,-2.477355923,10.712686393499999,0.32484242571043664,0.09052499231318989,0.49443257846822164,11.097544541007759,0.5984822056047095,0.0442279914999999,0.4393379199999998,0.2957685639999994
129602.0,-1.432751565,-2.138634232,10.924510033499999,0.30672241741623146,0.027373743988279065,0.560783015312038,11.22370049927092,0.6397699222908609,0.06943108199999992,0.3387216910000004,0.21182364000000042
129612.0,-1.478254421,-1.9973204054999998,11.055036544999998,0.28060880114789233,-0.03924198290184051,0.6833557433503478,11.330858658844802,0.739767736842877,-0.045502855999999925,0.14131382650000002,0.1305265114999994
129622.0,-1.721263208,-2.095484972,11.105246592999999,0.25902605961773045,-0.08560665448106987,0.8213833619150673,11.431548722304882,0.8655019503637342,-0.24300878700000017,-0.09816456650000016,0.050210048000000285
129632.0,-2.1820776915,-2.3816430189999998,11.150749449,0.24570221610800574,-0.11438538851720437,0.9322309680384793,11.60917308838434,0.9708286016988669,-0.46081448349999987,-0.2861580469999998,0.04550285600000059
129642.0,-2.765083034,-2.8269629955,11.2836295565,0.24889965929765934,-0.1588843031260518,0.9687362746731927,11.95649195755851,1.0127414438276126,-0.5830053424999999,-0.44531997650000044,0.13288010750000012
129652.0,-3.260711125,-3.305821715,11.3722816725,0.264089259777766,-0.23029619480065178,0.9237050346424869,12.283708100192861,0.9879324194971567,-0.49562809099999994,-0.4788587194999998,0.08865211600000045
129662.0,-3.5444175094999997,-3.6265972365,11.475153430999999,0.28327391891568765,-0.31822937317463007,0.810724636173138,12.545686480317872,0.9158539636792737,-0.28370638449999985,-0.3207755214999999,0.10287175849999919
129672.0,-3.5348069924999996,-3.6122795274999997,11.46201252,0.2875377582783098,-0.3899065548955332,0.6652357350561428,12.52681742772917,0.8229481558287288,0.00961051700000004,0.014317709000000178,-0.013140910999998923
129682.0,-3.296603464,-3.2566903985,11.3375661315,0.25662797722549024,-0.40216400223228943,0.5439946932371046,12.248021576429181,0.7235496041436766,0.2382035284999997,0.3555891289999997,-0.12444638850000089
129692.0,-2.9662174255,-2.8532448175,11.165165224499999,0.18468201479977997,-0.33181850673065794,0.4888370528863278,11.89959521556572,0.6190093959497386,0.3303860384999999,0.40344558100000016,-0.1724009070000001
129702.0,-2.7004572104999998,-2.5947415234999998,10.961677237,0.07490080484933666,-0.18339919779956412,0.5016285709741942,11.583761071762508,0.5393297873641083,0.26576021500000024,0.25850329400000005,-0.20348798749999908
129712.0,-2.6214156115,-2.5552207239999998,10.827522265,-0.044741515374874634,-0.0062011548323358525,0.554920454354589,11.429619904250787,0.5567557527142385,0.07904159899999996,0.03952079949999998,-0.13415497199999926
129722.0,-2.7232086384999996,-2.718011114,10.734162957,-0.13747085853333338,0.13928774628465945,0.6154065849117045,11.402881394281865,0.6457744017562468,-0.10179302699999981,-0.16279039000000006,-0.09335930800000014
129732.0,-2.9829867969999997,-3.0208404659999997,10.7509323285,-0.17824000453066893,0.23015133247273625,0.6545770093142134,11.558816257908326,0.7163869039679667,-0.2597781585000001,-0.30282935199999983,0.016769371499998798
129742.0,-3.3396546575,-3.3105289069999997,10.748578732499999,-0.18143744772032253,0.22935197167532287,0.6623053272420442,11.73221375718135,0.723996008856274,-0.35666786050000043,-0.289688441,-0.002353596000000735
129752.0,-3.7072078994999997,-3.587076437,10.777312217,-0.14733022347784933,0.14248518947431307,0.6319278716110829,11.948262065994925,0.6643350501730864,-0.3675532419999996,-0.2765475300000002,0.028733484500001794
129762.0,-3.94423463,-3.8528366519999997,10.777312217,-0.07778234344437929,-0.0062011548323358525,0.5725063918976839,12.105857908722673,0.5777993735170179,-0.23702673050000023,-0.2657602149999998,0.0
129772.0,-3.9957195424999994,-3.9868935575,10.723375641999999,0.00508763476956347,-0.17353983285504818,0.4981640924089855,12.11824575013192,0.5275503962471972,-0.051484912499999425,-0.1340569055000005,-0.053936575000001596
129782.0,-3.897554976,-3.9258961945,10.503118283000001,0.07116929090857278,-0.3136984984364528,0.4195579535576649,11.870934646758899,0.5286782502460357,0.0981645664999995,0.06099736300000025,-0.22025735899999788
129792.0,-3.7179952145,-3.7714414569999994,10.27933053,0.11540291547111706,-0.3987012689963327,0.348411351929368,11.563385975725849,0.5419142044196384,0.17955976149999975,0.1544547375000005,-0.22378775300000164
129802.0,-3.5097019684999995,-3.587076437,10.086531790999999,0.14338054338058617,-0.4194846497290811,0.2924543507811778,11.26602187302275,0.5310884096544399,0.20829324600000065,0.18436501999999955,-0.19279873900000055
129812.0,-3.247570214,-3.413498732,9.956103345999999,0.15110886130841705,-0.38297934309436776,0.2618116051039134,11.01465749465039,0.48790611983250154,0.2621317544999995,0.17357770500000003,-0.13042844499999973
129822.0,-3.0607535314999996,-3.169313147,9.8459746665,0.13485460998459387,-0.27612854095802286,0.2687388169050789,10.786842686240332,0.40823190551112604,0.18681668250000039,0.24418558499999987,-0.11012867949999894
129832.0,-2.984163595,-2.940622069,9.7992950125,0.1063429113240145,-0.11545178469017289,0.308708602105001,10.657329555588518,0.3463220039076886,0.07658993649999957,0.22869107800000021,-0.04667965400000007
129842.0,-2.9877920555,-2.8759962454999997,9.83999261,0.08022929505567535,0.07906690577384712,0.37825473680921906,10.678188532513069,0.3946706998149123,-0.003628460499999875,0.06462582350000012,0.04069759749999946
129852.0,-3.1074331854999997,-3.0160352075,10.037498540999998,0.05758015735254493,0.2586630311333156,0.4478026168426891,10.93178788377287,0.5203356818890846,-0.11964112999999976,-0.1400389620000002,0.19750593099999847
129862.0,-3.435465628,-3.287777479,10.324735319499998,0.04052654523130833,0.37617255901158986,0.4800440841147804,11.367148466098248,0.6112205148024007,-0.3280324425000005,-0.27174227149999997,0.2872367785000005
129872.0,-3.7131899559999995,-3.342890852,10.560585252,0.03999421980945006,0.4252006030293626,0.495231939265635,11.68283611810439,0.6539493589747617,-0.27772432799999924,-0.05511337300000019,0.23584993250000075
129882.0,-4.048381253,-3.5523608959999997,10.8083992975,0.06210928676147021,0.3668455194889321,0.4763143155032685,12.076015654149767,0.6044075825338976,-0.33519129700000017,-0.2094700439999997,0.2478140455000002
129892.0,-4.186066619,-3.769087861,10.989135856999999,0.11060675068663664,0.23494749725721667,0.4334141224892478,12.348695636634938,0.5052543729034024,-0.13768536600000036,-0.21672696500000033,0.18073655949999967
129902.0,-4.1022197615,-3.888728991,11.0741595125,0.15004246513544853,0.0969198786924971,0.3641332778313329,12.43331930923433,0.40558506907168235,0.0838468575000002,-0.11964112999999976,0.08502365550000057
129912.0,-3.8244954334999997,-3.8755880799999995,11.008356891,0.15190822210583046,0.000460766922526503,0.2905885938107959,12.28132198610262,0.3278994527327652,0.27772432800000013,0.013140911000000255,-0.0658026214999996
129922.0,-3.530001734,-3.7475132309999997,10.919704775,0.12766036280787324,-0.023254766953572446,0.22957013783182215,12.07247779172614,0.26370513950703467,0.2944936994999998,0.12807484899999988,-0.08865211600000045
129932.0,-3.376821861,-3.5691302675,10.906563863999999,0.09994802494470728,-0.009930923443847734,0.19146610960228194,11.962221869988147,0.2162117065679572,0.15317987300000002,0.17838296349999982,-0.013140911000000699
129942.0,-3.236782899,-3.4973455894999996,10.925686831499998,0.0730350478789547,0.010852457288900741,0.17174737971325002,11.919682145412537,0.1869466674917098,0.14003896199999977,0.07178467800000021,0.019122967499999532
129952.0,-3.0799745655,-3.4757709595,10.971189687499999,0.03999421980945006,0.03137054797534608,0.15256272057532833,11.913615330626417,0.16080743952872892,0.1568083334999999,0.021574629999999484,0.04550285600000059
129962.0,-3.018879136,-3.4553731274999997,10.950889921999998,-0.002373647782712288,0.04842416009658267,0.12778079052626085,11.873298815905644,0.13666917689212882,0.06109542950000035,0.02039783200000045,-0.020299765500000788
129972.0,-2.9913224495,-3.4626300485,10.962854034999998,-0.035948546603327206,0.05934817588481518,0.09340653090823253,11.879477490292809,0.11635842900304708,0.02755668649999965,-0.007256921000000194,0.011964112999999443
129982.0,-3.0105434835,-3.4973455894999996,10.960402372499999,-0.044474479999319506,0.0462913677506456,0.04277976529563301,11.892233533089696,0.07714258498510941,-0.019221033999999637,-0.03471554099999974,-0.002451662499998619
129992.0,-2.9865171909999995,-3.5452020414999996,10.9556951805,-0.034882150430358666,0.016715018246349692,-0.019306832185561274,11.896007705748396,0.04323089199476919,0.024026292500000324,-0.047856451999999994,-0.004707191999999694
130002.0,-2.8728581175,-3.5248042095,10.941279404999998,-0.026621507080669512,-0.016859880574265223,-0.0816587197130587,11.848592891009112,0.08752774827105118,0.1136590734999996,0.02039783199999956,-0.014415775500001615
130012.0,-2.754295719,-3.4219324509999995,10.889794492499998,-0.015697491292437,-0.04190710066963585,-0.13814804628310717,11.742375853965495,0.14521535391015183,0.11856239849999994,0.10287175850000052,-0.051484912499999425
130022.0,-2.5615950465,-3.298564794,10.820363410499999,-0.005838126347921033,-0.0586936774153173,-0.1751874236689308,11.598386233341117,0.18485038517553887,0.1927006725,0.12336765699999974,-0.06943108199999948
130032.0,-2.3652659134999996,-3.1321459435,10.802417240999999,0.0018901915799098587,-0.06295751677793945,-0.1866455102082736,11.493347610753037,0.19698672093306205,0.19632913300000032,0.16641885049999994,-0.017946169500000053
130042.0,-2.1797240954999997,-3.0279993204999998,10.742596676,-0.0005078908123303499,-0.054963908803805424,-0.16612741952182825,11.372042928192718,0.17498459572502892,0.18554181799999991,0.1041466230000001,-0.05982056499999899
130052.0,-2.1186286659999998,-2.9885765875,10.7018990785,-0.008503244115716374,-0.03604453971218689,-0.12935507751155975,11.311534879500185,0.13455203484740214,0.06109542949999991,0.03942273299999988,-0.04069759749999946
130062.0,-2.095877238,-3.0244689265,10.683952909,-0.01116661655425972,-0.016327555152406952,-0.08592255907568085,11.299865638398545,0.08817011137930258,0.02275142799999985,-0.035892339000000106,-0.017946169500000053
130072.0,-2.130592779,-3.031627781,10.7018990785,-0.0015742869852988853,-0.0014049900478554354,-0.05501277802286127,11.325230085029492,0.055053229899246256,-0.03471554100000018,-0.007158854500000089,0.017946169500000053
130082.0,-2.1473621505,-3.0927232104999995,10.804770837,0.013613568165555772,0.0009930923443847734,-0.029698522551935513,11.441991692981214,0.03268512983560768,-0.016769371499999686,-0.061095429499999465,0.10287175849999919
130092.0,-2.1473621505,-3.1537205735,10.8766535815,0.02986781948937896,-0.0181915667935369,-0.006517059426946826,11.526435302949213,0.03557375165804412,0.0,-0.06099736300000025,0.07188274449999987
130102.0,-2.0767542705,-3.1741184055,10.849096895,0.04825311782988723,-0.05682966577418736,0.016666149027293853,11.493077890159473,0.07639198135740943,0.07060787999999985,-0.020397832000000005,-0.02755668649999876
130112.0,-2.0061463905,-3.1656846864999997,10.812027758,0.08182801665050214,-0.10585770979196008,0.0481082555019717,11.443169452307314,0.1421832735549322,0.07060787999999985,0.008433719000000117,-0.03706913700000136
130122.0,-2.106664553,-2.9957354419999995,10.861061008,0.14604566114838152,-0.14209772638037035,0.07768635033551961,11.46189829813629,0.21807399664148766,-0.10051816249999979,0.16994924450000015,0.049033250000000805
130132.0,-2.385565679,-2.8149988825000003,10.920979639499999,0.21079563106811913,-0.17327279747949303,0.09953612724123662,11.5274862222287,0.29045774400067154,-0.27890112600000005,0.18073655949999923,0.059918631499998654
