timestamp,ax,ay,az,gx,gy,gz,acc_mag,gyro_mag,dax,day,daz
25282.0,-0.9027021325,0.028929617499999997,10.195875938499999,0.06853907972581733,-0.12435296387534399,0.22866605727928907,10.235799637354766,0.26916431937740126,0.0,0.0,0.0
25292.0,-1.4126479325,-0.17220477399999998,9.6704356315,0.014446090218757066,-0.16618676071639607,0.20814796659284374,9.774587150789015,0.26674389394464637,-0.5099458000000001,-0.20113439149999998,-0.5254403069999984
25302.0,-0.817678477,-0.11120741099999999,9.526768209,-0.010601129876613559,-0.20162567117814095,0.20441819798133187,9.562440990041372,0.2873188035939027,0.5949694555000001,0.060997362999999985,-0.14366742250000009
25312.0,-0.629783063,0.0420705285,9.2106998795,0.012048007826516858,-0.10410190856445378,0.2070815704198752,9.23230138730486,0.23208864398524853,0.18789541399999998,0.1532779395,-0.3160683295000002
25322.0,-0.5794749484999999,0.294591766,9.040750635,0.03922802026782455,0.05151339287261263,0.2513151949824195,9.06409110549905,0.25952224268534774,0.050308114500000056,0.2525212375,-0.1699492444999997
25332.0,-0.4861156405,0.340094622,9.1640202255,0.05095139685347046,0.23110951823208115,0.3123353962906452,9.183204204482502,0.3918686693712817,0.09335930799999992,0.045502856000000036,0.12326959049999964
25342.0,-0.5555467224999999,0.1701453775,9.580606717499998,0.05334947924571067,0.39498371768958473,0.3728215268477607,9.598208514393257,0.5457601992237705,-0.06943108199999992,-0.1699492445,0.41658649199999864
25352.0,-0.8165016789999999,0.0312832135,10.065447493499999,0.04535587127157664,0.46346345622083424,0.40639642566837564,10.098558653375347,0.6180724756102609,-0.2609549565,-0.138862164,0.4848407760000004
25362.0,-1.194842236,-0.10522535449999999,10.525085179,0.029900980745166856,0.4139013414519513,0.40319898247872205,10.593211900522173,0.5785998691471719,-0.378340557,-0.136508568,0.4596376855000006
25372.0,-1.5754383224999997,-0.2009382585,10.8303661935,0.014713125594312197,0.25695609912486517,0.36829239743883546,10.946196324616066,0.44931303447982307,-0.38059608649999976,-0.095712904,0.3052810145000002
25382.0,-1.7454856335,-0.3243059155,10.7034681425,0.005387831400906495,0.022202333414619867,0.3035424275190978,10.849706203446045,0.30440101451940876,-0.17004731100000026,-0.12336765699999999,-0.1268980509999995
25392.0,-1.648497865,-0.4786625865,10.393479935999999,0.014446090218757066,-0.19203334160918012,0.2257339041359386,10.534281573161929,0.2967175244043561,0.09698776850000002,-0.154356671,-0.3099882065000017
25402.0,-1.4916895314999998,-0.4559111584999999,9.9828755005,0.05521523621609261,-0.31673886199342693,0.15911992257507102,10.103999005409426,0.35873580636394053,0.15680833350000012,0.022751428000000073,-0.41060443549999803
25412.0,-1.3156601639999999,-0.3266595115,9.648861001499998,0.1127709589591096,-0.3540435294255537,0.11515333338808188,9.743622874981229,0.3890043702878502,0.17602936749999998,0.12925164699999991,-0.334014499000002
25422.0,-1.1720908079999999,-0.2129023715,9.460867520999999,0.1562052227242405,-0.31833758358825376,0.09676628971832162,9.535572270813173,0.3675630606535268,0.14356935599999998,0.11375714,-0.18799348049999942
25432.0,-1.060687264,-0.089632781,9.448903408,0.16926203085841007,-0.22827335819759037,0.09143779951198293,9.50867325767142,0.29852844476316215,0.11140354399999985,0.1232695905,-0.011964112999999443
25442.0,-1.0319537795,-0.04412992499999999,9.539909119999999,0.1484769047964096,-0.1312801756765095,0.09436820732608141,9.595662669725526,0.21951135355037008,0.028733484500000017,0.045502856,0.0910057119999994
25452.0,-1.0116540139999999,-0.0130428445,9.679948082,0.10850886492573947,-0.0436140326780863,0.09730036046943188,9.732677372134065,0.15213059442925653,0.020299765500000122,0.031087080499999996,0.1400389620000002
25462.0,-1.1013848615,0.025301156999999998,9.806846132999999,0.07360227988585287,0.021935298039064733,0.09916437211056182,9.868531797487604,0.12542737181548527,-0.08973084750000004,0.038344001499999995,0.1268980509999995
25472.0,-1.1468877174999998,-0.033342609999999995,9.940903038499998,0.04695459286640345,0.05551019685967965,0.09809972126684528,10.006898439928952,0.12210516393372899,-0.045502855999999925,-0.05864376699999999,0.1340569054999996
25482.0,-1.1756212019999999,-0.100420096,10.0570137745,0.03816162409485602,0.055777232235234786,0.08610756397639224,10.125991085654544,0.10946196491626163,-0.028733484500000017,-0.067077486,0.11611073600000132
25492.0,-1.1564982344999999,-0.1650459195,10.133701777499999,0.04828802441492712,0.02353401963389154,0.06825459105774224,10.200815655488135,0.08685777214783152,0.019122967499999977,-0.0646258235,0.07668800299999923
25502.0,-1.1385520649999998,-0.1519050085,10.131250114999999,0.06560692658246685,-0.02229658119422756,0.04800353574685204,10.19615637527253,0.08429558584378709,0.017946169500000053,0.013140911000000005,-0.0024516625000003955
25512.0,-1.1013848615,-0.07286340949999999,10.107321888999998,0.08132885248443177,-0.06333276256711823,0.03361504139341079,10.167414295554392,0.10842228584888881,0.03716720349999991,0.079041599,-0.023928226000000663
25522.0,-1.0427410945,0.0779628675,10.0068037265,0.09065414667783747,-0.09210975127400074,0.03228335517413911,10.061287592528213,0.13320884208994827,0.05864376699999996,0.150826277,-0.10051816249999845
25532.0,-0.9744868105,0.1138552065,10.015139379,0.09438566061860135,-0.08544957484839039,0.04906993191982058,10.063081254401265,0.13644830886015513,0.068254284,0.035892338999999995,0.008335652500001345
25542.0,-0.9649743599999999,0.15818126449999997,10.0523065825,0.09198757822636114,-0.056937876187811015,0.07465122276630146,10.099755663206366,0.13143987733269294,0.009512450500000047,0.044326057999999974,0.037167203499999246
25552.0,-1.000866699,0.164163321,10.1144807435,0.0791978054677467,-0.03721914629877907,0.09463524270163653,10.165205578627576,0.12889292611821107,-0.035892338999999995,0.005982056500000027,0.06217416099999973
25562.0,-1.0164592725,0.1450403535,10.1827350275,0.05788035398388795,-0.03162362071688526,0.10529396844356591,10.234369487030945,0.12424575870081137,-0.015592573499999984,-0.019122967500000004,0.068254284
25572.0,-1.0307769814999999,0.0887501825,10.230591479500001,0.04082674186265135,-0.034021703109125466,0.10609332924097932,10.282771017624677,0.11865957038098479,-0.014317708999999956,-0.056290171,0.047856452000001326
25582.0,-1.0439178924999999,0.069627215,10.175576173,0.029635690698863716,-0.03935019331546415,0.10156245450280203,10.229221034266276,0.11287889103723889,-0.013140911000000033,-0.01912296749999999,-0.055015306500001415
25592.0,-1.048723151,0.052857843499999994,10.133701777499999,0.026970572931068373,-0.050275954432948654,0.09117076413642779,10.187959850449426,0.10755087926927494,-0.00480525850000002,-0.016769371500000012,-0.041874395500000716
25602.0,-1.0643157245,0.052857843499999994,10.119286001999999,0.02803696910403691,-0.05107531523036206,0.08344419153784889,10.175240100523945,0.10177274961317881,-0.015592573499999984,0.0,-0.014415775499999839
25612.0,-1.0631389265,0.08629852,10.1923455445,0.02110801197361942,-0.04627915044588164,0.08610756397639224,10.248005635736291,0.10000910213285334,0.0011767979999999234,0.03344067650000001,0.07305954250000113
25622.0,-1.067944185,0.0983606995,10.268935481,0.008585274590560106,-0.044945718897357975,0.09090547409012466,10.324786463768737,0.10177244129206081,-0.00480525850000002,0.012062179499999992,0.07658993649999957
25632.0,-1.0547052075,0.09228057649999999,10.303651022,-0.00580496509213314,-0.052407001449633735,0.0951675681234948,10.357902449950398,0.10879824191227917,0.013238977499999915,-0.006080123000000007,0.03471554100000063
25642.0,-1.0666693205,0.08031646349999999,10.258148166,-0.023390902635228007,-0.06279869181600797,0.10103012908094376,10.313769338569399,0.12123488360205911,-0.011964112999999887,-0.011964112999999998,-0.04550285600000059
25652.0,-1.0511748134999999,0.038442067999999996,10.211468512,-0.03644771076939758,-0.07878765309352802,0.10236181530021543,10.265502201679972,0.13421576335092386,0.015494507000000102,-0.041874395499999995,-0.04667965400000007
25662.0,-1.000866699,-0.0165732385,10.1444890925,-0.03644771076939758,-0.08065166473465797,0.10049780365908549,10.193756313020879,0.13391390960277963,0.050308114499999945,-0.0550153065,-0.06697941949999908
25672.0,-0.9840973274999999,-0.06207609449999999,10.0642706955,-0.03484898917457078,-0.07132637054125228,0.09490227807719166,10.112459919515185,0.12372689911784739,0.01676937150000002,-0.045502855999999994,-0.08021839700000122
25682.0,-0.967327956,-0.1064021525,9.9948396135,-0.04310963252425994,-0.06173404097229143,0.08157843456746695,10.042104544969874,0.11101609440808019,0.016769371499999908,-0.04432605800000001,-0.06943108199999948
25692.0,-0.9817437314999999,-0.149453346,10.00082167,-0.054567719063602714,-0.047343801289598184,0.06532418324364377,10.050004533934885,0.0973977433044646,-0.01441577549999995,-0.04305119349999999,0.00598205650000061
25702.0,-1.060687264,-0.18897414549999997,10.015139379,-0.056166440658429524,-0.04974362901109038,0.04800353574685204,10.072923383034132,0.08906984409792788,-0.07894353250000008,-0.03952079949999998,0.014317709000000178
25712.0,-1.0858903544999998,-0.157887065,10.061819032999999,-0.03991218933460633,-0.07345741755793735,0.025888468794831893,10.121476593863736,0.0875167862087246,-0.025203090499999803,0.031087080499999975,0.046679653999998294
25722.0,-1.0152824745,-0.0956148375,10.065447493499999,-0.019661134023716123,-0.10623295558113886,0.008300785922485033,10.116974545019989,0.10835545251409213,0.07060787999999985,0.0622722275,0.003628460499999875
25732.0,-0.9314356169999999,0.025301156999999998,10.034262346499998,-0.004738568919164605,-0.13900849360434037,0.0027052603405912107,10.07743187997564,0.13911554105512433,0.0838468575000001,0.12091599449999998,-0.031185147000000413
25742.0,-0.8320942524999999,0.104342756,9.9709113875,-0.0012740903539558606,-0.15552803497446668,0.011765264487693775,10.00611523785082,0.1559776087062318,0.09934136449999997,0.07904159899999999,-0.06335095899999921
25752.0,-0.7387349444999999,0.164163321,9.896675046999999,-0.01140049067402696,-0.1430052975914074,0.032016319798583985,9.925565772292257,0.1469882004116683,0.09335930800000003,0.059820565000000006,-0.07423634050000061
25762.0,-0.7422653384999999,0.198878862,9.8475437305,-0.026588345824881617,-0.10943039877079247,0.06292610085140356,9.877480860958364,0.12900250570124275,-0.0035303939999999923,0.03471554099999999,-0.04913131649999869
25772.0,-0.7542294515,0.20123245799999998,9.824792302499999,-0.04231027172684654,-0.074790849106461,0.09490227807719166,9.855754682160365,0.128024499951789,-0.01196411300000011,0.0023535959999999856,-0.022751428000001184
25782.0,-0.78060934,0.16534011899999998,9.864313102,-0.04817108735504349,-0.05347339762260227,0.1199494981725623,9.896532790373357,0.13988473834597426,-0.02637988850000006,-0.035892338999999995,0.03952079950000176
25792.0,-0.8201301394999999,0.1246425215,9.8583310455,-0.04630707571391355,-0.04814316208701159,0.13753543571565716,9.893171392761337,0.15289900390259598,-0.03952079949999987,-0.040697597499999974,-0.00598205650000061
25802.0,-0.8201301394999999,0.0540346415,9.8595078435,-0.03831346773977952,-0.052407001449633735,0.1463284044872046,9.893706489695171,0.16008253362237868,0.0,-0.07060788000000001,0.0011767979999994793
25812.0,-0.7925734529999999,-0.0010787315,9.829597561,-0.031651545984917165,-0.06439741341083478,0.14286567125124786,9.861498975981245,0.15987322239609394,0.027556686499999983,-0.055113373,-0.029910282499999497
25822.0,-0.7171603145,0.039618866,9.784094705,-0.02871939284156669,-0.06546380958380331,0.13220694550931847,9.810422914821046,0.1502963417096923,0.07541313849999998,0.0406975975,-0.04550285600000059
25832.0,-0.5842802069999999,0.06001669799999999,9.7433971075,-0.033782593001602246,-0.044413393475499705,0.12607734917631438,9.761084599508916,0.13787425824006366,0.1328801075,0.02039783199999999,-0.04069759749999946
25842.0,-0.49092089899999997,0.12944777999999998,9.849995393,-0.043641957946118214,-0.014837043971203796,0.12421333753518445,9.863070987220112,0.13249042074355355,0.09335930799999997,0.06943108199999999,0.1065982855000005
25852.0,-0.3580407915,0.0779628675,9.984052298499998,-0.053768358266189316,-0.004178318229274425,0.12634438455186953,9.990774330164298,0.1373732077286436,0.13288010749999996,-0.05148491249999998,0.13405690549999782
25862.0,-0.1497475455,-0.13631243499999998,10.1839118255,-0.04683940113577182,-0.018299777207160545,0.13833479651307057,10.185924870961774,0.14719146466729005,0.20829324600000002,-0.2142753025,0.19985952700000098
25872.0,0.02745862,-0.457186023,10.544306213,-0.0028728119487826664,-0.05667084081225588,0.1417992750782793,10.554248743939535,0.15273137090848965,0.17720616549999998,-0.320873588,0.3603943875000013
25882.0,0.179461695,-0.6379225824999999,11.0255185285,0.07653268769995135,-0.14247122684029712,0.11781670582662522,11.045415815782244,0.20009017700975534,0.15200307500000002,-0.1807365594999999,0.48121231549999877
25892.0,0.4631680795,-0.5804556135,11.462404786,0.1498103363449333,-0.283163963172812,0.04800353574685204,11.486434471463593,0.32392793389844443,0.28370638449999996,0.05746696899999992,0.4368862575000012
25902.0,0.8330749175,-0.3146953985,11.807206599999999,0.17805499962995752,-0.4707536965064146,-0.058314940967634545,11.840742151870728,0.5066687853102225,0.36990683799999996,0.26576021499999997,0.34480181399999843
25912.0,1.5118912304999998,0.036088471999999996,11.894583851499998,0.14101562224413383,-0.6775280889779387,-0.1728923157025583,11.99033954777923,0.7133172294989032,0.6788163129999999,0.3507838705,0.08737725149999953
25922.0,2.3474178104999996,0.46346227900000003,11.603718612499998,0.04082674186265135,-0.8448667670006511,-0.2725506159914345,11.847845934986974,0.8886790844340619,0.8355265799999998,0.42737380700000005,-0.2908652390000004
25932.0,3.3398507904999994,0.7890430589999999,11.0710213845,-0.09800023749948161,-0.9343986669694563,-0.34929099787237317,11.59071640356263,1.0023517928247199,0.9924329799999998,0.3255807799999999,-0.5326972279999982
25942.0,4.352583536,0.9230999645,10.444866782,-0.24535489558685886,-0.9327999453746294,-0.37620397493812574,11.35307619440851,1.0352990841484386,1.0127327455000006,0.13405690550000005,-0.6261546024999998
25952.0,5.280292626,1.0978544675,9.805669335,-0.37751995319412945,-0.8230169900949341,-0.35168908026461343,11.190975192330605,0.9713719628556263,0.9277090899999996,0.17475450299999995,-0.6391974470000008
25962.0,5.955480478499999,1.342138119,9.271795309,-0.4889016300686516,-0.6258349271923708,-0.27947782779259994,11.101138262009975,0.8419038046031951,0.6751878524999997,0.24428365149999998,-0.5338740259999994
25972.0,6.354120801,1.6138803904999999,8.979655205499999,-0.5712375375314841,-0.36230242744599095,-0.14704573480977426,11.118168404832,0.6922411583718767,0.39864032250000037,0.27174227149999997,-0.2921401035000013
25982.0,6.394818398499999,1.9167097425,8.9461164625,-0.6205326169248119,-0.06919532352456718,0.03308271597155252,11.16245843653637,0.6252544982335426,0.04069759749999946,0.30282935200000005,-0.03353874299999937
25992.0,6.1888787485,2.0459613895,9.158038169,-0.6271945386796743,0.16049698735489457,0.25184752040427777,11.240900376563284,0.6946649882017877,-0.20593964999999947,0.12925164700000003,0.21192170650000008
26002.0,5.83103409,1.841296604,9.7063279705,-0.5752343415185511,0.27827180527947193,0.48500256451969626,11.471884518837989,0.802220189764917,-0.35784465849999947,-0.2046647854999999,0.5482898015000011
26012.0,5.338936393,1.5575902195,10.310809876499999,-0.4705145863988913,0.24443161641255384,0.6965731217757009,11.715081280542266,0.875411277684106,-0.49209769700000017,-0.2837063845000001,0.6044819059999984
26022.0,4.8122212215,1.3085993759999999,10.782509741499998,-0.3356844110238254,0.038189549362887924,0.8625801135791414,11.879916739483695,0.9263837853865737,-0.5267151715000002,-0.24899084350000011,0.4716998649999997
26032.0,4.374158166,1.0978544675,10.9680515595,-0.19419405922314908,-0.27863483376388676,0.9867515632122782,11.85903449294438,1.0435647324081374,-0.4380630554999998,-0.21074490849999994,0.1855418180000008
26042.0,3.9778714395,1.113447041,10.7932970565,-0.05936388384808313,-0.628500044960166,1.0706879375991893,11.556750704767886,1.2429436982184128,-0.3962867265000001,0.015592573499999984,-0.17475450299999906
26052.0,3.70495237,1.2989888589999998,10.436531129499999,0.05574756163795088,-0.8928301601747073,1.151159833420892,11.150570664176666,1.457882864851558,-0.2729190694999999,0.18554181799999991,-0.3567659270000014
26062.0,3.3913357029999998,1.3277223435,10.041519267499998,0.1290252102829328,-1.0068752094877729,1.2398906272630317,10.681578238792493,1.6024275209644634,-0.31361666700000024,0.02873348450000024,-0.3950118620000005
26072.0,2.991420516,1.2679017784999997,9.7792894465,0.15833626974092557,-0.9876905503498511,1.311569554313187,10.304885914065009,1.6494901313336658,-0.39991518699999995,-0.059820565000000325,-0.26222982099999825
26082.0,2.503049346,1.1589498969999998,9.709858364499999,0.15513882655127195,-0.8795063166649826,1.3470084647749316,10.09404628238438,1.6161779669122545,-0.48837116999999974,-0.1089518814999999,-0.06943108200000125
26092.0,2.0457652564999997,1.0237161934999999,9.6596483165,0.1181011944947003,-0.7372166040668929,1.3414129391930378,9.926830104721141,1.5351953904593063,-0.4572840895000003,-0.13523370349999997,-0.05021004799999851
26102.0,1.681840475,0.814148083,9.648861001499998,0.04189313803561989,-0.5736076946556924,1.3003785031493993,9.828120019142437,1.421887855576438,-0.36392478149999974,-0.2095681104999999,-0.01078731500000174
26112.0,1.2580951284999997,0.7375581465,9.780564311,-0.052968997468775904,-0.4195928601427048,1.240689988060445,9.888692209459794,1.31079194743064,-0.4237453465000003,-0.07658993650000001,0.13170330950000064
26122.0,0.7397156094999999,0.44904650349999997,9.88706453,-0.1819366118863929,-0.29808652827736354,1.1455625625097463,9.924861055230329,1.1976101593210737,-0.5183795189999998,-0.288511643,0.10650021900000084
26132.0,0.2656621485,0.0324600115,9.8799056755,-0.2658712409440522,-0.20882166368411356,1.0557653724946379,9.883530046813705,1.1085731936790069,-0.47405346099999995,-0.416586492,-0.007158854500000089
26142.0,-0.22751427999999996,-0.2344770015,9.735061455,-0.2866563670060527,-0.1430052975914074,0.9942128457645538,9.740542271581345,1.0445485008210813,-0.49317642849999993,-0.266937013,-0.14484422049999957
26152.0,-0.7734504855,-0.6414529764999999,9.541085918,-0.27093444110408776,-0.10490126936186718,0.950778581999423,9.593852618694891,0.9941778813064335,-0.5459362055,-0.4069759749999999,-0.19397553700000003
26162.0,-1.1445341214999998,-0.861808402,9.3375979305,-0.22643552649524035,-0.11875569296419816,0.9097441459557842,9.446872878826804,0.9449922610113815,-0.37108363599999983,-0.2203554255000001,-0.20348798750000086
26172.0,-1.2930068024999999,-0.8581799415,9.120969032,-0.16967916454963672,-0.12275424228051718,0.8665769175662086,9.252049258732209,0.8915240753556115,-0.1484726810000001,0.003628460499999986,-0.21662889849999978
26182.0,-1.442558215,-0.6977431475,8.8755085825,-0.1150538496207182,-0.08864701803804399,0.843660744487523,9.01900617039252,0.8560719209907691,-0.14955141250000015,0.160436794,-0.24546044949999946
26192.0,-1.7036112380000001,-0.6115426939999999,8.5954306585,-0.06309365245959501,-0.03428873848468059,0.8020939830220261,8.783945805952266,0.8053019832135652,-0.2610530230000001,0.08620045350000005,-0.2800779240000004
26202.0,-1.9238685969999998,-0.503865677,8.6348533915,-0.029518753638980096,0.01607273708161578,0.7416061071356587,8.86091666204352,0.7423673671670917,-0.22025735899999965,0.10767701699999999,0.03942273300000032
26212.0,-2.1105872129999996,-0.6235068069999999,8.8145112195,-0.0303181144363935,0.07815933456281007,0.6587361289217158,9.085094779953913,0.6640492129270593,-0.18671861599999984,-0.11964112999999998,0.17965782799999985
26222.0,-2.2793596595,-0.922805765,9.047909489499999,-0.026321310449326483,0.10107550764149562,0.5702706251258792,9.376124842783256,0.5797565484841175,-0.16877244650000023,-0.29929895800000006,0.23339826999999858
26232.0,-2.4301859365,-1.1239401565,9.2573795335,0.0016563174601426187,0.0768276483435384,0.49912576882683435,9.636810727031028,0.5050066970293619,-0.15082627700000018,-0.2011343915,0.20947004400000147
26242.0,-2.5343325594999997,-1.0807908965,9.3375979305,0.035496506327060674,0.013674654689375572,0.4532934226694633,9.735588610647893,0.4548867168622287,-0.10414662299999966,0.04314926000000008,0.08021839699999944
26252.0,-2.4673531399999997,-0.8605335375,9.1532329105,0.039495055643379684,-0.035620424703952276,0.4386378929404669,9.518929677253132,0.44185051227719097,0.06697941949999997,0.22025735899999999,-0.18436501999999955
26262.0,-2.4421500495,-0.4512039665,8.882667437,-0.022858577213369737,-0.015102334017506934,0.4628857522384241,9.223310830715743,0.46369582127762127,0.025203090499999803,0.40932957099999995,-0.2705654734999996
26272.0,-2.6265150695,-0.0512887795,8.523547914,-0.12944234397415946,0.10480527625300749,0.5271033967363035,8.91919732887814,0.5527906088158,-0.18436502,0.399915187,-0.3591195230000004
26282.0,-2.95572431,-0.009414384,8.280539126999999,-0.2184419185211063,0.2977234997929487,0.6139701789373133,8.792253582621976,0.7164604209029695,-0.3292092405,0.0418743955,-0.24300878700000084
26292.0,-3.441741884,-0.3709855695,8.394296267,-0.26613827631960735,0.48131642913948425,0.7104292907072839,9.080056569594005,0.8984458048078416,-0.4860175739999999,-0.3615711855,0.11375714000000059
26302.0,-3.9529625485,-1.1251169545,8.5966074565,-0.22030593016223624,0.5615230349148836,0.7682520488258561,9.528560270696637,0.9767568951022538,-0.5112206645000001,-0.754131385,0.2023111894999996
26312.0,-4.3001179585,-1.639868013,8.965337496499998,-0.07801621756414652,0.5021015552014847,0.7653216410117575,10.077572028183358,0.9186455878845199,-0.3471554099999996,-0.5147510585000001,0.3687300399999991
26322.0,-4.7777018135,-1.7763765809999998,9.422621586,0.05814738935944308,0.31291310027305536,0.6765891018403658,10.712970919833564,0.7477088604135749,-0.47758385500000067,-0.13650856799999977,0.45728408950000166
26332.0,-4.930979753,-1.8074636615,9.573447862999998,0.25159793832124255,0.039788270957714734,0.5596118993839498,10.919358506694346,0.6148577941324451,-0.15327793949999968,-0.031087080500000086,0.1508262769999984
26342.0,-4.702288674999999,-1.463936712,9.4201699235,0.4669000095180111,-0.16591972534084096,0.444767489273471,10.629874452099076,0.6658401412198922,0.22869107800000066,0.34352694949999996,-0.1532779394999988
26352.0,-4.3778846929999995,-1.0568626705,9.104199660499999,0.6003984986738053,-0.2447928995677167,0.3275232514414999,10.157228192166817,0.7264113167643671,0.32440398199999976,0.40707404150000004,-0.31597026300000053
26362.0,-3.6799454124999995,-0.228494945,9.2226639925,0.6475607857211961,-0.20748823213558987,0.2830243368326525,9.932358194176565,0.7365386024630128,0.6979392805,0.8283677254999999,0.11846433200000028
26372.0,-3.2993493259999997,0.35568719549999994,9.733884656999999,0.44371854639302244,-0.0841161432998667,0.26836880710365607,10.284003591588213,0.52534130867753,0.38059608649999976,0.5841821405,0.5112206644999997
26382.0,-3.014368077,0.25036377449999997,9.906187497500001,0.24840049513158896,0.08029038157949514,0.31366708250991693,10.357685439268945,0.4080887036001885,0.2849812489999999,-0.10532342099999997,0.17230284050000222
26392.0,-3.0778171025,0.347351543,9.7649717375,0.14554649698231112,0.2345722514680379,0.3810821701974499,10.244426984709284,0.4705651329890523,-0.0634490255000002,0.09698776850000002,-0.14121576000000147
26402.0,-3.420167254,0.35568719549999994,9.702699509999999,0.06800500897470706,0.30678350394005127,0.44210237150567566,10.293999961517912,0.542397738220144,-0.3423501514999998,0.008335652499999957,-0.062272227500001165
26412.0,-3.5902145649999997,0.070804013,9.7171152855,0.031234412293690523,0.2979905351685038,0.4929961724938303,10.35939106814164,0.5769048220069841,-0.1700473109999998,-0.28488318249999994,0.014415775500001615
26422.0,-3.509996168,-0.3290131075,9.733884656999999,0.04588994202268691,0.25402394598151473,0.4996580942486926,10.352624461462005,0.5623986691476968,0.08021839699999989,-0.3998171205,0.016769371499998798
26432.0,-3.385451713,-0.5218118465,9.702699509999999,0.10637607257980239,0.2004650272255647,0.45356045804501843,10.289603912957807,0.5071678075943471,0.12454445499999967,-0.192798739,-0.031185147000000413
26442.0,-3.3495593739999996,-0.333818366,9.6608251145,0.18178476824146939,0.1405112220903075,0.38667769577934374,10.230470399467666,0.4497874452573562,0.03589233900000055,0.18799348050000003,-0.04187439549999894
26452.0,-3.1651943539999996,-0.015396440499999999,9.758989681,0.22495199663104515,0.08322253472284562,0.33178709080412205,10.259462556237438,0.40940452452098247,0.18436502,0.3184219255,0.0981645664999995
26462.0,-2.95572431,0.21564823349999998,9.97924704,0.220688157268423,0.06083868706601834,0.2976798665616489,10.410003930963976,0.37552351665190054,0.2094700439999997,0.23104467399999998,0.22025735900000143
26472.0,-2.861188204,0.39873838899999997,10.1384089695,0.1855162821822333,0.03845658473844305,0.28169265061338084,10.541950800227117,0.3394789378946142,0.09453610600000006,0.1830901555,0.15916192949999974
26482.0,-2.7378205469999997,0.441887649,10.043872863499999,0.12289735927918072,0.012075933094548765,0.288087536992688,10.419707680163864,0.31343901806956553,0.12336765700000019,0.04314926000000002,-0.0945361060000014
26492.0,-2.5188380525,0.24555851599999998,9.758989681,0.0333654593103756,0.030195941388753894,0.3139341178854721,10.081801610494356,0.317142994757688,0.21898249449999962,-0.19632913300000002,-0.2848831824999998
26502.0,-2.3212340549999997,-0.046581587499999993,9.475283296499999,-0.04390899332167334,0.10906911561562964,0.3323194162259803,9.755577426852685,0.35250569651634667,0.19760399750000035,-0.29214010349999997,-0.2837063845000003
26512.0,-2.189628812,-0.297926027,9.3124929065,-0.08680918633569396,0.22977608668355748,0.337649651761571,9.571089717765545,0.4175406233872162,0.13160524299999965,-0.25134443949999996,-0.16279038999999962
26522.0,-2.133338641,-0.426000876,9.306510849999999,-0.08627686091383568,0.3304990378161502,0.3352515693693308,9.557392672936704,0.4786093662802115,0.05629017100000011,-0.128074849,-0.00598205650000061
26532.0,-2.0710664134999996,-0.3829496825,9.500388320499999,-0.05323428751507905,0.37872946636576155,0.3293890084118818,9.731050549079857,0.5047445065808001,0.06227222750000028,0.04305119349999997,0.19387747050000037
26542.0,-2.0303688159999997,-0.36735710899999996,9.723097341999999,-0.009801769079200155,0.3619411442908281,0.33018836920929523,9.939616224810973,0.4900222706864759,0.040697597499999905,0.01559257350000004,0.22270902150000005
26552.0,-1.7790243764999998,-0.32303105099999996,9.9493367575,0.03656290250002921,0.2881311702239879,0.34191174579494116,10.112298388904076,0.44862017231330087,0.25134443949999996,0.044326058,0.22623941550000026
26562.0,-1.5503332985,-0.2799798575,10.219902231,0.06480756578505345,0.2073939843559822,0.37681833083482774,10.340615246117729,0.43497625197610396,0.22869107799999977,0.04305119349999997,0.2705654735000014
26572.0,-1.5814203789999999,-0.1542586045,10.341995023499999,0.08719141344188072,0.11306591960269666,0.43650684592378186,10.463343022107109,0.45926514269202345,-0.031087080499999864,0.12572125299999998,0.12209279249999838
26582.0,-1.5994646149999998,-0.138666031,10.324048853999999,0.10451031560942046,0.0038170350741115987,0.5057859452524447,10.448133807650487,0.5164846544094477,-0.018044235999999936,0.015592573500000012,-0.017946169500000053
26592.0,-1.6281980995,-0.144746154,10.2282378835,0.11250566891280649,-0.06732956655418525,0.5606782955569184,10.358032182889653,0.5758046085075246,-0.02873348450000024,-0.006080122999999993,-0.09581097049999876
