timestamp,ax,ay,az,gx,gy,gz,acc_mag,gyro_mag,dax,day,daz
48932.0,0.22947561,-1.4785486204999998,10.5475424075,-0.11543782205615695,-0.43190092202776875,0.7312563046713322,10.653141129112026,0.8570881403514331,0.0,0.0,0.0
48942.0,0.21751149699999997,-1.6737009554999998,10.624132344,-0.02883807523070231,-0.7593822855672208,0.6830276214509728,10.757359071937486,1.0217728817507739,-0.011964113000000026,-0.19515233499999995,0.07658993649999957
48952.0,0.38991240399999993,-1.665365303,10.565488577,0.054031902983240454,-1.1231036656950832,0.6102822982278492,10.703037986756229,1.2793458382970528,0.17240090699999996,0.00833565249999979,-0.058643766999999514
48962.0,0.7095111274999999,-1.2978120610000001,10.263836023,0.10146297073543835,-1.4036897775626995,0.5442006420888399,10.369862684373205,1.5089049224236717,0.31959872349999996,0.36755324199999984,-0.30165255400000035
48972.0,0.9046634625,-0.663321806,9.7718363925,0.07188487590189044,-1.4892231282151855,0.5239495867779497,9.836015366015092,1.5803405109277042,0.19515233500000007,0.6344902550000001,-0.4919996305000005
48982.0,0.9777230049999999,-0.37245656699999996,9.221192995,-0.022708478897698222,-1.4066201853767981,0.5708465837790373,9.280359175152904,1.5182100787228041,0.07305954249999991,0.29086523900000005,-0.5506433975
48992.0,0.9752713424999999,-0.48376204449999993,8.82010101,-0.1010493277027157,-1.2629970412301847,0.6451888832677358,8.88703334830041,1.4218442910099682,-0.0024516624999999515,-0.11130547749999997,-0.401091984999999
49002.0,0.912999115,-0.7555043159999999,8.5328642315,-0.09545380212082188,-1.1350940776562843,0.7006135589940679,8.614762106332217,1.337314231030249,-0.062272227499999944,-0.27174227149999997,-0.2872367785000005
49012.0,0.8136577505,-0.975761675,8.3963556635,-0.016313592518391,-1.015985828183183,0.7352531086583992,8.491933714374838,1.2542290341726923,-0.09934136449999997,-0.2202573590000001,-0.136508568
49022.0,0.5335798265,-1.0033183614999999,8.415478631,0.08947255877423732,-0.8795569312132904,0.7579022463615296,8.491857026268661,1.1644919703711154,-0.280077924,-0.027556686499999872,0.019122967499999532
49032.0,0.148080415,-0.9230999645,8.502855882499999,0.18299951740085743,-0.7492576305764017,0.7696273682764276,8.554098404410093,1.0895880443296035,-0.3854994115,0.08021839699999989,0.08737725149999953
49042.0,-0.14759008249999997,-0.8069892285,8.7315469605,0.24775123264984708,-0.6325457181662888,0.7754899292338765,8.770001526270343,1.030960420769482,-0.29567049749999996,0.11611073599999999,0.22869107800000066
49052.0,-0.31038047249999995,-0.5639804414999999,9.048792087999999,0.26240501704959146,-0.5126381078957745,0.7701596936982857,9.071661822839035,0.9616653141489472,-0.16279038999999998,0.24300878700000006,0.31724512749999967
49062.0,-0.6108562285,-0.2419300555,9.322887955499999,0.21124592601513367,-0.39672730161232705,0.7733588822171914,9.346010663082854,0.8944838477059345,-0.30047575600000004,0.3220503859999999,0.2740958674999998
49072.0,-0.8850501624999999,-0.043247326499999995,9.444980747999999,0.12251338684374195,-0.3183864528073096,0.7941422629499398,9.48645589519507,0.8643155656879014,-0.2741939339999999,0.198682729,0.12209279250000016
49082.0,-1.0849096894999999,0.033342609999999995,9.5168634925,0.04683765580651983,-0.2693584087895369,0.8093301181007946,9.57856103487846,0.854261645195503,-0.19985952699999998,0.07658993649999998,0.07188274450000165
49092.0,-1.3697928719999999,0.101596894,9.5862945745,0.022322761133007473,-0.22406013338327604,0.8154597144337986,9.684198372097743,0.8459762377873182,-0.2848831825,0.068254284,0.06943108199999948
49102.0,-1.6415351435,0.1434712895,9.649743599999999,0.03724532623755899,-0.1990129132879054,0.8189224476697554,9.789421493836972,0.8435800669049174,-0.2717422715000002,0.041874395499999995,0.06344902549999887
49112.0,-1.819918107,0.2129023715,9.733492390999999,0.05802870697030747,-0.19421500317417303,0.826116694846476,9.904458766718738,0.85062070971418,-0.17838296349999982,0.069431082,0.08374879099999966
49122.0,-1.947992956,0.308713342,9.8065519335,0.06548998952258323,-0.19101755998451939,0.8383741421832321,10.002921638630736,0.862350189442536,-0.1280748490000001,0.09581097050000001,0.07305954250000113
49132.0,-2.052139579,0.426000876,9.798118214499999,0.05536533453176412,-0.1784948226014601,0.8575605466504058,10.019774156305505,0.8776877651731757,-0.10414662299999988,0.11728753399999997,-0.008433719000001005
49142.0,-2.1946302034999996,0.37932122199999996,9.7849773035,0.02898468288786983,-0.14891672776791218,0.9001937042888714,10.035241260158331,0.9128882784287093,-0.14249062449999972,-0.046679654000000015,-0.013140910999998923
49152.0,-2.3813488195,0.238105462,9.872354555,0.009265952998837897,-0.11480950352543899,0.9444273288514156,10.158292222160057,0.9514252779205282,-0.18671861600000028,-0.14121575999999997,0.08737725149999953
49162.0,-2.6806477774999995,-0.18446308649999998,9.9118753545,-0.0011257373675363426,-0.10148740534496628,0.9249756343379388,10.269623760413099,0.93052720801014,-0.2992989579999996,-0.4225685485,0.03952079949999998
49172.0,-2.7740070855,-0.277920461,9.9083449605,0.00020769418098732522,-0.08016995386110753,0.901527135837395,10.293087726688837,0.9050847702232878,-0.09335930800000058,-0.09345737450000002,-0.0035303940000002143
49182.0,-2.906887193,-0.408348906,9.895105983,0.01726130630222392,-0.05592209456315031,0.8474341463303348,10.32133055359924,0.8494526859821048,-0.13288010750000012,-0.130428445,-0.013238977499998583
49192.0,-3.0015213655,-0.5316184964999999,9.977677975999999,0.05190085596655538,-0.025279348885885868,0.7936099375280816,10.432919367374089,0.7957069041258101,-0.09463417249999972,-0.12326959049999991,0.0825719929999984
49202.0,-3.1128268429999997,-0.5400522154999999,10.122620262999998,0.09506808435613114,0.0072291537617605135,0.7339214224391276,10.604187302139941,0.7400884106931603,-0.11130547749999975,-0.008433719000000006,0.14494228699999923
49212.0,-3.310332774,-0.47895678599999997,10.320126193999998,0.1406333951379471,0.03600788779789501,0.6702378486923585,10.848626979372039,0.6857791872253434,-0.19750593100000025,0.061095429499999965,0.19750593100000025
49782.0,1.2338727029999998,-1.0943240735,10.342877622,0.2248350595711615,0.2867488694564084,-0.7321551492361092,10.47354307427618,0.8178183665703807,4.544205477,-0.6153672875,0.022751428000001184
49792.0,1.650459195,-1.0248929915,10.564311779,0.15901869347845538,0.3011373638098497,-0.7073732191870418,10.741466592709955,0.7850780394209096,0.4165864920000002,0.06943108199999992,0.2214341570000009
49802.0,1.6013278784999998,-0.7734504855,10.717491652,0.09320232738574918,0.3062005639698852,-0.6647400615485762,10.86402797946835,0.7377837139929297,-0.049131316500000244,0.25144250600000007,0.15317987299999913
49812.0,1.625354171,-0.719611977,10.9078387285,0.030316369107141507,0.2521093197920769,-0.6071843388055592,11.051722187315127,0.6581420915369327,0.0240262925000001,0.05383850849999994,0.19034707650000016
49822.0,1.7725519874999998,-0.616642152,11.003649699,-0.010451031560942046,0.15431677647358263,-0.5397692511180263,11.162548758698266,0.561492418483456,0.14719781649999986,0.10296982499999996,0.09581097050000054
49832.0,2.022719629,-0.54721107,11.049152555,-0.02164382805398168,0.06558598263144291,-0.4643605554563593,11.246092958727287,0.4694685312928874,0.25016764150000026,0.06943108200000003,0.045502855999998815
49842.0,2.2705336745,-0.4455161095,11.010808553499999,-0.006188937527571893,0.007496189137315645,-0.3631052789019083,11.251298270541549,0.36323537735982603,0.2478140455000002,0.10169496050000004,-0.0383440015000005
49852.0,2.392626467,-0.31018433949999996,10.9760930125,0.026319565120074488,-0.018617427131023514,-0.2495908096814491,11.238126781368472,0.2516642612262022,0.12209279249999971,0.13533177000000002,-0.03471554099999885
49862.0,2.471668066,-0.24555851599999998,11.0192422725,0.058562777721417734,-0.026343999729602413,-0.13901023893359235,11.295713446848554,0.1531256078667964,0.07904159899999996,0.06462582349999998,0.043149259999999856
49872.0,2.434598929,-0.27429200049999997,11.118583636999999,0.07827976228119768,-0.019682077974740052,-0.03828728780099961,11.38531554852962,0.08933656464942638,-0.03706913700000003,-0.02873348449999999,0.09934136449999897
49882.0,2.4477398399999997,-0.370102971,11.193996775499999,0.08733976642830024,-0.027410395902570946,0.028595474464675096,11.464465549835746,0.09590237621219615,0.01314091099999981,-0.09581097050000004,0.07541313850000009
49892.0,2.4190063554999996,-0.4035436475,11.2526405425,0.08574104483347345,-0.042865286428980735,0.07176270285425085,11.5167859406217,0.1197449166800903,-0.028733484500000017,-0.03344067649999999,0.05864376700000129
49902.0,2.4082190405,-0.280274057,11.3220716245,0.06415830330331156,-0.05805314157983539,0.1141305704464132,11.578746839117006,0.14322095601018664,-0.01078731499999952,0.12326959049999997,0.06943108199999948
49912.0,2.3711499035,-0.16534011899999998,11.304125455,0.005536184387326013,-0.06498209871025287,0.17568309717649722,11.551317739643297,0.1873976337200822,-0.03706913700000003,0.11493393800000004,-0.017946169500000053
49922.0,2.37713196,-0.0887501825,11.305302252999999,-0.06161186792465183,-0.06604674955396941,0.25881836543674314,11.552856442535504,0.2741261419185646,0.005982056499999722,0.07658993649999998,0.0011767979999994793
49932.0,2.28494945,-0.143765489,11.3101075115,-0.1010493277027157,-0.07803890684442247,0.36247346971268635,11.539505813793388,0.38430203467610863,-0.09218250999999977,-0.0550153065,0.0048052585000011305
49942.0,2.1771743665,-0.2276123465,11.304125455,-0.10051525695160543,-0.12253782145326989,0.46506043248640905,11.514128186919011,0.49132478100641996,-0.10777508349999998,-0.08384685750000001,-0.00598205650000061
49952.0,2.0622404285,-0.2635046855,11.302948656999998,-0.07333698983954974,-0.2032750073212756,0.5553916932526276,11.492559273155758,0.5959521588300621,-0.11493393800000007,-0.035892338999999995,-0.0011767980000012557
49962.0,1.8815038689999999,-0.1952504015,11.2179250015,-0.04322656958414356,-0.2978701074501163,0.6422584754536372,11.3762920526693,0.7092891416921501,-0.18073655950000012,0.068254284,-0.0850236554999988
49972.0,1.6947852529999998,-0.11630686900000001,11.154475975999999,-0.030169761449973978,-0.3711460107658462,0.738717587223608,11.283091714628751,0.8272625033729131,-0.18671861600000006,0.0789435325,-0.06344902550000064
49982.0,1.4708994335,-0.1126784085,11.0551346115,-0.04082848719190335,-0.41005114512205176,0.8413062953265826,11.153127043372095,0.9368058440992052,-0.22388581949999975,0.0036284605000000136,-0.09934136449999897
49992.0,1.1596363625,-0.2168250315,10.9653056975,-0.07840018999958528,-0.4220415570832528,0.9428286072565888,11.02858552250211,1.0359495394847311,-0.31126307100000017,-0.104146623,-0.08982891399999993
50002.0,0.8711247195,-0.41795942299999994,10.825266735499998,-0.13622120278890543,-0.4196434746910126,1.016903871369732,10.868300154620373,1.1084901197334829,-0.2885116429999999,-0.20113439149999995,-0.140038962000002
50012.0,0.6018341105,-0.7363813485,10.7330842255,-0.18764907452817034,-0.42577132569476467,1.0496794093929338,10.775136137360724,1.1481812833601908,-0.269290609,-0.3184219255000001,-0.09218250999999711
50022.0,0.32165812,-1.034405442,10.660024683,-0.22362205574102548,-0.45401598897978895,1.0475483623762485,10.714923462478414,1.1633980030841973,-0.2801759905,-0.2980240934999999,-0.07305954250000113
50032.0,0.10738281749999999,-1.2690785764999999,10.640901715499998,-0.22628542817956881,-0.5139715394442982,1.0121077065852517,10.71685032188825,1.1574687244562638,-0.2142753025,-0.23467313449999994,-0.01912296750000131
50042.0,-0.106892485,-1.3840125145,10.624132344,-0.20257163963272187,-0.6152268159987491,0.95721710161003,10.714434409079605,1.1557698230712525,-0.2142753025,-0.11493393800000007,-0.016769371499998798
50052.0,-0.211039108,-1.3169350284999999,10.509198406,-0.171127787828792,-0.7447267558382245,0.9012601004618398,10.59349359328964,1.1815974057660197,-0.10414662300000001,0.06707748600000007,-0.11493393800000007
50062.0,-0.16671305,-1.1900369775,10.286587450999999,-0.15887208582128784,-0.8555761072908883,0.8586251974941224,10.35653719328658,1.222492554084505,0.044326058,0.12689805099999996,-0.2226109550000004
50072.0,-0.062566427,-0.9697796185,9.953749749999998,-0.17912314113217803,-0.9000750218997358,0.8405069345291692,10.001075999704762,1.2444565286616038,0.10414662300000001,0.22025735899999987,-0.33283770100000076
50082.0,0.021182364,-0.7639380349999999,9.546773775,-0.23294734993443117,-0.8641020406868806,0.8492999033007166,9.577313794843105,1.2337937956997969,0.08374879099999999,0.20584158350000015,-0.40697597499999816
50092.0,0.05354430899999999,-0.7136299205,9.1840257915,-0.28544161784666466,-0.7615150779131579,0.8687515978141934,9.211865413443485,1.1900048192308796,0.03236194499999999,0.050308114499999945,-0.36274798350000026
50102.0,-0.0410898635,-0.6945069529999999,8.957786376,-0.30409395156272806,-0.6226880985510249,0.8807420097753945,8.984762937479152,1.1206784049125453,-0.09463417249999999,0.019122967500000088,-0.22623941550000026
50112.0,-0.32116778749999997,-0.742363405,8.937486610499999,-0.2883720256607631,-0.5009147313101285,0.8690186331897486,8.97401354387643,1.0436797296384408,-0.280077924,-0.047856452000000105,-0.020299765500000788
50122.0,-0.6252720039999999,-0.7363813485,9.0069176925,-0.2534654406208765,-0.4329655728714853,0.8215875654375507,9.058575433746432,0.962657802421333,-0.30410421649999997,0.005982056499999944,0.06943108200000125
50132.0,-0.870634387,-0.614288556,9.103807394499999,-0.2060343728686786,-0.40978410974649665,0.7480446267462657,9.165951327713467,0.8774644967222768,-0.24536238300000002,0.12209279250000005,0.09688970199999858
50142.0,-0.960463301,-0.37843862349999996,9.1397978,-0.17352587022103222,-0.4033892233671894,0.6904889040032487,9.197913316030393,0.8182964131146845,-0.08982891400000004,0.23584993250000003,0.03599040550000154
50152.0,-1.0023376965,-0.039618866,9.094294944,-0.18445163133851675,-0.39113177603043325,0.6721018603334884,9.1494508600698,0.7992042174487677,-0.04187439549999994,0.33881975749999993,-0.04550285600000059
50162.0,-1.078927633,0.19858466249999998,8.908753126,-0.23801055009446673,-0.34183669663710536,0.6950180334121738,8.976046065247548,0.8102786038716341,-0.07658993650000001,0.23820352849999998,-0.18554181799999903
50172.0,-1.2991849919999998,0.2129023715,8.79264239,-0.3054256377819997,-0.255769275233509,0.7443131128055018,8.890656289703998,0.8442184268672601,-0.22025735899999987,0.014317709000000012,-0.11611073600000132
50182.0,-1.7026305729999998,0.0512887795,8.804606502999999,-0.3336703010670239,-0.1776954618040467,0.7976067415151487,8.967869149340148,0.882659651887592,-0.40344558099999994,-0.161613592,0.011964112999999443
50192.0,-2.2509203745,-0.24320491999999996,9.014076547,-0.290237782631145,-0.14811736697049876,0.8274501263949996,9.294050094583463,0.8892977209776364,-0.5482898015000004,-0.2944936995,0.20947004400000147
