timestamp,ax,ay,az,gx,gy,gz,acc_mag,gyro_mag,dax,day,daz
19912.0,0.2766455965,-0.324011716,9.856075515999999,0.10099871315440787,0.02172062254106943,0.04335921460729513,9.865279568023542,0.11203814972490152,0.0,0.0,0.0
19922.0,-0.016671304999999997,-0.19230840649999997,9.7686982645,0.06822317513120635,0.02065597169735289,0.050553461784015756,9.770605213520106,0.08738834756472419,-0.2933169015,0.13170330950000003,-0.08737725149999953
19932.0,0.142588691,-0.333622233,9.640623415499999,0.04637339822548934,-0.003326597554301192,0.05774770896073638,9.647448116918788,0.07413741433636604,0.159259996,-0.14131382650000002,-0.12807484900000077
19942.0,0.166516917,-0.41619422599999994,9.517353824999999,0.056499798545560434,0.030780626688171997,0.06734003852969721,9.52790477217552,0.09313621746767808,0.023928225999999997,-0.08257199299999995,-0.12326959049999964
19952.0,0.11738560049999999,-0.39707125849999997,9.439489023999998,0.08900830119320682,0.06435552550878691,0.08146324283683534,9.448565922813259,0.13674930083296935,-0.049131316499999994,0.019122967499999977,-0.07786480100000048
19962.0,0.085121722,-0.32283491799999997,9.404773483,0.12231616463826661,0.1045906007550122,0.10144726277217041,9.410697761503993,0.19024191184404055,-0.032263878499999996,0.0742363405,-0.03471554099999885
19972.0,0.0193191005,-0.277332062,9.499407655499999,0.14736338473363725,0.1296378208503828,0.12383111042899768,9.503474738516923,0.23206911829252197,-0.06580262149999999,0.04550285599999998,0.09463417249999928
19982.0,0.0132389775,-0.289296175,9.655039190999998,0.16708211462266917,0.13177061319631989,0.15580554232553379,9.65938141534647,0.2637333777667715,-0.006080122999999998,-0.011964112999999998,0.15563153549999953
19992.0,-0.100420096,-0.11934693049999999,9.707700901499999,0.18706613455800422,0.11658275804546524,0.17552427221456574,9.708953840578516,0.2817694949926514,-0.1136590735,0.16994924449999999,0.05266171050000068
20002.0,-0.1411176935,-0.116895268,9.8489166615,0.19186229934248467,0.06941872566882246,0.18245148401573122,9.850621204384618,0.2737127059564664,-0.0406975975,0.002451662499999993,0.14121576000000147
20012.0,-0.13033037849999998,-0.06187996149999999,9.9877788255,0.18653380913614595,0.01239532834766373,0.18618299795649512,9.988820801491103,0.26384202630315506,0.01078731500000002,0.05501530650000001,0.13886216399999896
20022.0,-0.05138684599999999,0.0063743225,10.060838367999999,0.17534101264310634,-0.04782551216314862,0.1909791627409755,10.060971618434774,0.263637612888642,0.0789435325,0.06825428399999998,0.07305954249999935
20032.0,0.0312832135,0.11532620399999999,10.0919254485,0.15828740052186974,-0.09312378756940945,0.20350364545328684,10.092632859212598,0.2741179940974696,0.08267005949999999,0.10895188149999999,0.031087080500000752
20042.0,0.08031646349999999,0.148864947,10.136251506499999,0.1300427372368455,-0.12110316080813054,0.22135661837193682,10.137662753799711,0.28385884091010877,0.049033249999999994,0.03353874300000001,0.044326057999999335
20052.0,0.1150320045,0.14759008249999997,10.107518021999999,0.09327039522657697,-0.13202717659636307,0.2445380814969255,10.109250009746837,0.29313719533339005,0.034715541000000016,-0.001274864500000028,-0.028733484500000017
20062.0,0.0695291485,0.07698220249999999,10.026122827,0.054634041575178496,-0.13122781579894965,0.26345745058854403,10.02665943891999,0.29935839124503677,-0.04550285600000001,-0.07060787999999998,-0.08139519499999892
20072.0,0.006080123,-0.035500073,9.941099171500001,0.03145257845018981,-0.1245658940440873,0.27598018797160334,9.941164416740964,0.30441910387327803,-0.0634490255,-0.11248227549999998,-0.0850236554999988
20082.0,-0.0956148375,-0.1205237285,9.859703976499999,0.029586821479807877,-0.12190252160554395,0.2802440273342255,9.8609041507608,0.30703797751348977,-0.10169496049999999,-0.08502365549999999,-0.08139519500000247
20092.0,-0.14356935599999998,-0.18995481049999996,9.698090384499999,0.04344299041139086,-0.12403356862222903,0.27891234111495383,9.70101294174715,0.3083240399113792,-0.04795451849999999,-0.06943108199999996,-0.16161359200000014
20102.0,-0.1507282105,-0.265367949,9.585608108999999,0.06982189672603314,-0.1184380430403352,0.2714510585626781,9.590465158746134,0.3042833293107653,-0.007158854500000006,-0.07541313850000003,-0.11248227549999967
20112.0,-0.14356935599999998,-0.286942579,9.535299994499999,0.10019935235699445,-0.09498954453979139,0.26718721920005595,9.540696734973663,0.3007522799389838,0.007158854500000006,-0.021574629999999984,-0.050308114499999945
20122.0,-0.193779404,-0.3048887485,9.540105253,0.12871105101757382,-0.06754424205218056,0.25999297202333527,9.546942748581595,0.29786759607244767,-0.05021004800000001,-0.017946169499999998,0.0048052585000011305
20132.0,-0.24408751849999996,-0.35872725699999997,9.6059078745,0.14949443175032232,-0.04889190833611715,0.2512000032517879,9.615702265304565,0.2963788883486766,-0.05030811449999997,-0.05383850849999999,0.0658026214999996
20142.0,-0.29321883499999996,-0.38510714549999997,9.643075077999999,0.16148484371152333,-0.047026151365735215,0.2389425559150317,9.65521526216058,0.29220259870168197,-0.049131316499999994,-0.026379888500000004,0.037167203499999246
20152.0,-0.29076717249999995,-0.35039160449999995,9.645428674,0.16414996147931868,-0.06434679886252694,0.22775150475124406,9.656169744278998,0.2880216455302835,0.002451662500000007,0.034715541000000016,0.002353596000000735
20162.0,-0.30155448749999997,-0.301260288,9.678967416999999,0.16788147542008255,-0.08406378342230687,0.23068191256534254,9.688348834007003,0.29743075539913594,-0.01078731500000002,0.049131316499999966,0.03353874299999937
20172.0,-0.28713871199999996,-0.23781126249999998,9.747221700999999,0.17800613041090166,-0.10857867809581924,0.24720319926472087,9.754349477281721,0.3233959392565277,0.014415775500000005,0.0634490255,0.068254284
20182.0,-0.272821003,-0.10738281749999999,9.838129346499999,0.19639142875140994,-0.13522461978601666,0.27864530573939866,9.842497214001977,0.3667403679633534,0.014317708999999956,0.130428445,0.09090764549999975
20192.0,-0.3266595115,-0.0163771055,9.926781462500001,0.20758422524444958,-0.15680910664543055,0.317016369344494,9.932168184755614,0.41009716522995016,-0.05383850849999999,0.09100571199999999,0.08865211600000222
20202.0,-0.354216198,-0.03667687099999999,10.05966157,0.20864887608816612,-0.173595683391112,0.3463274288024868,10.065962706603218,0.44001420741360575,-0.027556686499999983,-0.020299765499999994,0.13288010749999835
20212.0,-0.38530327849999996,-0.0499158485,10.132623045999999,0.19878951114365012,-0.17652609120521048,0.35938249160740443,10.14006903332934,0.4470285291688527,-0.031087080499999975,-0.013238977500000006,0.07296147599999969
20222.0,-0.446398708,-0.0403053315,10.1733206435,0.17614037344051975,-0.17226399717184032,0.35512039757403424,10.183189541676747,0.43221616426335296,-0.06109542950000002,0.009610516999999999,0.04069759750000124
20232.0,-0.41531162749999995,-0.031969678999999994,10.160179732499998,0.1486950709529089,-0.1650680046658677,0.33380294609017547,10.168714668286047,0.4009764046780585,0.03108708050000003,0.008335652500000006,-0.013140911000002475
20242.0,-0.3829496825,-0.0055897905,10.202054127999999,0.12604593324977847,-0.1586731182865605,0.2959659532361904,10.209240428931356,0.35869287870070027,0.03236194499999995,0.026379888499999993,0.041874395500000716
20252.0,-0.2321234055,0.0027458619999999995,10.190090015,0.10899232112854189,-0.1602718398813873,0.2546627364877446,10.192733849607853,0.32003046429891435,0.150826277,0.008335652499999999,-0.011964112999999443
20262.0,-0.062174161,0.0399130655,10.160179732499998,0.09113934820989189,-0.16160527142991096,0.2258857477808621,10.160448359978874,0.29231321488529793,0.16994924449999999,0.037167203499999996,-0.029910282500001273
20272.0,0.1628884565,0.1691647125,10.035635277499999,0.0679578850849032,-0.16453567924400941,0.22242126921565336,10.038382577498162,0.28488854818859005,0.2250626175,0.12925164700000003,-0.12454445499999878
20282.0,0.33175896949999995,0.2721345375,9.921976204,0.046640433601044466,-0.15734143206728882,0.2482678501084374,9.931250324762047,0.2976047407030746,0.16887051299999994,0.10296982499999999,-0.11365907349999915
20292.0,0.41070250199999997,0.358334991,9.823811637499999,0.03704810403208363,-0.1488154986712965,0.29862932567473377,9.838920448911274,0.33570536011524293,0.07894353250000002,0.0862004535,-0.09816456650000127
20302.0,0.39275633249999997,0.39305053199999995,9.8118475245,0.04690746897659961,-0.14961485946870992,0.35751847996627445,9.827568269997471,0.39039003616515094,-0.017946169499999998,0.03471554099999996,-0.011964112999999443
20312.0,0.3209716545,0.32361945,9.8345989525,0.08261341481389958,-0.17332864801555686,0.41187675951963787,9.84515560607982,0.4544340013274885,-0.07178467799999999,-0.06943108199999998,0.022751428000001184
20322.0,0.21917862749999997,0.23261373800000001,9.887260662999998,0.12338081548198315,-0.2101009900258254,0.44651630918396934,9.892424972673094,0.5086669499840788,-0.10179302700000001,-0.09100571199999996,0.05266171049999713
20332.0,0.13297817399999998,0.162005858,9.927958260499999,0.1526918749399759,-0.24367588884644031,0.4545099171581033,9.930170407148955,0.5378401363535952,-0.0862004535,-0.07060788000000001,0.04069759750000124
20342.0,0.111403544,0.148864947,9.9399223735,0.15775507510001147,-0.25806438319988156,0.44518462296469763,9.94166124514746,0.5382130044140196,-0.021574629999999984,-0.013140911000000005,0.01196411300000122
20352.0,0.1497475455,0.141608026,9.902755169999999,0.1438989061684285,-0.25779734782432645,0.4209367636667404,9.904899652059711,0.5141537967845382,0.0383440015,-0.0072569209999999995,-0.03716720350000102
20362.0,0.222807088,0.15004174499999998,9.864509235,0.11991808224602639,-0.2372810024671331,0.3990869867610234,9.868165886886274,0.4795341943838475,0.07305954249999999,0.008433718999999978,-0.038245934999999065
20372.0,0.284981249,0.23261373800000001,9.7879192985,0.09833359538661253,-0.20850226843099862,0.38869355106539716,9.794829639015509,0.4519130099503208,0.062174161000000006,0.08257199300000004,-0.07658993649999957
20382.0,0.3209716545,0.29723956149999997,9.7686982645,0.08714254422282487,-0.18398737375748625,0.3977535552124997,9.77848863284907,0.446825544703956,0.03599040549999999,0.06462582349999996,-0.01922103400000097
20392.0,0.31616639599999996,0.382263217,9.772326725,0.08740957959838001,-0.16373631844659603,0.4228007753078703,9.784909604957013,0.4617472384161565,-0.00480525850000002,0.08502365550000002,0.003628460499999875
20402.0,0.2646814835,0.41462516199999994,9.797431749,0.09193870900730529,-0.1480143925446311,0.45824143109886717,9.809772636966898,0.49025115582711676,-0.05148491249999998,0.03236194499999995,0.025105024000000142
20412.0,0.20005566,0.3547065305,9.829793694,0.09646958374548258,-0.14668270632535943,0.4976771455476791,9.838225605081414,0.5277354812057307,-0.06462582349999998,-0.05991863149999993,0.03236194499999989
20422.0,0.0887501825,0.20034985949999998,9.8489166615,0.10392912096850634,-0.15521038505060372,0.5264558795838136,9.851354021974227,0.5586119574098015,-0.1113054775,-0.15435667100000003,0.01912296750000131
20432.0,-0.05374044199999999,0.0518771785,9.886083865,0.11618656830526251,-0.1807899305678326,0.5387133269205697,9.886366039276961,0.5799968674493887,-0.1424906245,-0.14847268099999997,0.037167203499999246
20442.0,-0.1638691215,-0.03912853349999999,9.854898718,0.13217552958278259,-0.2178275626244043,0.5333830913849791,9.856338715423343,0.5911148279605027,-0.11012867949999999,-0.09100571199999999,-0.031185147000000413
20452.0,-0.182992089,-0.04873905049999999,9.823811637499999,0.14123378840063314,-0.2466062966605388,0.5179282008585693,9.825636706532592,0.5907717577738588,-0.019122967500000004,-0.009610516999999999,-0.031087080500000752
20462.0,-0.17465643649999998,0.001569064,9.791449692499999,0.14123378840063314,-0.2527341476642909,0.5003422633154744,9.793007424358006,0.578069124621997,0.008335652500000013,0.050308114499999994,-0.03236194499999989
20472.0,-0.16985117799999996,0.082964259,9.748398499,0.13324018042649913,-0.23248309235340067,0.4859537689620332,9.750231063223316,0.554934590270503,0.00480525850000002,0.081395195,-0.04305119349999842
20482.0,-0.171027976,0.118856598,9.7543805555,0.12018337229232953,-0.19731121726721093,0.4752950432201038,9.756603788254356,0.5284705645015865,-0.0011767980000000344,0.035892338999999995,0.0059820564999988335
20492.0,-0.12562318649999998,0.1691647125,9.759185814,0.10872528575298676,-0.1562750358943203,0.4673014352459698,9.761460220536703,0.5045926138864728,0.045404789500000015,0.050308114500000015,0.0048052585000011305
20502.0,-0.1160126695,0.20986230999999997,9.785467635999998,0.1004663877325496,-0.11950443921330374,0.4601054427399972,9.788405282978758,0.48587223062723195,0.009610516999999985,0.04069759749999996,0.026281821999997845
20512.0,-0.077668668,0.2697809415,9.8153779185,0.09540318757251404,-0.08992634437975584,0.45078014854659143,9.819391929308194,0.46945847306890715,0.0383440015,0.059918631500000014,0.029910282500001273
20522.0,-0.0801203305,0.315185731,9.8728448875,0.09513615219695891,-0.0702076144907239,0.44038845818021716,9.878199607469993,0.4559846386509856,-0.002451662500000007,0.04540478950000004,0.057466969000000034
20532.0,-0.06688135299999999,0.41217349949999993,9.945904429999999,0.10259743474923468,-0.06727720667662541,0.43665694423945334,9.95466599338033,0.45356558854025725,0.013238977500000013,0.0969877684999999,0.07305954249999935
20542.0,-0.023830159499999996,0.49356869449999996,10.039263737999999,0.11965104687047126,-0.09179210135013777,0.4387897365853904,10.05141752857844,0.463981245116815,0.043051193499999994,0.08139519500000003,0.09335930800000014
20552.0,0.037265269999999996,0.4983739529999999,10.119482135,0.13883570600839293,-0.13229421197191818,0.4483820661543512,10.131815433472976,0.487671599575949,0.06109542949999999,0.004805258499999965,0.08021839700000122
20562.0,0.1007142955,0.5594693824999999,10.174497441499998,0.15375827111294443,-0.17706016195632074,0.4635699213052059,10.190365427518437,0.5195084011125856,0.0634490255,0.061095429499999965,0.05501530649999786
20572.0,0.1401370285,0.6169363514999999,10.161356530499999,0.1564233888807398,-0.2116997116206522,0.48408801199165125,10.181032137681028,0.5510229104522166,0.039422733000000015,0.057466969000000034,-0.013140910999998923
20582.0,0.1736757715,0.615661487,10.0668204245,0.14203314919804655,-0.2263552413496486,0.5030073810832698,10.087124258147687,0.5695845294438939,0.03353874299999998,-0.001274864499999917,-0.09453610599999962
20592.0,0.18446308649999998,0.566628237,10.0201407705,0.12604593324977847,-0.21409779401289242,0.5139313968715022,10.037844153496465,0.5708335338610444,0.010787314999999992,-0.04903325000000003,-0.04667965400000007
20602.0,0.1605348605,0.5378947525,9.969832656,0.11911872144861299,-0.18265568753821457,0.5181952362341244,9.985622934742068,0.5622087449029499,-0.023928225999999997,-0.028733484500000017,-0.050308114499999945
20612.0,0.1485707475,0.5139665265,9.878826944,0.11512191746154597,-0.14428462393311922,0.5168635500148527,9.893303626538284,0.5488342535934695,-0.011964112999999998,-0.023928225999999997,-0.0910057119999994
20622.0,0.109049948,0.530735898,9.844111403,0.11112336814522697,-0.10325018788948055,0.513399071449644,9.859011197846328,0.5353387813455227,-0.039520799499999995,0.01676937150000002,-0.03471554100000063
20632.0,0.08031646349999999,0.47925098549999995,9.828616896,0.11272208974005377,-0.06647784587921202,0.5104669183062935,9.840622049939148,0.5269744284054295,-0.028733484500000003,-0.051484912500000035,-0.015494506999999658
20642.0,0.0348136075,0.5031792115,9.852545122,0.11458784671043572,-0.029173178447085217,0.5099345928844352,9.865447110354348,0.5234641706694494,-0.04550285599999999,0.023928226000000052,0.023928226000000663
20652.0,-0.05491724,0.49602035699999997,9.8728448875,0.11245679969375064,-0.009721483933608416,0.5078035458677501,9.885449826408633,0.5201975396357541,-0.0897308475,-0.007158854500000034,0.020299765499999012
20662.0,-0.1171894675,0.4827813795,9.917170945499999,0.11325616049116403,-0.011852530950293493,0.5024733103321595,9.929606779422546,0.5152153607718685,-0.062272227500000006,-0.013238977499999971,0.044326057999999335
20672.0,-0.157887065,0.463658412,9.992584084,0.12045040766788466,-0.03237062163673883,0.49474673773358063,10.004581156856233,0.5102259228523468,-0.04069759749999999,-0.019122967499999977,0.07541313850000186
20682.0,-0.14827654799999998,0.5271074375,9.993760882,0.1276446548446053,-0.049956559179833694,0.4891512121516868,10.008750409114418,0.5079938228610178,0.009610517000000013,0.06344902549999998,0.0011767979999994793
20692.0,-0.15906386299999997,0.5929100589999999,9.985425229499999,0.13137616878536917,-0.052089351525770766,0.4918145845902301,10.004277118538399,0.5117172890207616,-0.010787314999999992,0.06580262149999994,-0.008335652500001345
20702.0,-0.15906386299999997,0.6492002299999999,9.9758147125,0.12711232942274703,-0.03983190418901459,0.4984765063450925,9.998181906190545,0.5159679760029772,0.0,0.056290171,-0.009610516999998708
20712.0,-0.18662054949999998,0.6336076565,10.048874255,0.12231616463826661,-0.025975735257431607,0.5038067418806832,10.070559055219968,0.5190926854795866,-0.02755668650000001,-0.015592573499999984,0.07305954249999935
20722.0,-0.22496455099999998,0.6216435435,10.0811381335,0.11592127825895938,-0.018781488080710982,0.5046061026780966,10.10279148607402,0.5180905383306037,-0.0383440015,-0.011964112999999998,0.03226387850000023
20732.0,-0.2536980355,0.6133078909999999,10.100359167499999,0.10499551714147487,-0.020912535097396056,0.4976771455476791,10.122142291772068,0.5090618174097241,-0.02873348449999999,-0.008335652500000013,0.019221033999999193
20742.0,-0.22731814699999997,0.612131093,10.125464191499999,0.09060702278803362,-0.03183829621488056,0.4883518513542734,10.146497085611449,0.4977055760241431,0.026379888500000004,-0.0011767979999999234,0.025105024000000142
20752.0,-0.18907221199999996,0.6096794305,10.099084303,0.07621678310534039,-0.047558476787593486,0.48089056880199765,10.119237178188204,0.48921012449048046,0.03824593500000001,-0.0024516625000000625,-0.026379888499999282
20762.0,-0.18662054949999998,0.6133078909999999,10.057209907499999,0.06982189672603314,-0.059016563326936264,0.47422864704713524,10.07762099516422,0.4829605177335923,0.002451662499999979,0.003628460499999986,-0.041874395500000716
20772.0,-0.1603387275,0.6036973739999999,9.9542400825,0.07062125752344654,-0.0608823202973182,0.46623503907300123,9.97381845869276,0.4754672760541793,0.026281821999999982,-0.00961051700000004,-0.10296982499999885
20782.0,-0.154356671,0.5965385195,9.902755169999999,0.07515213226162384,-0.05182231615021563,0.4561086387529301,9.921907283586718,0.46515426019729456,0.005982056499999999,-0.007158854499999867,-0.0514849125000012
20792.0,-0.100420096,0.5475052694999999,9.905206832499998,0.07808254007572231,-0.03743382179677438,0.4449175875891425,9.920835076263266,0.45326574305271705,0.053936575,-0.04903325000000014,0.002451662499998619
20802.0,-0.029812216,0.5953617215,9.901578371999998,0.07595149305903724,-0.01638340568847077,0.4374563050368667,9.919505965747911,0.4443028967904195,0.07060788,0.047856452000000105,-0.003628460499999875
20812.0,0.043247326499999995,0.602520576,9.8836322025,0.06529276731710787,0.007065092812073046,0.4353252580201816,9.902074878026713,0.4402512251779737,0.07305954249999999,0.007158854499999978,-0.017946169499998277
20822.0,0.0911037785,0.6216435435,9.9040300345,0.053567645402209964,0.025452136481833306,0.4382556658342801,9.923938306837174,0.4422503052811552,0.047856452,0.019122967499999977,0.02039783200000045
20832.0,0.12699611749999998,0.639589713,9.902755169999999,0.04877148061772955,0.03451214062893587,0.4457169483865559,9.924200873208745,0.4497036171207218,0.03589233899999998,0.017946169500000053,-0.0012748645000009162
20842.0,0.143765489,0.6791105125,9.901578371999998,0.05836381018669038,0.033178709080412205,0.45717503492589867,9.925881011823261,0.4620781033929733,0.01676937150000002,0.03952079949999998,-0.0011767980000012557
20852.0,0.16887051299999997,0.7138260535,9.941099171500001,0.07115532827455683,0.02118829711921116,0.46969951763821,9.968125080596364,0.47553092596196,0.025105023999999976,0.03471554099999996,0.039520799500003534
20862.0,0.153376006,0.7461879985,10.015335511999998,0.07675085385645064,0.00786445360948645,0.4819552196457142,10.044265336312568,0.48809156614514315,-0.015494506999999963,0.032361945,0.07423634049999706
20872.0,0.109049948,0.71980811,10.094377110999998,0.07275404986938362,-0.007056366165813074,0.4886171414005765,10.120596072636298,0.49405430364114206,-0.044326058000000015,-0.02637988849999995,0.07904159899999996
20882.0,0.056388237499999994,0.658810747,10.0895718525,0.05836381018669038,-0.021978931270364592,0.48382097661609613,10.111215129768102,0.48782388745637345,-0.0526617105,-0.06099736300000003,-0.004805258499997578
20892.0,0.0312832135,0.5749638895,10.063191964,0.04210955886286719,-0.02944021382264035,0.47023184306006827,10.07965250482327,0.47303057762180317,-0.025105023999999997,-0.08384685749999998,-0.02637988850000106
20902.0,0.040795663999999995,0.5163201225,9.9303118565,0.029054496057949606,-0.029705503868943488,0.4510471839221466,9.943809346645986,0.45295710925581906,0.009512450499999998,-0.05864376699999996,-0.13288010750000012
20912.0,0.050406180999999994,0.462481614,9.842934605,0.022392574303087248,-0.02490933908446307,0.4297297324382878,9.85392265367846,0.4310331141560083,0.009610516999999999,-0.05383850850000005,-0.08737725149999953
20922.0,0.08629852,0.454047895,9.760362612,0.025855307539043998,-0.01638340568847077,0.40947867712739766,9.77129905607415,0.41062111481497776,0.03589233900000001,-0.008433719000000006,-0.08257199300000018
20932.0,0.1605348605,0.4445354445,9.6884798675,0.03491531168614657,-0.009988519309163548,0.390292272660224,9.700001306484726,0.39197819787127564,0.07423634049999998,-0.009512450499999991,-0.07188274449999987
20942.0,0.2646814835,0.45169429899999997,9.682497811,0.05143659838552488,-0.004658283773572866,0.37617081368233785,9.696641062114068,0.3796997555011341,0.104146623,0.007158854499999978,-0.00598205650000061
20952.0,0.361669252,0.5330894939999999,9.7004439805,0.0708882928990017,-0.005989969992844539,0.3668437741596801,9.721810658271128,0.37367818300024985,0.09698776850000002,0.08139519499999998,0.017946169500000053
20962.0,0.4370823905,0.5965385195,9.7532037575,0.08394510103317128,-0.010253809355466686,0.3689765665056172,9.781200476252625,0.3785440888774275,0.07541313849999998,0.06344902550000009,0.05275977700000034
20972.0,0.5327952945,0.6636160054999999,9.795078153,0.08687550884726974,-0.014784684093643965,0.3820333746397868,9.831979101481808,0.39206560708621796,0.09571290399999999,0.06707748599999985,0.041874395500000716
20982.0,0.5543699244999999,0.7557985155,9.814201120499998,0.08127998326537593,-0.01584933493736051,0.4033490807943935,9.858859013235028,0.4117622105964298,0.021574629999999928,0.0921825100000001,0.019122967499997756
20992.0,0.5520163284999999,0.796496113,9.821359975,0.07115532827455683,-0.015049974139947103,0.43372653642535486,9.869054658045355,0.4397820947503521,-0.002353595999999958,0.040697597500000016,0.0071588545000018655
21002.0,0.5304416985,0.796496113,9.792626490499998,0.06262764954931252,-0.01132020552843522,0.4667673644948595,9.839273755515393,0.4710861302339038,-0.021574629999999928,0.0,-0.028733484500001794
21012.0,0.44061278449999997,0.718631312,9.8010602095,0.059163170984103786,-0.008122762338781609,0.4942126669824703,9.837243100518348,0.49780761371721977,-0.08982891400000004,-0.07786480100000004,0.008433719000001005
21022.0,0.30420228299999996,0.6252720039999999,9.8130243225,0.06529276731710787,-0.004925319149127998,0.5102016282599904,9.837629311066014,0.514386144556589,-0.1364105015,-0.09335930800000003,0.01196411300000122
21032.0,0.10669635200000001,0.5510356634999999,9.8369525485,0.07488509688606872,-0.005989969992844539,0.5064701143192265,9.852951834623958,0.5120113613726569,-0.19750593099999997,-0.07423634050000005,0.023928225999998887
21042.0,0.0025497289999999997,0.43727852349999996,9.816652783,0.07834957545127744,-0.017715091907742442,0.48755249055685995,9.826387478123076,0.4941254005846008,-0.10414662300000001,-0.11375713999999992,-0.020299765499999012
21052.0,-0.0608992965,0.3284247085,9.865686033,0.07461806151051356,-0.031038935417467155,0.45344526631438675,9.871338937307277,0.46059079469564046,-0.06344902549999999,-0.10885381499999996,0.04903324999999903
21062.0,-0.0920844435,0.336760361,9.840581009,0.0687572458823166,-0.039564868813459456,0.4132084457389095,9.84677214523455,0.42075427191594017,-0.031185147000000003,0.008335652500000013,-0.025105024000000142
21072.0,-0.0106892485,0.3511761365,9.796254951,0.0679578850849032,-0.04063126498642799,0.38176633926423165,9.802553239022606,0.38989064060941836,0.081395195,0.014415775500000005,-0.044326057999999335
21082.0,0.041972461999999995,0.4361017255,9.820183176999999,0.06502573194155273,-0.03343701780970736,0.3591172015611013,9.829951374873845,0.3664853945679391,0.05266171049999999,0.08492558899999997,0.023928225999998887
21092.0,0.14611908499999998,0.5294610335,9.8693144935,0.05836381018669038,-0.026508060679289874,0.34419463645654974,9.884586402303603,0.3501127809519975,0.104146623,0.09335930799999997,0.049131316500000466
21102.0,0.2276123465,0.590556463,9.893242719499998,0.049305551368839816,-0.027042131430400143,0.34179655406430953,9.913466387858993,0.3463916838469434,0.08149326150000002,0.06109542950000002,0.023928225999998887
21112.0,0.24555851599999998,0.648023432,9.906383630499999,0.03784746482949703,-0.030239574620053753,0.3471267895999002,9.930592630243149,0.3504908993471231,0.01794616949999997,0.057466969000000034,0.013140911000000699
21122.0,0.2646814835,0.6611643429999999,9.874119751999999,0.02319193510050065,-0.03716678642121925,0.3537869660255105,9.899769464639007,0.35648906462347774,0.019122967500000004,0.013140910999999922,-0.03226387850000023
21132.0,0.25987622499999996,0.639589713,9.803413805499998,0.01493129175081149,-0.041962951205699664,0.35432103677662086,9.82769214491193,0.35710954880778434,-0.00480525850000002,-0.021574629999999928,-0.0707059465000004
21142.0,0.26232788749999997,0.5737870915,9.7435932405,0.019195131113433638,-0.049956559179833694,0.34659271884878995,9.763997991767999,0.3507001905082837,0.002451662500000007,-0.06580262150000005,-0.05982056499999899
21152.0,0.26585828149999996,0.49602035699999997,9.678967416999999,0.03411595088873316,-0.06034824954620793,0.3306055029005219,9.695314697303445,0.33779551192465657,0.0035303939999999923,-0.07776673449999999,-0.06462582350000012
21162.0,0.3209716545,0.43129646699999996,9.632287762999999,0.05943020635965891,-0.07313976763407437,0.3015614788180842,9.647279771763575,0.31594414149413796,0.05511337300000002,-0.06472389,-0.04667965400000007
21172.0,0.4118793,0.4002093865,9.585608108999999,0.0887412658176517,-0.08779529736307076,0.2661208230270874,9.602796203717839,0.2939444147225858,0.09090764550000002,-0.031087080499999975,-0.04667965400000007
21182.0,0.5352469569999999,0.4361017255,9.6059078745,0.11698592910267591,-0.08992634437975584,0.23787615974206316,9.63068741644868,0.2799241368570319,0.12336765699999991,0.035892338999999995,0.020299765500000788
21192.0,0.638216782,0.5402483484999999,9.6884798675,0.1361723335698496,-0.06994232444442075,0.2274844693756889,9.72449644361271,0.2741970404393267,0.10296982500000007,0.10414662299999994,0.08257199300000018
21202.0,0.6596933454999999,0.6443949715,9.7771319835,0.1401691375569166,-0.0329029470585971,0.2312142379872008,9.820526972223544,0.2723784405869756,0.021476563499999934,0.1041466230000001,0.08865211600000045
21212.0,0.6141904895,0.7114724575,9.863332436999999,0.12178209388715633,0.003867649622419434,0.2482678501084374,9.908014421565486,0.27655517081155345,-0.045502855999999925,0.06707748599999996,0.08620045349999828
21222.0,0.524459642,0.7018619405,9.948258026,0.09140638358544702,0.02491806573072304,0.27038466238970954,9.986766536346115,0.2865028841312557,-0.08973084750000004,-0.00961051700000004,0.08492558900000091
21232.0,0.41550776049999993,0.697056682,9.981796768999999,0.06769084970934808,0.017990853929557547,0.2903704276542966,10.014729225224983,0.2986983548927368,-0.10895188150000001,-0.004805258499999909,0.03353874299999937
21242.0,0.3329357675,0.638412915,9.932763519,0.05623276317000531,-0.011587240903990355,0.30955508679221827,9.958825653644956,0.3148344637495057,-0.08257199299999995,-0.05864376700000007,-0.04903324999999903
21252.0,0.2886097095,0.5869280025,9.887260662999998,0.05596572779445017,-0.0507559199772471,0.32154549875341937,9.90886993872881,0.3303026398151919,-0.044326058,-0.05148491249999998,-0.04550285600000237
21262.0,0.30420228299999996,0.5367179544999999,9.819006379,0.05943020635965891,-0.07766889704299966,0.33273654991720697,9.838368333342057,0.34681121470712806,0.015592573499999984,-0.05021004800000006,-0.06825428399999822
21272.0,0.3341125655,0.5498588655,9.708877699499999,0.06182828875189912,-0.08033401481079501,0.34179655406430953,9.730173799179658,0.3565125181474638,0.02991028250000005,0.013140911000000033,-0.11012867950000071
21282.0,0.326953711,0.5882028669999999,9.610713132999999,0.06582509273896614,-0.06354743806511354,0.3460603934269317,9.634245599251784,0.3579511357958453,-0.007158854500000034,0.03834400149999995,-0.0981645664999995
21292.0,0.31969678999999995,0.6061490365,9.5796260525,0.07781550470016718,-0.033969343231565634,0.34765911502175845,9.604106309163956,0.35787711481601886,-0.007256921000000027,0.017946169500000053,-0.031087080499998976
21302.0,0.30773267699999995,0.6432181734999999,9.5256894775,0.09673487379178572,0.003867649622419434,0.34419463645654974,9.552339453818028,0.3575507548398842,-0.011964112999999998,0.03706913699999992,-0.05393657499999982
21312.0,0.23231953849999998,0.6563590845,9.5962973575,0.12231616463826661,0.038508944616002884,0.3351346323094471,9.621522883064614,0.3588306072793154,-0.07541313849999998,0.013140911000000144,0.07060787999999896
21322.0,0.15572960199999997,0.6528286905,9.680144214999999,0.15002850250143257,0.0627568039139601,0.32154549875341937,9.703382350050777,0.36033106411868354,-0.07658993650000001,-0.0035303939999999923,0.08384685749999932
21332.0,0.142588691,0.6516518924999999,9.781937242,0.1729429302508661,0.0782116944403699,0.3106214829651868,9.804655931251565,0.3640220212438824,-0.013140910999999977,-0.0011767980000001454,0.10179302700000115
21342.0,0.1856398845,0.718631312,9.910012090999999,0.18013717742758673,0.08860338480674414,0.3055582828051513,9.937767997547043,0.36560337345492677,0.0430511935,0.06697941950000008,0.128074848999999
21352.0,0.25389416849999996,0.7689394264999999,10.0464225925,0.16921316163935424,0.10325891453574051,0.3135518907792853,10.079004762253012,0.37095860377453227,0.06825428399999997,0.050308114499999945,0.1364105015000021
21362.0,0.2993970245,0.8275831935,10.0883950545,0.13190849420722744,0.11471700107508329,0.3370003892798291,10.12670959868521,0.37964338997858926,0.045502856000000036,0.05864376700000007,0.0419724619999986
21372.0,0.283804451,0.879068106,10.096730706999999,0.08154701864093106,0.12111188745439051,0.3668437741596801,10.13889918438242,0.3948320657845658,-0.015592573499999984,0.05148491249999998,0.008335652499999568
21382.0,0.21319657099999997,0.8981910735,10.01651231,0.038112754875800174,0.12084485207883539,0.39935227680732654,10.058962115386596,0.41897291242916174,-0.07060788000000004,0.019122967500000088,-0.08021839699999944
21392.0,0.0695291485,0.85513988,9.900401574,0.01546361717266976,0.11764740888918178,0.4198703674937719,9.937507224818466,0.4363154383857581,-0.14366742249999997,-0.043051193500000084,-0.11611073599999955
21402.0,-0.065704555,0.7294186269999999,9.797431749,0.02025978195715018,0.0992621105486735,0.42120205371304353,9.824766536578643,0.433214260392723,-0.1352337035,-0.12572125300000003,-0.10296982500000063
21412.0,-0.12081792799999999,0.6048741719999999,9.7208418125,0.051703633761080024,0.08300785922485032,0.4033490807943935,9.740391946904765,0.41503500022874534,-0.05511337299999999,-0.124544455,-0.07658993649999957
21422.0,-0.096889702,0.6551822864999999,9.795078153,0.08554382262799808,0.08860338480674414,0.37590377830678273,9.817444039375774,0.3955653624046691,0.023928225999999997,0.050308114499999945,0.07423634050000061
21432.0,-0.05619210449999999,0.7498164589999999,9.8369525485,0.10126574852996299,0.12137892282994565,0.3553856876203374,9.865648367757492,0.3889557580214897,0.0406975975,0.09463417250000006,0.04187439549999894
21442.0,0.0097085835,0.843175767,9.917170945499999,0.09726894454289599,0.15921591568393073,0.34446167183210485,9.952955299453471,0.39174583436321336,0.06590068799999999,0.09335930800000003,0.08021839699999944
21452.0,0.06001669799999999,0.9197657035,10.082412997999999,0.08554382262799808,0.19199145370713222,0.3431299856128332,10.12445666767422,0.40238868139281875,0.050308114499999994,0.07658993650000001,0.16524205250000001
21462.0,0.087475318,0.9676221554999999,10.1925416775,0.0687572458823166,0.20691227348243177,0.34899080124103016,10.238742618830116,0.411503131373075,0.027458620000000003,0.04785645199999988,0.11012867950000071
21472.0,0.0779628675,0.9640917614999999,10.2990418965,0.04797211982031614,0.2002503517275694,0.3580508053881327,10.344361513363854,0.41303983692394675,-0.009512450499999991,-0.0035303939999999923,0.10650021900000084
21482.0,0.062370294,0.9305530184999999,10.385242349999999,0.025855307539043998,0.16028231185689926,0.3671108095352353,10.427035899144427,0.4014090966828563,-0.015592573500000005,-0.033538742999999926,0.08620045349999828
21492.0,0.043247326499999995,0.8981910735,10.415152632499998,0.012800244734126413,0.08593826703894879,0.37377273129009764,10.45389984140063,0.3837385655142974,-0.019122967500000004,-0.03236194499999989,0.029910282499999497
21502.0,0.0324600115,0.8981910735,10.361314123999998,0.007737044574090864,0.004667010419832838,0.3812340138423734,10.400222653052362,0.3813410758826896,-0.010787314999999999,0.0,-0.05383850850000016
21512.0,0.016867438,0.8167958785,10.267954816,0.006670648401122328,-0.06567848508179862,0.3854961078757435,10.300404658119838,0.39110792646030373,-0.015592573499999998,-0.08139519500000003,-0.09335930799999836
21522.0,0.038442067999999996,0.7257901665000001,10.097907505,0.0029408797896104456,-0.10245082709206714,0.3812340138423734,10.124030083811267,0.3947710653735308,0.021574629999999997,-0.09100571199999996,-0.17004731099999937
21532.0,0.08031646349999999,0.6755801185,9.956691745,-0.0010559241974565693,-0.10005274469982693,0.3617823193288966,9.97990830297417,0.37536397439934915,0.041874395499999995,-0.05021004800000006,-0.1412157599999997
21542.0,0.12699611749999998,0.6839157709999999,9.892065921499999,0.008536405371504265,-0.07180633608555072,0.33193718911979353,9.916493180100726,0.3397224126245533,0.04667965399999999,0.008335652499999902,-0.0646258235000019
21552.0,0.1952504015,0.7246133684999999,9.8693144935,0.03438298626428829,-0.030771900041912024,0.3012944434425291,9.897805606532389,0.3048072197733889,0.06825428400000003,0.040697597500000016,-0.022751427999999407
21562.0,0.28625611349999996,0.7664877639999998,9.924329799999999,0.05729915934297384,0.0052010811709431014,0.2770465841445719,9.958000202553013,0.28295769064108084,0.09100571199999996,0.04187439549999994,0.05501530649999964
21572.0,0.33175896949999995,0.8287599915,10.0201407705,0.0663591634900764,0.02491806573072304,0.2639897760104023,10.059827443748283,0.27334053928549584,0.04550285599999998,0.062272227500000166,0.09581097050000054
21582.0,0.39393313049999995,0.867103993,10.0883950545,0.06129596333004085,0.017990853929557547,0.26478913680781574,10.133250585159834,0.2723860365677737,0.062174161000000006,0.03834400149999995,0.068254284
21592.0,0.38442067999999996,0.8407241044999999,10.105066359499999,0.045574037428075934,-0.009189158511750145,0.2770465841445719,10.147263789268392,0.28092035046935476,-0.009512450499999991,-0.02637988850000006,0.016671304999999137
21602.0,0.3245020485,0.853963082,10.0344584795,0.026389378290154263,-0.05262167694762904,0.2821097843046074,10.075957101025642,0.2881863469557738,-0.059918631499999986,0.013238977500000138,-0.07060787999999896
21612.0,0.330484105,0.7498164589999999,9.941099171500001,0.008269369995949133,-0.09791995235388987,0.27864530573939866,9.974813141279538,0.2954655749147791,0.005982056499999999,-0.1041466230000001,-0.09335930799999836
21622.0,0.39638479299999996,0.7461879985,9.844111403,-0.0031887165433936403,-0.1290967687822646,0.27065169776526465,9.880306004770384,0.2998807848569757,0.06590068799999999,-0.003628460499999986,-0.09698776850000179
21632.0,0.466992673,0.7940444504999999,9.705249238999999,-0.0002565634000431664,-0.1480143925446311,0.2677195446219142,9.748869244025975,0.3059118840413028,0.07060788000000007,0.047856451999999994,-0.13886216400000073
21642.0,0.5412290135,0.8071853614999999,9.57717439,0.010667452388189341,-0.15121358106353672,0.2714510585626781,9.626356857573166,0.3109099850974741,0.07423634049999994,0.013140910999999922,-0.128074848999999
21652.0,0.6070316349999999,0.7928676525,9.467045710499999,0.021593213505673847,-0.13282653739377645,0.28131042350719404,9.519563067965256,0.31184084126252415,0.06580262149999994,-0.014317708999999845,-0.11012867950000071
21662.0,0.620172546,0.7820803375,9.418012460499998,0.03598170785911509,-0.09445547378868112,0.2898363569031864,9.470756165547154,0.30695542609964427,0.013140911000000144,-0.010787315000000075,-0.049033250000000805
21672.0,0.5902622635,0.7545236509999999,9.434781832,0.05410171615332023,-0.05928359870249139,0.29383316089025335,9.48329181756355,0.30459722126869443,-0.02991028250000005,-0.027556686500000094,0.01676937150000235
21682.0,0.5279900359999999,0.739029144,9.4982308575,0.08287870486020273,-0.0329029470585971,0.29463252168766674,9.541557890416104,0.3078308082055447,-0.062272227500000055,-0.01549450699999988,0.06344902549999887
21692.0,0.477779988,0.6695980619999999,9.614341593499999,0.1113904035207821,-0.020113174299982654,0.2935678708439502,9.649466283586442,0.31463384523727633,-0.05021004799999995,-0.06943108200000003,0.11611073599999955
21702.0,0.42992353599999994,0.6276256,9.717213352,0.13110913340981403,-0.02117957047295119,0.29410019626580847,9.746947392331057,0.32269661372948766,-0.04785645200000005,-0.04197246199999993,0.10287175850000096
21712.0,0.34372308249999994,0.590556463,9.840581009,0.13430657659946765,-0.04063126498642799,0.3007621180206708,9.864275801503414,0.33188402770929776,-0.0862004535,-0.03706913700000003,0.1233676569999993
21722.0,0.2635046855,0.55701772,9.866862831,0.1316414588316723,-0.07553785002631459,0.31035444758963165,9.8860854530721,0.34547839817938586,-0.08021839699999994,-0.033538742999999926,0.026281822000001398
21732.0,0.1952504015,0.49955075099999996,9.786644434,0.12897634106387695,-0.11923740383774861,0.31888038098562393,9.801330672396158,0.3640565236412177,-0.068254284,-0.05746696900000009,-0.08021839700000122
21742.0,0.2060377165,0.4241376124999999,9.762716207999999,0.12364785085753828,-0.1528123026583635,0.3210131733315611,9.774096992198492,0.3764171201178796,0.010787314999999992,-0.07541313850000003,-0.023928226000000663
21752.0,0.20721451449999997,0.41335029749999996,9.7771319835,0.11538720750784912,-0.1642686438684543,0.317016369344494,9.788059365688454,0.37523029388257706,0.001176797999999979,-0.010787314999999964,0.014415775500001615
21762.0,0.2215322235,0.4983739529999999,9.749575297,0.11085807809892383,-0.1589401536621156,0.31035444758963165,9.764818052321832,0.3658843657012273,0.014317709000000012,0.08502365549999996,-0.027556686500000538
21772.0,0.2419300555,0.6001669799999999,9.7567341515,0.1097916819259553,-0.1317618865500599,0.3042248512566276,9.778169146557191,0.3492394139977305,0.020397832000000005,0.10179302699999998,0.007158854500000089
21782.0,0.28978650749999996,0.6887210294999999,9.819006379,0.11298912511560891,-0.09099274055272437,0.30209380423994253,9.847395551476911,0.33512219829167816,0.047856451999999966,0.08855404950000001,0.06227222749999939
21792.0,0.34372308249999994,0.715100918,9.921976204,0.10925935650409703,-0.04516039439535328,0.3052912474295961,9.95364891248983,0.3273832829616566,0.05393657499999999,0.02637988850000006,0.10296982500000063
21802.0,0.39991518699999995,0.7234365705,9.985425229499999,0.09780126996475426,0.0006702064327658225,0.31008741221407654,10.01958131072677,0.32514572240305406,0.056192104500000006,0.008335652500000013,0.06344902549999887
21812.0,0.4945493595,0.7545236509999999,9.991407286,0.07808254007572231,0.04277103864937304,0.31888038098562393,10.032053855698448,0.3310754327783317,0.09463417250000006,0.031087080499999864,0.00598205650000061
21822.0,0.5567235205,0.7653109659999999,9.981796768999999,0.058098520140387244,0.08380722002226372,0.33167189907349043,10.026560162417447,0.3469947215814366,0.06217416099999995,0.010787315000000075,-0.009610517000000485
21832.0,0.5962443199999999,0.8359188459999999,9.960222138999999,0.03784746482949703,0.1349680563859735,0.3516559190088255,10.01300617519314,0.3785639869461555,0.03952079949999998,0.07060787999999996,-0.021574629999999928
21842.0,0.5160259229999999,0.8719092515,9.898047978,0.006403613025567195,0.1853295319522699,0.3735056959145425,9.949766945554511,0.4170066504913745,-0.080218397,0.0359904055000001,-0.06217416099999973
21852.0,0.48493884249999997,0.834742048,9.7567341515,-0.035430183815484885,0.23409228592373946,0.39482314739840124,9.804377658511063,0.4603692148436736,-0.031087080499999975,-0.03716720350000002,-0.14131382649999935
21862.0,0.38677427600000003,0.846706161,9.6525875285,-0.08312654161398593,0.2895169616500714,0.4113426887685276,9.697368285210397,0.5098361507456218,-0.09816456649999994,0.011964112999999998,-0.1041466230000001
21872.0,0.215550167,0.870634387,9.581979648499999,-0.10071422448633278,0.3260222682847848,0.4283963008897642,9.623866171897276,0.5476835446199502,-0.17122410900000004,0.023928225999999997,-0.07060788000000073
21882.0,0.1030678915,0.8239547329999999,9.55559976,-0.08312654161398593,0.33055139769371006,0.4483820661543512,9.59161149993073,0.5632235130805638,-0.11248227549999999,-0.04667965400000007,-0.026379888499999282
21892.0,-0.0058839899999999995,0.7797267414999999,9.543635647,-0.04635594493296939,0.31243138939950493,0.46063951349110743,9.575436792932093,0.5585257452455148,-0.1089518815,-0.04422799150000001,-0.011964112999999443
21902.0,-0.1183662655,0.8479810255,9.518530623,-0.0005235987755982988,0.29724353424865024,0.46063951349110743,9.556961212299923,0.5482177981401466,-0.11248227549999999,0.06825428400000011,-0.025105024000000142
21912.0,-0.178284897,0.928101356,9.553246163999999,0.04690746897659961,0.2903163224474848,0.4649033528537296,9.599878639935405,0.550108175925301,-0.0599186315,0.0801203305,0.03471554099999885
21922.0,-0.26321048599999997,0.959286503,9.646605472,0.08554382262799808,0.2836544006926224,0.4670343998704146,9.697757858762955,0.5530810928647077,-0.08492558899999997,0.03118514699999997,0.09335930800000014
21932.0,-0.33862362449999994,0.9018195339999999,9.775955185499999,0.10766063490927022,0.2607382276139369,0.46863312146524144,9.823301085677757,0.5469846781972783,-0.07541313849999998,-0.057466969000000034,0.1293497134999999
21942.0,-0.41884202149999994,0.8719092515,9.907560428499998,0.11218976431819551,0.2268980387470188,0.46836608608968633,9.95466765021337,0.5323871277594786,-0.080218397,-0.02991028249999994,0.1316052429999992
21952.0,-0.45953961899999995,0.8682807909999999,10.0105302535,0.09966702693513618,0.1909250575341637,0.4667673644948595,10.058618401633947,0.5140599832801518,-0.040697597500000016,-0.003628460500000097,0.1029698250000024
21962.0,-0.45600922499999996,0.8611219364999999,9.9985661405,0.07728317927830891,0.17413848078848224,0.4643692821026193,10.045934514457063,0.5019319978355493,0.0035303939999999923,-0.007158854499999978,-0.01196411300000122
21972.0,-0.5314223634999999,0.8599451385,10.004548197,0.04877148061772955,0.17946697099482092,0.4561086387529301,10.05549103702816,0.49256689022380745,-0.07541313849999998,-0.0011767979999999234,0.00598205650000061
21982.0,-0.6343921884999999,0.9113319845,9.9889556235,0.024523621319772326,0.19279081450454563,0.4355922933957368,10.050483266144708,0.4769804526662695,-0.10296982499999996,0.051386845999999986,-0.015592573499999318
21992.0,-0.6905842929999999,0.9233941639999999,10.05966157,0.014131930953398085,0.19465482614567559,0.3988199513854683,10.125529830620343,0.44401302507627194,-0.056192104500000006,0.012062179499999881,0.07070594649999862
22002.0,-0.6930359555,1.074220441,10.112323280499998,0.022125538927532117,0.17946697099482092,0.35671911916886107,10.192807783963175,0.3999330733153958,-0.0024516625000000625,0.15082627700000018,0.052661710499998904
22012.0,-0.7516797224999999,1.2836904849999997,10.156551271999998,0.03891211567321357,0.14749079376903282,0.32341125572380125,10.264911953215282,0.3575787008780457,-0.05864376699999996,0.2094700439999997,0.044227991499999675
22022.0,-0.7264766319999999,1.3579268255,10.259521097,0.048239155195871276,0.10405827533315393,0.3087557259948049,10.374464164478214,0.3293709748807579,0.025203090500000025,0.07423634050000039,0.1029698250000024
22032.0,-0.689407495,1.3016366544999998,10.342093089999999,0.036514033280973364,0.06861936487140906,0.3074222944462812,10.44645538719837,0.3170967659633501,0.03706913699999992,-0.05629017100000033,0.0825719929999984
22042.0,-0.7277514964999999,1.214259403,10.331403841499998,0.009068730793362536,0.04037295625713283,0.30475892200773785,10.42794099880666,0.30755522759085285,-0.03834400149999995,-0.08737725149999975,-0.010689248500000303
22052.0,-0.791200522,1.0921666104999999,10.27148521,-0.01944296786721683,0.008665559736151846,0.29729763945546206,10.359644520462702,0.29805873137825767,-0.06344902550000009,-0.12209279250000016,-0.059918631499998654
22062.0,-0.8629851999999999,1.054999407,10.1793027,-0.03915995242699677,-0.014784684093643965,0.2802440273342255,10.270149495621602,0.2833527900239199,-0.07178467799999988,-0.03716720349999991,-0.09218251000000066
22072.0,-0.9324162819999999,1.032247979,10.1278177875,-0.056480599923788496,-0.025975735257431607,0.25652849345812656,10.222897297238669,0.263953906858397,-0.06943108200000003,-0.02275142799999985,-0.051484912499999425
22082.0,-0.9719370815,1.0262659225,10.062015166,-0.07833037682950551,-0.020113174299982654,0.22695214395383062,10.1608086604804,0.2409304118618363,-0.03952079950000009,-0.005982056500000166,-0.0658026214999996
22092.0,-1.04735022,1.0454869565,10.003371398999999,-0.09964782831336425,-0.014250613342533702,0.19524300210359768,10.112241334436044,0.21966474350389859,-0.07541313849999998,0.01922103400000008,-0.05864376700000129
22102.0,-1.1011887285,1.051469013,10.042892198499999,-0.11830016202942766,-0.018247417329600717,0.1651325818481915,10.157651668164585,0.2039526076402043,-0.05383850849999994,0.005982056499999944,0.03952079949999998
22112.0,-1.1000119305,0.997532438,10.073979279,-0.14174866052997148,-0.04382870817608161,0.14967769132178171,10.182836330110876,0.21075352832596608,0.0011767979999999234,-0.05393657499999993,0.031087080500000752
22122.0,-1.1563021015,1.0478405524999999,10.047697457,-0.16732995137645237,-0.07686953624558626,0.140350651799124,10.168147744835393,0.23153086984395055,-0.05629017099999989,0.050308114499999834,-0.02628182199999962
22132.0,-1.28074849,1.074220441,9.941099171500001,-0.1902443791258859,-0.11124379586361458,0.12676151824309617,10.080660642442911,0.25423726794951634,-0.1244463885,0.02637988850000017,-0.10659828549999872
22142.0,-1.3549848304999998,1.0669635199999998,9.830970492,-0.20143717561892552,-0.14748206712277284,0.11423703553078485,9.981100934189106,0.2745505347490653,-0.07423634049999994,-0.007256921000000194,-0.11012867950000071
22152.0,-1.4315747669999999,0.997532438,9.702895643,-0.19770566167816167,-0.16373631844659603,0.09958325113104047,9.858532402813397,0.2753433030670488,-0.07658993650000001,-0.06943108199999981,-0.12807484900000077
22162.0,-1.478254421,0.916137243,9.6298361005,-0.1862475751388189,-0.17093056562331665,0.07719940347421318,9.785616327227975,0.2643201948511905,-0.04667965400000007,-0.08139519500000003,-0.07305954249999935
