timestamp,ax,ay,az,gx,gy,gz,acc_mag,gyro_mag,dax,day,daz
20172.0,0.5645688405,-2.2599424924999996,9.788605764,-0.020411625602073685,0.12483292941964243,0.03929434277940033,10.061952139027726,0.13245353940787566,0.0,0.0,0.0
20182.0,0.14915914649999998,-2.543648877,9.6484687355,0.02781880294753762,0.1309607804233945,0.005721189288037412,9.97924581320497,0.13400501413532268,-0.41540969400000005,-0.2837063845000003,-0.14013702849999987
20192.0,0.2389880605,-2.428714939,9.846072732999998,0.06165899181445567,0.07207337146110585,-0.04091051766674708,10.14400906010584,0.10329604349202771,0.08982891400000001,0.11493393800000007,0.19760399749999813
20202.0,0.2856677145,-2.5004996169999996,9.934626782499999,0.10775662801812991,0.01638340568847077,-0.0939371110008388,10.248459088335723,0.14388915069238037,0.046679654000000015,-0.07178467799999977,0.08855404950000079
20212.0,0.32754211,-2.4023350504999996,9.9047165,0.15225554262697732,-0.04836830956051886,-0.13630323326374916,10.197151880503514,0.2099995595912751,0.041874395499999995,0.09816456649999994,-0.029910282499999497
20222.0,0.46522747600000003,-2.2048291195,9.892752387,0.19035957085651756,-0.12990485622593795,-0.16215155948578516,10.146144974378922,0.28178922288020747,0.13768536600000003,0.1975059309999998,-0.011964112999999443
20232.0,0.7632515695,-2.0420387294999998,9.804100271,0.21407510473261648,-0.20051738710312453,-0.1701451674599192,10.04354804115281,0.3390940149971818,0.2980240934999999,0.16279039000000006,-0.08865211600000045
20242.0,1.1200174965,-1.884053598,9.652097196,0.2119440577159314,-0.2314271681559441,-0.17520662229070277,9.897831956223238,0.3594108766527394,0.3567659270000001,0.15798513149999982,-0.15200307499999965
20252.0,1.4516783994999998,-1.668503431,9.489306805999998,0.18742916304241905,-0.2026501794490616,-0.18426662643780534,9.743624455675185,0.33189000588792705,0.33166090299999973,0.21555016699999996,-0.1627903900000014
20262.0,1.7126333559999998,-1.4626618475,9.3707444075,0.15358897417550102,-0.12191124825180392,-0.1933266305849079,9.637600502350596,0.2753672303160075,0.2609549565,0.20584158350000004,-0.11856239849999817
20272.0,1.9771187065,-1.3500815054999997,9.3923190375,0.13200448731608713,-0.013994049942490533,-0.1933266305849079,9.69264542595417,0.23451269517595283,0.2644853505000002,0.11258034200000022,0.021574629999999928
20282.0,2.156678468,-1.263881052,9.538340056,0.12534431089047676,0.09232442677199604,-0.16907877128695067,9.86045578823989,0.22983173617081504,0.17955976149999997,0.08620045349999983,0.14602101849999904
20292.0,2.271612406,-1.16699135,9.7394744475,0.12534431089047676,0.14748206712277284,-0.12244706433216618,10.06873647721368,0.22903152612463684,0.11493393800000007,0.09688970199999991,0.20113439150000012
20302.0,2.373405433,-1.1537523725,10.019650438,0.1373347228516778,0.12430060399778416,-0.059562851382810485,10.361350915115118,0.1945744061273524,0.10179302699999981,0.013238977499999915,0.2801759905000001
20312.0,2.420085087,-1.0221471295,10.239907797,0.17490642565935974,0.03183829621488056,0.007319910882864218,10.57153291976742,0.17793121125348604,0.04667965400000007,0.1316052430000001,0.22025735900000143
20322.0,2.6175910179999997,-0.8520998184999999,10.3643541855,0.2335267992460933,-0.12350996984663072,0.06673964526701116,10.723697800697918,0.2724768960260801,0.1975059309999998,0.17004731100000003,0.12444638849999912
20332.0,3.0030904295,-0.6749917195,10.321302992,0.2860210671583267,-0.29537777727826836,0.12323071716631163,10.770490304615487,0.42923407579264,0.3854994115000001,0.1771080989999999,-0.043051193500000196
20342.0,3.3884917745,-0.46307001299999995,10.185971222,0.3110682872536974,-0.4219473093036451,0.18851301250790753,10.744781062367261,0.5570818315547019,0.385401345,0.21192170650000008,-0.13533177000000052
20352.0,3.7153474189999995,-0.22123802399999998,10.023180832,0.29481403592987415,-0.48083646359518584,0.25619513557099566,10.691908468468368,0.6194795944938191,0.3268556444999997,0.24183198899999997,-0.16279038999999962
20362.0,4.0121947145,-0.0775706015,9.777818449,0.228997669837168,-0.4645822122713626,0.3249419094778003,10.569269475554286,0.611444036102148,0.2968472955000001,0.14366742249999997,-0.2453623829999998
20372.0,4.1690030479999995,-0.084729456,9.642486679,0.12614367168789017,-0.37878182624332135,0.4091453192402667,10.505489748204972,0.571653557721237,0.1568083334999999,-0.007158854499999992,-0.13533177000000052
20382.0,4.202541791,-0.1338607725,9.563543146499999,0.012096877045572699,-0.24421694091455853,0.5194605999418203,10.447039471854353,0.5741320088236124,0.03353874300000026,-0.04913131650000001,-0.0789435325000003
20392.0,4.1271286525,-0.2595820255,9.5168634925,-0.08462927009995305,-0.11924613048400858,0.6436320495749569,10.376476496245171,0.6600333084270216,-0.07541313850000009,-0.12572125299999998,-0.046679653999998294
20402.0,3.960709802,-0.3660822445,9.559914685999999,-0.14485011061076541,-0.052098078172030736,0.7680705345836486,10.354381060642664,0.7833441838609525,-0.16641885049999994,-0.10650021900000001,0.04305119349999842
20412.0,3.678278282,-0.43198293249999997,9.610222800499999,-0.1704296561279943,-0.07154977268550754,0.8874440741030528,10.299161259493621,0.9064891738569628,-0.2824315199999998,-0.06590068799999999,0.050308114499999945
20422.0,3.4819491489999996,-0.4139386964999999,9.5515790335,-0.1666998875164824,-0.17600249242961216,0.9865683036408187,10.174869883879534,1.0159147344084376,-0.19632913300000032,0.018044236000000047,-0.058643766999999514
20432.0,3.309548242,-0.35529492949999997,9.430663038999999,-0.13552307108810768,-0.32335715051698943,1.0753008428122104,10.000837435345822,1.1310164685539592,-0.17240090699999966,0.05864376699999996,-0.12091599450000068
20442.0,3.2927788705,-0.3564717275,9.2881724145,-0.07636862675026389,-0.4776390204055322,1.168030185970669,9.86101473399147,1.2642253423754617,-0.01676937150000013,-0.0011767980000000344,-0.14249062449999883
20452.0,3.3454405809999996,-0.39481572899999995,9.0583045385,0.0011728612573401894,-0.6020757600849719,1.2623582507239546,9.66440547851119,1.3985867687262983,0.05266171049999979,-0.03834400149999995,-0.22986787600000014
20462.0,3.309548242,-0.41756715699999997,8.901496204999999,0.08031132553051906,-0.6649617183635795,1.3590826525402284,9.506003712620764,1.5151665427712218,-0.03589233899999966,-0.022751428000000018,-0.15680833350000078
20472.0,3.250904475,-0.524067376,8.775774951999999,0.15092385640770564,-0.667626836131375,1.4696649686173373,9.37321996585555,1.6212398720537202,-0.05864376699999996,-0.10650021900000001,-0.12572125300000003
20482.0,3.2460992165,-0.6474350329999999,8.6883977005,0.19808788878434844,-0.627924086307008,1.566923441184721,9.297558112072831,1.699640120843733,-0.004805258499999798,-0.12336765699999996,-0.08737725149999953
20492.0,3.1754913364999995,-0.7587405104999999,8.7315469605,0.2265995874449278,-0.5389245117600611,1.653790223385731,9.321981801842199,1.754083551422867,-0.07060788000000073,-0.11130547749999997,0.043149259999999856
20502.0,2.9288540889999997,-0.7934560514999999,8.775774951999999,0.23459319541906182,-0.43713690978375175,1.73346275841002,9.285579399717854,1.8030573424122398,-0.24663724749999982,-0.03471554099999996,0.044227991499999675
20512.0,2.673881189,-0.7958096474999999,8.8464808985,0.23246214840237675,-0.36519094735804153,1.7995461598782814,9.2759461994703,1.850883426908562,-0.25497289999999984,-0.002353596000000069,0.0707059465000004
20522.0,2.4272439415,-0.8114022209999999,8.8919837545,0.23965639557909735,-0.3188262757788121,1.8531050786342314,9.252959624146433,1.8955431449927307,-0.24663724749999982,-0.015592573499999984,0.04550285600000059
20532.0,2.1459892194999997,-0.777863478,9.0128016825,0.27456298061898393,-0.2735280003725513,1.9008014364327324,9.29736174883452,1.939909404600876,-0.28125472200000035,0.033538742999999926,0.12081792799999924
20542.0,1.8574775764999998,-0.8065969625,9.192459510499999,0.3105342165025871,-0.23222652895335752,1.951695237420887,9.412870627991039,1.9898429486117672,-0.2885116429999999,-0.028733484500000017,0.17965782799999985
20552.0,1.6359453529999999,-0.8856385615,9.380354924499999,0.31879485985227624,-0.2023831440735065,2.003390144535707,9.563039860275051,2.038666517823872,-0.2215322234999999,-0.07904159899999996,0.18789541399999976
20562.0,1.450403535,-0.973015813,9.607771138,0.2926812435839371,-0.17280504923995857,2.0468226629715858,9.765228949024921,2.0748510570744005,-0.18554181799999991,-0.08737725149999997,0.22741621350000152
20572.0,1.251720806,-1.0113598145,9.88314187,0.24498488578543606,-0.14615910754976114,2.0814639579651697,10.013298501148652,2.1009217708641783,-0.19868272899999995,-0.03834400150000006,0.27537073199999895
20582.0,1.020676132,-0.962228498,10.093788711999998,0.18449875522832057,-0.13363637016670182,2.1073105388579534,10.190791628293477,2.1195886811581937,-0.23104467400000006,0.04913131650000002,0.21064684199999917
20592.0,0.708236263,-0.9658569584999999,10.238632932499998,0.10802366339368505,-0.16241335887358432,2.1294256058099736,10.308447147605918,2.138340623397677,-0.312439869,-0.003628460499999875,0.14484422049999957
20602.0,0.36823970749999996,-1.098737066,10.334443902999999,0.03181560693460463,-0.22716332879332196,2.1432817747415567,10.399209316416119,2.1555213236552304,-0.3399965555,-0.13288010750000012,0.09581097050000054
20612.0,0.108461549,-1.281925288,10.267366417,-0.021210986399487087,-0.3129654601506152,2.1248964764010485,10.347652366240604,2.1479251198803273,-0.25977815849999997,-0.18318822200000007,-0.06707748599999874
20622.0,-0.17043957699999998,-1.3836202484999998,10.123797061,-0.03213500218771959,-0.3771831046484946,2.078531804821819,10.219330779154737,2.1127219922303384,-0.278901126,-0.10169496049999971,-0.14356935600000043
20632.0,-0.412271566,-1.4111769349999999,9.899911241499998,-0.014016739222766462,-0.42168201925734194,2.018845035062117,10.008477945001733,2.062461507504649,-0.241831989,-0.027556686500000094,-0.2238858195000013
20642.0,-0.46973853499999996,-1.456679791,9.734669189,0.016893041830053114,-0.4424653999900905,1.9602229161461313,9.854255655504259,2.0096106304543437,-0.05746696899999998,-0.04550285600000015,-0.16524205249999824
20652.0,-0.40746630749999996,-1.4997309845,9.723881874,0.04273962272283714,-0.4112903288909678,1.8973369578675237,9.847288993277427,1.9418738222860208,0.0622722275,-0.04305119349999997,-0.010787314999999964
20662.0,-0.35235293449999994,-1.456679791,9.72035148,0.04353898352025055,-0.3417424488574977,1.8387165842807902,9.835207242285072,1.8707116885683674,0.05511337300000002,0.04305119349999997,-0.0035303940000002143
20672.0,-0.40981990349999997,-1.283102086,9.8220464405,0.024087289006773743,-0.26260398458431883,1.804342324662762,9.91397496444998,1.8235109746806233,-0.057466969000000034,0.17357770500000003,0.10169496049999971
20682.0,-0.5798672145,-1.1346294049999999,9.9465908955,-0.0028256880589788195,-0.19518889689678584,1.8075397678524154,10.027876161759584,1.8180502474774327,-0.17004731100000003,0.1484726810000001,0.12454445500000055
20692.0,-0.7773731454999999,-1.1454167199999998,10.066330092,-0.024141394213585566,-0.14456038595493434,1.8408476312974753,10.161067364745932,1.8466728226070641,-0.1975059309999999,-0.010787314999999964,0.11973919649999942
20702.0,-1.140121129,-1.1992552285,10.128504253000001,-0.03053628059289279,-0.12191124825180392,1.8845471851089093,10.262781674327673,1.8887331494376527,-0.36274798350000004,-0.05383850850000016,0.062174161000001504
20712.0,-1.591423162,-1.3489047075,10.171653512999999,-0.01694714703686494,-0.13336933479114668,1.9130588837694886,10.383386094092378,1.9177770668210328,-0.45130203299999994,-0.14964947900000003,0.04314925999999808
20722.0,-1.9505426849999998,-1.5523926949999998,10.158512601999998,0.010765190826301025,-0.17120632764513177,1.9053323111709097,10.459919604398934,1.9130391297490859,-0.35911952299999994,-0.20348798749999975,-0.013140911000000699
20732.0,-2.1408897615,-1.680467544,10.160866197999999,0.05419770926217992,-0.19492186152123073,1.8488412392716094,10.519058039149316,1.859877913149019,-0.19034707650000016,-0.12807484900000032,0.002353596000000735
20742.0,-2.284557184,-1.7307756585,10.1344863095,0.10722430259627164,-0.20611291268501836,1.7598434100539142,10.531979807446701,1.7751136334761637,-0.14366742250000009,-0.050308114499999945,-0.026379888499999282
20752.0,-2.241407924,-1.7595091429999998,10.227943684000001,0.1597168251792531,-0.21810506997547138,1.6652483099250737,10.617467396189456,1.6870480785984316,0.043149259999999856,-0.028733484499999795,0.09345737450000158
20762.0,-2.3144674665,-1.7511734905,10.458988358,0.21007830074554948,-0.22210187396253842,1.576517516082934,10.854206821324919,1.6058859278847029,-0.0730595424999998,0.00833565249999979,0.23104467399999784
20772.0,-2.5036377450000002,-1.7295988605,10.6636531435,0.2529784937595701,-0.2546103766101848,1.5024405066405386,11.089328768744707,1.5447174622489122,-0.18917027850000023,0.02157463000000015,0.20466478550000033
20782.0,-2.5945453905,-1.7858890314999998,10.844389703,0.29348060438135054,-0.336413958651159,1.4363571051722774,11.292557436060674,1.5041366129119627,-0.09090764549999975,-0.05629017099999989,0.18073655949999967
20792.0,-2.6041559075,-1.7451914339999999,10.920979639499999,0.3425103937283752,-0.4480609255719843,1.3649452134976774,11.362003230867682,1.4768708131338402,-0.00961051700000004,0.040697597499999905,0.07658993649999957
20802.0,-2.5658119059999995,-1.618293383,10.8827337045,0.3910061123242896,-0.5405232333548878,1.2993958827805263,11.297617319306458,1.460643969575872,0.0383440015000005,0.12689805099999996,-0.038245934999999065
20812.0,-2.435383461,-1.4794312189999999,10.6960150885,0.40353059503660094,-0.5820917401496368,1.2503660934335015,11.06908072548411,1.4370397011527487,0.13042844499999973,0.13886216400000007,-0.18671861600000028
20822.0,-2.2629825539999997,-1.402743216,10.572647431499998,0.36942337079412774,-0.550649633674959,1.2119967751576584,10.902735999763816,1.381529887099018,0.1724009070000001,0.0766880029999999,-0.12336765700000107
20832.0,-2.228267013,-1.364497281,10.472129269,0.2950793259761773,-0.4661809338661894,1.1786889117125985,10.793169976319598,1.3014238442233712,0.03471554099999974,0.03824593499999995,-0.10051816249999845
20842.0,-2.3025033534999997,-1.4314767004999998,10.415839098,0.1964891671895216,-0.4014309639464518,1.135788718698578,10.762915560031981,1.2205616842916078,-0.07423634049999972,-0.06697941949999975,-0.056290171000000555
20852.0,-2.4401887194999996,-1.4506977345,10.3500364765,0.10802366339368505,-0.3984988108031013,1.0721033996225569,10.732301708791969,1.14885861338405,-0.13768536599999992,-0.019221034000000303,-0.0658026214999996
20862.0,-2.508344937,-1.413530531,10.211174312499999,0.05446474463773505,-0.435538188188925,0.9900327822060274,10.609332859577105,1.082970374304834,-0.06815621750000034,0.037167203500000134,-0.13886216400000073
20872.0,-2.3694827729999997,-1.4399104194999999,9.990916953500001,0.02275560278750207,-0.4739075064647683,0.9130253649495337,10.36852025119603,1.0289419124436063,0.1388621640000003,-0.02637988849999995,-0.22025735899999788
20882.0,-2.134907705,-1.4171589915,9.7490849645,-0.012950343049797926,-0.46804669083657136,0.8546702814091033,10.08021964845497,0.9745238355792475,0.23457506799999983,0.02275142799999985,-0.24183198900000136
20892.0,-1.976824507,-1.4111769349999999,9.473714232499999,-0.06251245781868091,-0.39716712458382963,0.8266909081703822,9.780108221917834,0.9192754700764569,0.15808319799999992,0.005982056500000166,-0.27537073200000073
20902.0,-1.8487496579999998,-1.5452338405,9.284543954,-0.1237996945024618,-0.288717600852658,0.8173656139769765,9.592099840678237,0.87565447769824,0.1280748490000001,-0.13405690550000005,-0.1891702784999989
20912.0,-1.8152109149999998,-1.7463682319999998,9.200795163,-0.16696517756278553,-0.17600249242961216,0.8059075274376337,9.539361839198582,0.8416300794533478,0.03353874300000004,-0.2011343914999999,-0.08374879099999966
20922.0,-1.9193575379999999,-1.919945937,9.192459510499999,-0.16776453836019894,-0.08860338480674414,0.7712679777733021,9.584958925935057,0.7942605326144196,-0.1041466230000001,-0.17357770500000025,-0.008335652500001345
20932.0,-2.1432433575,-2.049197584,9.271403043,-0.10434625465973299,-0.06062401156802304,0.7057169017268993,9.734044237288474,0.7159607231008749,-0.22388581949999997,-0.1292516469999998,0.0789435325000003
20942.0,-2.0953869055,-2.1892365459999996,9.374372868,0.0001064650843716541,-0.12937253080407968,0.6292435552215155,9.85201855491439,0.6424054131537803,0.047856451999999994,-0.14003896199999977,0.10296982500000063
20952.0,-1.951719483,-2.1820776915,9.383983384999999,0.13760001289798093,-0.25727374904872813,0.556498231998392,9.830046600195738,0.6283421263264533,0.14366742249999986,0.007158854499999645,0.009610516999998708
20962.0,-1.7470546974999999,-2.1928650065,9.387513778999999,0.2854869964072165,-0.3795811870407348,0.48828378351344565,9.797258392208706,0.681179679611094,0.2046647855000001,-0.010787314999999964,0.0035303940000002143
20972.0,-1.4824712805,-2.11627507,9.318082697,0.40299826961474267,-0.4432647607875039,0.42646422140780643,9.669695259807394,0.7353658855355246,0.2645834169999999,0.07658993650000001,-0.06943108199999948
20982.0,-1.1843491204999999,-2.0337030769999997,9.312100640499999,0.4677482395344803,-0.4342047566404013,0.3710412910107265,9.604886744955865,0.7382369713795579,0.29812216000000014,0.08257199300000018,-0.00598205650000061
20992.0,-0.956932907,-1.8900356545,9.333675270499999,0.47520952208675604,-0.36305990034135643,0.32627534102632394,9.571073577134591,0.6812431131979557,0.22741621349999985,0.14366742249999964,0.021574629999999928
21002.0,-0.7330470874999999,-1.8468863944999998,9.459396523499999,0.43763781927907414,-0.2660667178202756,0.2911017206108822,9.665843469428072,0.5891167719031719,0.22388581950000008,0.0431492600000003,0.12572125300000003
21012.0,-0.5702566975,-1.830117023,9.5431453145,0.3712891277645097,-0.17280504923995857,0.2633893827477163,9.733763070497519,0.4869200841854625,0.16279038999999995,0.016769371499999908,0.08374879100000143
21022.0,-0.5116129305,-1.699688578,9.6665129715,0.30413933012327987,-0.09419891038863795,0.2386091980279008,9.82813115912767,0.3978800274325943,0.05864376699999996,0.13042844499999995,0.1233676569999993
21032.0,-0.4876847045,-1.594365157,9.704758906499999,0.24631831733395973,-0.03184702286114053,0.21649238574662863,9.846937699516024,0.3294782229611213,0.023928225999999997,0.10532342100000003,0.038245934999999065
21042.0,-0.390696936,-1.583577842,9.7178998175,0.18956021005910415,0.015049974139947103,0.19304388724608482,9.853828684345983,0.2709714327421691,0.09698776850000002,0.010787314999999964,0.013140911000000699
21052.0,-0.299691224,-1.6027008095,9.719174681999998,0.1426632130580165,0.05262167694762904,0.1658638748047771,9.854989660762936,0.2250170176010526,0.09100571200000002,-0.019122967499999977,0.0012748644999991399
21062.0,-0.1668111165,-1.594365157,9.7286871325,0.11361918897557886,0.07074168524183418,0.1392179331145797,9.859877257071442,0.19312001200035853,0.13288010749999998,0.008335652500000013,0.009512450500000824
21072.0,-0.053152043,-1.5631800099999997,9.726333536499999,0.11495087519485053,0.06354743806511354,0.116036469989591,9.851290318866013,0.17526107086385953,0.11365907349999999,0.03118514700000019,-0.002353596000000735
21082.0,0.0689407495,-1.502182647,9.646115139499999,0.12827471870457524,0.03903254339160119,0.10697646584248843,9.762624791334584,0.17152815263537421,0.12209279249999999,0.060997362999999805,-0.08021839699999944
21092.0,0.1383718315,-1.379991788,9.569525203,0.14852577401546546,0.017715091907742442,0.112039666002524,9.66950550491349,0.1868866415401326,0.06943108199999999,0.12219085899999982,-0.07658993649999957
21102.0,0.188679946,-1.2675095125,9.5060761775,0.17890322964642677,0.01664869573477391,0.13015792896747713,9.592062592515417,0.22186624601478705,0.0503081145,0.11248227550000012,-0.06344902549999887
21112.0,0.2078029135,-1.1957248345,9.5311812015,0.21141173229407312,0.03583510020194757,0.15600625518951314,9.608140039910229,0.2651735782771729,0.019122967500000004,0.07178467799999999,0.025105024000000142
21122.0,0.15396440499999997,-1.1155064375,9.690441197499998,0.23938936020354223,0.06514615965994035,0.18398388309898223,9.755650170660905,0.30887110116888516,-0.05383850850000002,0.08021839700000011,0.15925999599999763
21132.0,0.140823494,-1.1657164855,9.789782562,0.24231976801764074,0.07047464986627902,0.20316854223690392,9.85994770738,0.32397994197259566,-0.013140910999999977,-0.05021004800000006,0.09934136450000075
21142.0,0.176715833,-1.3118355705,9.8651957005,0.22180342266044736,0.056351445559140914,0.20903110319435286,9.953603732258262,0.30994555299784843,0.035892338999999995,-0.14611908500000004,0.07541313850000009
21152.0,0.2401648585,-1.4555029929999999,9.8891239265,0.19382404942172626,0.04169591583014453,0.2029032521906008,9.998546902203593,0.28368299434522476,0.0634490255,-0.14366742249999986,0.023928226000000663
21162.0,0.3550987965,-1.5548443575,9.895105983,0.16051618597666648,0.03237062163673883,0.187448361664191,10.022811908148718,0.2488979537807292,0.11493393799999999,-0.09934136450000008,0.00598205650000061
21172.0,0.39814998999999995,-1.51414676,9.8412674745,0.12907407950198865,0.052089351525770766,0.17012771416739927,9.965024301526169,0.2198109589385509,0.04305119349999997,0.040697597499999905,-0.05383850850000016
