timestamp,ax,ay,az,gx,gy,gz,acc_mag,gyro_mag,dax,day,daz
47322.0,-0.023928225999999997,-1.4442253455,10.2284340165,-0.21157753857301262,0.11558617504257647,-0.15797498658576273,10.329918772114253,0.28823829564504383,0.0,0.0,0.0
47332.0,0.05266171049999999,-1.6633059065,10.305023953000001,-0.22356795053421363,0.01113345529847183,-0.12067031915363595,10.438528558482481,0.2542988561861654,0.07658993649999998,-0.21908056099999995,0.07658993650000134
47342.0,0.404622379,-1.7207728754999998,10.1925416775,-0.21957114654714663,-0.016578882564694135,-0.12280136617032102,10.344693538535525,0.2521240236003299,0.35196066849999996,-0.05746696899999981,-0.11248227550000145
47352.0,0.36637644399999997,-1.65732385,10.1852847565,-0.19638793809290594,0.014065608441822301,-0.12626584473552976,10.325743538045488,0.23389982282164865,-0.03824593500000001,0.06344902549999976,-0.00725692099999975
47362.0,0.44531997649999994,-1.668111165,10.073979279,-0.1819994437394647,0.06336068783515014,-0.1164064797910138,10.220859222882828,0.22514182823667758,0.07894353249999997,-0.010787314999999964,-0.1113054775000002
47372.0,0.5733948255,-1.750683158,10.161356530499999,-0.176670953533126,0.13850234812126203,-0.12706520553294318,10.326995675681772,0.2579556022158393,0.12807484900000005,-0.08257199299999995,0.08737725149999953
47382.0,0.5686876335,-1.7627453374999997,10.3325806395,-0.1617483884285745,0.1856663804979048,-0.1451852138271483,10.497280572659951,0.2858553695848104,-0.004707192000000027,-0.01206217949999977,0.17122410900000062
47392.0,0.5267151715,-1.6908625929999999,10.4630090845,-0.12844052498351471,0.1670140467818414,-0.1569085904127942,10.6118332196951,0.26269938337540494,-0.04197246199999993,0.07188274449999987,0.13042844499999973
47402.0,0.6177208835,-1.6226083089999999,10.4498681735,-0.08580736734504922,0.0793479037834182,-0.1630381867457983,10.593119543263736,0.2006002105254843,0.09100571199999996,0.068254284,-0.013140910999998923
47412.0,0.8451370970000001,-1.5926980265,10.3684729785,-0.04104141736064666,-0.02137504734917455,-0.17129883009548746,10.524075998501115,0.1774389466273764,0.22741621350000008,0.02991028249999994,-0.0813951950000007
47422.0,1.122861425,-1.575928655,10.245203388,0.015182619163098673,-0.07493396610512455,-0.17502859870699933,10.426339787619135,0.19099900933311528,0.2777243279999999,0.016769371499999908,-0.12326959049999964
47432.0,1.3743039309999998,-1.4993387185,10.259521097,0.08472875386731671,-0.07973013088960497,-0.17209819089290088,10.459182617553981,0.20773454891324944,0.25144250599999984,0.07658993650000001,0.014317709000000178
47442.0,1.539447917,-1.389210039,10.3912244065,0.14921343374075122,-0.06267651876836837,-0.1614394651509715,10.596100654856732,0.22859504745697998,0.16514398600000013,0.11012867950000005,0.13170330949999887
47452.0,1.7477411629999997,-1.2659404485,10.573137764,0.1846523442024961,-0.05867971478130135,-0.15504457877166428,10.791128141603913,0.248150395028448,0.20829324599999977,0.12326959049999986,0.18191335750000093
47462.0,1.905824361,-1.1510065105,10.744361872999999,0.19238066213032698,-0.07466693072956941,-0.14065433908897101,10.972615665381273,0.2497380884263203,0.15808319800000037,0.11493393800000007,0.17122410899999885
47472.0,2.0805788639999996,-1.1665010175,10.805457302499999,0.17692577160391718,-0.11383735513207816,-0.10867990719243491,11.06559716189337,0.23679736972454868,0.1747545029999995,-0.01549450699999988,0.06109542949999991
47482.0,2.256510165,-1.0935395415,10.777900616,0.1342908686361997,-0.1506096971423467,-0.06684436502213083,11.065749343896488,0.2125687827682755,0.17593130100000032,0.07296147599999991,-0.02755668649999876
47492.0,2.4001775875,-0.9797824015,10.6832664435,0.08179834605321824,-0.14794457937455133,-0.018081611050661254,10.993316510891496,0.1700162128784851,0.14366742250000009,0.11375714000000003,-0.09463417249999928
47502.0,2.518739986,-0.925943893,10.73239776,0.035433674473988874,-0.12183096310621219,0.027216664355599572,11.062810894565281,0.12976546411415177,0.11856239849999994,0.05383850849999994,0.04913131649999869
47512.0,2.5402165494999998,-0.893581948,10.801828841999999,0.008520697408236317,-0.1266271278906926,0.06558772796069491,11.132416411004764,0.14285930792641643,0.021476563499999823,0.032361945,0.06943108199999948
47522.0,2.5810122134999998,-0.879264239,10.826933866,-0.004801400772236401,-0.16926203085841007,0.09889559140575468,11.165000071068432,0.1960944327082821,0.04079566400000001,0.014317709000000067,0.025105024000000142
47532.0,2.567773236,-0.925943893,10.783882672499999,0.006921975813409511,-0.2332126399807343,0.12660618393966866,11.123981165875266,0.2654527735920464,-0.013238977499999915,-0.04667965400000007,-0.043051193500000196
47542.0,2.6192581484999997,-0.929474287,10.698859017,0.04902280803001673,-0.30142708846568067,0.15271980020800782,11.053959469996261,0.3414452558516796,0.05148491249999987,-0.0035303939999999923,-0.0850236554999988
47552.0,2.7569435144999996,-0.949872119,10.600694450499999,0.10204940136410845,-0.3395311166952209,0.18576237360676448,10.994440295779437,0.40025381818428135,0.13768536599999992,-0.020397832000000005,-0.09816456650000127
47562.0,2.9054161954999995,-1.040877831,10.468991140999998,0.1334915078387863,-0.32487558696622454,0.22679680965040316,10.914423733687336,0.4180920024818974,0.14847268099999988,-0.09100571199999996,-0.13170330950000064
47572.0,2.9245391629999995,-1.0528419439999999,10.4486913755,0.13242685699506976,-0.25399602071348276,0.28088805382821136,10.901218139979335,0.4011844336153595,0.019122967499999977,-0.011964112999999887,-0.020299765499999012
47582.0,2.7712612235,-0.9582077715,10.415152632499998,0.10418044838079353,-0.17459052106474876,0.33764441577381504,10.820048764238974,0.3941309013179816,-0.15327793949999968,0.09463417249999984,-0.03353874300000115
47592.0,2.625240205,-1.05519554,10.397206462999998,0.07593578509576929,-0.14501417156045285,0.3824103657582176,10.775306306357757,0.4159724044342473,-0.14602101849999993,-0.0969877684999999,-0.017946169500000053
47602.0,2.4456804434999997,-1.275452899,10.446239713,0.08206538142877337,-0.1615337129305792,0.4274433511181753,10.804261060838181,0.4642582101129979,-0.1795597615000002,-0.2202573590000001,0.04903325000000258
47612.0,2.1775666325,-1.3951920955,10.458203826,0.1273636568350342,-0.19937245111381624,0.4610165046095382,10.773225361445109,0.5181767004294189,-0.26811381099999965,-0.11973919649999987,0.011964112999999443
47622.0,1.999183669,-1.4310844345,10.543227481499999,0.1731942576631533,-0.22441967120918688,0.46181586540695163,10.826097345198836,0.5418803680284994,-0.17838296350000005,-0.035892339000000106,0.0850236554999988
47632.0,1.812465053,-1.3604765545,10.6677719365,0.19984194468260275,-0.24227264412783686,0.434904633670451,10.905837157819084,0.5364465279366128,-0.18671861600000006,0.07060788000000007,0.12454445500000055
47642.0,1.7370519145,-1.3030095855,10.783882672499999,0.20144066627742954,-0.2667875388013492,0.3960012446434974,11.00033221442965,0.518238283658372,-0.07541313849999987,0.057466969000000034,0.11611073599999955
47652.0,1.7322466559999998,-1.2372069639999999,10.903523802499999,0.18412001878063783,-0.3067555786720194,0.3640250674177093,11.109374008497388,0.5104051489460659,-0.004805258500000242,0.06580262150000005,0.11964112999999976
47662.0,1.709495228,-1.1282550825,10.939514208,0.14734767677036925,-0.36777577998024513,0.35123529465909487,11.1296138555107,0.5294682185022668,-0.02275142799999985,0.1089518814999999,0.03599040550000154
47672.0,1.8495341899999997,-1.155811769,10.789864729,0.09831963275259657,-0.41280876534020283,0.3584295418358155,11.008081505669193,0.555472378599459,0.14003896199999977,-0.027556686500000094,-0.1496494790000007
47682.0,1.932106183,-1.215632334,10.542050683499998,0.0402298392584693,-0.40561451816348215,0.3842761227285995,10.786363098252158,0.5601872149657485,0.08257199300000018,-0.05982056499999988,-0.24781404550000197
47692.0,1.9728037804999998,-1.2730993029999997,10.396029665,-0.01999100125234305,-0.3294047163751498,0.42238015095813974,10.657868895197304,0.5360150177230905,0.040697597499999905,-0.05746696899999981,-0.14602101849999727
47702.0,1.8806212704999998,-1.352140902,10.362490922,-0.07807904941721833,-0.212694549294289,0.46128353998509336,10.618203213842293,0.513923937483531,-0.09218251,-0.07904159900000018,-0.03353874300000115
47712.0,1.641240944,-1.4538358624999999,10.393578002499998,-0.13030628195389665,-0.10824182955018434,0.48952820327011753,10.622324333468875,0.5180095390800146,-0.23938032649999985,-0.10169496049999993,0.031087080499998976
47722.0,1.3395883899999999,-1.5244437425,10.4282935435,-0.15961734141188944,-0.06800500897470706,0.500186929012047,10.623922628110297,0.5294235930514923,-0.30165255400000013,-0.07060788000000007,0.0347155410000024
47732.0,1.017538004,-1.562787744,10.4522217695,-0.14975797646737346,-0.09971415082494003,0.4911269248649444,10.617279738294108,0.5230449499972617,-0.3220503859999999,-0.03834400150000006,0.023928225999998887
47742.0,0.7912985884999999,-1.5471951704999998,10.522927716,-0.09326690456807298,-0.17352412489178023,0.46234993615806186,10.665457049181793,0.5025701949703465,-0.22623941550000004,0.015592573500000206,0.0707059465000004
47752.0,0.7457957325,-1.5172848879999998,10.5528379985,-0.01173035790265389,-0.27078434278841623,0.4178510215492144,10.687411030205297,0.49805746436089166,-0.045502855999999925,0.02991028249999994,0.029910282499999497
47762.0,0.834349782,-1.3473356435000001,10.4845837145,0.06581113010495018,-0.3549860072216307,0.37548315395705206,10.603676181463088,0.5208970810768492,0.08855404950000001,0.1699492444999997,-0.068254284
47772.0,0.903780864,-1.0947163395,10.4379040605,0.11883597810978991,-0.3760364233299343,0.3586965772113706,10.533995675445441,0.5330934400902273,0.06943108200000003,0.2526193040000002,-0.04667965400000007
47782.0,1.076181771,-1.0001802334999998,10.4055421155,0.1366889510284399,-0.335801348083709,0.3608276242280557,10.508750373910354,0.511510497560074,0.17240090699999988,0.09453610600000006,-0.03236194499999989
47792.0,1.1348255379999999,-1.054018742,10.458203826,0.12443324902093572,-0.2859721979392709,0.3981322916601825,10.572266160873236,0.5057401043210953,0.05864376699999996,-0.05383850850000016,0.05266171050000068
47802.0,1.053430343,-1.1151141715,10.510963602999999,0.10045067976928164,-0.25692817385683325,0.4578190614198846,10.622313823580244,0.5345097927885906,-0.08139519499999981,-0.06109542949999991,0.052759776999998564
47812.0,0.944576528,-1.3018327875,10.521652851499999,0.08979195402735228,-0.2827747547496173,0.5172405411332835,10.643879562985322,0.5962901427355716,-0.10885381500000002,-0.18671861600000006,0.010689248500000303
47822.0,0.8846578964999999,-1.4634463795,10.410347374,0.12016940965831358,-0.35631769344090236,0.5705341698429304,10.549863854422965,0.6833097574563342,-0.0599186315000001,-0.16161359199999992,-0.11130547749999842
47832.0,0.9158430435,-1.4933566619999998,10.330128977,0.1777251324013306,-0.4042810866149585,0.6067724411020887,10.477616488578029,0.7504679972941083,0.03118514700000008,-0.02991028249999994,-0.08021839700000122
47842.0,0.9936097779999998,-1.5089492355,10.133799844,0.19424467377145693,-0.3533872856268038,0.6304879749781875,10.293594487083105,0.748417432669333,0.07776673449999982,-0.015592573500000206,-0.196329132999999
47852.0,0.9540889785,-1.552000429,9.956691745,0.13615662560658162,-0.21509263168652917,0.6278228572103923,10.121990990682738,0.6774695616322761,-0.03952079949999987,-0.04305119349999997,-0.1771080989999998
47862.0,0.718239046,-1.5460183725,10.0583867055,0.035433674473988874,-0.03363249468593073,0.6038420332879901,10.201822545637896,0.6058150634895949,-0.23584993249999997,0.005982056499999944,0.10169496049999971
47872.0,0.37353529849999995,-1.6933142554999998,10.200877329999999,-0.06342351968822195,0.07481877437449293,0.5646716088854814,10.347209289891305,0.5731268775147974,-0.34470374750000005,-0.14729588299999974,0.14249062449999883
47882.0,0.12209279249999999,-1.872874017,10.267954816,-0.13803285455247555,0.04524067954094502,0.5007209997631572,10.438077401368115,0.5213648507763513,-0.25144250599999995,-0.1795597615000002,0.06707748600000052
47892.0,-0.020299765499999997,-1.9386766384999998,10.241574927499999,-0.15668518826853892,-0.06880436977212047,0.4322395159026557,10.423470448211653,0.4648820158171838,-0.142392558,-0.06580262149999982,-0.02637988850000106
47902.0,-0.06099736299999999,-1.9016075014999998,10.143410360999999,-0.11804883461714047,-0.18151947819516626,0.36855419682663454,10.32030065064464,0.4274541429407792,-0.040697597499999995,0.03706913700000003,-0.0981645664999995
47912.0,0.10532342099999999,-1.8141321834999997,10.05966157,-0.03837629959285131,-0.2313468830103524,0.3203255136062753,10.22247325773741,0.39699188318675993,0.16632078399999997,0.08747531800000008,-0.08374879099999966
47922.0,0.2705654735,-1.665757569,10.093102246499999,0.03996454921216616,-0.2081654198853637,0.29208085032125103,10.233213909248375,0.3608894988139257,0.16524205250000001,0.14837461449999978,0.03344067649999971
47932.0,0.42021495249999996,-1.562787744,10.255892636499999,0.07646985584687956,-0.13568713203779517,0.29208085032125103,10.38278478590961,0.33101338308030637,0.14964947899999997,0.10296982499999996,0.16279038999999962
47942.0,0.487194372,-1.5544520915,10.364844518,0.0519549611733672,-0.04189313803561989,0.30353719153134184,10.492077084314234,0.3107879979145464,0.06697941950000003,0.008335652500000013,0.10895188150000124
47952.0,0.38549941149999994,-1.5556288895,10.525281311999999,-0.011995647948957027,0.018861773226302718,0.3107331840373144,10.646602168525424,0.3115361515473338,-0.10169496050000004,-0.0011767979999999234,0.16043679399999888
47962.0,0.262229821,-1.6214315109999997,10.580394685,-0.06875375522381262,0.019127063272605858,0.305937019252834,10.707126426556366,0.31415025569959215,-0.12326959049999997,-0.06580262149999982,0.055113373000001076
47972.0,0.17475450299999998,-1.669287963,10.5396970875,-0.10312626951258895,-0.016844172610997275,0.2952782935109046,10.672500931646315,0.31322200470791345,-0.087475318,-0.047856452000000216,-0.04069759749999946
47982.0,0.09581097049999998,-1.633395624,10.4641858825,-0.11405203063007345,-0.04482354584971837,0.2814221245793217,10.591333588839642,0.306945317859915,-0.0789435325,0.035892338999999884,-0.07551120499999975
47992.0,-0.0310870805,-1.5412131139999998,10.4630090845,-0.10632371270224256,-0.042957788879336434,0.26170339469028975,10.575956853716315,0.28572499068267065,-0.12689805099999998,0.09218251000000022,-0.0011767980000012557
48002.0,-0.1460210185,-1.529249001,10.546855941999999,-0.09406626536548639,-0.03789458871930088,0.2379878608141908,10.658146879556687,0.25869419017235334,-0.11493393799999999,0.011964112999999887,0.08384685749999932
48012.0,-0.2285930115,-1.4969851225,10.580394685,-0.09433330074104151,-0.05334947924571067,0.20734511513692636,10.688216451413643,0.23395925999120776,-0.08257199300000001,0.03226387850000001,0.03353874300000115
48022.0,-0.1795597615,-1.4850210095,10.5995176525,-0.11565075222490025,-0.05761331860833282,0.16870876148552788,10.704545930223544,0.2125018521642371,0.04903325,0.011964112999999887,0.019122967499999532
48032.0,-0.1016949605,-1.4789408865,10.5659789095,-0.17080839257567706,-0.016311847189139004,0.13273578027267274,10.669466637407481,0.21693402383582824,0.077864801,0.006080123000000048,-0.03353874299999937
48042.0,-0.0442279915,-1.4969851225,10.4486913755,-0.2696655867378879,0.054567719063602714,0.10848792097471553,10.555475926393207,0.2957478548221605,0.057466969,-0.018044235999999936,-0.1172875340000008
48052.0,-0.10414662299999998,-1.4993387185,10.31463447,-0.39703447956067806,0.1081266378195527,0.09756215985723103,10.42355732759156,0.42290202506276453,-0.05991863149999998,-0.002353596000000069,-0.1340569054999996
48062.0,-0.12444638849999999,-1.563964542,10.064368762,-0.5190748821771296,0.13104106556898626,0.09116727347792379,10.185921193969909,0.5430671836210091,-0.02029976550000001,-0.0646258234999999,-0.2502657079999988
48072.0,-0.1436674225,-1.7495063599999998,9.6861262715,-0.6216618449508523,0.1353049049316084,0.08317366550378978,9.843904458059855,0.6416297416731751,-0.019221034000000012,-0.18554181799999991,-0.3782424905000017
48082.0,-0.195152335,-1.9590744704999998,9.25159361,-0.6850801286513183,0.11212344180661972,0.06425429641217124,9.458754756278104,0.6971621500647409,-0.05148491250000001,-0.20956811050000002,-0.4345326614999987
48092.0,-0.25379610199999997,-2.115882804,8.813432487999998,-0.6720233205171486,0.07588342521820947,0.02615026818263104,9.067412239563565,0.6767994341514814,-0.05864376699999996,-0.15680833350000012,-0.4381611220000021
48102.0,-0.256149698,-2.115882804,8.5440438125,-0.5627744359885636,0.06042853469179967,-0.03859970173710659,8.805864942069457,0.5673240789720082,-0.0023535960000000133,0.0,-0.26938867549999834
48112.0,-0.25379610199999997,-1.9997720679999997,8.4842232475,-0.3799808674394415,0.06762452719777229,-0.10921223261429316,8.720409674938605,0.40110578162294186,0.0023535960000000133,0.11611073600000021,-0.05982056500000077
48122.0,-0.0550153065,-1.9529943474999998,8.69849855,-0.19026008708915385,0.08547750011642229,-0.1691660377495504,8.915216802168546,0.2685562363699784,0.19878079549999997,0.04677772049999995,0.21427530250000082
48132.0,0.10659828549999999,-1.8680687584999998,8.9474893935,-0.05676159793335959,0.1150538496207182,-0.19847709720754317,9.141039904067275,0.23633117743629964,0.16161359199999997,0.08492558900000002,0.24899084349999967
48142.0,0.1652420525,-1.6956678514999999,9.2252137215,0.011985175973445061,0.12571257536264757,-0.20007581880236996,9.38121328005482,0.23659591990747128,0.058643767,0.17240090699999988,0.2777243279999997
48152.0,0.1568083335,-1.6430061409999999,9.473027767,0.04689176101333165,0.1011976806891352,-0.17582795950441274,9.615732582969004,0.2082193054720839,-0.008433718999999978,0.052661710500000014,0.2478140455000002
48162.0,0.1795597615,-1.6752700195,9.639446617499999,0.07247305185981254,0.04604004033835842,-0.1459845746245617,9.785586463662648,0.1693621108410821,0.02275142799999999,-0.03226387850000023,0.1664188504999995
48172.0,0.1987807955,-1.6513417935,9.6741621585,0.10444748375634866,-0.033897784732233864,-0.13212840569297873,9.816101924520384,0.17180294602757532,0.019221033999999998,0.023928225999999997,0.03471554100000063
48182.0,0.2227090215,-1.5340542595,9.6992671825,0.15001279453816463,-0.08186117790629004,-0.1382562566967308,9.822357438867162,0.2198178416078804,0.023928225999999997,0.11728753400000014,0.025105024000000142
48192.0,0.1675956485,-1.3389019245,9.738787982,0.19424467377145693,-0.07093716211805753,-0.14784858626569164,9.831822721305219,0.2542091239879225,-0.05511337299999999,0.19515233499999995,0.03952079949999998
48202.0,0.10414662299999998,-1.0827522264999998,9.8944195175,0.2283518980139301,-0.03229906313740706,-0.15237946100386893,9.954031167891626,0.27641873840597014,-0.06344902550000002,0.2561496980000002,0.15563153549999953
48212.0,0.112580342,-0.9510489169999999,10.164984990999999,0.24140870614809967,-0.0008569566627292158,-0.14864794706310505,10.20999942425008,0.28350504394965714,0.00843371900000002,0.13170330949999987,0.2705654734999996
48222.0,0.1209159945,-0.8553360130000001,10.3900476085,0.2267531764191033,-0.0019233528356977514,-0.1278645663303566,10.425896109196428,0.2603268131121605,0.008335652499999999,0.09571290399999988,0.22506261750000078
48232.0,0.356765927,-0.9367312079999999,10.544404279499998,0.18358769335877956,-0.03283313388851733,-0.10201798543757255,10.591940751923001,0.21257969137826724,0.23584993249999997,-0.08139519499999981,0.1543566709999986
48242.0,0.530343632,-0.9893929184999999,10.542050683499998,0.10178236598855331,-0.06081076179798643,-0.06924244741437104,10.6016505945378,0.13730300543182294,0.17357770500000003,-0.052661710500000014,-0.002353596000000735
48252.0,0.5985979159999999,-1.0241084594999998,10.409170576,0.003991567999311031,-0.0799971662651601,-0.037268015517834915,10.476542830634692,0.0883424258563595,0.06825428399999989,-0.03471554099999996,-0.13288010749999835
48262.0,0.530343632,-0.9882161205,10.2762904685,-0.07275055921087964,-0.05814738935944308,-0.0074228853087318835,10.337310156022356,0.09342837888522398,-0.06825428399999989,0.035892338999999884,-0.13288010750000012
48272.0,0.37951735499999995,-0.9223154324999999,10.1517460135,-0.11964755621196727,-0.002988003679414292,0.013360495424016593,10.200619897946742,0.12042827206042288,-0.15082627700000006,0.06590068800000004,-0.12454445499999878
48282.0,0.29567049749999996,-0.917510174,10.1278177875,-0.1377658191769204,0.03804643236422439,0.022685789617422295,10.173590275772206,0.1447121176671096,-0.08384685749999998,0.004805258499999909,-0.023928226000000663
48292.0,0.275370732,-0.940261602,10.168515385,-0.12551011716941624,0.03591538534753931,0.024019221165945966,10.215606984179624,0.13273894455645435,-0.020299765499999955,-0.022751427999999962,0.04069759749999946
48302.0,0.355589129,-0.9702699509999999,10.193718475499999,-0.08713905356432089,0.0023404865269243957,0.027748989777457846,10.2459632911809,0.09148059338973354,0.080218397,-0.030008348999999934,0.025203090499999803
48312.0,0.5195563169999999,-1.0252852575,10.214018240999998,-0.04317246437733173,-0.02803696910403691,0.03867475089494235,10.278488082070346,0.06438687501143803,0.16396718799999993,-0.05501530650000008,0.020299765499999012
48322.0,0.5278919695,-1.12580342,10.324146920499999,0.00585732496969297,-0.05894675015685649,0.052796209872828466,10.398755353791909,0.07935028284002017,0.008335652500000013,-0.10051816250000001,0.11012867950000071
48332.0,0.624879738,-1.1653242195,10.419957891,0.04875751798371359,-0.09625141758898328,0.09196663427533722,10.503522155626149,0.1417726799060899,0.09698776850000002,-0.03952079949999998,0.09581097050000054
48342.0,0.64527757,-1.2563299315,10.433098801999998,0.06074792994491463,-0.11037287656686941,0.1284719409100506,10.528261900780285,0.17993755159897332,0.020397832000000005,-0.09100571200000007,0.013140910999998923
48352.0,0.566235971,-1.403527748,10.460655488499999,0.030370474313953327,-0.10371095481200704,0.15058875319132276,10.569570784253512,0.185351828816955,-0.07904159899999996,-0.14719781649999986,0.027556686500000538
48362.0,0.4561072915,-1.5436647764999998,10.4594786905,-0.009065240134858547,-0.09038885663153433,0.15058875319132276,10.582609757549875,0.17586726975072944,-0.11012867949999999,-0.14013702849999987,-0.0011767979999994793
48372.0,0.4070740415,-1.7112604249999999,10.4737963995,-0.05249950389998943,-0.0893224604585658,0.12820490553449548,10.620477038985277,0.16483688196282398,-0.04903325000000003,-0.16759564850000008,0.014317709000000178
48382.0,0.5278919695,-1.8956254449999999,10.415152632499998,-0.11005522664300643,-0.09545205679156989,0.09463175204313254,10.599408951326753,0.17371936147688755,0.12081792799999996,-0.18436502,-0.05864376700000129
48392.0,0.6177208835,-1.8788560735,10.295413436,-0.18146711831760642,-0.09385333519674308,0.07384662598113208,10.48366429513122,0.21723739946621895,0.08982891400000004,0.016769371499999908,-0.11973919649999765
48402.0,0.748247395,-1.8668919605,10.125464191499999,-0.23209388393020594,-0.09598438221342816,0.0778451752974511,10.32328362729866,0.2629457052392989,0.13052651150000005,0.011964112999999887,-0.16994924450000148
48412.0,0.8977988075,-1.9637816625,9.920799406,-0.24142092345286364,-0.09385333519674308,0.10422408161209337,10.15306564397225,0.2792045307588506,0.14955141249999993,-0.09688970199999991,-0.20466478549999856
48422.0,0.8823043004999999,-1.9961436074999999,9.744770038499999,-0.21850475037417808,-0.07600036227809308,0.1417957844197753,9.986170100879074,0.2713418977631406,-0.015494507000000102,-0.03236194499999989,-0.17602936750000175
48432.0,0.7685471604999999,-2.094308174,9.59874902,-0.17747031433053942,-0.05894675015685649,0.16977341232924442,9.854581382004351,0.25257363947282974,-0.11375713999999992,-0.09816456650000016,-0.14602101849999904
48442.0,0.6954876179999999,-2.257098564,9.4693993065,-0.12337732482347916,-0.04375714967674983,0.17004044770479954,9.759493848573543,0.21459358397696898,-0.07305954250000002,-0.16279039000000006,-0.1293497134999999
48452.0,0.588987399,-2.372032502,9.373686402499999,-0.050633746929607495,-0.02910161994775345,0.14978939239390934,9.687075983966396,0.16077170984178643,-0.10650021899999995,-0.11493393800000007,-0.09571290400000088
48462.0,0.5195563169999999,-2.3923322675,9.421542854499998,0.023975587934646103,0.008203047484373348,0.12714025469077894,9.734406104320708,0.12964090082870827,-0.06943108200000003,-0.0202997654999999,0.04785645199999955
48472.0,0.48601757399999995,-2.4019427845,9.5915901655,0.07220601648425741,0.06282661708403987,0.09889559140575468,9.899704244327948,0.13762714350826077,-0.03353874299999998,-0.00961051700000004,0.17004731100000114
48482.0,0.44178958249999994,-2.337316961,9.8489166615,0.09112538557587593,0.09080599032276097,0.0810426184871047,10.13209692100091,0.15204430205073724,-0.04422799150000001,0.06462582350000012,0.257326496000001
48492.0,0.45375369549999994,-2.266709081,10.0703508185,0.09512218956294295,0.06309365245959501,0.08024325768969129,10.33227119667943,0.139527847874877,0.011964112999999998,0.07060787999999985,0.22143415699999913
48502.0,0.45375369549999994,-2.2391523945,10.184107958499999,0.09512218956294295,0.012199851471440364,0.09543111284054596,10.437229075399179,0.13529288459175773,0.0,0.027556686500000094,0.11375713999999881
48512.0,0.37108363599999994,-2.163739256,10.129092651999999,0.09698620120407289,-0.030435051496277118,0.11568216815143616,10.364264980482831,0.15399668701564687,-0.0826700595,0.07541313850000009,-0.05501530649999964
48522.0,0.24663724749999996,-2.085874455,10.01651231,0.09965131897186824,-0.03736226329744261,0.12367577612557018,10.23436471063336,0.1631625621636367,-0.12444638849999998,0.07786480100000004,-0.11258034199999933
48532.0,0.19152387449999997,-2.0332127444999997,9.991407286,0.09858492279889972,-0.015779521767280733,0.10555576783136505,10.197982889455865,0.14529280929536104,-0.05511337299999999,0.052661710500000236,-0.025105024000000142
48542.0,0.1436674225,-1.864440298,10.0452457945,0.09112538557587593,0.020460494821129525,0.07704406917078568,10.21781488504338,0.12107128618739596,-0.047856451999999966,0.16877244649999956,0.05383850850000016
48552.0,0.12209279249999999,-1.7543116184999998,10.112323280499998,0.07193898110870228,0.04390899332167334,0.06025749242510423,10.26409265518033,0.10360589795394118,-0.02157463000000001,0.11012867950000027,0.06707748599999874
48562.0,0.1209159945,-1.7064551664999998,10.143410360999999,0.04822344723260332,0.047106436511326955,0.05972516700324596,10.286660471923947,0.0900644924337942,-0.0011767979999999928,0.047856451999999994,0.031087080500000752
48572.0,0.1424906245,-1.7459759659999998,10.093102246499999,0.03196919590878013,0.04337492257056307,0.06105685322251763,10.24399573458635,0.08143311808160343,0.021574629999999997,-0.03952079949999998,-0.050308114499999945
48582.0,0.186718616,-1.8620867019999998,10.0309280855,0.024242623310201238,0.04790579730874036,0.04853411583945832,10.204006516256195,0.07237562159363045,0.04422799150000001,-0.11611073599999999,-0.06217416099999973
48592.0,0.17475450299999998,-1.8512993869999999,9.9650273975,0.024774948732059508,0.05589940528287438,0.021886428820008894,10.137041954611364,0.06494272370441924,-0.011964113000000026,0.010787314999999964,-0.06590068799999926
48602.0,0.25742456249999995,-1.8225659024999998,9.992584084,0.029038788094681654,0.06336068783515014,-0.0044924774946334045,10.160696361477598,0.0698427543199075,0.08267005949999998,0.028733484500000017,0.027556686500000538
48612.0,0.300475756,-1.7961860139999999,10.0895718525,0.03303559208174867,0.07508406442079606,-0.01888097184807466,10.252610889114699,0.08417516362957506,0.04305119350000003,0.02637988849999995,0.09698776850000002
48622.0,0.3303860385,-1.8453173305,10.1709670475,0.022643901715374434,0.07774918218859139,-0.014618877814704504,10.342288028575217,0.08228847552635529,0.029910282499999996,-0.04913131650000002,0.08139519499999892
48632.0,0.3627479835,-1.9350481779999997,10.2439285235,0.0031922072018976287,0.06362597788145329,-0.0004956735075663896,10.431398235389699,0.0637079346739253,0.032361945,-0.08973084749999982,0.07296147599999969
48642.0,0.37235850049999997,-2.0224254294999997,10.417506228499999,-0.0005393067388662478,0.00580496509213314,0.0157585778162568,10.618535279953594,0.01680241786977374,0.009610516999999985,-0.08737725149999997,0.17357770499999958
48652.0,0.436984324,-2.0129129789999998,10.3349342355,0.020245819323134222,-0.10850886492573947,0.04160515870904083,10.538199068747865,0.11796209644941821,0.06462582350000001,0.009512450499999936,-0.0825719929999984
48662.0,0.5853589385,-1.9733921794999998,10.162533328499999,0.05568472978487909,-0.21882414562729305,0.08024325768969129,10.368896056662294,0.23963258594227946,0.1483746145,0.03952079949999998,-0.17240090700000188
48672.0,0.404622379,-1.7842219009999998,10.0440689965,0.11270812710603782,-0.228681765242557,0.13380217644564127,10.209333429173924,0.2879261955637126,-0.1807365595,0.1891702785,-0.1184643319999985
48682.0,0.031185147,-1.7554884165,10.0679972225,0.1460159905510976,-0.12636183784438945,0.17563597328669336,10.21994521346014,0.261028693197499,-0.37343723199999995,0.028733484499999795,0.023928226000000663
48692.0,-0.36147311899999995,-1.8956254449999999,10.354057203,0.12070173508017185,0.01752834167777905,0.1743042870674217,10.532357723059317,0.21273959693347902,-0.392658266,-0.14013702849999987,0.28605998049999926
