timestamp,ax,ay,az,gx,gy,gz,acc_mag,gyro_mag,dax,day,daz
73992.0,0.578200084,-0.2364383315,9.8261652335,0.2299523649380089,-0.16073435213316578,-0.09402437746343852,9.846001300923346,0.2958955992468271,0.0,0.0,0.0
74002.0,0.90025047,-0.590752596,9.980619971,0.14015342959364865,-0.049886746009753916,0.002701769682087222,10.038536474204793,0.14879170277175596,0.322050386,-0.3543142645,0.15445473750000005
74012.0,0.8140500165,-0.8744589804999999,10.234416072999998,0.06261368691529658,0.11691960659110014,0.07571238295151402,10.303913251441001,0.15271880410329672,-0.08620045350000005,-0.28370638449999996,0.253796101999999
74022.0,0.5339720925,-0.9319259495,10.568430571999999,0.02983814889209506,0.20485103963582646,0.10848792097471553,10.622868582737176,0.23371754869200964,-0.280077924,-0.057466969000000034,0.33401449900000024
74032.0,0.2023111895,-0.917510174,10.8772419805,0.03596599989584715,0.18513405507604652,0.11541513277588103,10.917744631522664,0.2211081734606004,-0.331660903,0.01441577549999995,0.30881140850000044
74042.0,0.080218397,-0.9869412559999998,11.081906766,0.06261368691529658,0.04657236576021669,0.11488280735402276,11.126057055593805,0.1388795106096349,-0.12209279249999999,-0.06943108199999981,0.20466478550000033
74052.0,0.16279038999999998,-1.0241084594999998,11.035227112,0.10444748375634866,-0.13115800262886987,0.11115129341325888,11.083841223209383,0.20116239346375783,0.08257199299999998,-0.03716720350000002,-0.04667965400000007
74062.0,0.36392478149999996,-0.9822340639999999,10.874888384499998,0.14841407294333783,-0.2654541072528256,0.10555576783136505,10.925219557446193,0.3219233452663756,0.20113439149999998,0.04187439549999994,-0.160338727500001
74072.0,0.6632237394999999,-0.9163333759999999,10.708469533999999,0.17932385399615738,-0.3046245316553343,0.10848792097471553,10.768047749950503,0.3697604344649155,0.29929895799999995,0.06590068800000004,-0.1664188504999995
74082.0,0.901427268,-0.8721053844999999,10.6246226765,0.19291298755218525,-0.2689185858180343,0.12873897628560574,10.698399223209323,0.35511455979690104,0.23820352850000004,0.04422799150000001,-0.08384685749999932
74092.0,1.0570588035,-0.844548698,10.679736049499999,0.1958451406955357,-0.20896478068277707,0.16950812228294126,10.765100924020183,0.33279814034898675,0.15563153549999997,0.027556686499999872,0.0551133729999993
74102.0,1.1121721764999999,-0.846902294,10.819775011499999,0.19078194053550016,-0.15726987356795702,0.2148063976892021,10.90970676715204,0.32752610652402037,0.055113372999999966,-0.002353596000000069,0.1400389620000002
74112.0,1.1133489745,-0.8624948674999999,10.980211805499998,0.17745809702577545,-0.13328904964555496,0.2635691516606717,11.070162357848487,0.3445664589923849,0.0011767980000001454,-0.015592573499999873,0.16043679399999888
74122.0,1.1049152555,-0.8277793265,11.067589057,0.15987215948268058,-0.15114202256420495,0.3040712622824521,11.153366481463951,0.37531633445468116,-0.008433719000000117,0.03471554099999996,0.08737725150000131
74132.0,1.076181771,-0.8433718999999998,11.148984251999998,0.1460159905510976,-0.20496797669571007,0.3397772081197521,11.232510548282885,0.4228251318512237,-0.028733484500000017,-0.015592573499999873,0.08139519499999892
74142.0,1.1060920534999998,-0.8983872064999999,11.12858642,0.13962110417179038,-0.28010963698182195,0.36509146359067784,11.219446283619666,0.4808817299991977,0.02991028249999994,-0.05501530650000008,-0.020397831999998672
74152.0,1.20425662,-0.9115281175,11.055624943999998,0.13855470799882186,-0.33553431270815387,0.3765495501300206,11.158313511378047,0.5230394304603553,0.09816456650000016,-0.013140911000000033,-0.07296147600000147
74162.0,1.2677056455,-0.8026743025,10.999334773,0.1342908686361997,-0.35258792482939044,0.38720653054269805,11.101203947683034,0.5406303537810971,0.06344902549999998,0.10885381499999991,-0.05629017099999878
74172.0,1.36116302,-0.7128453885,10.975406547,0.11537324487383316,-0.3504551324834534,0.4074575858535882,11.082439360847038,0.5496830630339146,0.09345737450000002,0.08982891400000004,-0.023928225999998887
74182.0,1.527483804,-0.7020580734999999,10.9729548845,0.08286474222618677,-0.3453936776526698,0.44263120626902996,11.100983344160158,0.5675259842772182,0.16632078400000005,0.010787315000000075,-0.0024516625000003955
74192.0,1.5801455144999998,-0.7032348715,10.9119575215,0.04715879638888679,-0.3328691949403585,0.4892629132238144,11.048177047934583,0.5936362954481006,0.05266171049999979,-0.0011767980000000344,-0.06099736300000025
74202.0,1.570633064,-0.720004243,10.853313754499998,0.02184454091796103,-0.33153750872108684,0.5366922356467603,10.989982428797914,0.6312153827818353,-0.009512450499999936,-0.01676937150000002,-0.05864376700000129
74212.0,1.5083608364999999,-0.7942405835,10.782705874499998,0.006122615015996108,-0.33153750872108684,0.5742639384544423,10.916625691739283,0.6631241792551577,-0.062272227500000055,-0.07423634050000005,-0.07060788000000073
74222.0,1.3826395835,-0.8840694974999999,10.701212613000001,-0.002138028333693054,-0.3344679165351853,0.6083711626969155,10.826320819322753,0.6942541537201922,-0.1257212529999998,-0.08982891399999982,-0.0814932614999968
74232.0,1.2773161625,-0.9917465145,10.627074339,-0.000804596785169386,-0.3453936776526698,0.6320866965730143,10.749409599351907,0.7202992655299664,-0.10532342100000003,-0.1076770170000001,-0.07413827400000095
74242.0,1.1743463374999998,-1.110308913,10.526458109999998,0.010653489754173389,-0.35951513663055595,0.6438100731586602,10.649797910959233,0.7374659589506414,-0.10296982500000018,-0.11856239849999994,-0.10061622900000167
74252.0,1.0713765124999999,-1.2060218169999999,10.476248061999998,0.03116983511136673,-0.3701738623724853,0.6411467007201169,10.599722152546045,0.7409921314352296,-0.10296982499999996,-0.09571290399999999,-0.050210048000000285
74262.0,1.029502117,-1.2539763355,10.4020117215,0.05222025121967034,-0.3800332273170013,0.6240930885988804,10.527781300593437,0.732560162539099,-0.04187439549999983,-0.0479545185000001,-0.07423634049999883
74272.0,1.025971723,-1.2108270755,10.415152632499998,0.06394537313456825,-0.3771028195029028,0.6027756371150216,10.53537491223882,0.7138865567593904,-0.0035303939999999923,0.04314926000000008,0.013140910999998923
74282.0,1.0391126339999999,-1.1629706235,10.45585023,0.06847450254349352,-0.37124025854545384,0.5886524328078835,10.57152116629643,0.6992994878548919,0.01314091099999981,0.047856451999999994,0.04069759750000124
74292.0,1.109720514,-1.136590735,10.476248061999998,0.0698079340920172,-0.3800332273170013,0.5902511544027103,10.595994128661971,0.7054748945220539,0.07060788000000007,0.02637988849999995,0.020397831999998672
74302.0,1.152869774,-1.103051992,10.472619601499998,0.06261368691529658,-0.3896255568859621,0.6113015705110139,10.593469390647238,0.7276112687947149,0.04314926000000008,0.03353874300000004,-0.003628460499999875
74312.0,1.1145257725,-1.0384261685,10.429470341499998,0.0511556003759538,-0.3821642743336864,0.6464751909264557,10.540130369650102,0.7527261125470637,-0.03834400150000006,0.0646258234999999,-0.043149259999999856
74322.0,1.0666693205,-0.996551773,10.397206462999998,0.03516663909843375,-0.36164792897649306,0.6837798583585825,10.499180973286169,0.7743260371028144,-0.047856451999999994,0.04187439550000005,-0.03226387850000023
74332.0,0.991256182,-1.0049854919999999,10.387595946,0.015449654538653806,-0.335801348083709,0.7197528395714375,10.483068930176856,0.7943836524446783,-0.07541313849999998,-0.008433718999999895,-0.009610516999998708
74342.0,0.830819388,-1.0109675485,10.372101439,-0.002138028333693054,-0.3211458183547126,0.7495962244512887,10.45431989660268,0.8154959886618085,-0.160436794,-0.005982056500000166,-0.015494506999999658
74352.0,0.7122569894999999,-1.0696113155,10.261972759499999,-0.01999100125234305,-0.30915366106425957,0.7623859972099031,10.342120831921143,0.8229265064525778,-0.11856239850000005,-0.05864376699999996,-0.11012867950000071
74362.0,0.6034031745,-1.1162909694999998,10.196072071499998,-0.03384717018392603,-0.28197539395220383,0.7533259930628005,10.27473048828076,0.8050812415824968,-0.10885381499999991,-0.04667965399999985,-0.06590068800000104
74372.0,0.5471130034999999,-1.1485548479999999,10.118305336999999,-0.04743630373995389,-0.24200560875228175,0.7320102869081937,10.197971061452654,0.7724350961210189,-0.05629017100000011,-0.03226387850000001,-0.07776673449999905
74382.0,0.5459362055,-1.1510065105,10.090748650499998,-0.06129247267153687,-0.19350989015636733,0.7074953922346814,10.170844146640762,0.7360384329828342,-0.0011767979999999234,-0.0024516625000001735,-0.027556686500000538
74392.0,0.5482898015,-1.1868988495,10.087120189999998,-0.07461457085200958,-0.15753690894351216,0.6944385841005118,10.171496660417233,0.7159819543469162,0.002353595999999958,-0.035892338999999884,-0.003628460499999875
74402.0,0.5399541489999999,-1.2216143904999999,10.107518021999999,-0.08234288877984047,-0.141282657619689,0.6952379448979252,10.195381933363446,0.7142107116968927,-0.008335652500000013,-0.03471554099999996,0.02039783200000045
74412.0,0.474053461,-1.2730993029999997,10.211664644999999,-0.06955311602122603,-0.15966795596019726,0.6973689919146103,10.301631101001828,0.7187871750335905,-0.06590068799999993,-0.05148491249999987,0.1041466230000001
74422.0,0.395011862,-1.2227911884999998,10.234416072999998,-0.03704461337357964,-0.2129615846698441,0.6971037018683072,10.314772174753772,0.7298482794962162,-0.07904159900000002,0.050308114499999945,0.022751427999999407
74432.0,0.37951735499999995,-1.2539763355,10.1948952735,0.005057964172279567,-0.27158370358582967,0.6925728271301299,10.278734343798016,0.7439357579347726,-0.015494507000000046,-0.03118514700000019,-0.039520799499998205
74442.0,0.45728408949999994,-1.329389474,10.109871618,0.03596599989584715,-0.29982836687085385,0.6819141013882005,10.207148928301859,0.7457864603229456,0.07776673449999999,-0.07541313850000009,-0.08502365550000057
74452.0,0.520733115,-1.3234074174999997,10.109871618,0.03756646681992595,-0.26705282884765236,0.6627294422502789,10.209411065394201,0.7154989632768393,0.06344902550000003,0.005982056500000388,0.0
74462.0,0.5339720925,-1.2503478749999999,10.0895718525,0.006921975813409511,-0.19324285478081216,0.6432777477368021,10.180764026871762,0.6717119735469455,0.013238977500000026,0.0730595424999998,-0.020299765499999012
74472.0,0.544661341,-1.2312249075,10.133799844,-0.04397182517474514,-0.11383735513207816,0.627290531788534,10.22284060462075,0.6390507617585688,0.01068924849999997,0.019122967499999977,0.044227991499999675
74482.0,0.5793768819999999,-1.259958392,10.154197675999999,-0.10152754791776214,-0.050419071431612186,0.6152983744980809,10.24845857503708,0.6256532709178464,0.03471554099999996,-0.028733484500000017,0.020397831999998672
74492.0,0.5949694555,-1.3041863834999998,10.205682588499998,-0.14256372929065284,-0.016044811813583873,0.6099698842917423,10.305864731942526,0.6266140060980709,0.015592573500000095,-0.0442279914999999,0.051484912499999425
74502.0,0.5231847775,-1.319778957,10.211664644999999,-0.14682582332402297,-0.017643533408410676,0.6113015705110139,10.309880388670408,0.628934596579917,-0.07178467799999999,-0.015592573500000206,0.00598205650000061
74512.0,0.475230259,-1.3018327875,10.2188234995,-0.11538371684934512,-0.037629298672997746,0.617431166844018,10.312369568610922,0.6292460663547744,-0.04795451850000004,0.017946169500000053,0.007158854500000089
74522.0,0.42855060500000003,-1.307814844,10.2643263555,-0.06528927665860389,-0.043491859630446696,0.6227596570503567,10.356178388741888,0.6276813060384993,-0.04667965399999996,-0.005982056499999944,0.04550285600000059
74532.0,0.404622379,-1.2646655839999998,10.3565088655,-0.012795008746370429,-0.039495055643379684,0.6208956454092267,10.441282210060304,0.6222820696092999,-0.023928226000000052,0.04314926000000008,0.09218251000000066
74542.0,0.31126307099999995,-1.1665010175,10.532440166499999,0.02770710187540998,-0.04082674186265135,0.6110362804647108,10.601410528042928,0.6130251564084483,-0.09335930800000003,0.09816456649999994,0.17593130099999854
74552.0,0.32803244249999997,-1.158165365,10.664143476,0.04529303941850484,-0.06667332275543539,0.6051737195072618,10.73186416111998,0.6105178311640624,0.01676937150000002,0.008335652500000013,0.13170330950000064
74562.0,0.35794272499999996,-1.1066804525,10.6809128475,0.03143687048692186,-0.09731606843269983,0.6030426724905767,10.744057142170112,0.6116528090720964,0.029910282499999996,0.05148491249999987,0.016769371500000574
74572.0,0.324403982,-1.074416574,10.634233193499998,0.0026598817800393584,-0.11463671592949155,0.6166318060466046,10.693293437092267,0.6272028665738704,-0.03353874299999998,0.03226387850000001,-0.04667965400000185
74582.0,0.312439869,-1.0875574849999998,10.538422222999998,-0.021855012893472994,-0.10930822572315287,0.6304879749781875,10.598997259417537,0.6402663636264311,-0.011964112999999998,-0.01314091099999981,-0.09581097050000054
74592.0,0.32803244249999997,-1.1905273099999998,10.458203826,-0.04184077815806006,-0.07626565232439622,0.6251577394425969,10.530858836075499,0.6311808771075971,0.015592573499999984,-0.10296982499999996,-0.08021839699999767
74602.0,0.29812215999999997,-1.2132787379999999,10.466637545,-0.06981840606752916,-0.018709929581379212,0.6113015705110139,10.540940357329111,0.6155601362986257,-0.029910282499999996,-0.022751428000000073,0.008433718999999229
74612.0,0.20593965,-1.1450244539999999,10.500176287999999,-0.10792243429706938,0.03724707156681099,0.5977124369549861,10.564430614982406,0.6085184906439381,-0.09218250999999997,0.068254284,0.03353874299999937
74622.0,0.09581097049999998,-1.1390423975,10.537245425,-0.14522710172919617,0.0716213311848393,0.5811911502556077,10.599063094068935,0.6033271743364351,-0.11012867950000002,0.005982056499999944,0.03706913700000136
74632.0,0.044326057999999995,-1.1545369045,10.605499709,-0.1649458316182281,0.07428470362338264,0.5646716088854814,10.668249356894005,0.592941287516699,-0.05148491249999999,-0.015494507000000102,0.068254284
74642.0,0.0024516625,-1.1533601065,10.648550902499998,-0.15988263145819256,0.03804643236422439,0.5500160791564851,10.710830120445765,0.5740450105943911,-0.041874395499999995,0.0011767979999999234,0.04305119349999842
74652.0,-0.014317708999999998,-1.1390423975,10.642568846,-0.1385669253035858,-0.025104815960686436,0.547883286810548,10.70335901583906,0.5656917363183226,-0.016769371499999998,0.014317709000000178,-0.0059820564999988335
74662.0,-0.045502855999999994,-1.075593372,10.545679144000001,-0.11565075222490025,-0.07466693072956941,0.5572103263332057,10.600486791652122,0.5739630604900607,-0.031185146999999996,0.06344902549999998,-0.09688970199999858
74672.0,0.019122967499999997,-1.110308913,10.4486913755,-0.10099522249590387,-0.08825606428559726,0.5620064911176861,10.507535535539308,0.5777892902335543,0.06462582349999998,-0.03471554099999996,-0.09698776850000179
74682.0,0.039520799499999995,-1.180916793,10.453496634,-0.1089888304700379,-0.07546629152698282,0.5561439301602371,10.520062653930909,0.5717252813879555,0.020397831999999998,-0.07060788000000007,0.0048052585000011305
74692.0,-0.028733484499999996,-1.2335785035,10.3708265745,-0.12124627780679409,-0.06320884419022664,0.5425547966042092,10.443973639175093,0.5595191910775729,-0.068254284,-0.052661710500000014,-0.08267005949999984
74702.0,-0.11365907349999999,-1.3041863834999998,10.388772744,-0.12257796402606576,-0.06027843637612816,0.5278992668752129,10.470932128247847,0.545285689454724,-0.084925589,-0.07060787999999985,0.017946169500000053
74712.0,-0.12444638849999999,-1.4777640884999999,10.4271167455,-0.13376901518985337,-0.06560692658246685,0.5007209997631572,10.532048102299829,0.5224173981064146,-0.010787315000000006,-0.17357770500000003,0.038344001499998726
74722.0,-0.196329133,-1.505320775,10.451044971499998,-0.1470928586995781,-0.08372693487667197,0.46554737934771545,10.560723306688162,0.4953593353534202,-0.0718827445,-0.027556686500000094,0.023928225999998887
74732.0,-0.25732649599999996,-1.5101260334999997,10.411524171999998,-0.1572192590196492,-0.10850886492573947,0.426909280367065,10.52361787346625,0.4677003344425629,-0.06099736299999997,-0.004805258499999798,-0.03952079949999998
74742.0,-0.19985952699999998,-1.5124796295,10.2894313795,-0.17320647496791725,-0.1119715981616962,0.3920026953271784,10.401919850374949,0.4429494721855629,0.05746696899999998,-0.002353596000000291,-0.12209279249999838
74752.0,-0.14964947899999997,-1.4969851225,10.094377110999998,-0.19718729889031936,-0.07839844467033329,0.36535675363698095,10.205871284835606,0.4225100050869104,0.05021004800000001,0.015494507000000102,-0.19505426850000163
74762.0,-0.197505931,-1.5220901464999999,9.947081228,-0.21104346782190234,-0.018976964956934343,0.34404104748237424,10.064799648442216,0.4040590462569058,-0.04785645200000002,-0.02510502399999992,-0.14729588299999818
74772.0,-0.2860599805,-1.5855391719999998,9.9183477435,-0.18652857314839,0.01140049067402696,0.31979144285516503,10.048352439050973,0.3703909376750073,-0.08855404949999998,-0.06344902549999998,-0.028733484500000017
74782.0,-0.292042037,-1.6944910535,10.040440536,-0.11645011302231367,-0.019509290378792614,0.28754997558307377,10.186610556937897,0.3108475988194536,-0.005982056499999999,-0.10895188150000013,0.12209279250000016
74792.0,-0.3866762095,-1.7435243034999999,10.119482135,-0.0010716321607245184,-0.12849288486107455,0.2558408337328408,10.275860750733857,0.28629722677756475,-0.0946341725,-0.04903324999999992,0.07904159899999996
74802.0,-0.3531374665,-1.7112604249999999,10.1027127635,0.14628302592665274,-0.27637986837031003,0.23052657826191503,10.252703228622343,0.3884933186038011,0.03353874299999998,0.03226387850000001,-0.016769371500000574
74812.0,-0.2860599805,-1.4861978074999997,9.9877788255,0.2843106444913723,-0.37736810954920597,0.21453936231364695,10.101798854786587,0.5189088269222131,0.06707748600000002,0.22506261750000012,-0.11493393800000007
74822.0,-0.0550153065,-1.3724406674999998,9.991407286,0.34826125361369653,-0.36511066221244975,0.18229789504155575,10.0853775152193,0.5364925152939034,0.23104467399999998,0.11375713999999992,0.003628460499999875
74832.0,0.11493393799999999,-1.2898686745,10.033281681499998,0.31255530777639656,-0.2689185858180343,0.15938172196287018,10.11650692224762,0.44205266599514936,0.16994924449999999,0.08257199299999973,0.04187439549999894
74842.0,0.2334963365,-1.2443658185,10.106341224,0.1947787445225672,-0.13328904964555496,0.15165514936429128,10.185337489024695,0.2805423575895594,0.11856239850000003,0.04550285600000015,0.07305954250000113
74852.0,0.18073655949999998,-1.3137969005,10.095553909,0.042627921650709506,-0.032033773091103925,0.1548525925539449,10.182285437426534,0.16377615132671006,-0.052759777000000035,-0.06943108200000014,-0.010787314999999964
74862.0,0.011964112999999998,-1.344883981,9.9889556235,-0.09166818297324618,-0.0037891098060796892,0.14899003159649596,10.079091750281995,0.17497269112025435,-0.16877244649999998,-0.031087080499999864,-0.10659828549999872
74872.0,-0.1711260425,-1.3592997565,9.808219064,-0.15295541965702705,-0.028302259150340046,0.11967897213850318,9.903440874658449,0.1962636865230012,-0.1830901555,-0.014415775500000061,-0.18073655950000145
74882.0,-0.21427530250000001,-1.4455002099999998,9.621500447999999,-0.13323668976799513,-0.06800500897470706,0.06372197099031297,9.731837217773204,0.16259516085318548,-0.04314926000000002,-0.08620045349999983,-0.18671861600000028
74892.0,-0.16279038999999998,-1.5089492355,9.5688387375,-0.04690223298884362,-0.10877415497204261,3.665191429188092e-05,9.688452058542325,0.11845521344619887,0.051484912500000035,-0.0634490255000002,-0.052661710499998904
74902.0,-0.06344902549999999,-1.4310844345,9.552069366,0.07193898110870228,-0.17592220728402042,-0.043928191943445286,9.658884905121331,0.1950731300462989,0.09934136449999999,0.07786480100000004,-0.016769371500000574
74912.0,0.128074849,-1.3533177,9.6059078745,0.1723948968657399,-0.22974816141552556,-0.05458691768537465,9.701615229303869,0.292376383659066,0.19152387449999997,0.07776673449999993,0.05383850850000016
74922.0,0.3292092405,-1.4550126605,9.6166951895,0.22755253721651672,-0.24813345975603385,-0.042329470348618475,9.731714490982476,0.33932603069049694,0.2011343915,-0.10169496049999993,0.010787314999999964
74932.0,0.4549304935,-1.5244437425,9.784290838,0.24673894168369037,-0.23294560460517919,-0.022612485788838534,9.912781530959627,0.34008099706042155,0.12572125299999998,-0.06943108199999992,0.16759564850000075
74942.0,0.44178958249999994,-1.460994717,9.9507096885,0.23474852972248933,-0.20203582355235958,-0.007689920684287016,10.067090289806444,0.30981362314378824,-0.013140911000000033,0.06344902549999998,0.1664188504999995
74952.0,0.36755324199999995,-1.3508660375000001,10.075156076999999,0.18518641495360635,-0.16872796010729982,-0.0044924774946334045,10.171956764206465,0.2505659896302362,-0.0742363405,0.11012867949999983,0.12444638849999912
74962.0,0.26340661899999995,-1.2347553015,10.161356530499999,0.1124410917304827,-0.12316264932548386,-0.008489281481700419,10.239490721781545,0.16698534426257436,-0.104146623,0.11611073600000021,0.08620045350000005
74972.0,0.1568083335,-1.1617938255,10.217646701499998,0.04396135319923317,-0.07253588371288433,-0.0138195170172911,10.2846807370525,0.08593622083678108,-0.10659828549999995,0.07296147599999991,0.05629017099999878
74982.0,0.089828914,-1.099521598,10.2535390405,-0.0013386675362796509,-0.0442912204278601,-0.0138195170172911,10.312714474536593,0.04641641184272196,-0.06697941950000001,0.062272227500000055,0.03589233900000188
74992.0,0.0765899365,-1.068336451,10.2990418965,-0.013594369543783834,-0.052017793026438996,-0.00555887366760194,10.354587040378322,0.054051445411633176,-0.013238977499999999,0.03118514699999997,0.04550285600000059
75002.0,0.034715541,-1.021656797,10.3804370915,0.011718140597889929,-0.11383735513207816,0.01202880920474492,10.430650123085913,0.11506932907348923,-0.041874395499999995,0.04667965400000007,0.08139519499999892
75012.0,-0.027556686499999997,-0.98458766,10.384065552,0.06447769855642652,-0.22495199663104515,0.03467794690787534,10.430675415304044,0.23656570842193628,-0.0622722275,0.03706913699999992,0.003628460499999875
75022.0,0.0299102825,-0.9678182885,10.235592870999998,0.10684556614858887,-0.3424615245093194,0.054929002218765545,10.281290205291372,0.3629229478272334,0.05746696899999999,0.01676937150000002,-0.14847268100000122
75032.0,0.15563153549999997,-0.9271206909999999,10.014158714,0.10577916997562033,-0.3850964274770368,0.0709162181670336,10.058188141991804,0.4056076937823322,0.12572125299999998,0.040697597500000016,-0.22143415699999736
75042.0,0.37235850049999997,-0.905546061,9.828616896,0.04715879638888679,-0.31954709675988585,0.08823686566382533,9.877265543146235,0.3348433119933804,0.216726965,0.021574629999999928,-0.1855418180000008
75052.0,0.5267151715,-0.9462436585,9.748398499,-0.05542991171408791,-0.18578157222853642,0.1207453683114717,9.808367816739194,0.2284003320072268,0.15435667100000006,-0.040697597500000016,-0.08021839699999944
75062.0,0.49798168699999995,-1.113839307,9.6849494735,-0.1593503060363343,-0.08052949168701837,0.15938172196287018,9.761499375949041,0.2393325142162941,-0.028733484500000073,-0.16759564849999986,-0.06344902550000064
75072.0,0.404622379,-1.3855815784999999,9.644251875999998,-0.21530730718452448,-0.05681395781091941,0.18016510269561864,9.751674206411721,0.28643415745772177,-0.09335930799999997,-0.27174227149999997,-0.04069759750000124
75082.0,0.221434157,-1.5352310574999999,9.57717439,-0.20784602463224872,-0.08266053870370345,0.17830109105448871,9.701970767955897,0.28604897078199193,-0.18318822199999998,-0.14964947900000003,-0.06707748599999874
75092.0,0.049131316499999994,-1.6190779149999999,9.479009823499998,-0.15508646667371212,-0.1290252102829328,0.1564513141487717,9.616415881975533,0.2552965544866775,-0.1723028405,-0.08384685749999998,-0.09816456650000127
75102.0,-0.02157463,-1.6142726565,9.457435193499999,-0.06422288048563535,-0.18338348983629618,0.11141832878881401,9.594239006478604,0.2239824250080872,-0.07070594649999999,0.004805258499999798,-0.021574629999999928
75112.0,0.013140911,-1.5926980265,9.502938049499999,0.0519549611733672,-0.23907520093818327,0.053330280623938735,9.635491230850338,0.2504004563206442,0.034715541,0.02157463000000015,0.04550285600000059
75122.0,0.256149698,-1.518461686,9.6166951895,0.16999681447349968,-0.2758457976191998,-0.0028937558998065986,9.73920761291122,0.32403424945292075,0.24300878699999998,0.07423634049999994,0.11375714000000059
75132.0,0.565059173,-1.3353715305,9.712408093499999,0.2424751023210682,-0.29050132734819617,-0.04579394891382722,9.820049896418329,0.3811591297526514,0.308909475,0.18309015549999996,0.0957129039999991
75142.0,0.869065323,-1.134237139,9.821359975,0.2589963890204465,-0.2734477152269596,-0.06444628262989062,9.924760963451966,0.3821074532553463,0.30400615,0.20113439150000012,0.10895188150000124
75152.0,1.187585315,-0.937908006,9.9542400825,0.23741190216103267,-0.2284164751962539,-0.04925842747903596,10.068610923467652,0.33311392961944425,0.31851999200000003,0.19632913299999988,0.13288010750000012
75162.0,1.3623398179999997,-0.7726659534999999,9.999742938499999,0.1838529834050827,-0.16446586607392966,0.006965609044709369,10.12165210286774,0.24677816013529463,0.17475450299999973,0.16524205250000013,0.045502855999998815
75172.0,1.4005857529999999,-0.7116685904999999,10.05966157,0.11457388407641976,-0.08745670348818387,0.08610407331788825,10.181596315762361,0.16789806830130374,0.038245935000000175,0.06099736300000003,0.05991863150000043
75182.0,1.2857498815,-0.7344200184999999,10.112323280499998,0.05088856500039867,-0.019509290378792614,0.16684300451514594,10.220156928868219,0.17551879276739815,-0.11483587149999996,-0.022751428000000073,0.052661710499998904
75192.0,1.096579603,-0.8169920114999999,10.114676876499999,0.004790928796724435,0.026855381200436748,0.23132593905932844,10.206696384657194,0.2329288616291167,-0.1891702785,-0.08257199299999995,0.002353596000000735
75202.0,0.875145446,-0.9151565779999999,10.118305336999999,-0.020790362049756456,0.057231091502146066,0.27182979501036086,10.197229722168364,0.27856610426263595,-0.2214341569999999,-0.09816456650000005,0.003628460499999875
75212.0,0.660772077,-1.009692684,10.1027127635,-0.0327807740109575,0.06469237405442181,0.2867506147856604,10.174522309949092,0.2957796434603113,-0.21437336900000004,-0.09453610600000006,-0.015592573499999318
75222.0,0.5243615755,-1.039701033,10.062015166,-0.038109264217296185,0.0692232487925991,0.2835531715960068,10.129169882112556,0.29435790343515533,-0.1364105015,-0.030008349000000045,-0.04069759749999946
75232.0,0.42374534649999995,-1.063629259,10.0464225925,-0.04530351139401681,0.07748214681303627,0.27262915580777425,10.111452626916458,0.2870236014961912,-0.100616229,-0.023928225999999997,-0.015592573499999318
75242.0,0.36637644399999997,-1.0839290245,10.026122827,-0.05090078230516262,0.0910730256983161,0.2654331633018016,10.091197786732856,0.2852015950683386,-0.057368902499999985,-0.0202997654999999,-0.020299765500000788
75252.0,0.3376429595,-1.1641474214999998,10.062015166,-0.053031829321847704,0.10999064946068264,0.26410147708252996,10.134761525951117,0.29096375734303825,-0.02873348449999996,-0.08021839699999989,0.035892339000000106
75262.0,0.20829324599999996,-1.215632334,10.162533328499999,-0.042640138955473465,0.11478681424516307,0.2715627596348057,10.237100746826162,0.2978934819615342,-0.12934971350000005,-0.05148491250000009,0.10051816249999845
75272.0,0.044326057999999995,-1.1533601065,10.2392213315,-0.017592918860102842,0.07055493501187078,0.28408549701786506,10.304069963375062,0.2932440609192877,-0.16396718799999996,0.06227222749999983,0.076688003000001
75282.0,-0.025105024,-1.1485548479999999,10.236769669,0.009587093581204853,-0.018709929581379212,0.29314550116496757,10.30103207243103,0.2938983815565083,-0.06943108199999999,0.004805258500000242,-0.0024516625000003955
75292.0,0.0418743955,-1.156988567,10.112323280499998,0.025574309529472913,-0.10424502556311732,0.301938469936515,10.178381901781316,0.3204495440629742,0.0669794195,-0.008433719000000117,-0.12444638850000089
75302.0,0.11973919649999999,-1.040877831,9.8944195175,0.023710297888342967,-0.14821161475010647,0.3133965564758578,9.949738776597638,0.34748562931970794,0.07786480099999998,0.11611073599999999,-0.21790376299999892
75312.0,0.23222147199999998,-1.0144979425,9.644251875999998,0.008787732783791448,-0.14474713618489773,0.3331152863648897,9.700243663698561,0.3633108196725926,0.11248227549999999,0.02637988849999995,-0.2501676415000009
75322.0,0.34597861199999996,-1.0456830895,9.450276338999998,-0.011995647948957027,-0.0941186252430462,0.3592289026332289,9.51424601358883,0.3715475954362107,0.11375713999999998,-0.03118514699999997,-0.19397553700000003
75332.0,0.3303860385,-1.1533601065,9.456258395499999,-0.02611885225609514,0.003939208121751202,0.3829444365093278,9.532062594851423,0.3838543385937546,-0.015592573499999984,-0.1076770170000001,0.00598205650000061
75342.0,0.20593965,-1.2227911884999998,9.396437830499998,-0.04477118597215854,0.0940034335124146,0.3901386836860485,9.47790448002969,0.40379363183903627,-0.12444638849999998,-0.0694310819999997,-0.05982056500000077
75352.0,0.1185623985,-1.306638046,9.388004111499999,-0.08021009643390341,0.14916107386319138,0.3829444365093278,9.479239485482665,0.4187232104617597,-0.0873772515,-0.0838468575000002,-0.008433718999999229
