timestamp,ax,ay,az,gx,gy,gz,acc_mag,gyro_mag,dax,day,daz
165422.0,0.44904650349999997,-1.4554049264999998,9.807434532,-3.316125578789226e-05,0.16019504539429952,-0.14053216604133142,9.924999665584483,0.21310031290643125,0.0,0.0,0.0
165432.0,0.17848102999999998,-1.0435256265,9.566779340999998,0.05059360435681162,0.172984818152914,-0.14159856221429995,9.625178864344102,0.22920212244734403,-0.2705654735,0.41187929999999984,-0.24065519100000188
165442.0,0.31018433949999996,-0.885540495,9.6672975035,0.049261918137539946,0.11622845620731037,-0.15545298581663095,9.712725534778238,0.2002533930055369,0.13170330949999998,0.15798513149999993,0.100518162500002
165452.0,0.41550776049999993,-0.9370254074999999,9.799000813,0.03966958856857911,0.09464396934789651,-0.10482622020403143,9.852465693749505,0.14669592234752132,0.10532342099999997,-0.05148491249999987,0.13170330949999887
165462.0,0.48248717999999996,-0.8819120344999999,9.8134165885,0.03167598059444508,0.05760633729132485,-0.06698748202079435,9.864771049289855,0.09385723515120074,0.06697941950000003,0.055113372999999966,0.014415775500001615
165472.0,0.5196543835,-0.933396947,9.771444126499999,0.021017254852515717,0.03122568564743055,-0.029417524542364425,9.829668908781771,0.047771949885768314,0.03716720350000008,-0.05148491250000009,-0.04197246200000215
165482.0,0.5304416985,-0.9346718115,9.7428087085,0.016753415489893567,0.015505505074717624,-0.005701990666265475,9.801902943874914,0.023528925087161933,0.010787314999999964,-0.001274864500000028,-0.02863541799999858
165492.0,0.560351981,-0.94536106,9.7798778455,0.018884462506578648,0.01470614427730422,-0.0006387905062299246,9.841428379522794,0.023943718528626916,0.02991028250000005,-0.01068924849999997,0.037069136999999586
165502.0,0.5950675219999999,-0.8951510119999999,9.800177610999999,0.021284290228070848,0.036023595761162965,-0.0025045474766118626,9.858949330287151,0.041916502956938495,0.03471554099999985,0.05021004800000006,0.020299765499999012
165512.0,0.6429239739999999,-0.8424893014999999,9.834893152,0.020750219476960586,0.06453354909249033,-0.012363912421127832,9.89182808032683,0.06890585531848664,0.047856451999999994,0.052661710500000014,0.03471554100000063
165522.0,0.7063729994999999,-0.8317019864999999,9.866078299,0.015154693895066762,0.09038187531452635,-0.027551767571982487,9.926237555628488,0.09569560088512066,0.06344902549999998,0.010787314999999964,0.031185147000000413
165532.0,0.8249353979999999,-0.9082919229999998,9.9307041225,0.009559168313172942,0.09704205174013672,-0.05286602304290824,10.00621791672053,0.11092048456957013,0.11856239850000005,-0.0765899364999999,0.06462582350000012
165542.0,1.0439178924999999,-0.91790244,9.991799552,0.00929213293761781,0.0829205927622506,-0.08244237254720416,10.08803091504913,0.11729839397786045,0.21898249449999996,-0.009610517000000152,0.06109542949999991
165552.0,1.29055514,-0.8591606064999999,10.028868688999998,0.009826203688728075,0.04907865856608054,-0.10749133797182678,10.147999640241736,0.11857342343270592,0.24663724750000005,0.05874183350000006,0.03706913699999781
165562.0,1.63771055,-0.8064988959999999,10.046814858499998,0.002631956512007449,0.011773991133953747,-0.12347855392009482,10.2113184807745,0.12406654400160136,0.34715541000000005,0.052661710500000014,0.017946169500000053
165572.0,1.9800607015,-0.723926903,10.008470856999999,-0.0074944438080636515,-0.007677703379523056,-0.11868238913561441,10.228108302023896,0.11916636819217731,0.34235015150000003,0.08257199299999995,-0.038344001499998726
165582.0,2.202769723,-0.6149750214999999,9.9858174955,-0.014421655609229145,-0.010875146569176666,-0.08777260808279483,10.244361365310592,0.0896118501821505,0.22270902149999983,0.10895188150000001,-0.022653361499999747
165592.0,2.4074345085,-0.5300494325,10.008470856999999,-0.018952530347406425,-0.0034138640169009086,-0.037943457938356726,10.307578872316647,0.04255066244390442,0.20466478550000033,0.08492558899999991,0.022653361499999747
165602.0,2.5462966724999996,-0.5491724,9.9905246875,-0.021882938161504904,0.0013823007675795092,0.026274186559522638,10.324524231210527,0.03422143505694784,0.1388621639999994,-0.019122967499999977,-0.017946169499998277
165612.0,2.5834638759999997,-0.563490109,10.052796914999998,-0.01868549497185129,0.00404741853537485,0.10967649019532366,10.394735807887146,0.1113304173202836,0.037167203500000134,-0.014317708999999956,0.06227222749999761
165622.0,2.5343325594999997,-0.5694721654999999,10.082707197499998,-0.01735380875257962,0.015238469699162491,0.19787495861560514,10.411922228865299,0.19921813392389973,-0.04913131650000002,-0.005982056499999944,0.029910282499999497
165632.0,2.4433268475,-0.6772472489999999,10.1282100535,-0.019219565722961556,0.03016103480371401,0.2778145290154494,10.44074464814703,0.2801071085479375,-0.09100571199999985,-0.10777508349999998,0.04550285600000237
165642.0,2.3380034265,-0.836507245,10.15576674,-0.026946138321540455,0.036023595761162965,0.33430385558549786,10.454931968719523,0.3373171529604397,-0.10532342100000003,-0.15925999600000007,0.027556686500000538
165652.0,2.247095781,-0.9513431164999999,10.210782046499999,-0.04453207586463532,0.023766148424406785,0.3609497972756953,10.498312396543866,0.36446219522072537,-0.09090764549999975,-0.11483587149999996,0.05501530649999786
165662.0,2.2087517795,-1.0016512309999999,10.246772452,-0.060786327188458514,-0.014337879805133418,0.36628003281128596,10.52987347004105,0.37156643390732363,-0.03834400150000006,-0.050308114499999945,0.03599040550000154
165672.0,2.2087517795,-0.978899803,10.2300030805,-0.06718295889701772,-0.07535808111335918,0.3633478796679355,10.511412477626275,0.37711281072701647,0.0,0.02275142799999985,-0.016769371500000574
165682.0,2.2685723445,-0.9981208369999999,10.188128684999999,-0.06718295889701772,-0.1494350905557545,0.36254851887052214,10.48525783133651,0.397851510982143,0.05982056499999988,-0.01922103399999986,-0.041874395500000716
165692.0,2.298482627,-0.94536106,10.143802627,-0.05945464096918683,-0.2016623230924328,0.3825342841351092,10.443824091582414,0.4365031791712085,0.02991028249999994,0.0527597769999999,-0.044326057999999335
165702.0,2.4313627345,-0.8664175274999999,10.091140916499999,-0.057323593952501764,-0.2163178528214292,0.4307629673554685,10.416013108446771,0.4854236725972408,0.13288010750000012,0.07894353250000008,-0.05266171050000068
165712.0,2.444601712,-0.7466783309999999,9.994153148,-0.0669159235214626,-0.1883384795827081,0.5051070121734189,10.315847187990746,0.543214706593088,0.013238977499999915,0.11973919649999998,-0.09698776849999824
165722.0,2.3105448065,-0.6844061035,10.013276115499998,-0.08157145325045899,-0.13877636481382513,0.6047635671330431,10.299161499005388,0.6258208637843695,-0.13405690550000005,0.062272227499999944,0.019122967499997756
165732.0,2.1943360039999997,-0.8064988959999999,10.004940462999999,-0.09942442616910897,-0.10466914057135193,0.701756749654124,10.274453009083965,0.7164519392060593,-0.1162088025000001,-0.12209279249999994,-0.008335652499999568
165742.0,1.9561324755,-0.9130971815,9.984542631,-0.11168187350586516,-0.09640849722166277,0.7745003275479957,10.21524802806204,0.788427673650711,-0.2382035284999997,-0.10659828550000006,-0.020397831999998672
165752.0,1.7262645994999999,-0.9933155785,9.965419663499999,-0.10555227717286106,-0.12465490583593901,0.8094069125878822,10.162492527704515,0.8257237303786242,-0.22986787600000014,-0.080218397,-0.01912296750000131
165762.0,1.5922076939999998,-1.1189387649999998,9.8624498385,-0.08530122186197087,-0.17474934602668024,0.7992805122678112,10.052614889548947,0.8225952648046256,-0.13405690550000005,-0.12562318649999982,-0.10296982499999885
165772.0,1.5826952435,-1.2123961395,9.803806071499999,-0.07038040208667133,-0.2093888956910117,0.7641086371816215,10.004471106482955,0.7953987176580923,-0.009512450499999936,-0.09345737450000025,-0.05864376700000129
165782.0,1.6066234695,-1.183662655,9.7235876745,-0.057855919374360035,-0.21924826063552766,0.7273362951713529,9.926250728108682,0.7618629755224663,0.023928225999999997,0.028733484500000017,-0.08021839699999944
165792.0,1.5958361545,-1.0315615135,9.621892714,-0.055190801606564685,-0.19500040133757046,0.7318654245802783,9.807733254318759,0.7594064661298715,-0.010787314999999964,0.15210114149999998,-0.10169496049999971
165802.0,1.5539617589999999,-0.9274148904999999,9.5859023085,-0.053859115387293016,-0.14437189039571896,0.7705035235609287,9.755225194512995,0.7857606040433319,-0.04187439550000005,0.1041466230000001,-0.03599040549999977
165812.0,1.4832558125,-0.941830666,9.522453282999999,-0.04746422900798579,-0.09640849722166277,0.824594767738737,9.683192104654875,0.8315671845100451,-0.07070594649999995,-0.014415775500000061,-0.06344902550000064
165822.0,1.3360579959999999,-0.941830666,9.547656373499999,-0.032276373857131134,-0.063100633776603,0.8728251962883482,9.686580314978485,0.8756981657901127,-0.14719781650000008,0.0,0.025203090499999803
165832.0,1.194842236,-1.01008495,9.602671679999998,-0.005628686837681713,-0.060702551384362785,0.9045343381385812,9.729297146712089,0.9065863724609415,-0.1412157599999999,-0.068254284,0.05501530649999964
165842.0,1.0367590379999998,-1.116585169,9.67327956,0.025546384261441003,-0.0926787286101509,0.9279828366391251,9.792546614053936,0.9329491463002816,-0.15808319800000015,-0.10650021899999995,0.07060788000000073
165852.0,0.8189533415,-1.15130071,9.704464707,0.04553214952602807,-0.12598659205521068,0.9479668565744601,9.806773840045926,0.9573854809750405,-0.2178056964999998,-0.03471554099999996,0.031185147000000413
165862.0,0.6644986039999999,-1.24348322,9.6973058525,0.05299168674905183,-0.15609701231061685,0.9580932568945312,9.799262712575384,0.9721713249338209,-0.15445473750000005,-0.09218251,-0.007158854500000089
165872.0,0.559175183,-1.2853576155,9.6757312225,0.05885424770650079,-0.17901318538930241,0.9620900608815982,9.77673748113696,0.9803707606122697,-0.10532342099999992,-0.04187439550000005,-0.021574629999999928
165882.0,0.45375369549999994,-1.2458368159999997,9.602671679999998,0.06578320483691827,-0.1838093501737828,0.9639558178519803,9.693776621222243,0.98352637281397,-0.10542148750000008,0.0395207995000002,-0.07305954250000113
165892.0,0.435807526,-1.2386779615,9.496171461,0.07031233424584356,-0.1595614908758256,0.9612907000841848,9.586528240647649,0.9769767160920252,-0.017946169499999942,0.007158854499999645,-0.10650021899999906
165902.0,0.408348906,-1.268588244,9.438704492,0.06311808706912293,-0.08308639904119007,0.9546287783293225,9.532324346619106,0.960314191832773,-0.02745861999999999,-0.02991028249999994,-0.057466969000000034
165912.0,0.247912112,-1.2853576155,9.427917177,0.04952895351309509,0.01577079512102076,0.9543617429537674,9.518362617140188,0.9557762141990166,-0.16043679400000002,-0.016769371499999908,-0.010787314999999964
165922.0,0.062370294,-1.300950189,9.473420033,0.0441987179775044,0.11303101301765678,0.959691978489358,9.562533585273231,0.967335634695358,-0.185541818,-0.015592573499999984,0.04550285600000059
165932.0,-0.16269232349999999,-1.3643992145,9.523728147499998,0.03460638840854356,0.20549332080056035,0.9706159942775906,9.622341286617193,0.9927338592794147,-0.22506261749999998,-0.06344902549999998,0.05030811449999817
165942.0,-0.3709855695,-1.439812353,9.614635793,0.018884462506578648,0.26438072976284904,0.971682390450559,9.728921386087224,1.0071844225889377,-0.20829324600000002,-0.07541313850000009,0.09090764550000152
165952.0,-0.5744735569999999,-1.511597031,9.680536480999999,0.006894050545377602,0.27717050252146347,0.9628894216790116,9.814669225796257,1.0020115038173285,-0.2034879874999999,-0.07178467799999999,0.06590068799999926
165962.0,-0.7493261265,-1.5499410324999998,9.682890077,-0.007227408432508519,0.23853414887006502,0.9317126052506369,9.834742858425313,0.9617895582676835,-0.17485256950000005,-0.038344001499999836,0.002353596000000735
165972.0,-0.7780596109999999,-1.706749366,9.619441051499999,-0.015488051782197679,0.1644571394276697,0.8666955999553442,9.800613057349743,0.8822966017381536,-0.028733484499999906,-0.15680833350000012,-0.06344902550000064
165982.0,-0.7636438354999999,-1.7366596484999999,9.499701855,0.0010314895879286487,0.09118123611193976,0.7875571356821652,9.687284138297779,0.792818594480205,0.01441577549999995,-0.02991028249999994,-0.11973919649999942
165992.0,-0.6583204144999999,-1.614566856,9.371627006,0.018352137084720378,0.05707401186946657,0.7196097225727741,9.532450085902875,0.7221027604072132,0.10532342100000003,0.12209279249999994,-0.128074848999999
166002.0,-0.442868314,-1.5463125719999997,9.227959583499999,0.02687981580996467,0.0853186751544908,0.6892322669418127,9.36709415926732,0.6950128909753008,0.2154521004999999,0.06825428400000022,-0.14366742250000186
166012.0,-0.35784465849999997,-1.484138411,9.1238129605,0.03114190984333482,0.17724865751553612,0.6881658707688443,9.250658493361993,0.7113080702696911,0.08502365550000002,0.06217416099999973,-0.10414662299999833
166022.0,-0.42364728,-1.4793331525,9.160980164,0.031941270640748226,0.29236010300157017,0.7062858790630493,9.289319736080703,0.7650715114034102,-0.06580262150000005,0.00480525850000002,0.037167203499999246
166032.0,-0.55897905,-1.4828635465,9.3154349015,0.03247534139185849,0.3821572930166784,0.7134801262397699,9.449268187535042,0.810032551780156,-0.13533177000000002,-0.0035303939999999923,0.15445473750000005
166042.0,-0.6750897859999999,-1.4864920069999998,9.4697915725,0.03540574920595697,0.41439876028876965,0.6985575611352184,9.60949307365526,0.8129960429331059,-0.11611073599999988,-0.003628460499999875,0.1543566710000004
166052.0,-0.7948289824999999,-1.5223843459999997,9.504507113499999,0.031408945218889955,0.3997432305597733,0.6716463293987179,9.65841926398621,0.7822339573381473,-0.11973919649999998,-0.035892338999999884,0.03471554099999885
166062.0,-0.8654368624999998,-1.5188539519999997,9.4446865485,0.03167598059444508,0.35711007292130775,0.6343416619665911,9.605102929687776,0.7286427904227273,-0.07060787999999996,0.0035303939999999923,-0.05982056499999899
166072.0,-0.848667491,-1.5427821779999997,9.429093974999999,0.041800635585264194,0.32513389569551965,0.5887763511847751,9.592091875519957,0.6738819889119568,0.016769371499999797,-0.023928225999999997,-0.015592573500001095
166082.0,-0.7756079484999999,-1.59063863,9.354857634499998,0.05405808292202037,0.32566796644662993,0.5458761581707545,9.520769942750825,0.637936267003178,0.07305954250000013,-0.047856452000000216,-0.07423634050000061
166092.0,-0.8091466915,-1.3991147554999999,9.3201420935,0.08097105998777294,0.36083984153281967,0.5138999809449664,9.459243580247511,0.6331310245187884,-0.03353874300000004,0.19152387450000008,-0.03471554099999885
166102.0,-0.92770909,-1.2937913344999998,9.4782252915,0.11188084104059251,0.4000102659353284,0.5109695731308679,9.610998639544496,0.6584948292212657,-0.11856239850000005,0.10532342100000003,0.15808319799999992
166112.0,-1.0305808484999999,-1.219554994,9.6745544245,0.1321318963514827,0.4154651564617382,0.5314859184880613,9.805427812252653,0.6874208433109326,-0.10287175849999985,0.07423634049999994,0.19632913300000077
166122.0,-1.1179581,-1.241129624,9.784683103999999,0.13639573571410485,0.3960134619482614,0.558931220975672,9.926240804183074,0.6984515506079105,-0.0873772515000002,-0.02157463000000015,0.11012867949999894
166132.0,-1.2748645,-1.359593956,9.80861133,0.1265363707695889,0.35924111993799285,0.5794493116621174,9.984118961708957,0.6934170030851161,-0.1569064,-0.11846433200000006,0.023928226000000663
166142.0,-1.5022807134999998,-1.345276247,9.775072586999999,0.11934212359286826,0.32566796644662993,0.5839801864002947,9.980914767896543,0.6792164787026752,-0.22741621349999974,0.014317709000000178,-0.03353874300000115
166152.0,-1.7728461869999999,-1.26505785,9.7906651605,0.1318648609759276,0.30648156197945625,0.5677259350764715,10.02997902548333,0.6585074234600715,-0.27056547350000004,0.08021839699999989,0.015592573500001095
166162.0,-1.891310519,-1.188369847,9.8840244685,0.1513165554894044,0.29768859320790886,0.5368161540236519,10.133272821080341,0.6322078627413827,-0.11846433200000006,0.07668800300000012,0.09335930800000014
166172.0,-1.9679004554999997,-1.268588244,9.9762069785,0.16703848139136931,0.28862858906080624,0.501110208186352,10.247275443426132,0.6019300270275073,-0.07658993649999979,-0.08021839700000011,0.09218251000000066
166182.0,-1.9979088044999997,-1.187193049,10.147333021,0.17130232075399143,0.26464776513840416,0.4667359485683236,10.410064090377615,0.5632276363730992,-0.030008349000000045,0.08139519500000003,0.1711260424999992
166192.0,-2.098426967,-1.1549291705,10.241967193499999,0.16037655963650696,0.22947414472296246,0.44595256783557513,10.518324444389178,0.5265479244440343,-0.10051816250000023,0.03226387850000001,0.09463417249999928
166202.0,-2.225325018,-1.0974622015,10.286195184999999,0.15584743022758166,0.18657395170894184,0.42889895571433856,10.581224225172392,0.49300362592751956,-0.12689805099999996,0.057466969000000034,0.044227991499999675
166212.0,-2.3127022695,-1.0016512309999999,10.3329729055,0.16224231660688887,0.1444731194923346,0.42196999858392104,10.635893288375518,0.47460902989590353,-0.08737725149999997,0.09581097050000009,0.04677772050000151
166222.0,-2.331825237,-0.9693873524999999,10.350919075,0.15371463788164458,0.12608782115182635,0.4387583206588545,10.654512962697822,0.4817003139808799,-0.019122967499999977,0.03226387850000001,0.017946169500000053
166232.0,-2.4623517484999997,-1.150123912,10.3341497035,0.12760276694255743,0.13168334673372017,0.4454184970844649,10.685532800971803,0.48168517465599175,-0.13052651149999983,-0.18073655950000012,-0.016769371500000574
166242.0,-2.651522027,-1.2171033315,10.366413582,0.10841636247538376,0.12928526434147997,0.40331766486785764,10.769142961827958,0.43718866181855826,-0.18917027850000023,-0.06697941949999997,0.03226387850000023
166252.0,-2.827453328,-1.2303423089999999,10.489781239,0.10441955848831674,0.10583676584093614,0.3257779221895056,10.933606219423218,0.35810071179023883,-0.17593130099999987,-0.013238977499999915,0.1233676569999993
166262.0,-2.815489215,-1.2471116805,10.616679289999999,0.09269618190267083,0.0650676198436006,0.23065049663880663,11.054236572922425,0.2569553052403715,0.011964112999999887,-0.01676937150000013,0.1268980509999995
166272.0,-2.5892497994999997,-1.254270535,10.571176434,0.05006127893495336,0.03175975639854082,0.13552307108810768,10.955691685052885,0.14792334694783696,0.22623941550000026,-0.007158854500000089,-0.045502855999998815
166282.0,-2.318684326,-1.1764057339999998,10.548425005999999,-0.014688690984784277,0.017903587466957832,0.057183967612342214,10.864138141695006,0.061695236760408785,0.2705654734999996,0.07786480100000026,-0.022751428000001184
166292.0,-2.0589061675,-1.1094263144999998,10.408386044,-0.067715284318876,0.01470614427730422,0.005756095873077299,10.667915513107918,0.06953246040225498,0.2597781585000001,0.06697941949999997,-0.14003896199999843
166302.0,-1.7572536134999999,-1.092656943,10.2562849025,-0.10048907701282551,0.02323207767329652,-0.010231120075190761,10.462945066208382,0.1036458385556344,0.30165255400000013,0.016769371499999908,-0.1521011415000011
166312.0,-1.611232595,-1.136983001,10.058778971499999,-0.11301355972513683,0.04268377218677333,-0.0030368728984701333,10.25026025119577,0.12084366630833779,0.14602101849999993,-0.044326058,-0.19750593100000025
166322.0,-1.5298374,-1.03754357,9.935509381,-0.10821739494065641,0.08505163977893568,0.02680651198138091,10.106000484367001,0.14022615690888685,0.08139519500000003,0.09943943099999997,-0.12326959049999964
166332.0,-1.6494785299999999,-1.035189974,9.869608693,-0.09436122600907343,0.14234207247564953,0.05664989686123195,10.059899276640012,0.17992920103470342,-0.11964112999999998,0.002353596000000069,-0.06590068799999926
166342.0,-1.706945499,-1.184839453,9.90079384,-0.06265208415884045,0.1721854573555006,0.0633118186160943,10.116482893185935,0.1938594897100644,-0.057466969000000034,-0.14964947900000003,0.031185147000000413
166352.0,-1.6160378534999997,-1.2733935024999998,9.995329945999998,-0.02614677752412705,0.16392481400581144,0.041729077085932424,10.20488755869257,0.1711616618760748,0.09090764550000019,-0.0885540494999999,0.09453610599999784
166362.0,-1.554942424,-1.488845603,10.147333021,0.003963642731279122,0.11116525604727483,0.0012269664641520136,10.373180544587298,0.1112426629601321,0.06109542949999969,-0.21545210050000008,0.15200307500000143
166372.0,-1.533367794,-1.5295432004999998,10.22637462,0.027145105856267806,0.02536487001923359,-0.035280085499813374,10.453203196267273,0.05123395198415541,0.02157463000000015,-0.040697597499999905,0.07904159899999996
166382.0,-1.4903166005,-1.5547462909999998,10.190482281,0.03753679622264205,-0.05830446899212257,-0.0704519605860031,10.415575294647871,0.09885292573073025,0.04305119349999997,-0.025203090500000025,-0.035892339000000106
166392.0,-1.347825976,-1.611036462,10.1258564575,0.03913726314672084,-0.12252211349000193,-0.10029534546585415,10.341423612896257,0.16310288158946676,0.14249062449999994,-0.05629017100000011,-0.06462582350000012
