timestamp,ax,ay,az,gx,gy,gz,acc_mag,gyro_mag,dax,day,daz
33492.0,1.8903298539999998,-1.116585169,9.613458994999998,0.12920148853738425,0.15086800587164184,-0.11441854977299226,9.860968676813693,0.22922867265705724,0.0,0.0,0.0
33502.0,1.831686087,-1.0543129414999999,9.5392226545,0.19634954084936207,0.15859632379947272,-0.09123708664800358,9.770538293873566,0.2683843178996824,-0.058643766999999736,0.062272227500000055,-0.07423634049999883
33512.0,2.02801522,-0.4078585735,9.425563580999999,0.22645996110476824,0.07465994941256145,-0.08191004712534589,9.64989342780544,0.2521259166566098,0.19632913299999988,0.6464543679999999,-0.11365907350000093
33522.0,2.3356498305,-0.6712651924999999,9.545204710999998,0.2229954825395595,0.07705803180480164,-0.01262920246743097,9.849710151282286,0.2362719243872284,0.30763461050000007,-0.26340661899999995,0.11964112999999976
33532.0,2.482847647,-0.5227925115,9.579920251999999,0.19395145845712186,0.12448909955699954,0.05984734005088556,9.910232917695408,0.23811007592565994,0.14719781649999986,0.148472681,0.03471554100000063
33542.0,2.4768655905,-0.4976874875,9.672102762,0.1483861476753059,0.1972326774508712,0.10861009402235514,9.996605815340775,0.269657802408723,-0.005982056499999722,0.02510502399999992,0.09218251000000066
33552.0,2.3919400014999996,-0.587418335,9.739180248,0.11001508407021057,0.25079159620682123,0.15843924416679322,10.045798583194038,0.31639016663462455,-0.08492558900000047,-0.08973084749999993,0.06707748600000052
33562.0,2.352419202,-0.723926903,9.8253807015,0.09509426429491105,0.25665415716427015,0.17948966027509686,10.128970934514234,0.3273084380781558,-0.03952079949999954,-0.136508568,0.08620045350000005
33572.0,2.4494069704999997,-0.8531785499999999,9.9210936055,0.1001557191256946,0.2617156119950537,0.1728277385202345,10.254540773452854,0.32923495688876825,0.09698776849999957,-0.12925164699999991,0.0957129039999991
33582.0,2.645638037,-0.975369409,9.983365832999999,0.0924291465271157,0.284099459651881,0.15444244017972625,10.3739259425902,0.3363155028108132,0.19623106650000022,-0.12219085900000015,0.06227222749999939
33592.0,2.8647185979999996,-0.990863916,9.991799552,0.05992064387946932,0.3184737192699093,0.1384534789022062,10.441478929400056,0.3523994313966225,0.21908056099999973,-0.01549450699999999,0.008433719000001005
33602.0,3.071835046,-0.940653868,9.899617042,0.01861917246027551,0.34884942957161863,0.1371217926829345,10.407853660936725,0.3752931975457734,0.20711644800000029,0.05021004800000006,-0.09218251000000066
33612.0,3.2717926394999997,-0.9034866645,9.843326871,-0.00936020077844559,0.35471199052906754,0.15710581261826959,10.412108293624609,0.38805984840247637,0.19995759349999975,0.03716720349999991,-0.05629017099999878
33622.0,3.4585112554999995,-0.7993400414999999,9.738003449999999,-0.015755087157752812,0.32939773505814185,0.1962762370207783,10.364794054807712,0.38376483925943367,0.18671861599999984,0.1041466230000001,-0.10532342100000136
33632.0,3.6512119279999995,-0.7347142179999999,9.612282197,0.003431317309420852,0.2779698633188769,0.25329963434193703,10.308594596746152,0.3760847292961415,0.1927006725,0.06462582350000001,-0.12572125299999826
33642.0,3.8212592389999998,-0.6772472489999999,9.493719798499999,0.025813419636996137,0.21988181515400163,0.3377683341507066,10.256285956444067,0.40385862975021053,0.17004731100000026,0.057466969000000034,-0.11856239850000172
33652.0,3.9026544339999996,-0.632921191,9.411147805499999,0.03353999223557503,0.1708520258069769,0.4339604105451221,10.207889296137774,0.4675863382542322,0.08139519499999981,0.04432605799999989,-0.08257199300000018
33662.0,3.9074596925000002,-0.6496905625,9.3154349015,0.03540574920595697,0.1420750371000944,0.5216265535435453,10.122631400954896,0.5417869919124539,0.0048052585000006864,-0.01676937150000002,-0.0957129039999991
33672.0,3.8870618605,-0.7538371854999999,9.2005009635,0.03860319239561059,0.1279518327929563,0.5903750727796019,10.016323596457969,0.6053136414601354,-0.02039783200000045,-0.10414662299999988,-0.11493393800000007
33682.0,3.8702924889999997,-0.957325173,9.154998107499999,0.04606447494788634,0.12848590354406655,0.6290114264310005,9.985470734301806,0.6436504780100156,-0.01676937150000013,-0.20348798750000008,-0.04550285600000059
33692.0,3.822436037,-1.127372484,9.116654106,0.05805488690908738,0.14340672331936608,0.6418011991896149,9.949641604755584,0.6601853054017879,-0.04785645199999955,-0.17004731099999992,-0.038344001499998726
33702.0,3.7493764945,-1.2016088244999998,9.097531138499999,0.05938831845761105,0.16019504539429952,0.6266133440387601,9.91295922924141,0.6494872653605626,-0.07305954250000024,-0.07423634049999994,-0.01912296750000131
33712.0,3.7123073575,-1.209944477,9.090372283999999,0.05752256148722911,0.1676545826173233,0.590640362825905,9.893435187824641,0.6166627460385115,-0.03706913700000003,-0.008335652500000235,-0.007158854500000089
33722.0,3.6872023334999997,-1.1800341945,9.11430051,0.06711489105618995,0.16552353560063823,0.5512046483770932,9.902444927135084,0.5794212749215676,-0.025105024000000142,0.029910282500000163,0.023928226000000663
33732.0,3.6058071385,-1.045977289,9.115477308,0.08496786397483994,0.14580480571160628,0.5240246359357855,9.858389328983932,0.5505273820117204,-0.08139519499999981,0.13405690549999982,0.0011767979999994793
33742.0,3.5770736539999994,-0.9896871179999999,9.1453875905,0.09909106828197807,0.1108982206717197,0.5037735806248953,9.869804997979822,0.5252668614114591,-0.02873348450000046,0.05629017100000022,0.029910282500001273
33752.0,3.6991664464999996,-0.9046634625,9.091549082,0.11321252725986418,0.07572634558552997,0.4827231645165917,9.85690179973956,0.5015707420745523,0.12209279250000016,0.0850236554999999,-0.05383850850000016
33762.0,3.809295126,-0.7526603875,9.0388873715,0.13239893172703784,0.06213546670025012,0.489385086271454,9.837617187639555,0.5107720196031075,0.11012867950000027,0.152003075,-0.05266171050000068
33772.0,3.924229064,-0.5850647389999999,8.956217312,0.13532933954113632,0.0751922748344197,0.5312206284417581,9.795698190294143,0.5533202186957128,0.11493393800000007,0.16759564850000008,-0.08267005949999984
33782.0,3.9541393465,-0.48327171199999996,8.8808041735,0.12094084518769507,0.12262334258661761,0.5973022845807675,9.733316612913292,0.621637507995804,0.02991028249999994,0.10179302699999992,-0.07541313850000009
33792.0,3.8164539805,-0.4749360595,8.861681206,0.10548595466128528,0.18284418309742995,0.6751090626346746,9.660242183437292,0.7073411683019999,-0.13768536599999992,0.008335652499999957,-0.019122967499999532
33802.0,3.612965993,-0.571923828,8.850893891,0.10548595466128528,0.21162117180431245,0.7457215935118612,9.577000720546582,0.782311639959743,-0.20348798749999997,-0.09698776849999996,-0.010787314999999964
33812.0,3.312490237,-0.676070451,8.8880610945,0.12840212773997084,0.2164173365887929,0.7958177790318545,9.509326624135916,0.8346553225179434,-0.300475756,-0.104146623,0.037167203499999246
33822.0,3.1017453285,-0.781393872,8.883255836,0.16170999118503063,0.20522628542500523,0.8216643599246385,9.441590687691285,0.8622066282793088,-0.21074490850000016,-0.10532342100000003,-0.004805258499999354
33832.0,2.9605295684999997,-0.7083343295,8.849717092999999,0.1912863406893265,0.19536692048048926,0.8283262816795008,9.358630534135182,0.8722861495365674,-0.14121576000000013,0.07305954250000002,-0.03353874300000115
33842.0,2.886293228,-0.5551544565,8.8113730915,0.21073803520280335,0.19696564207531606,0.8379186112484617,9.288658720513999,0.8861792046284037,-0.07423634049999972,0.15317987300000002,-0.038344001499998726
33852.0,2.8575597434999995,-0.355196863,8.7503757285,0.22645996110476824,0.21828309355917483,0.868561356925726,9.211996954465342,0.9237588720342528,-0.02873348450000046,0.19995759349999997,-0.06099736300000025
33862.0,2.7785181445,-0.2295736765,8.697714018,0.23711868684669762,0.26198264737060883,0.929848593609507,9.133624488184914,0.9947253823105114,-0.07904159899999952,0.12562318649999998,-0.05266171050000068
33872.0,2.628966732,-0.240262925,8.7288010985,0.2376510122685559,0.29848795400532224,1.0039238577226504,9.119274147006829,1.0739814590686754,-0.14955141250000015,-0.010689248499999998,0.031087080500000752
33882.0,2.3835062825,-0.327738243,8.7491989305,0.24484525944527652,0.31500924070470054,1.062813012014191,9.073973577220954,1.1352319240176667,-0.2454604494999999,-0.087475318,0.02039783200000045
33892.0,2.0207582989999997,-0.4737592615,8.793426922,0.25816910295500123,0.2966221970349403,1.0803989495572859,9.035057773660819,1.149738189197398,-0.36274798350000026,-0.1460210185,0.044227991499999675
33902.0,1.9705482509999999,-0.52759777,8.785091269499999,0.27069184033806054,0.2657141613113727,1.0750704593509472,9.018827442072125,1.1400239385714974,-0.05021004799999984,-0.05383850849999999,-0.008335652500001345
33912.0,1.911904484,-0.3372506935,8.733606357,0.2890788840078208,0.2553207256157465,1.0476251568633363,8.946786953160132,1.1163663123729095,-0.05864376699999996,0.1903470765,-0.051484912499999425
33922.0,1.6305516955,-0.0607031635,8.812647956,0.30799650777018733,0.3112777267639367,1.0287057877717178,8.962429787850379,1.1180300844668651,-0.2813527885,0.27654753,0.07904159899999996
33932.0,1.184054921,0.26242595399999996,8.986225661,0.3285145984566327,0.41679684268100986,1.030836834788403,9.067695686760338,1.1594248701078282,-0.4464967744999999,0.32312911749999995,0.17357770500000136
33942.0,0.7075497975,0.4480658385,9.378883927,0.3514307715353182,0.5404359668922881,1.027107066176891,9.416201645446636,1.212651453173257,-0.47650512349999996,0.18563988450000002,0.39265826599999976
33952.0,0.397561591,0.28880584249999997,9.8840244685,0.3623547873235507,0.6270357137177428,1.0103187441019577,9.896231794335018,1.2430682776330395,-0.30998820650000003,-0.15925999600000001,0.5051405414999994
33962.0,0.1605348605,0.19299487199999998,10.3484674125,0.3479662929701095,0.6416912434467391,0.9836728024117601,10.351511785706883,1.2249328043465029,-0.2370267305,-0.09581097049999998,0.46444294399999997
33972.0,-0.035794272499999995,0.2864522465,10.688463967999999,0.31492546490060486,0.5753425519321748,0.9588926176919447,10.692361671525285,1.1617539123113807,-0.196329133,0.09345737450000002,0.3399965554999991
33982.0,-0.1267999845,0.4180574895,10.9374548115,0.28881184863226567,0.4615627926654124,0.9543617429537674,10.946175955748233,1.098753308025616,-0.09100571199999999,0.13160524299999998,0.24899084350000145
33992.0,-0.330287972,0.5725122269999999,11.072786581499999,0.2690931187432337,0.367501763287682,0.9919334457614493,11.092495800042423,1.0915129927741114,-0.2034879875,0.15445473749999994,0.13533176999999874
34002.0,-0.661948875,0.5414251465,11.1122093145,0.2315231612648038,0.29955435017829074,1.048689807707053,11.145066771968523,1.1149377093369128,-0.331660903,-0.031087080499999975,0.03942273300000032
34012.0,-0.997140172,0.305575214,11.0416014345,0.16490743437468422,0.25745351796168353,1.0881272674851168,11.09074510447246,1.1302644496167764,-0.33519129700000005,-0.23584993249999997,-0.07060787999999896
34022.0,-1.43765489,-0.0224572285,10.9853112635,0.09109746030784403,0.2300082154740727,1.0942551184888687,11.079008054236299,1.1218720028591473,-0.44051471799999986,-0.32803244249999997,-0.056290171000000555
34032.0,-1.8697358889999998,-0.2917478375,10.817715615,0.026080455012551264,0.19057075569600887,1.0734717377561205,10.981985258700513,1.0905681889828598,-0.43208099899999985,-0.269290609,-0.16759564850000075
34042.0,-2.169034847,-0.46660040699999994,10.562742714999999,-0.016022122533307946,0.14713823726012998,1.029238113193576,10.793236853261325,1.0398256887213178,-0.29929895800000006,-0.17485256949999994,-0.2549729000000003
34052.0,-2.329471641,-0.608992965,10.277859532499999,-0.030942942308607467,0.11542909540989697,0.9708830296531457,10.556121784417032,0.9782102018555786,-0.16043679400000022,-0.14239255800000006,-0.2848831824999998
34062.0,-2.3678156424999997,-0.721573307,9.939039775,-0.030675906933052336,0.11196461684468823,0.914126667707542,10.242642754839917,0.9214687467871269,-0.038344001499999614,-0.112580342,-0.3388197574999996
34072.0,-2.3450642145,-0.7383426784999999,9.5464795755,-0.03653846789050129,0.1575299276265042,0.8624335059219741,9.857978918949954,0.8774635547250179,0.02275142799999985,-0.016769371499999908,-0.3925601995000001
34082.0,-2.4276362075,-0.8579838084999999,9.308177980499998,-0.048795915227257465,0.2478611883927227,0.8102062733852957,9.657729085467151,0.8486756833368133,-0.08257199300000018,-0.11964112999999998,-0.23830159500000114
34092.0,-2.6083727669999996,-1.0064564894999999,9.2159954705,-0.05146103299505281,0.3400564608000712,0.7382620562888375,9.630739102953646,0.814443060136564,-0.18073655949999967,-0.148472681,-0.09218250999999889
34102.0,-2.8202944735,-1.0758875715,9.177749535499999,-0.032276373857131134,0.4125347486476397,0.6703128978501942,9.66140163331042,0.7877474621828124,-0.21192170650000053,-0.06943108200000014,-0.03824593500000084
34112.0,-2.9603334355,-0.9549715769999999,9.3046475865,0.004230678106834255,0.4575659886783454,0.6002344377241179,9.810810948702322,0.7547621564853548,-0.14003896199999977,0.12091599450000012,0.1268980510000013
34122.0,-3.0968420035,-0.920256036,9.534417395999998,0.06418448324209147,0.4775517539429325,0.5362820832725417,10.066897071470619,0.7209533954578221,-0.136508568,0.03471554099999985,0.2297698094999987
34132.0,-3.125575488,-0.89632781,9.778701047499998,0.1289344531618291,0.464760235855066,0.4784610704832215,10.305125901731788,0.6793755706618738,-0.028733484500000017,0.023928226000000108,0.24428365149999998
34142.0,-2.98906692,-0.8412144369999999,10.007294059,0.17290104234881826,0.4269232430010809,0.41557511220461385,10.477981540571266,0.6203715819923936,0.136508568,0.05511337300000008,0.228593011500001
34152.0,-2.838240643,-0.7383426784999999,10.337680097499998,0.18222633654222395,0.38881921477154074,0.35615363249121484,10.74562188320058,0.557881913528163,0.15082627700000018,0.10287175849999997,0.3303860384999986
34162.0,-2.720953109,-0.7059807334999999,10.599909918499998,0.1715676108002946,0.3200724408647361,0.29939727054561127,10.966315921847437,0.4706596839405233,0.11728753399999992,0.032361945,0.26222982100000003
34172.0,-2.5317828305,-0.6485137644999999,10.662084079499998,0.1513165554894044,0.21934948973214335,0.23704538301811384,10.97772887813722,0.35665306983276335,0.1891702784999998,0.057466969000000034,0.06217416099999973
34182.0,-2.3019149545,-0.6126214255,10.574706827999998,0.1265363707695889,0.13328206832854697,0.17655925246099835,10.839674440078086,0.2548504119970397,0.22986787600000014,0.035892338999999884,-0.08737725149999953
34192.0,-2.1283372495,-0.6221338759999999,10.434667866,0.10042275450124974,0.0853186751544908,0.12219922757838299,10.667669074404632,0.17971270732057107,0.17357770500000003,-0.009512450499999936,-0.14003896199999843
34202.0,-1.959564803,-0.5072980045,10.275505936499998,0.08603426014780849,0.07545931020997484,0.07690095217212216,10.472977978281671,0.13787587846148078,0.1687724465,0.11483587149999996,-0.15916192950000152
34212.0,-1.9057262945,-0.34686121049999996,10.202446393999999,0.0908304249322889,0.10530269508982588,0.04998797510636959,10.384701143092265,0.14777557762294835,0.05383850849999994,0.160436794,-0.07305954249999935
34222.0,-1.9738825119999996,-0.41266383199999995,10.190482281,0.10495188391017501,0.14713823726012998,0.0438601241026175,10.388090908766408,0.18597921735132172,-0.06815621749999967,-0.06580262149999999,-0.011964112999999443
34232.0,-2.1127446759999997,-0.33244543499999996,10.088689253999998,0.13266422177334097,0.17911266915666607,0.0361335515040386,10.312897793394141,0.22580251888640776,-0.13886216400000007,0.080218397,-0.10179302700000115
34242.0,-2.201396792,-0.25232510449999995,10.168907651,0.15424870863275486,0.2073573324416903,0.03080331596844792,10.40752125190024,0.26026634762653855,-0.08865211600000045,0.0801203305,0.08021839700000122
34252.0,-2.1630527904999997,-0.307340411,10.3245391865,0.16170999118503063,0.21242053260172586,0.03266907293882986,10.553168477585182,0.26896072621582906,0.0383440015000005,-0.05501530650000003,0.15563153549999953
34262.0,-2.0912681125,-0.44620257499999993,10.4490836415,0.15558039485202652,0.1684539434147367,0.021478021775042218,10.665638658953286,0.2303113017931534,0.07178467799999977,-0.13886216399999995,0.12454445500000055
34272.0,-2.0696934825,-0.38638200999999994,10.5459733435,0.13905910815264821,0.09491100472345164,-0.010231120075190761,10.754091125286562,0.16867190102627627,0.021574629999999928,0.05982056499999999,0.09688970200000036
34282.0,-1.9524059484999998,-0.2786069265,10.5340092305,0.1164099704495178,0.004846779332788253,-0.05393241921587678,10.717036030334654,0.1283879991760734,0.11728753400000014,0.10777508349999992,-0.011964112999999443
34292.0,-1.6507533945,-0.25467870049999997,10.477817126,0.09349554270008424,-0.07775616350559937,-0.09416749446210207,10.61011308779697,0.15380167255645436,0.3016525539999999,0.023928226000000052,-0.056192104500000895
34302.0,-1.2233795875,-0.295376298,10.238338732999999,0.06311808706912293,-0.1190576349247932,-0.12534431089047676,10.315400369553277,0.18403752232020298,0.42737380699999994,-0.040697597500000016,-0.23947839300000062
34312.0,-0.8749493129999999,-0.30969400699999994,10.040832801999999,0.029543188248508018,-0.1036027443983834,-0.13680065210056755,10.083638729943177,0.1741285359552077,0.3484302745000001,-0.014317708999999956,-0.19750593100000025
34322.0,-0.665479269,-0.29302270199999997,9.834893152,0.0010314895879286487,-0.039652135276059174,-0.1240108793419531,9.861736574894538,0.130200053755309,0.2094700439999999,0.01667130499999997,-0.20593964999999947
34332.0,-0.6212512775,-0.31812772599999994,9.7116235615,-0.011491247795130666,0.039486328997119714,-0.10136174163882268,9.736672460349443,0.1093865696583146,0.04422799150000001,-0.025105023999999976,-0.12326959049999964
34342.0,-0.6212512775,-0.43904372049999996,9.6649439075,-0.00482932604026831,0.11409566386137332,-0.08270940792275928,9.694836423242386,0.14100350726455033,0.0,-0.12091599450000001,-0.04667965400000007
34352.0,-0.6151711544999999,-0.587418335,9.7475159005,0.018352137084720378,0.15726289225094908,-0.08084365095237733,9.784557326732944,0.17777545981945825,0.006080123000000048,-0.1483746145,0.08257199300000018
34362.0,-0.5804556135,-0.7096091939999999,9.8157701845,0.053258722124606965,0.1474035273064331,-0.08430812951758608,9.85848965320612,0.1779667161226462,0.03471554099999996,-0.12219085899999993,0.068254284
34372.0,-0.505042475,-0.7406962745,9.892360121,0.09029809951043063,0.09357931850417997,-0.09043772585059018,9.932899256318038,0.15839765744457493,0.07541313849999998,-0.031087080500000086,0.07658993649999957
34382.0,-0.41531162749999995,-0.7730582195,9.9546323485,0.1180086920443446,0.023499113048851654,-0.09656557685434226,9.993238111466965,0.15428276101143495,0.08973084750000004,-0.032361945,0.062272227500001165
34392.0,-0.44757550599999996,-0.6485137644999999,9.9546323485,0.12866741778627397,-0.026330037095586456,-0.10402685940661803,9.985769831621383,0.16754152539369696,-0.03226387850000001,0.12454445500000011,0.0
34402.0,-0.469150136,-0.6030109084999999,9.943845033499999,0.11907508821731314,-0.03299021352119682,-0.1224121577471263,9.9731528643725,0.17393092648072223,-0.02157463000000004,0.045502855999999925,-0.01078731500000174
34412.0,-0.30155448749999997,-0.7754118154999999,10.0144529135,0.09029809951043063,-0.0012828170002158322,-0.1567864173651546,10.048953465374243,0.1809347204514715,0.16759564850000003,-0.172400907,0.07060788000000073
34422.0,-0.15553346899999998,-0.828073526,10.130661715999999,0.04686383574529974,0.037088246604879506,-0.19515748097024993,10.165638358139113,0.2041034039785722,0.1460210185,-0.052661710500000014,0.11620880249999921
34432.0,-0.1171894675,-0.8244450655,10.222844226,0.0010314895879286487,0.046947611549395474,-0.2204699911119237,10.25670449542063,0.22541552560073286,0.038344001499999975,0.003628460499999986,0.09218251000000066
34442.0,-0.0909076455,-0.7717833550000001,10.3341497035,-0.02614677752412705,0.01443910890174909,-0.22686662282048292,10.363327836241336,0.22882440077654312,0.02628182200000001,0.0526617104999999,0.1113054775000002
34452.0,-0.0058839899999999995,-0.757465646,10.429862607499999,-0.03707253864161155,-0.04844510404760661,-0.21141173229407312,10.457333447754985,0.22003686459113628,0.08502365549999999,0.014317709000000067,0.0957129039999991
34462.0,0.11620880249999999,-0.7658012985,10.386811414,-0.05439144080915129,-0.12651891747706895,-0.19755556336249017,10.415652042218166,0.2408187408162738,0.12209279249999999,-0.008335652500000013,-0.04305119349999842
