timestamp,ax,ay,az,gx,gy,gz,acc_mag,gyro_mag,dax,day,daz
38212.0,-0.47679932299999994,0.273997801,9.880788274,-0.09758484913750695,0.01362578547031973,0.08348607943989676,9.896079491646276,0.12914484221647382,0.0,0.0,0.0
38222.0,0.2342808685,-0.30900754150000004,9.974147581999999,-0.08266228403295543,-0.013821262346543097,0.1125318488515864,9.981682882839216,0.14031214309657328,0.7110801914999999,-0.5830053425,0.09335930799999836
38232.0,0.4317867995,-0.33175896949999995,10.0291628885,-0.04642401277379717,-0.020481438772153457,0.15143523787854002,10.043934094672855,0.15971007973052032,0.197505931,-0.022751427999999907,0.055015306500001415
38242.0,0.699998677,-0.382067084,10.0746657445,-0.016313592518391,-0.006892305216125607,0.1855424621210132,10.106179459512866,0.18638573556465085,0.2682118775,-0.050308114500000056,0.04550285600000059
38252.0,0.8878940909999999,-0.407172108,10.1440968265,-0.01098510231205231,0.0405370172068203,0.21565288237641936,10.191017881829726,0.21970454686712806,0.18789541399999998,-0.025105023999999976,0.06943108199999948
38262.0,1.0543129414999999,-0.40952570399999993,10.248243449499999,-0.03176848304480079,0.07517831220040376,0.24096539251809312,10.310469479178467,0.2544117440914783,0.16641885049999994,-0.002353595999999958,0.10414662299999833
38272.0,1.2398547594999998,-0.44424124499999995,10.330913509,-0.05841442473499822,0.09329657516535689,0.26441389101863694,10.414526587361168,0.2864108966473194,0.18554181799999991,-0.034715541000000016,0.08267005950000161
38282.0,1.3355676635,-0.385597478,10.347584814000001,-0.07786611924847503,0.08210552400156924,0.29852111526111014,10.440542987879041,0.3192480318735372,0.09571290400000021,0.05864376699999996,0.016671305000000913
38292.0,1.4649173770000001,-0.3880491405,10.391910871999999,-0.07653443302920335,0.0328104446082414,0.34382113599662295,10.501827299497508,0.3537612447294084,0.12934971350000013,-0.002451662500000007,0.04432605799999756
38302.0,1.652812791,-0.408348906,10.4182907605,-0.04882209516603738,-0.02074847414770859,0.3912504584195689,10.556482431257312,0.39483036530816945,0.18789541399999976,-0.02029976550000001,0.02637988850000106
38312.0,1.815603181,-0.3796154215,10.383575219499999,-0.013648474750595658,-0.061250584769489,0.43015384744652246,10.547945634961929,0.4347070823792363,0.16279039000000006,0.028733484500000017,-0.03471554100000063
38322.0,1.9605454679999998,-0.3448998805,10.3859288155,-0.0013927727430914749,-0.07483971832551685,0.4631964208452791,10.574980464298621,0.46920554934786685,0.1449422869999999,0.034715541000000016,0.002353596000000735
38332.0,2.0502763155,-0.291061372,10.3978929285,-0.015514231720977595,-0.08096931465852093,0.4978359705096106,10.60210012425468,0.5046160667630477,0.08973084750000027,0.05383850849999999,0.011964112999999443
38342.0,2.0622404285,-0.269486742,10.373964702499999,-0.036564647829281205,-0.096956530606789,0.5375387203339775,10.580387627009207,0.5474353095631251,0.011964112999999887,0.021574629999999984,-0.023928226000000663
38352.0,1.984473694,-0.29586663049999995,10.390734074,-0.042427208786730154,-0.13532759421188434,0.5764421093609312,10.582675819555565,0.5936321514583665,-0.07776673449999993,-0.02637988849999995,0.016769371500000574
38362.0,1.87307015,-0.408348906,10.4086802435,-0.020844467256568276,-0.21100332524910648,0.6054861334433689,10.583750045578345,0.6415374914013923,-0.11140354400000008,-0.11248227550000006,0.017946169500000053
38372.0,1.719890277,-0.48621370699999994,10.400344591,0.0201917141163224,-0.31945284898027815,0.6222744555183023,10.552800289275675,0.6997737677501003,-0.15317987300000002,-0.07786480099999993,-0.008335652499999568
38382.0,1.6037795409999998,-0.548387868,10.293746305500001,0.06069382473810281,-0.43163388665221364,0.6281352711464993,10.432355969381733,0.7645557346107095,-0.11611073600000021,-0.062174161000000006,-0.10659828549999872
38392.0,1.5474893699999999,-0.593890724,10.1872460865,0.0838752878630915,-0.5091736293305658,0.6241384671594322,10.321211768451697,0.8098405243675464,-0.05629017099999989,-0.045502856000000036,-0.10650021900000084
38402.0,1.4529532639999998,-0.659791412,10.0627016315,0.08813912722571364,-0.5486110891086295,0.6182776515312353,10.188442570840254,0.8312700447051168,-0.09453610600000006,-0.06590068800000004,-0.12454445500000055
38412.0,1.3355676635,-0.71000146,9.995722211999999,0.08281063701937495,-0.5720595876091734,0.6036221218022388,10.109515596528803,0.8357448410299456,-0.1173856004999998,-0.05021004799999995,-0.06697941950000086
38422.0,1.2267138485,-0.756681114,9.88314187,0.07801447223489454,-0.5883138389329966,0.5783078663313131,9.987686739026863,0.8286370853509062,-0.10885381500000002,-0.04667965400000007,-0.11258034199999933
38432.0,1.133256474,-0.7674684289999999,9.778995247,0.07508231909154406,-0.594975760687859,0.5487297714977653,9.874311422384004,0.8128578427832572,-0.09345737450000002,-0.010787314999999853,-0.1041466230000001
38442.0,1.0398971659999998,-0.7267708314999999,9.603063945999999,0.07028615430706364,-0.5821859879292445,0.5252812729972214,9.686507064382862,0.7872744653486534,-0.09335930800000014,0.040697597500000016,-0.17593130100000032
38452.0,0.9226096319999999,-0.578396217,9.423504184499999,0.05056742441803171,-0.5374200379448419,0.5252812729972214,9.486210087921734,0.7531917268255741,-0.11728753399999992,0.1483746144999999,-0.1795597615000002
38462.0,0.8101273565,-0.508965135,9.318082697,0.024455553478944545,-0.46361006387800174,0.5585891364422813,9.367070886383107,0.7263292564507228,-0.1124822754999999,0.06943108200000003,-0.10542148749999924
38472.0,0.6400800454999999,-0.5531931265,9.267872649,0.0071349059821528196,-0.390599450608575,0.6140138121686131,9.306405779780741,0.7277580636674028,-0.17004731100000015,-0.04422799150000001,-0.050210048000000285
38482.0,0.41619422599999994,-0.5915371279999999,9.258262132,0.0036704274169440747,-0.3421019866834085,0.6689044171438349,9.286471424194628,0.7513190804210229,-0.22388581949999992,-0.03834400149999995,-0.009610516999998708
38492.0,0.170831843,-0.6010495785,9.1852025895,0.005803219762881146,-0.32371668834290024,0.7264601398868518,9.20643203008393,0.7953430118607536,-0.24536238299999993,-0.009512450500000047,-0.07305954250000113
38502.0,-0.071000146,-0.6561629514999999,9.1026305965,0.008201302155121354,-0.30959348403576215,0.7834835372080106,9.126525878777265,0.8424736433802646,-0.24183198900000002,-0.055113372999999966,-0.08257199300000018
38512.0,-0.3882452735,-0.7674684289999999,9.085861224999999,0.019125317943353867,-0.2781513775610843,0.8223869262349641,9.126478859991147,0.868362955835724,-0.3172451275,-0.11130547749999997,-0.016769371500000574
38522.0,-0.7281437624999999,-0.868084658,9.100277000499998,0.044172538038724486,-0.24537583953788278,0.8242526832053461,9.170540103949815,0.8611347174030994,-0.3398984889999999,-0.10061622900000011,0.014415775499999839
38532.0,-0.995178842,-0.9315336835,9.1373461375,0.0801455192515796,-0.2176652470039688,0.7917441805576997,9.238464719180655,0.8250214006050919,-0.26703507950000005,-0.06344902549999998,0.03706913700000136
38542.0,-1.2070024819999998,-0.9087822555,9.2295286475,0.1118546611018126,-0.19235099153304305,0.7384505518480527,9.352376127727595,0.7712454775741896,-0.21182363999999987,0.022751427999999962,0.09218251000000066
38552.0,-1.2872208789999997,-0.7531507199999999,9.304941785999999,0.1275765870037775,-0.17742842642849155,0.6920876255980755,9.42369965773628,0.7257698764501079,-0.08021839699999989,0.15563153550000008,0.07541313849999831
38562.0,-1.3375289935,-0.4370823905,9.370842474,0.11958123370039149,-0.1427888767641601,0.6643752877349095,9.475901724746873,0.6899875779560977,-0.05030811450000039,0.31606832949999997,0.06590068800000104
38572.0,-1.3938191645,-0.14739394949999998,9.5072529755,0.0838752878630915,-0.06711314572693795,0.6705031387386616,9.610011237237462,0.6790535305127856,-0.05629017099999989,0.289688441,0.13641050150000034
38582.0,-1.562591611,0.0967916355,9.637779487,0.02845235746601156,0.027480209072650717,0.7075425161244853,9.764110538267596,0.7086473810435044,-0.1687724465,0.24418558499999998,0.1305265114999994
38592.0,-1.8810135365,0.203389921,9.844895935,-0.02777167905773377,0.10741977947249501,0.7619007956778486,10.025046401660202,0.769937073814571,-0.31842192550000004,0.1065982855,0.20711644800000073
38602.0,-2.246115116,0.10395048999999999,10.0627016315,-0.05841442473499822,0.1361985135086295,0.8165243652775152,10.310858496909347,0.8298640365692022,-0.3651015794999999,-0.09943943100000001,0.21780569649999926
38612.0,-2.5741475585,-0.12699611749999998,10.2721716755,-0.046956338195655443,0.09409593596277029,0.8500992640981301,10.59055591542465,0.8565790691358486,-0.3280324425000001,-0.23094660749999996,0.2094700439999997
38622.0,-2.9272850249999998,-0.2646814835,10.4063266475,-0.003790855135331684,-0.011955505376161158,0.8506315895199884,10.813449412641907,0.8507240479619456,-0.3531374664999998,-0.137685366,0.13415497200000104
38632.0,-3.1535244405,-0.431100334,10.425449614999998,0.05349957756138218,-0.14945079851902246,0.8247850086272044,10.90048455664744,0.8399214584908504,-0.22623941550000026,-0.1664188505,0.019122967499997756
38642.0,-3.2480605464999996,-0.487390505,10.427803210999999,0.10545977472250537,-0.2637628832076431,0.774690568436463,10.932818786819615,0.825129141084558,-0.09453610599999962,-0.056290171,0.002353596000000735
38652.0,-3.3833923164999997,-0.4011900515,10.365629049999999,0.13876763816756515,-0.31971988435583326,0.7083418769218986,10.911212701940041,0.7894463100530332,-0.13533177000000007,0.0862004535,-0.06217416099999973
38662.0,-3.542554246,-0.222807088,10.344054419999999,0.14009932438683684,-0.32638180611069556,0.6353295183232198,10.93612341866336,0.7278712117583319,-0.1591619295000002,0.1783829635,-0.021574629999999928
38672.0,-3.6730807574999997,-0.0216726965,10.3763182985,0.11798251210556468,-0.30159987606162814,0.5679161759649389,11.007269115846867,0.6537668860731389,-0.13052651149999983,0.20113439149999998,0.03226387850000023
39442.0,0.6185054154999999,-0.5424058115,10.1058508915,-0.011517427733910582,-0.14172248059119158,-0.04654793115068877,10.139278833062198,0.1496149141661211,4.291586173,-0.520733115,-0.27046740699999994
39452.0,-0.28282378599999997,-0.2515405725,9.7718363925,0.005269149011770881,-0.1731645870658694,-0.032424726843550654,9.77916399470468,0.1762529462331912,-0.9013292014999998,0.290865239,-0.33401449900000024
39462.0,0.41384063,-0.524459642,9.8628421045,-0.0011257373675363426,-0.20567308971351578,-0.03642153083061767,9.885442648734733,0.2088760757601746,0.696664416,-0.27291906949999994,0.09100571200000118
