timestamp,ax,ay,az,gx,gy,gz,acc_mag,gyro_mag,dax,day,daz
78952.0,0.045600922499999995,-0.41619422599999994,9.528141139999999,0.11698592910267591,0.2889828908989611,0.011917108132617281,9.537335616494214,0.3119917247405477,0.0,0.0,0.0
78962.0,-0.0214765635,-0.429335137,9.413207201999999,0.12604593324977847,0.34041076263822606,0.029236010300157014,9.42301754908836,0.3641727734290651,-0.06707748599999999,-0.013140911000000033,-0.11493393800000007
78972.0,0.016867438,-0.2797837245,9.5221590835,0.11432255666413257,0.34893669603421834,0.0548173011466379,9.52628348593728,0.3712565168539153,0.0383440015,0.14955141249999998,0.10895188150000124
78982.0,0.0312832135,-0.30969400699999994,9.635818157,0.10499551714147487,0.3396114018408126,0.0905232469839379,9.640844391036994,0.3668166042106092,0.014415775499999998,-0.02991028249999994,0.11365907349999915
78992.0,-0.0261837555,-0.392266,9.747221700999999,0.10952464655040016,0.29617713807568175,0.12223238883417088,9.75514680013855,0.3386108418240613,-0.05746696899999999,-0.08257199300000007,0.11140354399999985
79002.0,-0.036971070499999995,-0.47483799299999996,9.850093459499998,0.12791169022016044,0.21464059141026265,0.14541385195915957,9.86160124627511,0.2890971676055059,-0.010787314999999995,-0.08257199299999995,0.10287175849999919
79012.0,-0.009414384,-0.494059027,9.959045341000001,0.1556240280833264,0.11258420872914622,0.15980234631260082,9.971297160193357,0.2498616258232951,0.027556686499999997,-0.019221034000000026,0.10895188150000301
79022.0,0.13415497199999998,-0.4353171935,10.021317568499999,0.18173589902241355,0.011595967550250325,0.16726362886487658,10.031665087322033,0.2472640794736642,0.14356935599999998,0.05874183350000001,0.06227222749999761
79032.0,0.32214845249999996,-0.24506818349999998,9.963850599499999,0.19719078954882333,-0.05528679471542438,0.18032043699904615,9.972068832953804,0.2728668121122845,0.18799348049999998,0.19024901,-0.057466969000000034
79042.0,0.48258524649999995,-0.1205237285,9.9387455755,0.19932358189476043,-0.08486314421972029,0.20110381773179462,9.951184758800926,0.29559159164718674,0.160436794,0.12454445499999998,-0.025105023999998366
79052.0,0.6010495785,-0.148080415,10.0224943665,0.20012294269217382,-0.09285675219385431,0.22721743400013378,10.04159258940761,0.3167006961365432,0.118464332,-0.027556686499999997,0.08374879099999966
79062.0,0.7051962015,-0.2833141185,10.126640989499998,0.20118933886514234,-0.10538123490616562,0.24187296372913017,10.15511823183625,0.33179042380161405,0.104146623,-0.1352337035,0.10414662299999833
79072.0,0.8405279714999999,-0.4425741145,10.2188234995,0.198524221097347,-0.13868909835122542,0.2312142379872008,10.262880337976897,0.3348231715574448,0.13533176999999996,-0.15925999600000001,0.09218251000000066
79082.0,1.044015959,-0.528774568,10.2847241875,0.1867990991824491,-0.18878353854196664,0.2053676570944168,10.351092864009955,0.33572161452645644,0.20348798750000008,-0.0862004535,0.06590068800000104
79092.0,1.2989888589999998,-0.5227925115,10.29305984,0.16335060068190527,-0.23914501410826303,0.17632363301197915,10.387866235936398,0.33906309158403497,0.25497289999999984,0.005982056500000055,0.008335652499999568
79102.0,1.6066234695,-0.429335137,10.258344298999999,0.1356382628187393,-0.2895064896745594,0.15873769546888428,10.39226613349739,0.3569445361214308,0.30763461050000007,0.09345737449999997,-0.03471554100000063
79112.0,1.8987635729999996,-0.2737036015,10.1805775645,0.10845999570668362,-0.3329407534396903,0.15740426392036058,10.359747888555326,0.3839130347747951,0.29214010349999975,0.15563153549999997,-0.07776673449999905
79122.0,2.145302754,-0.10738281749999999,10.082412997999999,0.07808254007572231,-0.3649151853362264,0.17339322519788064,10.308681139605277,0.4114914167976924,0.24653918100000016,0.166320784,-0.09816456650000127
79132.0,2.342808685,-0.012748645,9.9662041955,0.048239155195871276,-0.3864996721956403,0.2003044569343812,10.237877764891635,0.4379850319007787,0.19750593100000025,0.09463417249999999,-0.11620880249999921
79142.0,2.5834638759999997,0.018338435499999996,9.798608546999999,0.01972745653529191,-0.39022944080715216,0.2360104027716812,10.133476765363158,0.45647464248352904,0.24065519099999966,0.031087080499999996,-0.16759564850000075
79152.0,2.7306616924999996,0.080610663,9.6178719875,0.0018744836166419098,-0.36917902469884856,0.27864530573939866,9.998323505759025,0.46253634708747493,0.14719781649999986,0.0622722275,-0.18073655949999967
79162.0,2.8193138085,0.0734518085,9.459886856,-0.002389355745980237,-0.33480476508082024,0.32873974593013994,9.871341593081068,0.469222506169426,0.08865211600000045,-0.007158854500000006,-0.1579851314999985
79172.0,2.7786162109999997,-0.000784532,9.3042553205,-0.0007906341511534313,-0.3020309723868707,0.3812340138423734,9.71029740700948,0.4863771239415836,-0.04069759750000035,-0.0742363405,-0.1556315355000013
79182.0,2.721149242,-0.16720338249999997,9.2587524645,0.010934487763744474,-0.29190457206679965,0.4228007753078703,9.651792961271054,0.5138952595783436,-0.05746696899999959,-0.16641885049999997,-0.045502855999998815
79192.0,2.7690056939999996,-0.380301887,9.2228601255,0.04210955886286719,-0.3052284155765243,0.4486491015299064,9.637072737776656,0.5442642895933675,0.04785645199999955,-0.21309850450000004,-0.035892339000000106
79202.0,2.8623650019999998,-0.440122452,9.195303439,0.07914893624869086,-0.32441307471444597,0.46303759588334764,9.640562562045545,0.5708872150927978,0.09335930800000014,-0.05982056499999999,-0.027556686500000538
79212.0,2.9174783749999995,-0.29410143349999995,9.2228601255,0.11272208974005377,-0.33187435726672176,0.48328865119423786,9.677774776068995,0.5970048399298871,0.055113372999999743,0.14602101850000004,0.027556686500000538
79222.0,2.9282656899999995,-0.0607031635,9.2228601255,0.13297489038019597,-0.3190845845081073,0.5203262832508095,9.676754296758183,0.6246893104447508,0.010787314999999964,0.23339826999999996,0.0
79232.0,2.9258140275,0.055407572499999995,9.264734521,0.144965302341397,-0.2929709682397682,0.5722864804119326,9.715902606923105,0.6590589827751059,-0.0024516624999995074,0.11611073599999999,0.04187439549999894
79242.0,2.8899216885,0.153572139,9.3832969195,0.15482466728591296,-0.25566630080764136,0.6322402855471899,9.81944463027507,0.6993309042489465,-0.035892339000000106,0.0981645665,0.11856239849999994
79252.0,2.828826259,0.20388025349999997,9.4778330255,0.16068548291410994,-0.22129204118961304,0.6969920007961795,9.8930856673049,0.7487241421825983,-0.06109542949999991,0.05030811449999997,0.0945361060000014
79262.0,2.7091851289999997,0.28047019,9.57717439,0.1673474046689723,-0.2047724998194867,0.7678698217196692,9.956938128116757,0.8121336057814373,-0.1196411300000002,0.07658993650000004,0.09934136449999897
79272.0,2.4733351965,0.2852754485,9.6884798675,0.18226996977352383,-0.22209140198702643,0.8374177017531392,10.003270026282175,0.8853334625593421,-0.23584993249999986,0.004805258499999965,0.1113054775000002
79282.0,2.3476139435,0.183580488,9.7543805555,0.2070501544933393,-0.2841779994682207,0.8917759813065027,10.034586839766071,0.9585881820117811,-0.12572125300000003,-0.10169496049999999,0.06590068799999926
79292.0,2.3117216044999997,0.0985568325,9.716036553999999,0.23316377076167846,-0.3465298869957182,0.936007860539795,9.987749323276423,1.024967814894377,-0.035892339000000106,-0.08502365549999999,-0.0383440015000005
79302.0,2.2255211509999997,0.1583773975,9.640623415499999,0.26753803037970675,-0.3894300800097388,0.9733125279719218,9.895435696980407,1.081928676957468,-0.08620045350000005,0.05982056499999999,-0.07541313850000009
79312.0,2.0555719065,0.3176373935,9.5700155355,0.30270990546589654,-0.4027539235194635,1.0079538229655052,9.79343998430852,1.1268606475550873,-0.1699492444999997,0.159259996,-0.07060787999999896
79322.0,1.9848659599999998,0.357158193,9.507743308,0.32962288253164906,-0.3896971153852939,1.035132090077561,9.719281746343839,1.1541289054245336,-0.07070594650000017,0.03952079950000004,-0.06227222749999939
79332.0,1.9944764769999999,0.3164605955,9.5221590835,0.3568028949729568,-0.35852029895691917,1.0505869806039707,9.733940483549922,1.1660094829973766,0.00961051700000004,-0.040697597500000016,0.014415775499999839
79342.0,2.0471381875,0.3392120235,9.565210277,0.3959733193754655,-0.3142884197236269,1.0617780317677583,9.787700812695194,1.1759866789952231,0.052661710500000014,0.022751428000000018,0.043051193500000196
79352.0,2.0471381875,0.39422733,9.613066729,0.44340264179841143,-0.28284456791969703,1.0796310046864084,9.836525905147939,1.2009205047111462,0.0,0.05501530649999997,0.04785645199999955
79362.0,1.9813355659999998,0.44571224249999997,9.6741621585,0.49562987433508976,-0.280713520903012,1.1081427033469877,9.885027238058795,1.245965209840288,-0.06580262150000005,0.05148491249999998,0.06109542949999991
79372.0,1.8700300884999999,0.4684636705,9.833324088,0.5633102520689258,-0.3241477846681428,1.1403841706190792,10.02051562356522,1.312580010128825,-0.11130547749999997,0.022751428000000018,0.15916192949999974
79382.0,1.6496746629999999,0.5163201225,9.9650273975,0.6555072698055263,-0.44325603414124387,1.1678312184359418,10.113841208738062,1.4106719843124749,-0.22035542549999998,0.04785645200000005,0.13170330950000064
79392.0,1.427063708,0.5762387539999999,10.120658933,0.7652902250852217,-0.6255155319392557,1.1894139599661036,10.237006357642594,1.5464942216091488,-0.22261095499999994,0.059918631499999875,0.15563153549999953
79402.0,1.2020010904999998,0.7617805719999999,10.0440689965,0.8548203797247748,-0.7784657156085268,1.2035371642732418,10.144379639381224,1.6689003738263049,-0.22506261750000012,0.18554181800000003,-0.07658993649999957
79412.0,1.1888601795,0.9078015905,9.832147289999998,0.8814663214149722,-0.8043122965013109,1.2168592624537145,9.945280920435048,1.7043026757919069,-0.01314091099999981,0.14602101850000004,-0.21192170650000186
79422.0,1.115800637,1.1496335795,9.640623415499999,0.8428299677635737,-0.65376019522428,1.2397754355324,9.7728341983342,1.6354839889065216,-0.07305954250000002,0.24183198899999991,-0.19152387449999964
79432.0,0.721965573,1.4464808749999998,9.5700155355,0.7671542367263516,-0.3459975615738599,1.2669537026444557,9.705603461920816,1.5209903419110669,-0.393835064,0.2968472954999999,-0.07060787999999896
79442.0,0.1138552065,1.3974476249999999,9.733982723499999,0.6869493762802041,-0.020380209675537785,1.2824085931708655,9.834441648312412,1.4549524385204688,-0.6081103664999999,-0.04903324999999992,0.1639671879999991
79452.0,-0.4404166515,1.0047893589999999,10.0309280855,0.6102089943992656,0.2066469834361286,1.2626916086110858,10.090742625761038,1.417550031239062,-0.554271858,-0.392658266,0.29694536200000066
79462.0,-0.9395751365,0.506807672,10.396029665,0.5443926283065593,0.2655343923984173,1.1907456461853754,10.450697979038868,1.3359442507868162,-0.49915848500000004,-0.4979816869999999,0.365101579500001
79472.0,-1.2365204985,0.055407572499999995,10.725238905499998,0.5129487765026295,0.12644037766072921,1.0897574050064793,10.796425451155203,1.211063507081684,-0.296945362,-0.4514000995,0.32920924049999734
79482.0,-1.2317152399999998,-0.0283412185,10.813792955,0.5494540831373429,-0.18132225598969087,0.9818402066971661,10.883751362959462,1.1396436905807985,0.004805258500000242,-0.08374879099999999,0.08855404950000256
79492.0,-1.1096224474999998,0.31165533700000003,10.558820055,0.6355215045409393,-0.5543706756402109,0.9080302326303259,10.621538117379547,1.2392470827540594,0.12209279249999994,0.3399965555,-0.2549729000000003
79502.0,-0.8031646349999999,0.950852784,10.017689107999999,0.7319823616401618,-0.8709280233914304,0.8816495809864316,10.094715920336592,1.439312260537776,0.3064578124999999,0.6391974469999999,-0.541130947000001
79512.0,-0.35902145649999995,1.5577863524999997,9.404773483,0.8033942533147619,-0.9322135147459594,0.8872451065683254,9.539672897578962,1.517124992366693,0.44414317849999996,0.6069335684999998,-0.6129156249999994
79522.0,0.0072569209999999995,1.9983010705,9.072033848499998,0.8188491438411717,-0.67161316814293,0.9093619188495976,9.289513333840128,1.3958929999990062,0.3662783774999999,0.4405147180000002,-0.3327396345000011
79532.0,0.056388237499999994,2.4484263055,9.061246533499999,0.7866059312398284,-0.18958289933938005,0.9253491347978656,9.386381611018086,1.229211775104177,0.049131316499999994,0.450125235,-0.010787314999999964
79542.0,-0.275174599,2.7141865205,9.5449105115,0.7053364199499643,0.33801268024598585,0.9378736175101768,9.927126784752065,1.2212120863046405,-0.3315628365,0.26576021500000024,0.48366397800000094
79552.0,-0.767272296,2.7118329245,10.306200750999999,0.5944870684973005,0.7001353387790213,0.9386729783075902,10.684592575598018,1.3132826532862492,-0.492097697,-0.002353596000000291,0.7612902394999992
79562.0,-1.269961175,2.6759405855,11.135843341,0.49296475656729444,0.7792738030522002,0.9224187269837671,11.523040671560068,1.3042768951534964,-0.5026888789999999,-0.035892339000000106,0.8296425900000006
79572.0,-1.5848527065,2.522662646,11.6505943995,0.4066302997881429,0.6092717525909446,0.9037663932677037,12.025470252280568,1.1633374243146954,-0.31489153150000004,-0.15327793949999968,0.5147510584999999
79582.0,-1.706945499,2.4017466515,11.788279765499999,0.3341537572698264,0.30097330286016216,0.8867127811464672,12.150950158084122,0.994234991730124,-0.12209279249999994,-0.12091599450000023,0.13768536599999948
79592.0,-1.7464662985,2.4879471049999995,11.5021217185,0.28645565414207336,-0.04276231200311307,0.8792514985941914,11.897009260997638,0.9257260150270954,-0.03952079949999998,0.08620045349999961,-0.2861580469999989
79602.0,-1.6805656104999998,2.798033378,11.031696718,0.2885884464880104,-0.33800220827047384,0.8939070283231878,11.504417587758594,0.9982978310743105,0.06590068800000015,0.31008627300000047,-0.4704250005000006
79612.0,-1.7751997829999997,3.0350601084999997,10.514493996999999,0.33708416508392486,-0.5096047256558083,0.9181548876211449,11.086816862594976,1.102874022009611,-0.09463417249999995,0.23702673049999978,-0.5172027210000003
79622.0,-1.510616366,3.3187664929999996,10.062015166,0.43274391605648205,-0.48882134492305984,0.9735795633474769,10.702351238914773,1.1722076481170698,0.26458341699999965,0.28370638449999985,-0.45247883099999875
79632.0,-1.2376972964999997,3.4013384859999998,9.8130243225,0.5073532509207356,-0.26818903819070067,1.0204765603485646,10.459275522142285,1.170771152551313,0.27291906950000033,0.08257199300000018,-0.24899084349999967
79642.0,-1.303499918,3.5079367714999994,9.949532890499999,0.5334668671890748,0.06728593332288539,1.0561825061858645,10.63004878484615,1.1851733128891788,-0.06580262150000027,0.10659828549999961,0.13650856799999822
79652.0,-1.6745835539999998,3.4551769944999995,10.430745206,0.5105506941103893,0.3473379744393915,1.0673735573496521,11.114986446016985,1.233122861143005,-0.37108363599999983,-0.0527597769999999,0.48121231550000054
79662.0,-2.0612597635,3.1188088994999994,11.00894529,0.44580072419065164,0.45232476493460644,1.0465901766169037,11.626376785673068,1.2242087144164013,-0.38667620950000003,-0.3363680950000001,0.5782000840000006
79672.0,-2.3725228345,2.7166381829999997,11.44828321,0.35493713800257487,0.36252757491949816,0.9914325362661269,12.003006959671621,1.1137078110876104,-0.31126307099999995,-0.4021707164999997,0.4393379199999998
79682.0,-2.5568878545000002,2.3635007165,11.5368372595,0.24222377490878103,0.14802486452014307,0.9130916874611094,12.050826738841328,0.9562008927823916,-0.18436502000000043,-0.3531374664999998,0.08855404950000079
79692.0,-2.5245259095,1.9971242724999998,11.2004691645,0.11512191746154597,-0.0973876269320316,0.8264919406356548,11.653851120228916,0.8401347116356795,0.032361945000000336,-0.36637644400000013,-0.336368095000001
79702.0,-2.3809565535,1.7853006324999998,10.5551915945,-0.012781046112354474,-0.25966310479470833,0.7342966682283063,10.966691481694147,0.7789607692962112,0.14356935599999998,-0.21182363999999998,-0.6452775699999993
79712.0,-2.3115254715,1.7265587989999998,9.859703976499999,-0.12602673462800654,-0.2753850306966733,0.6359717994879537,10.273164935695693,0.7044003000544162,0.06943108199999992,-0.05874183350000006,-0.6954876180000014
79722.0,-2.194139871,1.7397977765000001,9.239629497,-0.2011701402433704,-0.1749273696103837,0.5296533227734672,9.654630977849889,0.5929600764716961,0.11738560050000002,0.01323897750000036,-0.6200744794999995
79732.0,-2.111567878,1.829528624,8.8768815135,-0.22328695252464256,-0.0022602013813326567,0.4291956616871776,9.306176405707923,0.48380893717367435,0.08257199300000018,0.08973084749999982,-0.3627479834999985
79742.0,-2.0397831999999996,1.8702262214999998,8.8158841505,-0.18305013194916528,0.1568178332916905,0.3431299856128332,9.240036524691098,0.4193296682463219,0.07178467800000021,0.040697597499999905,-0.06099736300000025
79752.0,-1.7703945245,1.7565671479999998,9.0037795645,-0.09058782416626168,0.2343575759700426,0.2933008354683951,9.342797833835442,0.3862059131968209,0.2693886754999997,-0.11365907350000004,0.18789541399999976
79762.0,-1.6494785299999999,1.8474747935,9.294644803499999,0.03278426466946149,0.2197037915702982,0.27837827036384355,9.61895860042959,0.3561446692722601,0.12091599450000001,0.09090764550000019,0.2908652389999986
79772.0,-1.624373506,1.9396573034999998,9.6490571345,0.1556240280833264,0.11578339724805183,0.28663891371353273,9.97522748246179,0.3461018636905242,0.02510502399999992,0.09218250999999977,0.3544123310000007
79782.0,-1.5058111074999998,1.87503148,9.948258026,0.24089208868950934,-0.031571260839325425,0.30395956121032447,10.23479593808957,0.389123576457855,0.11856239850000017,-0.06462582349999968,0.29920089149999995
79792.0,-1.419610654,1.8906240534999998,10.172143845499999,0.2835252463279749,-0.19091633088790375,0.31035444758963165,10.443287994408973,0.46168765831859077,0.08620045349999983,0.015592573499999762,0.22388581949999953
79802.0,-1.3574364929999998,1.9469142245,10.278742131,0.2853910032983568,-0.3353388358319305,0.3004950826451157,10.549201326436187,0.5331017297614519,0.06217416100000017,0.05629017100000011,0.1065982855000005
79812.0,-1.2376972964999997,1.9480910224999999,10.2535390405,0.24888569666364338,-0.41980753564070006,0.2794446665368121,10.510091154921833,0.5623804571998701,0.11973919650000009,0.0011767979999999234,-0.025203090499999803
79822.0,-0.9946885095,1.8570853105,10.090748650499998,0.18466805216576404,-0.4150113708562197,0.24507040691878376,10.308316031679167,0.5161358656187286,0.24300878699999973,-0.09100571199999985,-0.1627903900000014
79832.0,-0.7085304625,1.749310227,9.895596315499999,0.1028644701247898,-0.3206833061029341,0.20137085310734976,10.073972807483372,0.3923889683825779,0.286158047,-0.10777508349999998,-0.1951523349999995
79842.0,-0.48346784499999995,1.700276977,9.6884798675,0.022125538927532117,-0.17812481280003728,0.1568719384985023,9.848417390556618,0.23838371063510183,0.2250626175,-0.04903325000000014,-0.20711644799999895
79852.0,-0.3027312855,1.6703666945,9.566387075,-0.027703611216905993,-0.0430293473786682,0.12436343585085595,9.715839273785996,0.13448151912780262,0.18073655949999995,-0.02991028249999994,-0.12209279250000016
79862.0,-0.12081792799999999,1.610448063,9.517353824999999,-0.033032101423244684,0.04277103864937304,0.1099749414974147,9.653401668095489,0.12253558352144683,0.1819133575,-0.059918631499999986,-0.049033250000000805
79872.0,0.030008348999999997,1.6476152665,9.564033478999999,0.00747000919853573,0.08513890624153539,0.11450407090633999,9.70496125468033,0.14288322731361894,0.15082627699999998,0.03716720349999991,0.04667965400000007
79882.0,-0.273997801,2.0545912415,9.693285126,0.06928957130417489,0.08780402400933074,0.13608855776575385,9.912426367874525,0.1761552919401242,-0.30400615,0.40697597499999993,0.12925164700000025
79892.0,-0.7038232704999999,2.3311387715,9.852545122,0.10606191331444341,0.025717426528136446,0.15527321690367551,10.149000963106362,0.18979011399639992,-0.42982546949999995,0.2765475300000002,0.15925999600000118
79902.0,-0.793554118,2.1264739859999997,10.071625683,0.10259743474923468,-0.07367209305593264,0.1534074599332936,10.324207652396126,0.19871502126298995,-0.08973084750000004,-0.20466478550000033,0.21908056100000017
79912.0,-0.6475330995,1.744603035,10.267954816,0.06582509273896614,-0.14908078871759967,0.10890854532444617,10.435220887364908,0.19600789689051312,0.14602101849999993,-0.3818709509999998,0.196329132999999
