timestamp,ax,ay,az,gx,gy,gz,acc_mag,gyro_mag,dax,day,daz
86802.0,1.391171369,-0.510730332,9.9387455755,0.13537297277243618,0.05129871737461734,0.0023230332344044524,10.048625123093755,0.14478534678943086,0.0,0.0,0.0
86812.0,1.310952972,-0.36470931349999997,9.382022055,0.13110913340981403,0.05049935657720393,-0.0008744099552491591,9.480187151035347,0.14050108352234814,-0.08021839700000011,0.1460210185,-0.5567235205000003
86822.0,1.459425653,-0.32646337849999996,9.494602397,0.12391488623309341,0.054496160564270944,0.018311994511924504,9.61165835073502,0.13660182901195736,0.1484726810000001,0.03824593500000001,0.11258034199999933
86832.0,1.3252706810000001,-0.25820909449999996,9.57717439,0.14096849835433,0.07794465906481476,0.042559853809881726,9.671881079235444,0.16660980931902977,-0.13415497199999993,0.068254284,0.08257199300000018
86842.0,1.150516178,-0.18877801249999998,9.744770038499999,0.1649493222767321,0.06302383928951524,0.06707474848339408,9.814268577794804,0.18888966388464576,-0.17475450300000017,0.06943108199999998,0.16759564849999897
86852.0,1.0751030395,-0.32283491799999997,9.8620575725,0.18466805216576404,0.014793410739903938,0.07959748586645339,9.925736672566263,0.201635548076913,-0.07541313849999987,-0.1340569055,0.1172875340000008
86862.0,1.2043546864999999,-0.495235825,10.015335511999998,0.19932358189476043,-0.0523546415720739,0.07746643884976832,10.099637327705693,0.22016345732560275,0.1292516469999998,-0.17240090700000005,0.1532779394999988
86872.0,1.3599862219999999,-0.498766219,10.082412997999999,0.2115810292315166,-0.12030380001071714,0.06627538768598068,10.18594041448725,0.2522537675449339,0.15563153549999997,-0.0035303939999999923,0.06707748600000052
86882.0,1.5599438154999998,-0.357550459,10.0703508185,0.21504376246747334,-0.18025760514597436,0.06227683836966167,10.196726565222361,0.2874283016448625,0.19995759349999997,0.14121576000000002,-0.012062179499999104
86892.0,1.808934659,-0.22584714949999998,10.0105302535,0.20092230348958723,-0.22102675114330989,0.07640004267679977,10.175164248881073,0.3083173094095517,0.24899084350000011,0.1317033095,-0.05982056499999899
86902.0,2.07704847,-0.148080415,9.959045341000001,0.17454165184569292,-0.23834565331084964,0.1115736630922415,10.174411150534942,0.31578809505271066,0.26811381099999987,0.07776673449999999,-0.051484912499999425
86912.0,2.2925986369999998,-0.08698498549999999,9.943550834,0.15215954951811764,-0.24447524964385373,0.1651325818481915,10.204791917840303,0.33194795644171504,0.21555016699999996,0.061095429500000006,-0.015494507000001434
86922.0,2.4301859365,-0.011571847,9.8728448875,0.1425672199491568,-0.24873734367722386,0.23228063416016934,10.167546595233299,0.36898505572649287,0.13758729950000026,0.07541313849999999,-0.0707059465000004
86932.0,2.412239767,0.1248386545,9.8273420315,0.1441659415439836,-0.2514024614450192,0.31594997317152546,10.119838772788832,0.42873231959926383,-0.017946169500000053,0.1364105015,-0.045502855999998815
86942.0,2.3213321215,0.152395341,9.795078153,0.1486950709529089,-0.256997987026913,0.4076129201570157,10.067540075988974,0.5042880943870335,-0.09090764550000019,0.027556686499999997,-0.03226387850000023
86952.0,2.1979644645,0.069823348,9.792626490499998,0.1518925141425625,-0.2599301401702635,0.49474673773358063,10.036506198352741,0.5791453600949436,-0.12336765699999974,-0.082571993,-0.002451662500002172
86962.0,2.038802535,-0.03667687099999999,9.8226348395,0.15988612211669653,-0.2593960694191532,0.5693560725978342,10.032059417674317,0.6457679384110453,-0.1591619295000002,-0.10650021899999998,0.030008349000000933
86972.0,1.7658834655,-0.1372931,9.859703976499999,0.16414996147931868,-0.2604624655921218,0.6261124345434379,10.017532446328476,0.6977124669417193,-0.2729190694999999,-0.100616229,0.037069136999999586
86982.0,1.5395459834999998,-0.28811937699999995,9.857350380499998,0.16521635765228723,-0.2785824738863269,0.6551564586258755,9.981010526728108,0.7308451442485698,-0.22633748200000015,-0.15082627699999995,-0.002353596000000735
86992.0,1.4102943364999998,-0.42217628249999994,9.8944195175,0.17241060482900783,-0.30842585876617795,0.6546241332040171,10.003334469933234,0.7438983013734266,-0.12925164700000003,-0.1340569055,0.03706913700000136
87002.0,1.3492969734999998,-0.4700327345,9.851368324,0.18626677376059084,-0.33800220827047384,0.6373034857072255,9.954445788154574,0.7450480096594284,-0.06099736300000003,-0.04785645200000005,-0.043051193500000196
87012.0,1.401958684,-0.369514572,9.762716207999999,0.19745782492437847,-0.34786157321498984,0.6117239401899965,9.86978504976219,0.7308922258069577,0.052661710500000236,0.10051816250000001,-0.08865211600000045
87022.0,1.5815184455,-0.21388303649999998,9.7532037575,0.19772486029993358,-0.31295498817510325,0.6063937046544059,9.882911012554516,0.7104570852970657,0.17955976149999997,0.1556315355,-0.009512450499999048
87032.0,1.6401622125,0.012356378999999999,9.771149927,0.1820029343979687,-0.23381652390192434,0.6335737170957135,9.907858278120806,0.6994361228686503,0.05864376699999996,0.22623941549999999,0.017946169500000053
87042.0,1.552784961,0.118856598,9.816652783,0.16521635765228723,-0.16213759685176923,0.6834011219108996,9.939413457944969,0.7215415016323258,-0.08737725149999997,0.106500219,0.04550285600000059
87052.0,1.4210816515,0.033931009,9.9399223735,0.162818275260047,-0.1285626980311543,0.735628354447578,10.041049803920284,0.7643214205757665,-0.13170330949999998,-0.084925589,0.12326959049999964
87062.0,1.267803712,-0.103754357,10.095553909,0.1875984599798625,-0.15521038505060372,0.7755981396475001,10.17537714034633,0.8129181508854602,-0.1532779394999999,-0.137685366,0.15563153549999953
87072.0,1.10619012,-0.12170052649999999,10.203230926,0.23236440996426505,-0.22129204118961304,0.7977149519287723,10.263741468344708,0.8598328506416988,-0.16161359200000014,-0.017946169499999984,0.10767701700000032
87082.0,1.0332286439999998,-0.16239812399999998,10.303847155,0.2731335559616006,-0.3017639370113156,0.8065079207003197,10.356794908419419,0.9033927380852423,-0.07296147600000014,-0.04069759749999999,0.10061622899999989
87092.0,1.1146238389999998,-0.16239812399999998,10.322970122500001,0.2883214111124553,-0.354256459594297,0.8083719323414497,10.384241503507779,0.9284891255516203,0.08139519500000003,0.0,0.01912296750000131
87102.0,1.1923905735,-0.0881617835,10.316988066,0.27872908154349446,-0.35905436970802945,0.8097053638899733,10.386039212992987,0.9285648699023156,0.07776673450000016,0.07423634049999998,-0.00598205650000061
87112.0,1.19837263,-0.008041452999999999,10.31463447,0.24329017108174958,-0.3158871413184537,0.8214287404756192,10.384018772855317,0.9130826737348015,0.005982056499999944,0.08012033049999999,-0.002353596000000735
87122.0,1.0667673869999998,-0.04511059,10.3086524135,0.18306933057093722,-0.2617941518113935,0.8398157841453795,10.3637996027353,0.8985216241237919,-0.1316052430000001,-0.037069137,-0.0059820564999988335
87132.0,0.8907380194999999,-0.0499158485,10.3086524135,0.13057680798795576,-0.2295526845393022,0.8491410783387852,10.34718417704419,0.8892611026497665,-0.17602936749999998,-0.0048052584999999995,0.0
87142.0,0.7327528879999999,-0.05226944449999999,10.2847241875,0.11245679969375064,-0.2335494885263692,0.8446119489298599,10.310926752850502,0.8834937688876958,-0.15798513149999993,-0.0023535959999999925,-0.023928226000000663
87152.0,0.7123550559999999,-0.0607031635,10.2643263555,0.1097916819259553,-0.24527461044126714,0.8342202585634857,10.289194824284337,0.8764344172526399,-0.020397832000000005,-0.008433719000000006,-0.02039783200000045
87162.0,0.628606265,0.043443459499999997,10.153020878,0.10259743474923468,-0.2356805355430543,0.821163450429316,10.172554552307618,0.860453927164008,-0.08374879099999988,0.104146623,-0.1113054775000002
87172.0,0.6214474105,0.103362091,10.117128539,0.09593551299437231,-0.22369012358185325,0.8097053638899733,10.136723853421348,0.8454961090115981,-0.007158854500000089,0.05991863150000001,-0.035892339000000106
87182.0,0.6789143795,0.1344491715,10.099084303,0.09247103442916356,-0.21383075863733728,0.8054415245273512,10.12277161026119,0.8384572350339417,0.057466969000000034,0.03108708049999999,-0.018044235999999714
87192.0,0.7399117425,0.25654196399999996,10.0776077395,0.09913295618402593,-0.22662227672520374,0.8142344932988986,10.107989954348621,0.85097756103649,0.06099736300000003,0.12209279249999996,-0.021476563500000267
87202.0,0.8691633894999999,0.32479624799999995,10.069174020499998,0.11325616049116403,-0.24260949267347176,0.8411474703646512,10.111834801630915,0.8827317773397146,0.12925164699999991,0.068254284,-0.008433719000001005
87212.0,0.897896874,0.36667064349999995,10.033281681499998,0.12284849006012488,-0.2593960694191532,0.8795185339697464,10.080049972964773,0.9251653495113459,0.028733484500000017,0.041874395499999995,-0.035892339000000106
87222.0,0.8344478485,0.3176373935,9.999742938499999,0.12711232942274703,-0.27938183468374034,0.9184219229967001,10.039524668115336,0.9683545747728393,-0.06344902549999998,-0.04903324999999997,-0.03353874299999937
87232.0,0.6908784925,0.2134907705,9.969832656,0.13350721580205424,-0.30549370562282746,0.9487976332984094,9.996021938207807,1.005667703468221,-0.14356935599999998,-0.10414662299999997,-0.029910282499999497
87242.0,0.534070159,0.1248386545,9.905206832499998,0.1423001845736017,-0.3337401142371037,0.9583917081966222,9.920379933197935,1.0247665454730241,-0.1568083335,-0.08865211600000002,-0.0646258235000019
87252.0,0.39393313049999995,-0.0414821295,9.889614258999998,0.15162722409625937,-0.35852029895691917,0.9503963548932362,9.897543850379723,1.0270252437236613,-0.14013702850000004,-0.166320784,-0.015592573499999318
87262.0,0.29576856399999996,-0.170831843,9.870491291499999,0.17640740881607486,-0.3883636838367702,0.9205529700133852,9.876399186829717,1.0145756233070717,-0.0981645665,-0.12934971350000002,-0.019122967499999532
87272.0,0.2095681105,-0.193583271,9.865686033,0.2201069626275089,-0.4200728256870032,0.8779198123749197,9.869810240196154,0.9978233565306963,-0.08620045349999997,-0.02275142799999999,-0.004805258499999354
87282.0,0.214373369,-0.148080415,9.878826944,0.27126779899121867,-0.4520490029127913,0.834752583985344,9.882262167142873,0.9872924573165733,0.00480525850000002,0.04550285600000001,0.013140911000000699
87292.0,0.3329357675,0.001569064,9.919524541499998,0.31097054881558567,-0.45444708530503153,0.8041098383080795,9.925110367983995,0.9745857928559963,0.11856239849999997,0.149649479,0.040697597499997684
87302.0,0.458558954,0.18112882549999998,9.9877788255,0.32482671774716865,-0.4301992260070743,0.789187273203528,9.999940491464274,0.9557197930386837,0.12562318650000004,0.17955976149999997,0.06825428400000177
87312.0,0.5831034089999999,0.310478539,10.01651231,0.30297694084145166,-0.3785060642215063,0.7873215162331461,10.038273027027534,0.9246280534667762,0.12454445499999989,0.12934971350000002,0.028733484500000017
87322.0,0.6106600955,0.45169429899999997,10.012981916,0.2504844182584702,-0.3004322507920439,0.7899866340009414,10.041749864546926,0.881521901603355,0.027556686500000094,0.14121575999999997,-0.0035303940000002143
87332.0,0.5890854655,0.5402483484999999,9.959045341000001,0.18120357360055528,-0.22049268039219963,0.7926517517687367,9.991069715891996,0.842465760001079,-0.02157463000000004,0.08855404949999995,-0.053936574999998044
87342.0,0.5424058115,0.5714334955,9.821359975,0.11245679969375064,-0.13655805133454033,0.7947827987854218,9.852910842114644,0.8142323565339538,-0.04667965399999996,0.03118514700000008,-0.13768536600000125
87352.0,0.42148981699999993,0.648023432,9.6286593025,0.06662445353637954,-0.053953363166900706,0.7907859947983549,9.659641194054545,0.7954195577022635,-0.12091599450000007,0.07658993650000001,-0.1927006725000009
87362.0,0.2527173705,0.742559538,9.412030404,0.053567645402209964,0.029715975844455452,0.7870562261868429,9.444658652521413,0.7894365300857314,-0.16877244649999995,0.09453610599999995,-0.21662889849999978
87372.0,0.006080123,0.6910746255,9.3258299505,0.07408573608865529,0.0790110552377833,0.7918523909713233,9.351402321125343,0.7992256578893019,-0.2466372475,-0.05148491249999998,-0.08620045350000005
87382.0,-0.16269232349999999,0.5007275489999999,9.334165602999999,0.14203314919804655,0.05689424295651115,0.7966485557558037,9.34900231974951,0.8112085377635747,-0.16877244649999998,-0.19034707650000005,0.008335652499999568
87392.0,-0.3111650045,0.4864098399999999,9.5113717685,0.2550135476673955,-0.026241025303734747,0.7867891908112878,9.528882993881975,0.8275008952746717,-0.14847268100000002,-0.014317709000000012,0.17720616550000123
87402.0,-0.436788191,0.624095206,9.7543805555,0.3853145936335361,-0.1480143925446311,0.7753311042719451,9.784079863301695,0.8783586498230019,-0.12562318649999998,0.1376853660000001,0.24300878699999906
87412.0,-0.3266595115,0.6923494899999999,10.052404649,0.4868369055635423,-0.280713520903012,0.7681368570952244,10.081512459943374,0.9517586273129235,0.11012867949999999,0.06825428399999989,0.2980240935000005
87422.0,-0.1507282105,0.7712930225,10.2762904685,0.5172126158652516,-0.3614524521002697,0.7702679041119095,10.30629699324552,0.995725569243066,0.175931301,0.07894353250000008,0.22388581949999953
87432.0,-0.1028717585,0.7174545139999999,10.363667719999999,0.46711817567451036,-0.3603860559273011,0.7654717393274291,10.388981287350836,0.9664494208499884,0.047856451999999994,-0.05383850850000005,0.08737725149999953
87442.0,-0.007060788,0.9209425014999999,10.287077783500001,0.36959266773157123,-0.28817480345528773,0.7739994180526732,10.328221253903092,0.9048306783776234,0.0958109705,0.20348798749999997,-0.07658993649999779
87452.0,-0.0932612415,0.9113319845,10.156551271999998,0.2139791116237568,-0.14295293771384757,0.7745317434745316,10.197781983642502,0.8161629887847212,-0.0862004535,-0.00961051699999993,-0.13052651150000294
87462.0,-0.203389921,0.8071853614999999,9.991407286,0.04983787679069808,0.021987657916624565,0.7601432491210903,10.026022901555638,0.762092533914374,-0.1101286795,-0.1041466230000001,-0.16514398599999858
87472.0,-0.397365458,0.7354006835,9.967479059999999,-0.05621356454823337,0.16108167265431267,0.727634746473444,10.002467309821226,0.7473684462029438,-0.193975537,-0.07178467799999988,-0.023928226000000663
87482.0,-0.6259584694999999,0.788062394,10.005724995,-0.08232718081657252,0.21117611284505391,0.6929951968091125,10.056211961665463,0.7291196459690632,-0.2285930114999999,0.052661710500000014,0.03824593500000084
87492.0,-0.8126770855,0.85513988,10.118305336999999,-0.039426987802551904,0.1536203901020369,0.6652828589459465,10.1868450048298,0.6839261612408,-0.18671861600000006,0.06707748599999996,0.11258034199999933
87502.0,-0.864161998,0.7928676525,10.1505692155,0.03544938243725682,0.035044466050794136,0.6373034857072255,10.218095246758296,0.6392499559722691,-0.05148491250000009,-0.062272227499999944,0.03226387850000023
87512.0,-0.8318981194999999,0.7257901665000001,10.224805556,0.11538720750784912,-0.08140041098376354,0.604529693013276,10.284234269260118,0.6208030156978224,0.03226387850000012,-0.06707748599999996,0.07423634050000061
87522.0,-0.7480512619999999,0.7653109659999999,10.221275162,0.18413572674390577,-0.18398737375748625,0.5834775315757202,10.277146856135596,0.6389079350104981,0.08384685749999998,0.03952079949999987,-0.0035303940000002143
87532.0,-0.6247816715,0.8299367894999999,10.1805775645,0.22383847656827274,-0.2466062966605388,0.5925375357228229,10.233440611954938,0.6797198396291714,0.12326959049999997,0.06462582350000001,-0.04069759749999946
87542.0,-0.622330009,0.900642736,10.129092651999999,0.2254371981630996,-0.24367588884644031,0.6133226617848233,10.188079796056364,0.697398420258859,0.0024516624999999515,0.07070594650000006,-0.0514849125000012
87552.0,-0.8270928609999999,0.9053499279999999,10.100359167499999,0.19665846412696505,-0.20210738205169138,0.628510516935678,10.17452683938413,0.6888740198986447,-0.20476285199999988,0.004707191999999916,-0.028733484500000017
87562.0,-1.1107992455,0.7772750789999999,10.1397819005,0.14443123159028676,-0.16266992227362748,0.6101252185951698,10.23001507828533,0.6477458349051723,-0.2837063845000001,-0.128074849,0.03942273300000032
87572.0,-1.3634185494999997,0.565451439,10.178125901999998,0.0895406266150651,-0.14535102010608775,0.5475062956921172,10.284594904416563,0.5735046527126025,-0.25261930399999977,-0.21182363999999998,0.038344001499998726
87582.0,-1.5165984225,0.40383784699999997,10.2068593865,0.04690746897659961,-0.1544110242531903,0.4486491015299064,10.326816272093845,0.4767904061118493,-0.15317987300000024,-0.16161359199999997,0.028733484500001794
87592.0,-1.489041736,0.3092036745,10.082412997999999,0.018395770316020233,-0.18132225598969087,0.33033846752496676,10.196465273128405,0.37727929708566604,0.027556686500000094,-0.09463417249999995,-0.12444638850000089
87602.0,-1.3131104349999998,0.290080707,9.971009454,0.008536405371504265,-0.19251505248273054,0.21629341821190126,10.061283981820457,0.2896856199587469,0.1759313010000001,-0.019122967500000032,-0.11140354399999808
87612.0,-1.058137535,0.3307783045,9.901578371999998,0.026389378290154263,-0.19917522890834088,0.12676151824309617,9.963449381944082,0.2375618942602657,0.25497289999999984,0.040697597500000016,-0.06943108200000303
87622.0,-0.782766803,0.3296015065,9.8130243225,0.06022956715707232,-0.2031737782246599,0.0710715524704611,9.849711030022277,0.2235136472087847,0.27537073199999995,-0.0011767980000000344,-0.08855404949999723
87632.0,-0.4978836205,0.299691224,9.762716207999999,0.10019935235699445,-0.21809459799995945,0.050021136362157485,9.779996456402767,0.24516785672776642,0.2848831825,-0.029910282499999996,-0.05030811450000172
