timestamp,ax,ay,az,gx,gy,gz,acc_mag,gyro_mag,dax,day,daz
65272.0,1.2062179499999999,0.310282406,9.0428100315,-0.09555328588818555,-0.01772381855400242,0.16240114156882038,9.128178908203562,0.18925827583231483,0.0,0.0,0.0
65282.0,0.9668376234999999,-0.255953565,9.2271750515,-0.08915839950887833,-0.014261085318045668,0.21409430335438842,9.281220105604401,0.2323552656735677,-0.23938032649999996,-0.566235971,0.18436501999999955
65292.0,0.9811553325,-0.465423609,9.2665977845,-0.06304478324053918,-0.03584382684820755,0.22368663292334925,9.330011758942648,0.23514917470736751,0.014317709000000067,-0.20947004400000002,0.03942273300000032
65302.0,1.0230297279999998,-0.6294888634999999,9.358780294499999,-0.025474825762109233,-0.06595424710361372,0.22768343691041626,9.43555057505198,0.23840863428566061,0.04187439549999983,-0.16406525449999987,0.09218250999999889
65312.0,1.0901072139999999,-0.7216713735,9.411442005,0.00676838683923401,-0.11524932649694156,0.21596006032477036,9.501809507816004,0.24488153457107092,0.06707748600000007,-0.0921825100000001,0.05266171050000068
65322.0,1.2002358935,-0.680973776,9.444980747999999,0.031016246137191228,-0.1613469627006158,0.1906458048538446,9.545258132378404,0.2516757294725237,0.11012867950000005,0.040697597500000016,0.03353874299999937
65332.0,1.3055593145,-0.5815343449999999,9.395947498,0.04780282288287269,-0.19065802215860855,0.17172643576222607,9.504025289489961,0.2610087355407894,0.10532342100000003,0.09943943100000008,-0.04903324999999903
65342.0,1.5294451339999997,-0.42953126999999997,9.2881724145,0.05446474463773505,-0.20611291268501836,0.15946898842546992,9.423048674993822,0.26623166500887596,0.22388581949999975,0.15200307499999993,-0.10777508349999998
65352.0,1.8214871709999998,-0.334995164,9.2642441885,0.0627253879874242,-0.18799464972006522,0.155739219813958,9.447552998431762,0.2520538974302981,0.2920420370000001,0.09453610599999995,-0.023928226000000663
65362.0,2.0418425965,-0.265564082,9.2750315035,0.07578219612159379,-0.14109590738972558,0.169595388745541,9.500834429746043,0.233267212044241,0.2203554255000002,0.06943108200000003,0.010787314999999964
65372.0,2.2117918409999997,-0.17818683049999998,9.308570246499999,0.0899036550994799,-0.08913571022860241,0.187448361664191,9.569391502520045,0.22619622085435678,0.1699492444999997,0.0873772515,0.03353874299999937
65382.0,2.4499953695,-0.1577889985,9.444980747999999,0.10216110243623608,-0.04037295625713283,0.205301334582841,9.758843989362147,0.2328422307688687,0.23820352850000015,0.020397831999999977,0.13641050150000034
65392.0,2.6762347849999997,-0.1577889985,9.599435485499999,0.11495087519485053,0.00305956217874606,0.217291746544042,9.966759334546422,0.24584297375550093,0.22623941549999982,0.0,0.15445473750000005
65402.0,2.894138548,-0.173381572,9.767031134,0.12108047152785462,0.041962951205699664,0.22288727212593587,10.188277394979686,0.2570994086633428,0.21790376300000025,-0.015592573500000012,0.16759564850000075
65412.0,3.021036599,-0.138666031,9.941785636999999,0.12001407535488608,0.07207337146110585,0.2356770448845503,10.391582750125712,0.27411971589539696,0.12689805099999996,0.034715541000000016,0.17475450299999906
65422.0,3.1143959069999996,-0.070411747,10.0985939705,0.10402685940661803,0.08859465816048416,0.2689849083296101,10.56816066591878,0.3017009808430627,0.0933593079999997,0.068254284,0.15680833350000078
65432.0,3.195791102,-0.080022264,10.2494202475,0.07391643915121185,0.06354743806511354,0.31774766230107965,10.736391374210472,0.3323634964300911,0.08139519500000025,-0.009610516999999999,0.15082627700000018
65442.0,3.3070965794999996,-0.1338607725,10.381123557,0.04300665809839228,-0.02491806573072304,0.3625136122854822,10.895987004317472,0.36590518134186284,0.11130547749999975,-0.05383850850000001,0.13170330950000064
65452.0,3.5022489145,-0.19495620199999997,10.383575219499999,0.013163273218541233,-0.17094103759882862,0.40168403668799096,10.960036027259633,0.4367426878920234,0.1951523350000004,-0.061095429499999965,0.002451662499998619
65462.0,3.6375806844999996,-0.2152559675,10.2829589905,-0.01641482161500667,-0.338277970292289,0.4464499866723935,10.909517586405762,0.5603740020321282,0.13533176999999963,-0.02029976550000004,-0.10061622899999989
65472.0,3.6925959909999997,-0.187699281,10.045932259999999,-0.05292012824972006,-0.46884605163398474,0.49814314845796154,10.704730316329593,0.6861222605792313,0.05501530650000008,0.02755668650000001,-0.23702673050000023
65482.0,3.6818086759999997,-0.15298373999999998,9.7178998175,-0.10088352142377623,-0.5514489944723724,0.5493039848216713,10.393108101734523,0.7848619917797135,-0.010787314999999964,0.034715541000000016,-0.32803244249999963
65492.0,3.6650393045,-0.0871811185,9.2881724145,-0.13818818885590303,-0.5940821521108379,0.6012641819827945,9.985502513766221,0.8564742818855442,-0.016769371499999686,0.06580262149999998,-0.42972740299999934
65502.0,3.678278282,-0.0273605535,8.909929924,-0.144050749813352,-0.5919511050941528,0.6628167087128786,9.639363618533713,0.9002681371085787,0.013238977499999915,0.059820565000000006,-0.3782424904999999
65512.0,3.6914191929999998,-0.114737805,8.6621158785,-0.12539841609728858,-0.5383921863382028,0.7384924397501007,9.416580691254486,0.9224760119579235,0.01314091099999981,-0.0873772515,-0.2478140455000002
65522.0,3.563344344,-0.25830716099999995,8.549535536499999,-0.09688671743670922,-0.45738796509464197,0.8051081666402202,9.265997161299856,0.9310155458529438,-0.12807484899999988,-0.14356935599999995,-0.11258034200000111
65532.0,3.400553954,-0.5133781275,8.495697027999999,-0.06677629718130305,-0.3955684029890028,0.8402817870556619,9.165380095087626,0.931132062043818,-0.16279039000000006,-0.25507096650000005,-0.05383850850000016
65542.0,3.2604169254999995,-0.716866115,8.450194172,-0.026539476605825774,-0.38730775963931363,0.8309547475330042,9.08570289517684,0.9171681617582319,-0.14013702850000032,-0.20348798749999997,-0.045502855999998815
65552.0,3.0952729395,-0.7012735415,8.390373606999999,0.04513770511507735,-0.40302968554127855,0.7971145586660863,8.970555635803787,0.8943500206786977,-0.16514398599999947,0.015592573499999984,-0.05982056500000077
65562.0,2.983967462,-0.519360184,8.367622179,0.13813408364909122,-0.3793141516651796,0.76700413841068,8.898926774925837,0.8667500210892173,-0.1113054775000002,0.18191335750000004,-0.022751427999999407
65572.0,2.9288540889999997,-0.31459733199999995,8.415478631,0.21913830489265204,-0.2791235259544451,0.7720673385707155,8.916133598414234,0.849717314581817,-0.05511337300000019,0.204762852,0.04785645199999955
65582.0,2.8451052979999996,-0.119444997,8.599843651,0.2612391371092593,-0.12510869144145753,0.8154998570065944,9.05903979931985,0.8654120915549772,-0.0837487910000001,0.19515233499999995,0.18436502000000132
65592.0,2.649952963,0.0648219565,8.8392239775,0.2537778545569835,0.021444860519254327,0.8930413450141985,9.228127281120903,0.9286473633252854,-0.1951523349999995,0.1842669535,0.23938032649999919
65602.0,2.4811805165,0.070804013,9.084684427,0.21434214010817162,0.0856625050171337,0.9841702212485786,9.417683425444519,1.0108766701158147,-0.16877244650000023,0.005982056499999999,0.24546044949999946
65612.0,2.3925284005,-0.015298373999999998,9.291800875,0.17970259044384018,0.054487433918010975,1.0774318898288955,9.594893938345379,1.0936733418564528,-0.088652116,-0.086102387,0.20711644800000073
65622.0,2.246507382,0.03138128,9.441450353999999,0.1855634060720371,-0.03371277983152247,1.1730933861307047,9.705089643540736,1.1881575744742896,-0.14602101849999993,0.046679653999999994,0.14964947899999892
65632.0,2.1352019045,0.070804013,9.527552741,0.23486023079461696,-0.14162997814083586,1.2759473842799824,9.764136501185035,1.3050900758828885,-0.11130547749999975,0.039422733,0.08610238700000039
65642.0,2.072929677,0.1809326925,9.603063945999999,0.3105342165025871,-0.2157052422539792,1.383864582589296,9.825915287441049,1.4345875484262958,-0.06227222750000028,0.11012867949999999,0.07551120499999975
65652.0,2.0453729904999998,0.299495091,9.6712201635,0.38727634371277775,-0.2098444266257822,1.4963109103075345,9.88967883354606,1.5597961373496227,-0.027556686500000094,0.1185623985,0.06815621750000034
65662.0,1.9616241995,0.29586663049999995,9.8771598135,0.43710549385721587,-0.13177061319631989,1.610090669574297,10.074412764252157,1.6735640625660264,-0.08374879099999966,-0.0036284605000000414,0.20593965000000125
65672.0,1.8000106074999997,0.182207557,10.068683688,0.44616375267506647,-0.047034878011995185,1.7286665936255396,10.229937878107457,1.785934647703445,-0.16161359200000036,-0.11365907349999996,0.19152387449999964
65682.0,1.6228044419999998,-0.046483521,10.3608237915,0.4299095013512433,0.001993166005777524,1.826459136944034,10.487245806846138,1.876373931547,-0.1772061654999999,-0.228691078,0.2921401034999995
65692.0,1.450403535,-0.34333081649999997,10.6301144005,0.3931389046702268,0.015049974139947103,1.875754216337362,10.734098873758176,1.9165694822245056,-0.17240090699999988,-0.2968472955,0.26929060900000046
65702.0,1.273295436,-0.5635881755,10.8503717595,0.3427774291039304,0.01132020552843522,1.870158690755468,10.939354652732352,1.901346376009514,-0.17710809900000002,-0.22025735899999999,0.22025735899999965
65712.0,1.0027299625,-0.6402761785,11.044347296499998,0.27829274923049585,-0.008665559736151846,1.8320546625259277,11.108241452550292,1.8530909941723854,-0.27056547350000004,-0.076688003,0.19397553699999825
65722.0,0.6914668915,-0.5959501205,11.114955176499999,0.19142596702948608,-0.04783423880940859,1.776629986799596,11.152376947707998,1.7875531111693388,-0.31126307099999995,0.044326058,0.07060788000000073
65732.0,0.5262248389999999,-0.5971269185,11.1245656935,0.08803964345834996,-0.1077880439446658,1.6940270439612082,11.153001165918303,1.6997343518649142,-0.16524205250000001,-0.0011767980000000344,0.009610517000000485
65742.0,0.43168873299999994,-0.5145549255,11.0455240945,0.011564551623714427,-0.18213208876261625,1.626079630851817,11.06592628096426,1.6362887283369254,-0.09453610600000001,0.08257199299999995,-0.07904159899999996
65752.0,0.395796394,-0.345782479,10.909015526499998,-0.01641482161500667,-0.26713311399324413,1.562926637197654,10.921668373728659,1.5856762658948853,-0.03589233899999994,0.16877244650000006,-0.13650856800000177
65762.0,0.40060165249999996,-0.17573516799999997,10.772605024999999,-0.009485864484589181,-0.3441405312497379,1.5317515660985315,10.781483365377555,1.5699635496148232,0.004805258499999965,0.170047311,-0.13641050149999856
65772.0,0.4245298785,0.056486304,10.670811998,0.019025834175990186,-0.3795811870407348,1.5317515660985315,10.679402839903528,1.578197300772831,0.023928226000000052,0.23222147199999998,-0.10179302699999937
65782.0,0.46885593649999996,0.2109410415,10.5942220615,0.03821049331391185,-0.37451798688069926,1.554667739177217,10.60668954483696,1.5995985569932425,0.044326057999999946,0.1544547375,-0.07658993649999957
65792.0,0.5130839279999999,0.24202812199999998,10.571470633499999,0.03181560693460463,-0.32229075434402094,1.5789155984751742,10.586681448119785,1.6117872161946416,0.04422799149999995,0.031087080499999975,-0.022751428000001184
65802.0,0.476014791,0.161809725,10.679245717,0.0062343160881237454,-0.24341758011714515,1.5821130416648277,10.691073919509593,1.6007412850342513,-0.03706913699999992,-0.080218397,0.10777508350000176
65812.0,0.3466650775,0.046875787,10.753383991,-0.04092971628851902,-0.17733592397813586,1.5392128486508072,10.759072509898798,1.5499353099598612,-0.12934971350000002,-0.11493393799999999,0.07413827399999917
65822.0,0.2748803995,-0.06325289249999999,10.727102169,-0.10541265083270152,-0.15228870388276522,1.4443507131464115,10.730809899844624,1.456177413247581,-0.07178467799999999,-0.11012867949999999,-0.02628182199999962
65832.0,0.3192064575,-0.10748088399999998,10.6397249175,-0.16936325995502574,-0.1560184724942771,1.3172488556991764,10.645054777830197,1.3372248223177847,0.044326058,-0.044227991499999994,-0.08737725149999953
65842.0,0.361080853,-0.069234949,10.510375204,-0.21652729233166854,-0.16401208046841112,1.1938767668634531,10.516803686929993,1.224387914559921,0.041874395499999995,0.03824593499999998,-0.1293497134999999
65852.0,0.46287387999999996,0.0971839015,10.365530983500001,-0.23491433600142878,-0.15228870388276522,1.094485501950132,10.376315796533735,1.1297234655296478,0.10179302699999998,0.1664188505,-0.14484422049999957
65862.0,0.422078216,0.343821149,10.296099901499998,-0.22079113169429065,-0.11231891868284308,1.0497212972949814,10.310481859961236,1.0785541550258788,-0.040795663999999954,0.2466372475,-0.06943108200000303
65872.0,0.3323473685,0.552114395,10.2219616275,-0.21226519829829835,-0.05929232534875137,1.0614446738806274,10.242254858799285,1.0840834331191624,-0.08973084749999999,0.20829324600000004,-0.0741382739999974
65882.0,0.20662611549999998,0.5592732494999999,10.2231384255,-0.2402428262077675,-0.011595967550250325,1.1075423100843018,10.240509762025889,1.1333583063773758,-0.12572125300000003,0.007158854499999867,0.0011767979999994793
65892.0,0.0534462425,0.403641714,10.136937971999998,-0.30073070209413494,0.01904677812701412,1.1533746562416727,10.14511185656884,1.1920884332127577,-0.153179873,-0.15563153549999992,-0.08620045350000183
65902.0,-0.136900834,0.19054320949999998,9.987288493000001,-0.37214259376873493,0.04382870817608161,1.1666967544221456,9.990044043719061,1.2253947864000703,-0.1903470765,-0.2130985045,-0.14964947899999714
65912.0,-0.30930174099999996,-0.014121576,9.8340105535,-0.4363584929373623,0.0648791242843852,1.1429829658752986,9.838883602942142,1.2251645176904076,-0.17240090699999996,-0.20466478549999997,-0.15327793950000057
65922.0,-0.4062895095,-0.198486596,9.605417542,-0.4915178786173911,0.08459785417341716,1.0832944507863445,9.616055025346034,1.192591082071208,-0.09698776850000002,-0.18436502,-0.228593011500001
65932.0,-0.5008256154999999,-0.369710705,9.3683908115,-0.5373484794455102,0.12190252160554395,0.9902998175815826,9.389049935937617,1.1332684332665002,-0.09453610599999995,-0.17122410899999999,-0.23702673050000023
65942.0,-0.609777497,-0.47268053,9.140974598,-0.556800173958987,0.1901169700904903,0.8893098310734346,9.1734765536611,1.0663221237885894,-0.10895188150000001,-0.10296982500000001,-0.22741621349999974
65952.0,-0.7498164589999999,-0.4366901245,8.9996607715,-0.5368161540236519,0.28124584632487026,0.8032424096698383,9.041394637394117,1.0062152741774226,-0.140038962,0.03599040549999999,-0.14131382649999935
65962.0,-0.9305530184999999,-0.27507653249999997,9.029571054,-0.48432188611141846,0.38436687984970325,0.7387594751256559,9.081560958238752,0.9633644947681291,-0.1807365595,0.16161359200000003,0.029910282499999497
65972.0,-1.027540787,-0.1685763135,9.234333906,-0.401985978648586,0.4525813283346496,0.7062509724780095,9.292856435452075,0.9301682761271486,-0.09698776850000002,0.10650021899999998,0.204762852
65982.0,-1.1652261529999999,-0.0177500365,9.55756109,-0.2884732547573788,0.41874113946773156,0.7027864939128007,9.628345706325304,0.8674501810590028,-0.13768536599999992,0.15082627699999998,0.3232271840000003
65992.0,-1.256231865,0.1103248125,9.811357192,-0.15657348719641132,0.2572650224024682,0.7147769058740017,9.892068540598808,0.7756330149080805,-0.09100571200000007,0.128074849,0.253796101999999
66002.0,-1.2047469524999999,0.12954584649999998,9.983660032499998,-0.02680651198138091,0.041962951205699664,0.7387594751256559,10.056921248097813,0.7404357098671257,0.05148491250000009,0.019221033999999984,0.17230284049999867
66012.0,-1.1735618054999999,0.208489379,10.025632494499998,0.06858620361562116,-0.13683381335635544,0.7718003031951605,10.096238014590309,0.7868311558499619,0.03118514699999997,0.07894353250000002,0.04197246200000038
66022.0,-1.2526034045,0.2719384045,9.9789528405,0.11255279280261032,-0.2343575759700426,0.8016436880750115,10.060937609275292,0.8427480093199438,-0.07904159900000018,0.0634490255,-0.046679653999998294
66032.0,-1.2610371235,0.2372228635,9.808905529499999,0.09283580824283037,-0.2298284465611173,0.8091049706272873,9.892477798836243,0.8462212805375313,-0.008433718999999895,-0.034715541000000016,-0.17004731100000114
66042.0,-1.26701918,0.1330762405,9.649743599999999,0.008632398480363953,-0.12031252665697711,0.7872551937215703,9.73347822897932,0.7964423158118212,-0.005982056499999944,-0.104146623,-0.15916192949999974
66052.0,-1.3424323185,-0.0189268345,9.545596976999999,-0.10567968620825664,0.06381272811141668,0.7398241259693724,9.639548972961805,0.7500533299122423,-0.07541313850000009,-0.152003075,-0.1041466230000001
66062.0,-1.5112047649999998,-0.20809711299999997,9.5766840575,-0.21412920993942833,0.2676567127688424,0.6838671248211821,9.697418305269311,0.7649612270244137,-0.16877244649999978,-0.18917027849999998,0.031087080500000752
66072.0,-1.7997164079999999,-0.368533907,9.6927947935,-0.2804796467832447,0.41954050026514494,0.6271107628755785,9.865346790596558,0.804954018895969,-0.2885116430000001,-0.16043679400000002,0.11611073599999955
66082.0,-1.9792761695,-0.5025908124999999,9.938157176499999,-0.28154429762696126,0.46883557965847283,0.5730195186977703,10.145792218687431,0.7921018628235762,-0.1795597615000002,-0.13405690549999993,0.2453623829999998
66092.0,-2.1097046144999996,-0.49062669949999993,10.1440968265,-0.23304857903104684,0.39689136256201457,0.5338490942952615,10.372765713353031,0.704861156075857,-0.1304284449999995,0.011964112999999998,0.20593965000000125
66102.0,-2.1289256485,-0.4786625865,10.227943684000001,-0.16083732655903343,0.23061908071227072,0.5098682703728595,10.458120017079146,0.5822537755448576,-0.019221034000000525,0.011964112999999943,0.08384685750000109
66112.0,-1.9684888544999999,-0.519360184,10.206369053999998,-0.08542863089736645,0.032637657012293965,0.493079948297926,10.407432567039002,0.5014888862634306,0.16043679400000022,-0.04069759749999996,-0.02157463000000348
66122.0,-1.7314621239999999,-0.5828092094999999,10.1082044875,-0.020678660977628816,-0.13150357782076474,0.47522697537927605,10.271972820380695,0.4935194789748675,0.2370267305,-0.06344902549999998,-0.09816456649999772
66132.0,-1.6022104769999999,-0.5755522885,9.9106985565,0.042474332676534006,-0.22609867794960542,0.4619048771988033,10.055858229271998,0.5160240272379939,0.12925164700000003,0.007256920999999972,-0.19750593100000025
66142.0,-1.5243456759999998,-0.568393434,9.740651245499999,0.09203644744541697,-0.2546103766101848,0.4536442338491142,9.875575300822474,0.5282899227133743,0.07786480100000004,0.007158854499999978,-0.17004731100000114
66152.0,-1.535132991,-0.6593991459999999,9.6449383415,0.11308686355372059,-0.21517291683212092,0.45231254762984247,9.788578862385434,0.5134926129847042,-0.010787315000000186,-0.09100571199999996,-0.0957129039999991
66162.0,-1.5710253299999999,-0.859258673,9.570702000999999,0.10056238084140928,-0.12084485207883539,0.44191911193421624,9.736774766141647,0.4690509270933963,-0.035892338999999884,-0.1998595270000001,-0.07423634050000061
66172.0,-1.5447435079999998,-1.113054775,9.526375943,0.06165899181445567,-0.013194689145077132,0.4091453192402667,9.714780596854855,0.4139756313473416,0.026281822000000066,-0.2537961019999999,-0.044326057999999335
66182.0,-1.5087531024999998,-1.23759923,9.532357999499999,0.029682814588667564,0.08459785417341716,0.36224657690992706,9.730048140118916,0.3731761633540005,0.03599040549999999,-0.12454445500000011,0.0059820564999988335
66192.0,-1.5399382495,-1.2316171735,9.603063945999999,0.02275560278750207,0.13602398058343007,0.3134855682677095,9.803424290792393,0.3424814480583039,-0.03118514700000019,0.005982056499999944,0.0707059465000004
66202.0,-1.4872765389999998,-1.2268119149999999,9.6604328485,0.04407305427136081,0.1237665332466739,0.28017770482264975,9.85094014795662,0.309451345358837,0.052661710500000236,0.004805258500000242,0.057368902500000374
66212.0,-1.4058813439999998,-1.227988713,9.7394744475,0.09683261222989739,0.06221400651658987,0.2615253711065863,9.916744483254979,0.2857317922992638,0.08139519500000003,-0.0011767980000001454,0.07904159899999996
66222.0,-1.3411574539999997,-1.1969016325,9.802923472999998,0.17357299411083607,-0.014261085318045668,0.25592810019544054,9.966372732935252,0.30956446066804305,0.06472389,0.031087080500000086,0.06344902549999887
66232.0,-1.3100703734999999,-1.1417882595,9.848426328999999,0.24871639972619997,-0.07154977268550754,0.25912554338509414,10.000573282107124,0.36623116292682,0.031087080499999864,0.055113372999999966,0.04550285600000059
66242.0,-1.1771902659999998,-1.190919576,9.919034209,0.29401467513246077,-0.10379123995759879,0.2620576965284446,10.05938894755429,0.40729778663157085,0.13288010750000012,-0.04913131650000002,0.07060788000000073
66252.0,-1.0095946175,-1.2447580844999997,9.9261930635,0.30333996932586643,-0.0984627497512601,0.2575268217902673,10.05475075347413,0.40991476433594454,0.16759564849999986,-0.053838508499999715,0.007158854500000089
66262.0,-0.851609486,-1.1897427779999998,9.933449984500001,0.2950793259761773,-0.06222447849210184,0.2527306570057869,10.04062523894859,0.393467253189825,0.15798513149999993,0.05501530649999986,0.007256921000001526
66272.0,-0.6923494899999999,-1.133452607,9.9728727175,0.296412757524701,-0.015859806912872473,0.25699449636840904,10.060927038204492,0.39262988610441124,0.15925999600000007,0.05629017099999989,0.039422732999998544
66282.0,-0.6373341835,-1.054411008,10.111832948,0.3113335773000005,0.029705503868943488,0.2764461908818858,10.186615875918143,0.4174128768589048,0.05501530649999986,0.07904159899999996,0.1389602305000004
66292.0,-0.8408221709999999,-0.9346718115,10.227943684000001,0.32199230304192983,0.0819327364056218,0.2972313169438863,10.304922383091169,0.4458009334729528,-0.20348798749999986,0.11973919649999998,0.11611073600000132
