timestamp,ax,ay,az,gx,gy,gz,acc_mag,gyro_mag,dax,day,daz
99242.0,-1.5895598985000001,-3.2950344,10.7748605545,-0.013564698946499929,0.06680945843709095,-0.06727022535961744,11.378996982907708,0.09577467313491744,0.0,0.0,0.0
99252.0,-0.9598749019999999,-3.379959989,10.881458839999999,-0.08018042583661951,0.08972563151577649,-0.05021661323838085,11.434668156153222,0.13038902516461912,0.6296849965000002,-0.08492558900000002,0.10659828549999872
99262.0,-0.7216713735,-3.3272982785,10.917351178999999,-0.108959159872754,0.13262582452979713,-0.03182956956862059,11.435920608812003,0.17457041373413926,0.23820352849999993,0.052661710500000236,0.035892339000000106
99272.0,-0.5851628055,-3.2303105100000002,10.93049209,-0.10149787732047824,0.12489750660196622,0.0060074232853644825,11.412842714657451,0.1610505988516671,0.136508568,0.09698776849999957,0.013140911000000699
99282.0,-0.2954743645,-3.1382260665,10.911369122499998,-0.07618362184955249,0.100649647304009,0.055569538054247455,11.357541286386905,0.13792124310670736,0.289688441,0.09208444350000011,-0.01912296750000131
99292.0,-0.059624432,-3.133420808,10.9148995165,-0.060728731323142694,0.07959923119570539,0.09767037027085468,11.355919711242706,0.13986964518404865,0.23584993249999997,0.004805258500000242,0.0035303940000019907
99302.0,0.1677917815,-3.1656846864999997,10.8766535815,-0.05007000558121332,0.05481904647588989,0.12964654749664278,11.329223572171056,0.14940000198536732,0.2274162135,-0.03226387849999979,-0.03824593500000084
99312.0,0.391677601,-3.171666743,10.820363410499999,-0.04420918995301636,0.022842869250101785,0.1576241754061119,11.282426406011453,0.16529255828480563,0.2238858195,-0.005982056500000166,-0.056290171000000555
99322.0,0.6035012409999999,-3.1297923474999996,10.756914385,-0.04021238596594935,-0.0189909275909503,0.18373779167445106,11.21922550680652,0.18904303056511546,0.21182363999999992,0.04187439550000027,-0.06344902549999887
99332.0,0.765114833,-3.0376098375000002,10.656396222499998,-0.04074471138780762,-0.06615495996759306,0.21145012953761702,11.107261349381567,0.22527265150449266,0.16161359200000014,0.09218250999999933,-0.100518162500002
99342.0,0.9280032895,-3.0076995549999994,10.504295080999999,-0.0343498250085004,-0.11172027074940902,0.24262694596599174,10.965749489532888,0.26931239162582205,0.16288845649999995,0.02991028250000083,-0.15210114149999931
99352.0,1.1147219055,-2.970630418,10.349938409999998,-0.017561502933566942,-0.16261407173756368,0.2833943466340753,10.825362585047287,0.327206507295484,0.18671861599999995,0.037069136999999586,-0.1543566710000004
99362.0,1.259566126,-2.81254722,10.1846963575,0.004820599394008338,-0.21004513948976158,0.33322349677851343,10.64072218343145,0.39392905148908586,0.1448442205,0.15808319799999992,-0.16524205249999824
99372.0,1.3241919495,-2.5766972874999996,10.052993048,0.028002062518997024,-0.2350923595851322,0.397973466698251,10.462099333005149,0.46307171500367716,0.06462582350000012,0.2358499325000003,-0.13170330950000064
99382.0,1.3600842885,-2.4738255289999995,9.936882312,0.03839549821462326,-0.24628341074891985,0.4771136763006819,10.330114815542716,0.5383002812616972,0.035892338999999884,0.10287175850000008,-0.11611073599999955
99392.0,1.3793053224999998,-2.5253104415,9.808807463,0.04265759224799341,-0.2553434148960224,0.5613153407338963,10.22215142936311,0.618138205784409,0.01922103399999986,-0.05148491250000031,-0.128074848999999
99402.0,1.320563489,-2.5839542085,9.697501985499999,0.061044635917753665,-0.26120597585347133,0.6343259540033231,10.12236395506905,0.6887121498261239,-0.05874183349999984,-0.05864376699999996,-0.11130547750000197
99412.0,1.1924886399999999,-2.6114128285000002,9.643663477,0.09328610318984491,-0.2742627839876409,0.6977442377037891,10.06189601292953,0.7554928146434218,-0.1280748490000001,-0.027458620000000433,-0.05383850849999838
99422.0,1.0476444194999999,-2.5922898610000003,9.586196507999999,0.135119900030897,-0.2886512783410822,0.757165717417188,9.985624118859285,0.8215088992239741,-0.1448442205,0.019122967499999977,-0.05746696900000181
99432.0,0.8740667145,-2.6078824345,9.516765426,0.17429032443340575,-0.29371447850111776,0.8125886478142679,9.906253963384918,0.881445189804168,-0.17357770499999992,-0.015592573499999762,-0.06943108199999948
99442.0,0.7029406719999999,-2.694082888,9.535888393499999,0.2049330701106702,-0.2833227881347435,0.866414601945773,9.934051321039881,0.9343145230415087,-0.17112604250000008,-0.08620045350000005,0.019122967499999532
99452.0,0.5197524499999999,-2.7228163725,9.5706039345,0.228383313940466,-0.25507812484971926,0.9205075914528333,9.963951589540262,0.9821191443941895,-0.18318822199999996,-0.028733484500000017,0.03471554100000063
99462.0,0.275566865,-2.7479213965,9.6388582185,0.242237737542797,-0.22070386523169094,0.9833918044021891,10.026694213686454,1.0365562013626926,-0.24418558499999993,-0.025105023999999698,0.068254284
99472.0,-0.0177500365,-2.7957778484999998,9.722607009499999,0.250233090846183,-0.19112577039814305,1.0572017784690293,10.116608913224706,1.103096215324301,-0.2933169015,-0.047856451999999994,0.08374879099999966
99482.0,-0.357746592,-2.938268473,9.871079690499998,0.2526311732384232,-0.17194111126022138,1.1352755918984914,10.30531991253619,1.1756857254358803,-0.33999655549999996,-0.14249062450000016,0.14847268099999944
99492.0,-0.77668668,-3.1249870889999998,9.986013628499999,0.2547622202551083,-0.15995069929902034,1.1994932363963708,10.492342669484914,1.236637391977211,-0.418940088,-0.18671861599999984,0.11493393800000007
99502.0,-1.212494206,-3.2950344,10.141645164,0.2587590242421753,-0.17034238966539458,1.2429257548322499,10.732211353176545,1.280951675266869,-0.43580752599999995,-0.17004731100000026,0.1556315355000013
99512.0,-1.618293383,-3.481753016,10.256579101999998,0.2736815893467268,-0.2047166492834229,1.2597140769071833,10.951661627966313,1.3052547929041667,-0.405799177,-0.18671861599999984,0.11493393799999829
99522.0,-2.001341132,-3.6206151799999997,10.3474867475,0.30219328800730616,-0.2590749288367863,1.2445244764270766,11.14381903110283,1.3066299302000326,-0.38304774899999994,-0.13886216399999984,0.09090764550000152
99532.0,-2.2599424924999996,-3.7427079725,10.4516333705,0.33576644149866913,-0.3158312907823899,1.2029577149615798,11.329247245433889,1.2882529920242898,-0.2586013604999997,-0.12209279250000016,0.1041466230000001
99542.0,-2.383212083,-3.7642826025,10.487623776,0.36401110478369336,-0.34860508347633945,1.1491317608300746,11.394725789195713,1.2548041251047186,-0.12326959050000053,-0.021574629999999928,0.03599040549999977
99552.0,-2.474217795,-3.6469950685,10.598929253499998,0.3781343090908315,-0.3459417110377961,1.0889109203192622,11.47865967992152,1.2034900147229726,-0.09100571199999985,0.11728753399999992,0.11130547749999842
99562.0,-2.496969223,-3.505681242,10.7018990785,0.3746698305256227,-0.3083700082301141,1.0401481663477927,11.53495991139627,1.1477707749540476,-0.02275142799999985,0.1413138264999998,0.1029698250000024
99572.0,-2.543648877,-3.3081753109999994,10.8874408965,0.3586826145773546,-0.24415236373223476,1.011104142265355,11.659783135742877,1.1002705036590974,-0.04667965400000007,0.1975059310000007,0.18554181799999903
99582.0,-2.634654589,-3.1704899449999995,11.123290829,0.32324370411560976,-0.18819536258404457,0.9977802987556302,11.862588678749692,1.0655841174367204,-0.0910057120000003,0.13768536599999992,0.23584993250000075
99592.0,-2.755472517,-3.1261638869999997,11.3650247515,0.2883371190757232,-0.1876630371621863,0.9929841339711498,12.104929452191488,1.050891621468293,-0.12081792799999969,0.04432605799999978,0.24173392249999992
99602.0,-2.8608940044999995,-3.1824540579999994,11.508692173999998,0.2822075227427191,-0.2614730112290265,0.9844582005751575,12.278547303820332,1.0569612907639683,-0.10542148749999969,-0.05629017099999967,0.1436674224999983
99612.0,-2.8979631414999996,-3.227956914,11.591264167,0.3048566604458495,-0.3851103901110528,0.9551471411171648,12.376400979174486,1.074036152638251,-0.03706913700000003,-0.04550285600000059,0.08257199300000195
99622.0,-2.7997985749999996,-3.2410978249999998,11.484763948,0.3317696375116021,-0.5058191065082327,0.9013211869856597,12.257381046254224,1.0854970948798552,0.09816456649999994,-0.01314091099999981,-0.10650021900000084
99632.0,-2.5004996169999996,-3.1394028645,11.289611612999998,0.34296068867538976,-0.567903958660175,0.8296422599355044,11.98180616821322,1.0622820810450897,0.29929895800000006,0.10169496049999971,-0.1951523350000013
99642.0,-2.117451868,-2.8999244714999994,11.011887285,0.3424283632535315,-0.5428567385648043,0.7539682742275343,11.58252243387622,0.9901609874698938,0.3830477489999997,0.23947839300000062,-0.2777243279999979
99652.0,-1.712829489,-2.6102360305,10.869494727,0.33283603368457065,-0.43334081866066415,0.6932151082948638,11.30898017566523,0.8826728028010328,0.40462237899999987,0.2896884409999996,-0.14239255800000095
99662.0,-1.37881499,-2.266709081,10.806045701499999,0.31178561757626705,-0.26520277984053836,0.6583085232549772,11.1269818251601,0.7751857181041922,0.334014499,0.34352694949999973,-0.06344902550000064
99672.0,-1.2507401409999999,-2.1409878279999996,10.966384429,0.27687903253638046,-0.08134456044769972,0.6353923501762916,11.243209827472159,0.6978555544202988,0.1280748490000001,0.12572125300000048,0.160338727500001
99682.0,-1.170521744,-1.826194363,11.078964770999999,0.2353105257416315,0.09318836475173323,0.6617712564909339,11.28931208717736,0.7085169798723913,0.08021839699999989,0.3147934649999997,0.11258034199999933
99692.0,-1.2555453994999999,-1.7124372229999998,11.299222129999999,0.18974521495981556,0.19924155141991667,0.7054708103023679,11.49701075219134,0.7572248718848592,-0.0850236554999999,0.11375714000000015,0.22025735899999965
99702.0,-1.4626618475,-1.772257788,11.529090005999999,0.15004246513544853,0.23627918347648835,0.7720865371924875,11.75585784678038,0.8212540500978517,-0.20711644800000006,-0.0598205650000001,0.22986787600000014
99712.0,-1.7463682319999998,-1.9171020085,11.670305765999998,0.1217978018504243,0.20190666918771202,0.8384369740363039,11.954962098838555,0.87096358536349,-0.28370638449999985,-0.1448442205,0.1412157599999997
99722.0,-2.0971521025,-2.1230416584999996,11.693057194,0.10501122510474283,0.11024197687296983,0.8914618220411437,12.067847337735994,0.9043698530025064,-0.35078387050000015,-0.2059396499999997,0.022751428000001184
99732.0,-2.4526431649999996,-2.3803681544999997,11.617644055499998,0.09834930334988047,-0.010197958819402868,0.921839277672105,12.109965501440266,0.9271268724896919,-0.3554910624999996,-0.2573264960000001,-0.07541313850000186
99742.0,-2.6621132089999997,-2.6796671125,11.427296979,0.10048035036656555,-0.1309049298873307,0.9194411952798649,12.035388602683707,0.9341330274946184,-0.20947004400000013,-0.29929895800000006,-0.19034707649999838
99752.0,-2.743508404,-2.913163449,11.144767392499999,0.10341250350991602,-0.20738002172196623,0.8855992610836948,11.841418828685159,0.9154161187807313,-0.08139519500000025,-0.2334963365,-0.2825295865000008
99762.0,-2.7567473815000003,-3.0208404659999997,10.8527253555,0.09541715020653,-0.21590770044721053,0.8336408092518235,11.597705845913787,0.8664165086815769,-0.01323897750000036,-0.10767701699999987,-0.2920420369999981
99772.0,-2.7591009774999997,-3.114199774,10.626485939999998,0.07570016564675006,-0.16154942089384713,0.7720865371924875,11.411970989686258,0.7924306603002998,-0.0023535959999994027,-0.09335930800000014,-0.22623941550000204
99782.0,-2.7339959534999996,-3.1190050324999996,10.4708544045,0.051717596395095974,-0.05336518720897862,0.7126668028083406,11.262402862034007,0.7165308959199161,0.025105024000000142,-0.004805258499999798,-0.15563153549999775
99792.0,-2.854911948,-3.043591894,10.5187108565,0.033864623476445976,0.07560242720863837,0.6652357350561428,11.316238417897823,0.6703738680159941,-0.12091599450000023,0.07541313849999964,0.04785645199999955
99802.0,-3.054771475,-3.0723253785,10.699447416,0.022940607688213467,0.17019752733747903,0.6311285108136695,11.543352502786957,0.6540769579757236,-0.1998595270000001,-0.028733484500000017,0.18073655949999967
99812.0,-3.2535522704999997,-3.148915315,10.923333235499998,0.01681101135520938,0.21123196338111774,0.5954225649763696,11.824570986369698,0.6320044171836665,-0.19878079549999983,-0.07658993650000001,0.22388581949999775
99822.0,-3.3839807155,-3.2734597699999997,11.069354253999999,0.006951646410693415,0.21069963795925947,0.5501242895701087,12.029026059878339,0.5891344471332491,-0.13042844500000017,-0.12454445499999967,0.14602101850000082
99832.0,-3.471357967,-3.3332803349999995,11.1100518515,-0.011433651929814853,0.18325433547164863,0.49230153145153654,12.107614796885912,0.5254271383694754,-0.08737725149999997,-0.05982056499999988,0.04069759750000124
99842.0,-3.491755799,-3.3297499409999998,11.1328032795,-0.027954938629193175,0.13422454612462392,0.4270174907806887,12.133379664771294,0.44848817688848697,-0.020397832000000005,0.00353039399999977,0.022751427999999407
99852.0,-3.4198730544999996,-3.3165109635,11.057390140999999,-0.027687903253638044,0.07053922704860283,0.36040176389056905,12.03996068972797,0.36828227483091097,0.07188274450000032,0.013238977499999915,-0.07541313850000009
99862.0,-3.2702235754999998,-3.2890523435,10.95206672,-0.008236208740161241,0.006321582550723462,0.29645115476824485,11.893695514488774,0.29663291237450873,0.1496494789999998,0.02745861999999999,-0.10532342099999958
99872.0,-3.1087080499999997,-3.265026051,10.8191866125,0.014679964338524304,-0.04243942609149412,0.2354309534600191,11.720889889848069,0.23967548912446057,0.16151552550000003,0.02402629249999988,-0.13288010750000012
99882.0,-2.8991399395,-3.1597026299999995,10.747401934500001,0.033864623476445976,-0.0632245521534946,0.18347075629889592,11.571317186929383,0.1969915610758498,0.2095681104999998,0.10532342100000047,-0.07178467799999844
99892.0,-2.684864637,-3.0279993204999998,10.665908673,0.03413165885200111,-0.054164548006392026,0.14163695945784383,11.407843171464895,0.15543421978827257,0.21427530249999993,0.13170330949999975,-0.08149326150000036
99902.0,-2.451466367,-2.916693843,10.6108933665,0.023472933110071738,-0.022455406156159045,0.11205886462429593,11.274211651266796,0.1166722460369828,0.2333982699999999,0.11130547749999975,-0.055015306500001415
99912.0,-2.27906546,-2.81254722,10.6001060515,0.009616764178488757,0.017779669090066234,0.09074315846968918,11.201196790465813,0.09296730390450206,0.1724009070000001,0.1041466230000001,-0.010787314999999964
99922.0,-2.1402032959999997,-2.731152025,10.586965140499998,-0.004506440128649359,0.05615073269516157,0.07635291878699593,11.14107231903792,0.09488403971232562,0.1388621640000003,0.08139519499999981,-0.013140911000000699
99932.0,-2.0288978185,-2.660544145,10.6108933665,-0.012765338149086527,0.09585348251952858,0.06942570698583043,11.12591477320591,0.11904105493343244,0.11130547749999975,0.07060788000000029,0.023928226000000663
99942.0,-1.966625591,-2.5922898610000003,10.663555077,-0.019160224528393752,0.12782965974531668,0.07129146395621237,11.148945681939257,0.14761439275220362,0.062272227500000055,0.06825428399999955,0.05266171050000068
99952.0,-1.9355385104999998,-2.532469296,10.710234731,-0.03168470724070506,0.15234455441882905,0.0846135621366851,11.174472607417762,0.1771221014765222,0.031087080500000086,0.059820565000000325,0.04667965400000007
99962.0,-1.9857485584999999,-2.5264872395,10.721022046,-0.048471283986386525,0.16939816654006565,0.1056639782449887,11.192258432495167,0.205450919922453,-0.05021004800000006,0.005982056499999722,0.010787314999999964
99972.0,-2.127062385,-2.5600259825,10.743773474000001,-0.06046344127683956,0.16646601339671518,0.12937951212108764,11.24752398892232,0.21933038892028586,-0.14131382650000002,-0.033538742999999815,0.022751428000001184
99982.0,-2.291029573,-2.6653494034999996,10.748578732499999,-0.06126280207425296,0.14061943250393114,0.14856417125900934,11.308618338057467,0.21353751121897294,-0.16396718799999999,-0.10532342099999958,0.004805258499997578
99992.0,-2.4634304799999995,-2.8401039064999996,10.731809361,-0.05326744877086694,0.10331476507180434,0.15176161444866293,11.371297731145589,0.19116210241693743,-0.17240090699999966,-0.17475450299999995,-0.016769371499998798
100002.0,-2.5951337894999997,-3.005345959,10.6899349655,-0.03275110341367359,0.06547777221781927,0.13337631610815467,11.403575460586989,0.15214866127575413,-0.1317033095000002,-0.16524205250000046,-0.04187439549999894
100012.0,-2.7339959534999996,-3.1860825185,10.655219424499998,0.009084438756630484,0.03430095578944456,0.0979374056464098,11.452491286732672,0.10416725982928525,-0.13886216399999984,-0.18073655950000012,-0.0347155410000024
