timestamp,ax,ay,az,gx,gy,gz,acc_mag,gyro_mag,dax,day,daz
56972.0,-1.1490451805,-3.2375674309999996,11.114857109999999,-0.09217258312707255,0.049488810940299215,-0.04062428366942001,11.63366650170185,0.11222860558812661,0.0,0.0,0.0
56982.0,-1.0628447269999999,-2.952586182,10.4492797745,-0.09057386153224573,0.012451178883727548,-0.07286575094151126,10.91030943106674,0.11691053805678664,0.08620045350000005,0.28498124899999944,-0.6655773354999983
56992.0,-0.6701864609999999,-3.101058863,10.546267542999999,-0.0903068261566906,0.009253735694073935,-0.09524785326908655,11.013150096717732,0.13157928418698725,0.392658266,-0.14847268099999988,0.09698776849999824
57002.0,-0.4343365285,-2.9932837795,10.5163572605,-0.0996321203500963,0.024174555469373457,-0.10297617119691745,10.94267636527181,0.14531022115451736,0.23584993249999991,0.10777508349999998,-0.029910282499999497
57012.0,-0.11954306349999999,-2.8592268739999995,10.4983130245,-0.10922619524830914,0.026040312439755398,-0.09364913167425974,10.881362287021837,0.14621429295292807,0.314793465,0.1340569055000005,-0.018044235999999714
57022.0,0.19652526599999998,-2.8077419615,10.472031202499998,-0.12121660720951018,0.04282863451468885,-0.06593679381109377,10.843683627286339,0.14448328130224675,0.31606832949999997,0.051484912499999425,-0.026281822000001398
57032.0,0.48268331299999995,-2.7970527129999994,10.3894592095,-0.1377361485796365,0.0564177680707167,-0.028366836332663837,10.770206577675921,0.1515219079313517,0.28615804699999997,0.010689248500000748,-0.0825719929999984
57042.0,0.730399292,-2.767044364,10.312771206499999,-0.1470631881022942,0.05588369731960644,0.020130627592502597,10.702488850529756,0.15860583560571845,0.24771597900000003,0.030008348999999157,-0.076688003000001
57052.0,0.8920128839999999,-2.704870203,10.225393955,-0.13986894092557356,0.040962877544306914,0.07901803655479128,10.614645134683014,0.16578639290763825,0.16161359199999992,0.06217416100000017,-0.08737725149999953
57062.0,1.0201857994999999,-2.652110426,10.1164420735,-0.12308061885064012,0.012451178883727548,0.14563376344491086,10.507943138582371,0.19108391781460674,0.12817291549999998,0.0527597769999999,-0.10895188149999946
57072.0,1.085988421,-2.6294570644999995,10.051816249999998,-0.09830043413082463,-0.012863076587198208,0.21704565511951085,10.446646602061307,0.23861527716358474,0.06580262150000005,0.022653361500000635,-0.0646258235000019
57082.0,1.097952534,-2.6437747734999997,10.002782999999999,-0.06712361770244991,-0.03497988886847035,0.28712586057483913,10.404360266974658,0.2969350644325408,0.01196411300000011,-0.014317709000000178,-0.04903324999999903
57092.0,1.1243324225,-2.7383108794999997,9.982385167999999,-0.03994535059039422,-0.052033500989706945,0.34707966571009635,10.412035512395217,0.35322430636702734,0.02637988849999995,-0.09453610600000006,-0.02039783200000045
57102.0,1.1697372119999998,-2.8065651634999997,9.944139232999998,-0.02981895027032312,-0.05949303821273071,0.39370962733562886,10.398605591491538,0.3992942048762606,0.04540478949999982,-0.068254284,-0.03824593500000084
57112.0,1.2164168659999999,-2.8197060745,9.911777288,-0.03381575425739013,-0.06189112060497092,0.4283509223292123,10.376595845718098,0.43411810455914196,0.04667965400000007,-0.013140911000000255,-0.032361944999998116
57122.0,1.1865065835,-2.8401039064999996,9.875884949,-0.04261046835818956,-0.06882007773538841,0.4541975032219963,10.344423212450762,0.46135368975039587,-0.02991028249999994,-0.02039783199999956,-0.035892339000000106
57132.0,1.142278592,-2.7886189939999997,9.8112591255,-0.04314279378004784,-0.06882007773538841,0.4861736804477844,10.263625183293966,0.4929121131751552,-0.0442279914999999,0.05148491249999987,-0.06462582350000012
57142.0,1.0931472755,-2.718011114,9.750163696,-0.03807959362001228,-0.06082646976125438,0.5253423595210412,10.18077833373053,0.5302211892984069,-0.04913131650000002,0.07060787999999985,-0.06109542949999991
57152.0,1.038131969,-2.6688797975,9.6843610745,-0.03461511505480354,-0.03178244567881674,0.5754385450410344,10.098885422652058,0.5773541799991811,-0.05501530650000008,0.04913131650000002,-0.0658026214999996
57162.0,0.9494798529999999,-2.6688797975,9.7465352355,-0.027687903253638044,0.012718214259282679,0.6329942677840514,10.149846326994295,0.6337271621194686,-0.088652116,0.0,0.06217416099999973
57172.0,0.8058124305000001,-2.6318106605,9.819594777999999,-0.007169812567192705,0.05162160328623629,0.7006746455178875,10.198048961933582,0.702610244025596,-0.14366742249999986,0.03706913700000003,0.07305954249999935
57182.0,0.5915371279999999,-2.5695384329999995,9.974049515499999,0.024272293907485143,0.08066562736867393,0.7752839803821411,10.316690732502954,0.7798469964855217,-0.21427530250000015,0.06227222750000028,0.15445473750000005
57192.0,0.287530978,-2.6067056364999996,10.1727322445,0.05385038874103304,0.08999092156207963,0.856289946954954,10.505335294837597,0.8626880685318828,-0.3040061499999999,-0.037167203500000134,0.1986827290000015
57202.0,-0.069234949,-2.6736850559999996,10.381025490499999,0.07436673409822639,0.0734713801919533,0.9279671286758571,10.720031506075506,0.9338369486964314,-0.356765927,-0.06697941949999997,0.20829324599999843
57212.0,-0.44149538299999996,-2.79097259,10.564213712499999,0.08928929920277791,0.04202927371727545,0.9857898867944292,10.935586748534101,0.9907172854591256,-0.372260434,-0.11728753400000036,0.18318822200000007
57222.0,-0.8389589074999999,-2.9562146425,10.740145013500001,0.09754994255246707,-0.00486946861306418,1.0273583935891781,11.171113282570092,1.0319907809155564,-0.39746352449999994,-0.16524205250000001,0.1759313010000021
57232.0,-1.2088657455,-3.0819358954999996,10.8454684345,0.10740930749698303,-0.05762902657160077,1.040415201723348,11.33948282852223,1.047531219590904,-0.3699068380000001,-0.1257212529999996,0.10532342099999958
57242.0,-1.4530513305,-3.2339389704999997,10.93049209,0.1281926882297315,-0.12184667106948013,1.0265590327917649,11.491099893549745,1.0416829769045104,-0.24418558499999987,-0.1520030750000001,0.0850236554999988
57252.0,-1.5583747515,-3.3488729084999997,10.978348541999999,0.15803607310958256,-0.18712896641107604,0.9857898867944292,11.583074649376625,1.0157629405427964,-0.10532342100000003,-0.11493393800000007,0.04785645199999955
57262.0,-1.6146649224999998,-3.3093521089999998,11.025126262499999,0.18601544634830364,-0.24175428133999455,0.9287664894732705,11.62378437933885,0.9775756087356509,-0.05629017099999989,0.03952079949999998,0.04677772049999973
57272.0,-1.6266290354999997,-3.1453849210000002,11.023851398,0.19214329735205574,-0.2742627839876409,0.8738758844980489,11.57862979655073,0.9358408961491367,-0.011964112999999887,0.16396718799999954,-0.0012748644999991399
57282.0,-1.5703388644999998,-2.9909301834999997,10.9580487765,0.1636315986914764,-0.27692790175543625,0.8357718562685087,11.466928991673562,0.8955327791831551,0.05629017099999989,0.1544547375000005,-0.0658026214999996
57292.0,-1.4962005905,-2.9143402469999997,10.802417240999999,0.10980738988922324,-0.2420213167155497,0.8187182441472721,11.288233410545274,0.8607738053162426,0.07413827399999984,0.07658993650000001,-0.1556315355000013
57302.0,-1.5033594449999998,-2.7838137355,10.606088108,0.05518207496030472,-0.19139280577369816,0.8197846403202406,11.06791820937832,0.843636843673769,-0.007158854499999867,0.13052651149999983,-0.196329132999999
57312.0,-1.5404285819999999,-2.731152025,10.4396692575,0.02453932928304027,-0.1447610988189137,0.8285776090917879,10.900403928565892,0.841486071602605,-0.03706913700000003,0.05266171049999979,-0.1664188504999995
57322.0,-1.562003212,-2.8592268739999995,10.3355226345,0.0394601490583398,-0.11092090995199562,0.8381699386607488,10.836884260688768,0.8463978956157964,-0.02157463000000015,-0.12807484899999944,-0.1041466230000001
57332.0,-1.595541955,-2.9071813924999996,10.292471440999998,0.09541715020653,-0.08587368985662501,0.8384369740363039,10.813529772598033,0.8482070988822725,-0.03353874300000004,-0.0479545185000001,-0.04305119350000197
57342.0,-1.6625213744999998,-2.90472973,10.387007547,0.18308329320495317,-0.07468263869283737,0.832574413078855,10.91289869404322,0.8557319335437329,-0.06697941949999975,0.0024516624999995074,0.0945361060000014
57352.0,-1.7164579494999999,-2.8401039064999996,10.565390510499999,0.27154879700078977,-0.08081048969658945,0.8237814443073076,11.074289807092901,0.8711400302951371,-0.05393657500000004,0.06462582350000057,0.17838296349999894
57362.0,-1.7307756585,-2.8030347694999995,10.699447416,0.33363539448198404,-0.0890711330462786,0.8163201617550319,11.195122299771052,0.8863548102656511,-0.014317709000000178,0.03706913700000003,0.13405690550000138
57372.0,-1.6745835539999998,-2.7683192285,10.778489015,0.3528200536199057,-0.08160985049400286,0.8061937614349607,11.253605949947145,0.8837932670656962,0.05619210450000023,0.03471554099999974,0.07904159899999996
57382.0,-1.583577842,-2.6580924825,10.801240443,0.3288392296975036,-0.04483750848373433,0.7976678280389685,11.235656168408466,0.8639557888245682,0.09100571199999985,0.11022674599999993,0.022751427999999407
57392.0,-1.5356233235,-2.5575743199999996,10.8072224995,0.2838062443375459,0.014849261275967756,0.7995335850093503,11.211395254280337,0.8485401808066185,0.047954518499999876,0.10051816250000023,0.00598205650000061
57402.0,-1.5201288165,-2.392430334,10.884989234,0.23797564350942682,0.07693585875716204,0.8187182441472721,11.248000050946521,0.8560672266627313,0.015494507000000102,0.16514398599999947,0.07776673450000082
57412.0,-1.5847546399999999,-2.3133887349999998,11.020321004,0.20147033687471344,0.12116773799045434,0.8576216331742257,11.371485819339089,0.8892619316368828,-0.0646258234999999,0.0790415990000004,0.13533176999999874
57422.0,-1.721263208,-2.3049550159999996,11.135254942,0.17695544220120107,0.13395751074906878,0.9074507833186637,11.500846372347272,0.9341973920731987,-0.13650856800000022,0.008433719000000117,0.11493393800000007
57432.0,-1.9307332519999998,-2.3816430189999998,11.2465604195,0.15883543390699595,0.11184069846779664,0.9626084236694405,11.656975406587849,0.9820142637546327,-0.2094700439999997,-0.07668800300000012,0.1113054775000002
57442.0,-2.2156164345,-2.4845147775,11.311186242999998,0.15483862991992894,0.062013293652610525,1.0039098950886343,11.790873762714737,1.0176717188573132,-0.2848831825,-0.10287175850000008,0.06462582349999835
57452.0,-2.6537775565,-2.7024185404999996,11.347078582,0.15670438689031088,-0.0016720254234105676,1.007107338278288,11.962516191567074,1.0192272814998935,-0.43816112200000035,-0.2179037629999998,0.03589233900000188
57462.0,-2.7531189209999996,-2.8532448175,11.253719273999998,0.178821199171583,-0.05682966577418736,0.9809937220099488,11.931758767246254,0.9987769094287781,-0.09934136449999942,-0.15082627700000018,-0.09335930800000192
57472.0,-2.812939486,-2.8221577369999995,11.173500877,0.20173562692101657,-0.09013752921924716,0.9207728814991365,11.86272838316408,0.9469132677532769,-0.059820565000000325,0.031087080500000308,-0.08021839699999767
57482.0,-2.728013897,-2.867660593,11.092105682,0.2081322586295758,-0.08374264283993993,0.8514937821704736,11.777111087169336,0.8805529673943778,0.08492558900000002,-0.04550285600000059,-0.0813951950000007
57492.0,-2.580718014,-2.8771730434999996,11.0143389475,0.1902792857109258,-0.0493683832219116,0.780879505964035,11.672784271134397,0.8052429736838695,0.14729588299999996,-0.009512450499999492,-0.07776673449999905
57502.0,-2.426361343,-2.8975708755,11.025126262499999,0.1545715945443738,0.008721410272215664,0.7131991282301989,11.654894055692562,0.7298091787210149,0.15435667099999995,-0.02039783200000045,0.010787314999998188
57512.0,-2.256314032,-2.8616785365,10.965207630999998,0.10927331913811299,0.07240498401898476,0.6625706172883473,11.554909582000436,0.6754131793799341,0.1700473109999998,0.035892339000000106,-0.05991863150000043
57522.0,-2.1772724329999997,-2.8053883655,10.989135856999999,0.0730350478789547,0.12623093815048989,0.6388550834122485,11.548672045407974,0.6552893907020814,0.0790415990000004,0.05629017100000011,0.023928226000000663
57532.0,-2.128239183,-2.727621631,11.020321004,0.05917887894737173,0.14354984031802961,0.6380557226148349,11.550618893079243,0.6566763293513317,0.04903324999999992,0.07776673449999993,0.031185147000000413
57542.0,-2.1114698114999997,-2.685649169,11.034638713,0.06184399671516708,0.12729558899420643,0.6524459622975282,11.551375145421627,0.6676185891850489,0.01676937150000013,0.04197246199999993,0.014317709000000178
57552.0,-2.1018592944999996,-2.6725082579999997,11.009533689,0.07143632628412791,0.08706051374798114,0.6761597508443753,11.522584125628251,0.6854740625501176,0.00961051700000004,0.013140911000000255,-0.025105024000000142
57562.0,-2.1114698114999997,-2.6414211775,10.9796234065,0.07969696963381707,0.03829775977651158,0.6977442377037891,11.488583061038641,0.7033244959629621,-0.00961051700000004,0.031087080499999864,-0.029910282499999497
57572.0,-2.1557958695,-2.64975683,10.892246154999999,0.08129569122864387,-0.004602433237509047,0.7147978498250257,11.415327125851329,0.7194206960593563,-0.044326058000000224,-0.008335652500000013,-0.08737725150000131
57582.0,-2.264747751,-2.674861854,10.762896441499999,0.07570016564675006,-0.03284709652253328,0.7227914577991598,11.319183191560123,0.7274867272303602,-0.1089518814999999,-0.025105024000000142,-0.1293497134999999
57592.0,-2.3880173415,-2.7467445985,10.626485939999998,0.06690545154595064,-0.046703265454116266,0.7190616891876478,11.23251691054642,0.7236762033589599,-0.12326959050000008,-0.07188274449999987,-0.13641050150000034
57602.0,-2.542472079,-2.8377503105,10.5522495995,0.06237632213702535,-0.047502626251529664,0.7014740063153009,11.219044643256632,0.7058421116653307,-0.15445473750000005,-0.0910057120000003,-0.07423634049999883
57612.0,-2.6477955,-2.963373497,10.5330285655,0.0589118435718166,-0.041640065294080715,0.6652357350561428,11.257757070312952,0.669136072519194,-0.10532342100000003,-0.12562318649999993,-0.019221033999999193
57622.0,-2.7040856709999996,-3.0603612655,10.510375204,0.05651376117957639,-0.04004134369925391,0.6172723418820866,11.275898071565667,0.6211459236447581,-0.05629017099999967,-0.09698776850000002,-0.022653361499999747
57632.0,-2.5951337894999997,-3.1309691455,10.523516115,0.05251695719250937,-0.04403814768632092,0.570642380256554,11.281935941944642,0.5747435213982561,0.1089518814999999,-0.07060787999999985,0.013140910999998923
57642.0,-2.4885355039999997,-3.1585258319999996,10.511552001999998,0.04665439623506042,-0.04830198704894307,0.5312049204784901,11.254413351073879,0.5354328923231121,0.10659828550000006,-0.02755668649999965,-0.01196411300000122
57652.0,-2.3760532285,-3.1501901795,10.450456572499998,0.04532271001578875,-0.05096710481673841,0.5005621748012257,11.170558163556194,0.5051873757907144,0.11248227549999967,0.008335652499999568,-0.06109542949999991
57662.0,-2.337709227,-3.1094925819999997,10.4277051445,0.04852015320544236,-0.045638614610399725,0.4803111194903355,11.129728798499348,0.48490809429900794,0.03834400150000006,0.04069759750000035,-0.02275142799999763
57672.0,-2.3640891155,-3.0879179519999997,10.431333605,0.05385038874103304,-0.04004134369925391,0.46512151901022886,11.132693986772104,0.4699374437296786,-0.02637988850000017,0.021574629999999928,0.003628460499999875
57682.0,-2.4790230535,-3.031627781,10.4732080005,0.06210928676147021,-0.046170940032257995,0.45632855023868146,11.181431398709767,0.46284453650055946,-0.11493393800000007,0.05629017099999967,0.04187439549999894
57692.0,-2.5556129899999998,-3.0400614999999998,10.5163572605,0.07410144405192326,-0.06748839151611674,0.4488690130156576,11.241303381232536,0.4599229259839779,-0.07658993649999957,-0.008433718999999673,0.043149259999999856
57702.0,-2.5843464744999998,-3.1166514364999998,10.545090744999998,0.08475842446460062,-0.08987049384369203,0.4379432518981732,11.295631974227149,0.4550329527238409,-0.028733484500000017,-0.07658993650000001,0.02873348449999824
57712.0,-2.524427843,-3.218346397,10.4492797745,0.08582482063756916,-0.09413433320631417,0.41636051036801125,11.221316200489643,0.4354115835845196,0.059918631499999986,-0.10169496050000015,-0.09581097049999698
57722.0,-2.4586252214999997,-3.283070287,10.434863999,0.07783121266343512,-0.07814537192879412,0.3835849723448097,11.212037065886129,0.39912633066150727,0.06580262150000005,-0.06472389000000023,-0.014415775500001615
57732.0,-2.391645802,-3.2937595355,10.400148457999999,0.07436673409822639,-0.0578943166179039,0.3489454226804783,11.168344079063877,0.3614485731701649,0.06697941949999953,-0.01068924849999986,-0.03471554100000063
57742.0,-2.2981884275,-3.2423726895,10.3331690385,0.0767648164904666,-0.03418052807105695,0.31270540609206804,11.071089968206627,0.3237990372889279,0.09345737450000025,0.05138684600000021,-0.06697941949999908
57752.0,-2.2060059175,-3.238744229,10.353468804,0.08529249521571089,-0.023254766953572446,0.27806585642773657,11.070241305605178,0.29178110705986027,0.09218250999999977,0.003628460499999875,0.020299765500000788
57762.0,-2.1138234075,-3.1513669775,10.334345836499999,0.10501122510474283,-0.029384363286576533,0.24662374995305872,11.008999368396623,0.2696554695248463,0.09218251000000022,0.08737725149999997,-0.01912296750000131
57772.0,-1.9953590755,-2.9585682385,10.304435554,0.12286419802339282,-0.04217413604519098,0.2269050200640268,10.904860198488585,0.2614577538290769,0.11846433200000006,0.1927987390000001,-0.029910282499999497
57782.0,-1.8493380569999998,-2.79097259,10.314046070999998,0.13751972775238921,-0.047502626251529664,0.2215765298576881,10.843851972519282,0.2650742039611903,0.14602101850000015,0.16759564849999986,0.009610516999998708
57792.0,-1.7176347475,-2.6078824345,10.294825036999999,0.14897606896248,-0.03204773572511988,0.22823670628329848,10.758008294309642,0.2744319962826299,0.13170330949999975,0.18309015549999996,-0.019221033999999193
57802.0,-1.6697782955,-2.428322673,10.320028127499999,0.15350694370065726,0.004989896331451788,0.2378290358522593,10.73256218769404,0.2831111638987955,0.047856451999999994,0.1795597615000002,0.025203090499999803
57812.0,-1.7199883434999998,-2.2642574185,10.450456572499998,0.152972872949547,0.05428497572477963,0.2527516009568108,10.830386148827593,0.3003846371472901,-0.05021004799999984,0.16406525449999965,0.13042844499999973
57822.0,-1.9019997675,-2.1936495385,10.570195769,0.14098246098834596,0.09931796108473732,0.2767341702084649,10.961694212498212,0.326070410588461,-0.18201142400000014,0.07060788000000029,0.1197391965000012
57832.0,-2.0611616969999997,-2.222383023,10.813204556,0.12312948806969597,0.1286290205427301,0.30258075110124893,11.229994061084703,0.3510860388780554,-0.15916192949999974,-0.028733484500000017,0.24300878700000084
57842.0,-2.3066221465,-2.3049550159999996,11.0263030605,0.09941395419359701,0.13848838548724607,0.3222977356610289,11.498377387027245,0.3646066340804801,-0.24546044950000034,-0.08257199299999973,0.21309850449999956
57852.0,-2.6034694419999997,-2.3899786714999998,11.199880765499998,0.07196865170598618,0.12329878500713941,0.32629628497734786,11.744248820042493,0.3561619614762825,-0.29684729549999966,-0.08502365550000013,0.1735777049999978
57862.0,-2.9147325129999997,-2.5216819809999995,11.2681350495,0.040793580606863465,0.07773521955457545,0.31217308067020977,11.909047532418775,0.3242821500993479,-0.31126307099999995,-0.13170330949999975,0.06825428400000177
57872.0,-3.1313614114999995,-2.6916312254999997,11.2608781285,0.00801804258366195,0.02630734781531053,0.2809962642418351,11.994068499406177,0.28233892057917975,-0.21662889849999978,-0.16994924450000015,-0.00725692099999975
57882.0,-3.261887923,-2.8592268739999995,11.166342022499999,-0.020493656076917416,-0.02405412775098585,0.23250054564592063,11.979243937021502,0.23463822094217843,-0.13052651150000072,-0.16759564849999986,-0.0945361060000014
57892.0,-3.2522774059999997,-3.031627781,11.0298334545,-0.035414475852216944,-0.06215815598052605,0.16854993652359637,11.89223702093582,0.18310352961342669,0.009610517000000485,-0.17240090700000055,-0.13650856799999822
57902.0,-3.158918098,-3.1369512019999997,10.894599751,-0.03621383664963034,-0.07921176810176264,0.0987367664438232,11.769092153946728,0.13166204927189773,0.0933593079999997,-0.10532342099999958,-0.13523370350000086
57912.0,-3.0032865625,-3.169313147,10.779665813,-0.030618311067736523,-0.07601432491210904,0.034252086570388716,11.63036848256327,0.0888192771807436,0.15563153549999997,-0.032361945000000336,-0.11493393800000007
57922.0,-2.842947835,-3.1849057204999998,10.7725069585,-0.018894934482090613,-0.06935240315724668,-0.017441075215179333,11.5876176590331,0.07396597513336331,0.1603387275000001,-0.015592573499999762,-0.007158854500000089
57932.0,-2.6981036145,-3.1860825185,10.743773474000001,0.004021238596594935,-0.0632245521534946,-0.05874254663437315,11.526471853515947,0.08639560833718464,0.1448442205,-0.0011767980000003675,-0.02873348449999824
57942.0,-2.556789788,-3.1668614844999996,10.7246505065,0.027736772472693884,-0.05976007358828584,-0.09418320242537001,11.471020624539097,0.11493942126867332,0.1413138264999998,0.019221034000000525,-0.01912296750000131
57952.0,-2.4466611085,-3.1226334929999995,10.721022046,0.04638910618875729,-0.05896071279087244,-0.12375955192966592,11.431417419649666,0.1447229820022764,0.11012867950000027,0.04422799150000012,-0.003628460499999875
57962.0,-2.356930261,-3.0400614999999998,10.676695987999999,0.05678079655513152,-0.056562630398632234,-0.14800741122762312,11.348521110663498,0.1683139441441209,0.08973084749999982,0.08257199299999973,-0.04432605800000111
57972.0,-2.2515087735,-2.994558644,10.740145013500001,0.05971120436923,-0.05176646561415182,-0.1671938156947968,11.37485771957221,0.1849296268746325,0.10542148750000013,0.0455028559999997,0.06344902550000242
57982.0,-2.1294159809999997,-2.9573914405,10.790453128,0.060245275120340266,-0.052033500989706945,-0.18211463547009632,11.38922540210904,0.19875290904028897,0.12209279250000016,0.037167203500000134,0.05030811449999817
57992.0,-2.0432155275,-2.871190987,10.863512670499999,0.06210928676147021,-0.060027108963840975,-0.19490440822871075,11.42078696578135,0.21318664512478097,0.08620045349999961,0.08620045350000005,0.07305954249999935
58002.0,-1.9594667364999998,-2.8042115674999994,10.941279404999998,0.05784719272810006,-0.08400793288624306,-0.20210040073468338,11.463625404950559,0.22638065834222915,0.08374879100000032,0.06697941950000041,0.07776673449999905
58012.0,-1.8588505075,-2.7371340815000003,10.9556951805,0.03759613741720985,-0.11092090995199562,-0.20130103993726997,11.444408463410102,0.23289273602476057,0.10061622899999989,0.06707748599999919,0.014415775500001615
