timestamp,ax,ay,az,gx,gy,gz,acc_mag,gyro_mag,dax,day,daz
172762.0,-1.535329124,2.8118607544999996,9.639446617499999,0.049094366529348496,0.4827126925410797,0.11075335834380416,10.157889914412937,0.49768273704199145,0.0,0.0,0.0
172772.0,-1.757940079,2.5472773374999997,10.181754362499998,0.0211149932906274,0.4470067467037797,0.1669773948675495,10.641761933711134,0.47764246559232343,-0.22261095499999994,-0.2645834169999999,0.5423077449999987
172782.0,-1.6275116339999998,2.584444541,10.305122019499999,0.001663298777150596,0.4075710322549678,0.21653950963643248,10.748194617752963,0.4615260254089565,0.13042844500000017,0.037167203500000134,0.12336765700000107
172792.0,-1.803442935,2.6047443064999998,10.373278237,-0.006595599243286571,0.3516122857775257,0.25597522408524437,10.846289720649333,0.43496898370408604,-0.17593130100000032,0.0202997654999999,0.06815621750000034
172802.0,-1.8609099040000001,2.599939048,10.382888753999998,-0.01912008195559788,0.3017848809623395,0.27995779333689846,10.864025386663089,0.41208743970364803,-0.057466969000000034,-0.004805258499999798,0.009610516999998708
172812.0,-1.9231821315,2.5819928785,10.4020117215,-0.025782003710460237,0.2679446920954215,0.277025640193548,10.888855063309869,0.38626710326156627,-0.06227222749999983,-0.017946169500000053,0.01912296750000131
172822.0,-1.9016075014999998,2.5281543699999998,10.372101439,-0.023649211364523165,0.2442291582193225,0.25091202392520884,10.843807627822297,0.350947304695345,0.02157463000000015,-0.05383850850000016,-0.029910282499999497
172832.0,-1.8273711609999999,2.6155316214999997,10.3086524135,-0.00899368163552678,0.23623555024518847,0.21547311346346396,10.79113551047712,0.31986994878332503,0.07423634049999994,0.08737725149999997,-0.06344902549999887
172842.0,-1.6275116339999998,2.7567473815000003,10.2284340165,0.014987142286875308,0.2594170133701772,0.17843548140689228,10.71771023465865,0.31521583444481205,0.1998595270000001,0.14121576000000058,-0.08021839700000122
172852.0,-1.4192183879999998,2.9256178944999998,10.2284340165,0.037636279990005725,0.3153740145183674,0.1645793124753093,10.732859978931536,0.35772001439640333,0.208293246,0.16887051299999944,0.0
172862.0,-1.3138949669999997,3.1590161645,10.3074756155,0.04243244477448614,0.36893293327431737,0.1880278109758531,10.86046760853359,0.41625290308213214,0.10532342100000003,0.23339827000000035,0.07904159899999996
172872.0,-1.2767277634999998,3.3792735234999998,10.4259399475,0.019516271695800596,0.41183312628833796,0.2306609686143186,11.034026786155456,0.4724318905529411,0.03716720349999991,0.22025735899999965,0.11846433200000028
172882.0,-1.2157304004999998,3.4797916859999996,10.482230118499999,-0.026314329132318508,0.43501633474257867,0.27515988322316604,11.111439998570983,0.5154072338898026,0.06099736300000003,0.10051816249999979,0.05629017099999878
172892.0,-1.1629706235,3.5684438019999996,10.542148749999999,-0.06894923210003599,0.439545464151504,0.31806182156643864,11.190316890342416,0.5469163866639093,0.0527597769999999,0.088652116,0.05991863150000043
172902.0,-1.0253833239999999,3.6450337385,10.536166693499998,-0.10199006016954065,0.441678256497441,0.3628260262215892,11.195914009546486,0.5806241296568333,0.13758729950000004,0.07658993650000046,-0.00598205650000061
172912.0,-0.9056441275,3.7383930464999997,10.4594786905,-0.13636431978756897,0.44034482494891736,0.4094577331763737,11.144346922669733,0.6165666450825519,0.11973919649999987,0.0933593079999997,-0.07668800299999923
172922.0,-0.8014975044999999,3.8641142994999997,10.364942584499998,-0.1715361948737587,0.4211601658109957,0.4670134559193907,11.090798544257378,0.6518451652252137,0.1041466230000001,0.12572125300000003,-0.0945361060000014
172932.0,-0.6722458575,3.929916921,10.252362242499999,-0.1933859717794757,0.4041065536897591,0.5301647042443015,11.000322406653709,0.6941000320145173,0.12925164699999991,0.06580262150000005,-0.11258034199999933
172942.0,-0.5835937415,3.9107939534999994,10.117128539,-0.20857557225958234,0.4017084712975189,0.5970474665099763,10.862374550552857,0.7492256953158929,0.088652116,-0.01912296750000042,-0.13523370349999908
172952.0,-0.532108829,3.8652910974999997,10.0093534555,-0.21790086645298806,0.4073039968794127,0.6628638326026824,10.742940550493719,0.8079392267043509,0.05148491249999998,-0.0455028559999997,-0.10777508349999998
172962.0,-0.5058270069999999,3.8293987585,9.9603202055,-0.2107066192762674,0.4152976048535467,0.7193531591727308,10.683077010332907,0.8569354395844034,0.026281822000000066,-0.03589233899999966,-0.04903324999999903
172972.0,-0.4566956905,3.7383930464999997,9.968655858,-0.18139555981827465,0.4128995224613065,0.780905685902815,10.656371480906554,0.9017782737712781,0.049131316499999966,-0.0910057120000003,0.008335652499999568
172982.0,-0.43394426249999996,3.6581746494999994,10.057307974,-0.1406264138209391,0.4054382399090308,0.8573807777374504,10.71074194783373,0.9587793034261566,0.022751428000000018,-0.08021839700000033,0.08865211600000045
172992.0,-0.5081806029999999,3.5756026564999996,10.188913217,-0.10945134272181639,0.38891695320965247,0.939718430529535,10.810047845684707,1.0228913537587363,-0.07423634049999994,-0.08257199299999973,0.1316052429999992
173002.0,-0.6638121385,3.4427225489999995,10.301493558999999,-0.09612749921209168,0.3577418821105297,1.0119296830015483,10.881808427404494,1.0775998485803386,-0.15563153550000008,-0.13288010750000012,0.11258034199999933
173012.0,-0.7787460764999999,3.2176599315,10.379260293499998,-0.0977262208069185,0.29538999458303233,1.0542975505937107,10.894440101568799,1.0992492839755976,-0.11493393799999996,-0.22506261749999945,0.07776673449999905
173022.0,-0.841018304,3.0093666854999994,10.3290502455,-0.10412110718622572,0.21545042418318802,1.0782783745161126,10.791333495426962,1.1045109067779781,-0.062272227500000055,-0.20829324600000065,-0.05021004799999851
173032.0,-0.8732821825,2.9267946924999997,10.223628757999998,-0.10332174638881232,0.14137341474079268,1.0937332650425224,10.670114053922887,1.1076616273631956,-0.03226387850000001,-0.08257199299999973,-0.10542148750000102
173042.0,-0.8362130455,2.8250016655,10.139879966999999,-0.08493644804830405,0.09154600992560656,1.104391990784452,10.559216467745609,1.1114299534604988,0.03706913700000003,-0.10179302699999981,-0.08374879099999966
173052.0,-0.773940818,2.724483503,10.05966157,-0.06068858875034682,0.07262664083398804,1.1161171126993499,10.450769620024188,1.1201228249721864,0.062272227499999944,-0.10051816249999979,-0.08021839699999944
173062.0,-0.7428537374999999,2.7399780099999997,10.10281083,-0.03990346268834636,0.07049559381730297,1.1329036894450313,10.494098238408412,1.1357960576795196,0.031087080500000086,0.015494506999999658,0.043149259999999856
173072.0,-0.7727640199999999,2.7794988095,10.185382823000001,-0.01912008195559788,0.07582408402364166,1.1640787605441538,10.58606636639323,1.1667022885046665,-0.02991028249999994,0.039520799500000425,0.08257199300000195
173082.0,-0.7799228745,2.772339955,10.278742131,-0.0031328660073298214,0.07342600163140144,1.1968542985673556,10.674581411552031,1.199108587478278,-0.007158854500000089,-0.007158854500000089,0.09335930799999836
173092.0,-0.7918869875,2.7555705835,10.419957891,-0.002865830631774689,0.06623175445468081,1.2322932090291003,10.807209477558743,1.2340751238488656,-0.011964112999999998,-0.01676937150000013,0.1412157599999997
173102.0,-0.8721053844999999,2.7555705835,10.556466459,-0.01405688179556233,0.038786451967069986,1.2717306688071643,10.944986118872714,1.2723996537121212,-0.08021839699999989,0.0,0.136508568
173112.0,-0.9391828704999999,2.66937013,10.5959872585,-0.030845203870495788,-0.017170549181120213,1.3106340578341178,10.967340030174643,1.3111094111155328,-0.06707748600000007,-0.08620045350000005,0.03952079949999998
173122.0,-0.9415364664999999,2.5700287655,10.588828404,-0.042568580456141696,-0.0808558682571413,1.3375470348998704,10.936856300720237,1.3406646956055426,-0.002353595999999958,-0.09934136449999986,-0.007158854500000089
173132.0,-0.9068209254999999,2.5005976834999997,10.542148749999999,-0.03537433327942108,-0.14400711658205212,1.3551329724429653,10.872544009236146,1.3632221998204646,0.03471554099999996,-0.06943108200000037,-0.04667965400000007
173142.0,-0.86494653,2.5209955155,10.5481308065,-0.01778839573632621,-0.19117114895869491,1.3759180985049657,10.879642199997411,1.3892492393413718,0.04187439549999994,0.02039783200000045,0.00598205650000061
173152.0,-0.844548698,2.5580646525,10.5049815465,-0.003665191429188092,-0.22740942021785318,1.4089589265744704,10.844887946031022,1.4271978611271516,0.020397832000000005,0.03706913700000003,-0.043149259999999856
173162.0,-0.7763924805,2.5723823615,10.475071263999999,-0.0031328660073298214,-0.2471281501068851,1.4513267941666328,10.814206132833412,1.4722199566948775,0.0681562175,0.014317708999999734,-0.029910282500001273
173172.0,-0.8481771585,2.5532593939999995,10.507433209,-0.0010000736613927509,-0.24606175393391658,1.4990231519651338,10.846413723754337,1.51908452596419,-0.07178467799999999,-0.01912296750000042,0.03236194500000167
173182.0,-0.8553360130000001,2.473040997,10.5373434915,-0.002865830631774689,-0.2431313461198181,1.5403246233843275,10.85740021026373,1.5593976432761836,-0.007158854500000089,-0.08021839699999944,0.029910282499999497
173192.0,-0.863769732,2.3270199785,10.47742486,-0.023116885942664894,-0.23140622420492016,1.5597763178978044,10.7674301403447,1.5770178796993066,-0.008433718999999895,-0.14602101849999993,-0.05991863150000043
173202.0,-0.8960336105,2.2587656945,10.4331968685,-0.044966662848381904,-0.2175500552733372,1.5720337652345604,10.712445826732283,1.5876524135826144,-0.03226387850000001,-0.068254284,-0.044227991499999675
173212.0,-0.8553360130000001,2.2432711875,10.3780834955,-0.06122091417220509,-0.2074254002825181,1.5885550519339389,10.652158577273054,1.6032094217660033,0.040697597499999905,-0.015494507000000102,-0.0551133729999993
173222.0,-0.799045842,2.2216965575,10.309829211499999,-0.06894923210003599,-0.20129580394951402,1.6194630876575065,10.576719161513344,1.6333813668522272,0.05629017100000011,-0.021574629999999928,-0.06825428400000177
173232.0,-0.832584585,2.2192448949999997,10.289529446,-0.06148794954776023,-0.2036938863417542,1.6690252024263894,10.559008533724377,1.6825329398282358,-0.03353874300000004,-0.0024516625000003955,-0.020299765499999012
173242.0,-0.8697517885,2.2097324444999997,10.381711956,-0.03803945104721641,-0.23753582053792427,1.7031324266688628,10.649851115730597,1.720037885816928,-0.03716720350000002,-0.009512450499999936,0.09218251000000066
173252.0,-0.9176082405,2.1881578145,10.4690892075,-0.008728391589223642,-0.2998877080654217,1.7540279729862693,10.734610767921858,1.779500759282442,-0.047856451999999994,-0.021574629999999928,0.08737725149999953
173262.0,-0.967916355,2.206103984,10.4798765225,0.012856095270190233,-0.3715666351155768,1.8073198563666641,10.753212021779532,1.845164520234965,-0.050308114499999945,0.017946169500000053,0.010787314999999964
173272.0,-0.9822340639999999,2.1821757579999996,10.305122019499999,0.011789699097221697,-0.4243261930741134,1.8451568492206494,10.579329592751545,1.893355622528279,-0.014317708999999956,-0.02392822600000022,-0.17475450300000084
173282.0,-0.9893929184999999,2.1283372495,10.119482135,-0.0017994344588061538,-0.4437778875875902,1.8622104613418857,10.388100715499986,1.9143588623367445,-0.007158854499999978,-0.053838508499999715,-0.1856398844999987
173292.0,-0.947518523,2.01820857,9.9016764385,-0.009260717011081911,-0.42565787929338506,1.868073022299335,10.1495888328639,1.91597682859858,0.04187439549999994,-0.11012867949999983,-0.21780569650000103
173302.0,-0.9380060724999999,1.9272028579999998,9.736434385999999,-0.020718803550424686,-0.3622395955929191,1.8827285520283312,9.969559709476313,1.91737153260879,0.009512450500000047,-0.0910057120000003,-0.16524205250000001
173312.0,-1.0013570315,1.8637538324999998,9.616793256,-0.03537433327942108,-0.2711089740292872,1.8984504779302962,9.846776466506183,1.9180369225872442,-0.0633509590000001,-0.06344902549999998,-0.11964112999999976
173322.0,-1.1235478905,1.7632356699999998,9.586784907,-0.03777241567166128,-0.1850415526256908,1.9088421682966703,9.812125393781429,1.9181620252343994,-0.12219085900000004,-0.10051816250000001,-0.030008348999999157
173332.0,-1.3138949669999997,1.7117507575,9.614341593499999,-0.024715607537491698,-0.12242437505189026,1.9067111212799852,9.853526014407931,1.910797186745776,-0.1903470764999997,-0.05148491249999987,0.02755668649999876
173342.0,-1.5125776959999997,1.6686014974999999,9.702895643,-0.010327113184050447,-0.090181162450547,1.8829955874038862,9.960838624475565,1.8851821327156044,-0.19868272899999995,-0.04314926000000008,0.08855404950000079
173352.0,-1.6597755125,1.6614426429999998,9.8191044455,0.000598647933434055,-0.07765842506748769,1.848356037739555,10.096041725325392,1.8499868193075264,-0.1471978165000003,-0.007158854500000089,0.11620880250000098
173362.0,-1.7112604249999999,1.675760352,9.917170945499999,0.01019097750239489,-0.07552563272155062,1.7998585738143884,10.202297023796929,1.8014713050597306,-0.05148491249999987,0.014317709000000178,0.09806649999999806
173372.0,-1.7148888855,1.7895174919999999,9.954338149,0.02591290340435981,-0.07765842506748769,1.7433692472443398,10.258268115448248,1.7452904176050765,-0.003628460500000097,0.11375713999999992,0.03716720350000102
173382.0,-1.6693860294999998,1.8506129214999998,10.0668204245,0.05335820589197064,-0.09044819782610214,1.701533705074036,10.370751725879995,1.7047712233988983,0.04550285600000015,0.06109542949999991,0.11248227549999967
173392.0,-1.652616658,1.8817000019999999,10.148215619499998,0.08240222997440828,-0.11389669632664597,1.6916743401295198,10.452665544046152,1.6975054220801553,0.016769371499999908,0.031087080500000086,0.08139519499999892
173402.0,-1.6323168924999998,1.8039332675,10.175772305999999,0.08906415172927064,-0.14800392056911915,1.6847471283283542,10.462551108343062,1.6935791891841727,0.020299765500000122,-0.07776673449999993,0.027556686500000538
173412.0,-1.6119190604999998,1.7428378379999998,10.1207569995,0.07307519045175058,-0.1669232896607377,1.658101186638157,10.395455210335713,1.6680836049855494,0.020397832000000005,-0.06109542950000013,-0.05501530649999964
173422.0,-1.603583408,1.706945499,9.967479059999999,0.0328401152055253,-0.16052840328143045,1.631987570369818,10.238934587861557,1.6401924494608489,0.00833565249999979,-0.035892338999999884,-0.15327793950000057
173432.0,-1.5891676325,1.6423196755,9.75565542,-0.02684665455417678,-0.10537076293065366,1.6021441854899667,10.0197545057,1.605829919898321,0.014415775500000061,-0.0646258234999999,-0.21182363999999865
173442.0,-1.6489881974999998,1.5381730525,9.6274825045,-0.09319709139799322,-0.01823694535408875,1.5675028904963832,9.888051263488931,1.570376896077948,-0.05982056499999988,-0.1041466230000001,-0.12817291550000043
173452.0,-1.8512993869999999,1.3800898544999998,9.5233358815,-0.14888705717062828,0.0699615230661927,1.5203406034489926,9.799279756118088,1.5292146745955317,-0.20231118950000004,-0.15808319800000015,-0.1041466230000001
173462.0,-2.1075471515,1.105993987,9.469497373,-0.1909878893872355,0.1392423677241076,1.4356048682646678,9.764033909831008,1.454931664597077,-0.2562477645000001,-0.2740958674999998,-0.05383850850000016
173472.0,-2.4020408509999998,0.8689672564999998,9.319847893999999,-0.23122470996271277,0.19253425110450245,1.299175971294775,9.663563996271673,1.3335638375178873,-0.2944936994999998,-0.23702673050000012,-0.1496494790000007
173482.0,-2.6593673469999994,0.6726381235,9.015841744,-0.2834501971701391,0.25062404459862975,1.110519841788204,9.42390996796597,1.1732053294338824,-0.2573264959999997,-0.19632913299999988,-0.3040061499999993
173492.0,-2.6067056364999996,0.49307836199999994,8.556105991999999,-0.3410059199131561,0.3449521093519152,0.872570378217557,8.957956814629759,0.9983266299688114,0.05266171049999979,-0.17955976150000003,-0.4597357520000003
173502.0,-2.392430334,0.4678752715,8.2592586965,-0.3354103943312623,0.48058164552439464,0.6236934082001736,8.611503027255777,0.8558342818985087,0.2142753024999995,-0.025203090499999914,-0.2968472954999992
173512.0,-2.1123524099999997,0.8043414329999999,8.115591274,-0.22696087060009063,0.5999569303730508,0.41851773732347625,8.42447740643289,0.7659090360744982,0.2800779240000004,0.3364661614999999,-0.14366742250000009
173522.0,-1.7148888855,1.1945480364999999,8.2627890905,-0.07001388294375253,0.6703024258746823,0.29940948785037524,8.522996682810762,0.7374641193666098,0.3974635244999998,0.3902066034999999,0.1471978165000003
173532.0,-1.3988205559999998,1.44353888,8.7321353595,0.11757585038985001,0.7132026188887028,0.293012856141816,8.960507317255537,0.779960633653382,0.3160683295000002,0.24899084350000011,0.46934626900000076
173542.0,-1.256427998,1.6338859565,9.340245726,0.2998353481878619,0.6905534811855725,0.3606949792049041,9.564956082234119,0.83478513069177,0.14239255799999984,0.19034707649999993,0.6081103664999983
173552.0,-1.3533177,1.6602658449999999,9.9579666095,0.4333338373436561,0.5980911734026688,0.47580642469093815,10.185727782987517,0.8785687338315271,-0.09688970200000013,0.02637988849999995,0.6177208835000005
173562.0,-1.7148888855,1.6901761275,10.452319836,0.4991502034363623,0.44594035053081116,0.5874551369410155,10.726067741051303,0.8905713108676316,-0.3615711854999999,0.029910282500000163,0.49435322649999947
173572.0,-2.1661909185,1.5728885934999999,10.697682218999999,0.5087425330053231,0.2775370216643823,0.6474089420762726,11.027545805013146,0.8688982112787013,-0.45130203299999994,-0.11728753400000014,0.2453623829999998
173582.0,-2.5216819809999995,1.3980360239999998,10.6665951385,0.45464954349826286,0.1773463959536478,0.6287566083602093,11.049417929754203,0.7959226244538853,-0.3554910624999996,-0.17485256950000005,-0.031087080499998976
173592.0,-2.7084986635,1.266430781,10.549307604500001,0.3643200280612963,0.1616244700516829,0.5357602298261953,10.964839390871491,0.6677503845221571,-0.18681668250000039,-0.13160524299999987,-0.11728753399999903
173602.0,-2.655836953,1.2927126029999998,10.471442803499999,0.2806506890499402,0.2098548986012942,0.41238814099047216,10.880059291283631,0.5411726772119443,0.05266171049999979,0.026281821999999844,-0.07786480100000226
173612.0,-2.4080229075,1.4267695085,10.4139758345,0.1905864636592768,0.31910378312987925,0.31726246076902526,10.78355869993668,0.48867769905241953,0.2478140455000002,0.13405690550000027,-0.05746696899999826
173622.0,-2.2248346855,1.6076041344999998,10.544502346,0.07254286502989231,0.47125460600173696,0.27249651078462267,10.895907954634385,0.5491791322823469,0.18318822200000007,0.18083462599999978,0.1305265114999994
173632.0,-2.1254933209999995,1.675760352,10.6677719365,-0.07161260453857934,0.5972918126052554,0.26770034600014225,11.005782693844528,0.6584446444331266,0.0993413645000003,0.06815621750000012,0.12326959049999964
173642.0,-1.9519156159999997,1.6697782955,10.776723817999999,-0.21150598007368082,0.6655062610902017,0.31273158603084794,11.078624029073106,0.7651368557706246,0.1735777049999998,-0.005982056499999944,0.10895188149999946
173652.0,-1.988984753,1.6614426429999998,10.767113300999998,-0.334878068909404,0.6615094571031348,0.38867435244362525,11.074618767263114,0.8371414666117353,-0.03706913700000025,-0.008335652500000235,-0.009610517000000485
173662.0,-2.186490684,1.497475455,10.6091281695,-0.42467525892451224,0.6244700797173112,0.45449071853633144,10.935116586777879,0.881404430009526,-0.1975059309999998,-0.16396718799999976,-0.1579851314999985
173672.0,-2.343397084,1.2053353515,10.35778373,-0.46970824428446994,0.5709111609613612,0.4747417738472216,10.687751260219711,0.8786040862041646,-0.1569064,-0.29214010349999997,-0.2513444395000004
173682.0,-2.3960587944999996,0.9970421054999999,10.172241911999999,-0.4846308093890214,0.5381373682674117,0.4587528125697016,10.498080597094408,0.8572706641285736,-0.05266171049999979,-0.2082932460000001,-0.1855418180000008
173692.0,-2.542079813,0.965955025,10.105164426,-0.5003509899617343,0.5445322546467188,0.4353043140691577,10.464682840988578,0.8581120762193867,-0.14602101850000038,-0.031087080499999975,-0.06707748599999874
173702.0,-2.7336036874999996,0.8485694245,10.071625683,-0.5549763048906529,0.570645870915058,0.421982215888685,10.470449039414456,0.9009463910293513,-0.19152387449999964,-0.11738560050000002,-0.03353874299999937
173712.0,-3.0377079039999995,0.7540333185,10.100359167499999,-0.6413107616698044,0.5895634946774245,0.3926711564306922,10.574189844519223,0.9555392427223381,-0.30410421649999986,-0.09453610599999995,0.02873348449999824
173722.0,-3.3800580554999997,0.7528565205,10.078784537499999,-0.6778160683045178,0.5493284194311993,0.3433743317081124,10.657086053530715,0.9376045363171869,-0.34235015150000025,-0.0011767980000000344,-0.021574629999999928
173732.0,-3.5524589625,0.8103234894999999,9.971107520499999,-0.5997422548750554,0.4259563305954761,0.3004741386940918,10.616005558742595,0.7946158039461176,-0.1724009070000001,0.05746696899999992,-0.10767701700000032
173742.0,-3.4842046785,0.9252574275,9.779583645999999,-0.41401827851183487,0.2679446920954215,0.2719624400335124,10.422861403565522,0.5631776467092735,0.068254284,0.11493393800000007,-0.19152387449999964
173752.0,-3.3476961105,1.0664731875,9.5653083435,-0.18406067758607,0.1392423677241076,0.2687649968438588,10.190169675434454,0.35426175849410874,0.136508568,0.14121576000000002,-0.21427530249999904
173762.0,-3.2053035524999998,1.2591738599999998,9.437135428,0.030442032813285096,0.06783047604950762,0.29407925231478454,10.045845646822828,0.3033319921883128,0.14239255800000006,0.19270067249999978,-0.12817291550000043
173772.0,-3.2256033179999997,1.4280443729999999,9.397712695,0.210837518970167,0.016669639685797842,0.3369794453288052,10.037969485613797,0.3978510812689329,-0.0202997654999999,0.1688705130000001,-0.03942273300000032
173782.0,-3.2112856089999995,1.4112750015,9.4276229775,0.3560593847116072,-0.02756223954749445,0.3817453953132077,10.059032130295405,0.5227499491467398,0.014317709000000178,-0.016769371499999908,0.029910282500001273
173792.0,-3.3094501755,1.4687419704999998,9.455179664,0.4487887278700659,-0.03608991827273875,0.4014641252022396,10.12472646141832,0.6032306758517545,-0.09816456650000038,0.05746696899999981,0.02755668649999876
173802.0,-3.4171271924999997,1.570436931,9.482638284,0.46850571242984584,0.017201965107656113,0.40359517221892477,10.201149897396572,0.6186134279349148,-0.10767701699999987,0.10169496050000015,0.027458620000000877
173812.0,-3.4231092489999995,1.6782120145,9.552069366,0.4074855111216201,0.1299170735307019,0.40279581142151133,10.284750928878983,0.5875094496836145,-0.005982056499999722,0.10777508349999998,0.06943108199999948
173822.0,-3.445860677,1.7715713225,9.708877699499999,0.2926411010111412,0.27194149608248847,0.4115887801930588,10.453455263205926,0.5735820039657844,-0.02275142800000074,0.09335930800000014,0.156808333499999
173832.0,-3.491363533,1.7596072095,9.851368324,0.1476862706452562,0.37479549423176634,0.4249126237027835,10.598834591897223,0.5855199696129254,-0.0455028559999997,-0.01196411300000011,0.1424906245000006
173842.0,-3.45782479,1.7368557814999999,9.78311404,-0.00846135621366851,0.41849504804320037,0.439835188807335,10.520577009067212,0.6071776454208762,0.033538742999999815,-0.022751428000000073,-0.068254284
173852.0,-3.376429595,1.7129275554999999,9.651508797,-0.1342315274416319,0.419826734262472,0.451825600768536,10.367546463795158,0.6312043751992332,0.08139519500000025,-0.023928225999999997,-0.1316052429999992
173862.0,-3.168136349,1.7117507575,9.431153371499999,-0.18912387774610556,0.4131665578368616,0.4590198479452567,10.095238110040428,0.6458898253233063,0.20829324599999977,-0.0011767979999999234,-0.2203554255000011
173872.0,-3.0784055015000003,1.7511734905,9.20256036,-0.18112852444271954,0.41476527943168845,0.48753154660583603,9.8605428960549,0.6652253665673926,0.08973084749999982,0.0394227330000001,-0.22859301149999922
173882.0,-2.99102825,1.709299095,9.0685034545,-0.13369920201977362,0.3971775965593416,0.5216387708483092,9.700809672019357,0.6691281843425176,0.08737725150000042,-0.04187439550000005,-0.1340569054999996
173892.0,-2.9370916749999996,1.5968168194999999,8.973869281999999,-0.03031113311938552,0.3545444389208761,0.5642719284867747,9.57635950415478,0.6671006919790172,0.053936575000000264,-0.11248227550000012,-0.09463417250000106
173902.0,-3.0244689265,1.5357213899999997,8.832653522,0.09705775970340466,0.312708896750572,0.6087725884248741,9.461586585492233,0.691238835167068,-0.08737725150000042,-0.06109542950000013,-0.1412157599999997
173912.0,-3.0711485805,1.338215459,8.674668390499999,0.2039085618397495,0.30897912813906014,0.6295559691576227,9.299066937244488,0.7303338425125336,-0.04667965400000007,-0.1975059309999998,-0.15798513150000026
173922.0,-3.072423445,1.211317408,8.636324389,0.2635970769287036,0.3513469957312225,0.6188972434156933,9.246251923906557,0.7589215560795836,-0.001274864500000028,-0.12689805099999996,-0.038344001499998726
173932.0,-3.1561722359999997,1.1957248345,8.7105607295,0.2867785400536923,0.4113008008664797,0.6002449096996298,9.34157638118133,0.7821152290097998,-0.08374879099999966,-0.015592573499999984,0.07423634049999883
173942.0,-3.2064803504999997,1.1706198105,8.789504262,0.28971069319704273,0.4552673900534689,0.5794615289668813,9.42906422454497,0.7918183792710575,-0.050308114499999945,-0.02510502399999992,0.0789435325000003
173952.0,-3.238744229,1.1873891819999998,8.941605403499999,0.290243018618901,0.4688565236094967,0.5506827949307469,9.58392740176551,0.7793067369277217,-0.03226387850000023,0.016769371499999686,0.15210114149999931
173962.0,-3.2327621724999998,1.279571692,9.070857050499999,0.2923740656355861,0.46485971962242967,0.5344285436069237,9.714345197156636,0.7662839039191307,0.005982056500000166,0.09218251000000022,0.12925164700000025
173972.0,-3.2531600045,1.2963410635,9.182162528,0.28837726164851907,0.44594035053081116,0.5304317396198567,9.827291532177219,0.7505878174228441,-0.02039783200000045,0.016769371499999908,0.1113054775000002
173982.0,-3.4195788549999997,1.3405690549999998,9.2108960125,0.28597917925627886,0.4251569697980627,0.5298994141979984,9.91621148876299,0.7371132403527612,-0.1664188504999995,0.0442279914999999,0.028733484500000017
173992.0,-3.512938163,1.3106587724999998,9.312689039499999,0.2934404618085546,0.4110337654909246,0.5136451628741752,10.039160228894469,0.7203384026581563,-0.09335930800000014,-0.02991028249999994,0.10179302699999937
174002.0,-3.5918816954999997,1.3094819745,9.4731258335,0.3032998267530706,0.4081033576768261,0.4909960251710448,10.21550146656215,0.7068353642746713,-0.07894353249999986,-0.0011767979999999234,0.16043679400000066
174012.0,-3.7008335769999996,1.3573384265,9.608359537,0.2961055795763499,0.3977116673104518,0.47074496986015457,10.38552404845143,0.6837060122740939,-0.1089518814999999,0.047856451999999994,0.13523370350000086
174022.0,-3.7894856929999996,1.3885235734999999,9.7412396445,0.27718621048473147,0.3910497455555895,0.4566217655530165,10.54419031235663,0.6620087126003185,-0.088652116,0.03118514699999997,0.13288010750000012
174032.0,-3.8564651124999996,1.3933288320000001,9.9363919795,0.25773451597125463,0.3811903806110735,0.4401004788536382,10.749212713882075,0.6367272716638998,-0.06697941949999997,0.004805258500000242,0.1951523349999995
174042.0,-4.009743052,1.4459905425,10.147038821499999,0.2425466608204,0.35321100737235245,0.4355713494447128,11.005967691988278,0.6109904245249727,-0.15327793950000057,0.05266171049999979,0.21064684199999917
174052.0,-4.227548748499999,1.432751565,10.319439728499999,0.22655769954287994,0.31350825754798545,0.4406345496047484,11.243477299221002,0.5863229699391926,-0.21780569649999926,-0.013238977499999915,0.1724009070000001
174062.0,-4.35807526,1.3681257414999999,10.4690892075,0.20737304040495827,0.2604834095431457,0.43477198864729943,11.422189669716222,0.5476147063824583,-0.13052651150000028,-0.06462582350000012,0.1496494790000007
174072.0,-4.3987728575,1.382541517,10.533715031,0.1844568673262727,0.18827215707113232,0.4206487843401614,11.498685840235078,0.49640320385639625,-0.04069759750000035,0.014415775500000061,0.06462582350000012
174082.0,-4.347287945,1.4267695085,10.533715031,0.1703354083483866,0.11925834778877255,0.4113234901467556,11.484499817643039,0.4608944764271184,0.05148491250000031,0.04422799150000012,0.0
174092.0,-4.231177209,1.4710955665,10.5385202895,0.17539686317917014,0.06649878983023595,0.41292221174158245,11.451086962901824,0.45353158832824275,0.11611073599999955,0.044326058,0.004805258499999354
174102.0,-4.1665513855,1.5453319069999998,10.488212174999997,0.20444263259085976,-0.008644615785127915,0.4323739062550592,11.390820680645552,0.4783499913379454,0.06462582350000012,0.07423634049999972,-0.05030811450000172
174112.0,-4.206072185,1.639868013,10.4139758345,0.24600939405635674,-0.08671842921459026,0.4736753776742531,11.350378980767172,0.5407486212134692,-0.03952079949999998,0.09453610600000029,-0.07423634049999706
174122.0,-4.2730516045,1.6602658449999999,10.368571044999998,0.2785178967040031,-0.14507351275502064,0.5149768490934469,11.336786061578737,0.6031746828156149,-0.06697941949999997,0.020397831999999783,-0.04540478950000271
174132.0,-4.451434568,1.55729602,10.265601219999999,0.2737217319195227,-0.15919497173290678,0.5341615082313685,11.297035408245769,0.6209630765400423,-0.17838296349999982,-0.10296982499999996,-0.10296982499999885
174142.0,-4.6394280485,1.4699187685,10.223628757999998,0.2396145076770495,-0.14907031674208768,0.5139104529204783,11.322876789252883,0.5862943162301953,-0.1879934805000003,-0.08737725149999997,-0.04197246200000038
174152.0,-4.772308156,1.3657721455,10.295511502499998,0.19111878908113508,-0.13174966924529596,0.4582204871478433,11.429690100232708,0.5136636854285994,-0.13288010750000012,-0.10414662299999988,0.07188274449999987
174162.0,-4.8477212944999994,1.208963812,10.406816979999999,0.14528644292376397,-0.1416090341898119,0.3798796383428258,11.543995621234902,0.43066205856690876,-0.0754131384999992,-0.15680833350000012,0.1113054775000002
174172.0,-4.7806438085,1.174248271,10.407993778,0.09838944592267633,-0.20715836490696296,0.3044709426811588,11.513459458763148,0.38117925724919915,0.06707748599999963,-0.03471554099999996,0.0011767980000012557
