timestamp,ax,ay,az,gx,gy,gz,acc_mag,gyro_mag,dax,day,daz
45412.0,0.44659484099999996,-0.40423011299999995,9.8226348395,-0.016510814723866358,0.21330715986173898,-0.0578960619471559,9.841087547950327,0.22164048691544655,0.0,0.0,0.0
45422.0,0.318519992,-0.2030957215,9.354563435,-0.02264041105687044,0.18399784573299818,-0.037112681214407424,9.362187774064045,0.1890638689811739,-0.128074849,0.20113439149999995,-0.46807140449999984
45432.0,0.4478697055,-0.090613446,9.426348113,-0.020507618710933373,0.14189526818713902,-0.010466739524209994,9.437416850873936,0.14375111197956275,0.12934971350000002,0.11248227549999999,0.07178467800000021
45442.0,0.4598338185,0.0075511204999999994,9.518530623,-0.0007906341511534313,0.11125252250987455,0.023108159296404925,9.529634273205131,0.11362981956000431,0.011964112999999998,0.0981645665,0.09218251000000066
45452.0,0.42992353599999994,0.1116977435,9.562856681,0.02878746068239447,0.06835232949585393,0.05987875597742146,9.573167633236977,0.09532168828474336,-0.02991028250000005,0.10414662300000001,0.044326057999999335
45462.0,0.47415152749999995,0.14405968849999998,9.59874902,0.051169563009969755,0.006799802765769908,0.09931621575548534,9.611532427965493,0.11192976462172495,0.04422799150000001,0.032361944999999975,0.035892339000000106
45472.0,0.6345883215,0.09738003449999999,9.634641359,0.06289468492486766,-0.05368807312059757,0.14008536175282088,9.656008457196833,0.1626716298701765,0.16043679400000005,-0.04667965399999999,0.035892339000000106
45482.0,0.7746272835,0.0985568325,9.622677246,0.07221997911827337,-0.09525483458609452,0.1765906683875343,9.654308792361117,0.21324510089899879,0.140038962,0.0011767980000000067,-0.011964112999999443
45492.0,0.8332710504999999,0.14523648649999998,9.6070846725,0.08714254422282487,-0.1309607804233945,0.21549405741448788,9.644247517831376,0.266799995883977,0.05864376699999996,0.04667965399999999,-0.015592573500001095
45502.0,0.8465100279999999,0.165536252,9.531671534,0.11165743889633724,-0.15973951445952903,0.2607923328207487,9.570618773637191,0.32557140076908403,0.013238977499999915,0.02029976550000001,-0.07541313850000009
45512.0,0.8452351634999999,0.1116977435,9.4982308575,0.13963506680580634,-0.17252928721814345,0.3042248512566276,9.53641904961632,0.37658606845179476,-0.001274864499999917,-0.05383850849999999,-0.03344067649999971
45522.0,0.8440583654999999,-0.030694814499999997,9.505389712,0.16441699685487382,-0.1672007970118048,0.33593399310686056,9.542840786317413,0.4096836622332877,-0.0011767980000000344,-0.142392558,0.007158854500000089
45532.0,0.863181333,-0.231829206,9.55559976,0.18040421280314187,-0.15760846744284396,0.34659271884878995,9.597307620770854,0.4213224676726838,0.019122967500000088,-0.2011343915,0.050210048000000285
45542.0,0.89436648,-0.357550459,9.634641359,0.17667444419163,-0.15387695350208005,0.33460230688758885,9.682667393225488,0.4084735974625519,0.03118514699999997,-0.12572125299999998,0.07904159899999996
45552.0,0.9649743599999999,-0.40903537149999997,9.6849494735,0.15748803972445635,-0.16133823605435582,0.3119531691844585,9.7414953551723,0.38489906317580247,0.07060787999999996,-0.05148491249999998,0.050308114499999945
45562.0,1.128941548,-0.43894565399999996,9.682497811,0.12311552543568001,-0.18238865216265945,0.2895710668568832,9.757968342128699,0.3636955537281817,0.1639671880000001,-0.029910282499999996,-0.0024516625000003955
45572.0,1.2918300045,-0.3982480565,9.5962973575,0.08127998326537593,-0.20423842906837644,0.27811298031754045,9.691044796542526,0.3544948538541042,0.16288845649999995,0.04069759749999996,-0.08620045350000005
45582.0,1.47492016,-0.2917478375,9.413207201999999,0.04184426881656405,-0.2055718606169001,0.287171239135391,9.532522022363494,0.355637530776552,0.18309015549999996,0.10650021900000001,-0.1830901555000004
45592.0,1.624569639,-0.25575743199999995,9.2336474405,0.0181287349404651,-0.18958289933938005,0.32154549875341937,9.378959613487842,0.3737135728349351,0.14964947900000003,0.035990405500000044,-0.17955976149999842
45602.0,1.6592851799999997,-0.1683801805,9.101944131,0.012266173983016148,-0.15201294186095013,0.37590377830678273,9.25348400104513,0.4056624755418192,0.03471554099999974,0.08737725149999995,-0.13170330950000064
45612.0,1.6054466714999998,-0.082179727,9.009761620999999,0.0282551352605362,-0.1144412390532682,0.4446505522135874,9.152049879114774,0.46001006885554874,-0.05383850849999994,0.08620045350000001,-0.09218251000000066
45622.0,1.4797254185,-0.015200307499999998,9.0481056225,0.07142061832085997,-0.09498954453979139,0.5102016282599904,9.168316842224597,0.5238603055895306,-0.1257212529999998,0.0669794195,0.0383440015000005
45632.0,1.3157582305,0.037461403,9.220408462999998,0.13830338058653466,-0.09045866980161411,0.5634935116403853,9.31389044934528,0.5872269865092665,-0.16396718799999999,0.05266171049999999,0.17230284049999867
45642.0,1.1684623475,0.09139797799999999,9.404773483,0.20571846827406762,-0.0896593090042007,0.6002658536506538,9.47752193953924,0.6408416145500286,-0.14729588299999996,0.053936574999999994,0.18436502000000132
45652.0,1.0176360705,0.12611351899999998,9.6525875285,0.25394889682367894,-0.06701017130107029,0.6226479559782291,9.706901348371218,0.6757742835737603,-0.15082627699999995,0.03471554099999999,0.2478140455000002
45662.0,0.870438254,0.16798791449999997,9.78311404,0.2651399479874666,-0.022511256692222863,0.6415673250698475,9.823197188954813,0.6945607110209582,-0.14719781650000008,0.041874395499999995,0.1305265114999994
45672.0,0.6764627169999999,0.152395341,9.830970492,0.23609592390502895,0.049967031155345655,0.6599526234103559,9.8553948151266,0.7026915785985054,-0.19397553700000003,-0.015592573499999984,0.047856452000001326
45682.0,0.441887649,0.0661948875,9.792626490499998,0.1836016559927955,0.13763317415376883,0.6695449529793167,9.802814903889198,0.7077732000937969,-0.23457506799999994,-0.0862004535,-0.03834400150000228
45692.0,0.17848102999999998,-0.112188076,9.814201120499998,0.1308420980342589,0.2157052422539792,0.6676809413381867,9.816465009161387,0.7137550319122812,-0.263406619,-0.1783829635,0.021574629999999928
45702.0,0.004903325,-0.31685286149999997,9.784290838,0.09833359538661253,0.24821374490162557,0.6471628506517415,9.789421177015909,0.7000709352654455,-0.17357770499999997,-0.20466478549999997,-0.02991028249999772
45712.0,-0.062174161,-0.46532554249999997,9.762716207999999,0.08714254422282487,0.23355821517262917,0.6111898694388863,9.77399719893273,0.6600729652038281,-0.06707748599999999,-0.148472681,-0.021574630000001704
45722.0,-0.062174161,-0.5000410835,9.7543805555,0.09860063076216766,0.17440377083478537,0.5752186335552831,9.76738689379101,0.6091102002571429,0.0,-0.034715541000000016,-0.008335652499999568
45732.0,0.062370294,-0.4233530805,9.728000667,0.12204912926271147,0.08673762783636219,0.5472392603165621,9.737408015560144,0.5673536939760623,0.124544455,0.076688003,-0.026379888499999282
45742.0,0.3233252505,-0.253403836,9.621500447999999,0.14309954537101507,0.004134684997974566,0.537114605325743,9.630266018785493,0.5558656984916881,0.2609549565,0.16994924449999999,-0.10650021900000084
45752.0,0.6334115235,-0.033146477,9.513725364499999,0.1620189144626336,-0.05581912013728264,0.5523024604765976,9.534845523560973,0.5782766731116293,0.31008627299999997,0.22025735899999999,-0.10777508349999998
45762.0,0.863181333,0.208685512,9.43595863,0.1798718873812836,-0.07074168524183418,0.5976007358828584,9.477655138462776,0.6280803463162128,0.22976980950000003,0.241831989,-0.07776673449999905
45772.0,0.9745848769999998,0.39903258849999995,9.4191892585,0.2046520721010991,-0.059548888748794535,0.668213266760045,9.477877873058075,0.7013825708132623,0.11140354399999985,0.19034707649999996,-0.016769371500000574
45782.0,0.906330593,0.47081726649999994,9.495779195,0.23156504916685167,-0.02944021382264035,0.7465541155650625,9.550545877720138,0.7821969992608652,-0.06825428399999989,0.07178467799999999,0.07658993650000134
45792.0,0.7913966549999999,0.45287109699999994,9.543635647,0.25607994384036403,0.002535963403147761,0.8147685640500089,9.587094568154228,0.8540674339370279,-0.11493393800000007,-0.017946169499999998,0.04785645199999955
45802.0,0.650180895,0.39540412799999997,9.608359537,0.2760639637756991,0.03371277983152247,0.8693921336496754,9.638446587128099,0.912792717801503,-0.1412157599999999,-0.05746696899999998,0.06472388999999978
45812.0,0.46816947099999995,0.41217349949999993,9.694461923999999,0.287789085690597,0.06808529412029879,0.906431511035499,9.71450779211959,0.9534549015638734,-0.18201142400000003,0.016769371499999963,0.08610238699999861
45822.0,0.2550709665,0.41462516199999994,9.781937242,0.29285228585063255,0.08380722002226372,0.9274819271438026,9.794042649965403,0.9762217148958441,-0.21309850449999995,0.002451662500000007,0.08747531800000097
45832.0,0.1126784085,0.32361945,9.878826944,0.29045420345839235,0.06915169029326733,0.9314787311308697,9.884768472840463,0.9781606346230869,-0.142392558,-0.09100571199999996,0.09688970200000036
45842.0,0.055211439499999994,0.24820631149999997,9.877650145999999,0.27979547771646296,0.03424510525338074,0.9157568052289048,9.880922380167446,0.9581590488574687,-0.057466969,-0.0754131385,-0.0011767980000012557
45852.0,0.08031646349999999,0.28890390899999996,9.8106707265,0.26060907324928934,-0.006789330790257942,0.8880444673657388,9.815252228381533,0.9255194001701594,0.025105023999999997,0.04069759749999999,-0.06697941949999908
45862.0,0.17485256949999997,0.35235293449999994,9.651410730499999,0.24728697506881658,-0.047026151365735215,0.8584681178614428,9.659423124613706,0.8946115449375369,0.09453610599999998,0.06344902549999998,-0.15925999600000118
45872.0,0.340094622,0.4600299515,9.4419406865,0.24329017108174958,-0.07926761863782646,0.8251602544163831,9.459256621721101,0.863922975836393,0.16524205250000004,0.10767701700000004,-0.2094700439999979
45882.0,0.500531416,0.6073258345,9.208444349999999,0.2491509867099465,-0.08752826198751562,0.7985143127261857,9.242014050773834,0.8410484637960334,0.16043679399999994,0.14729588300000002,-0.2334963365000018
45892.0,0.6573397495000001,0.752170055,9.049282420499999,0.27206715978863205,-0.07713657162114139,0.7758634296938033,9.104249978108122,0.8257933468205879,0.15680833350000012,0.1448442205,-0.15916192949999974
45902.0,0.7518758555,0.8742628474999998,8.987010193,0.3125692704104125,-0.05928359870249139,0.7617419707159171,9.060684578865361,0.8255088877959974,0.09453610599999995,0.12209279249999982,-0.06227222749999939
45912.0,0.7865913965,0.936535075,9.046830757999999,0.3701249931534295,-0.026241025303734747,0.7633406923107439,9.12912759992147,0.8487462014661764,0.03471554099999996,0.062272227500000166,0.05982056499999899
45922.0,0.699214145,1.044212092,9.220408462999998,0.4159573393108006,0.037709583818589486,0.7910530301739099,9.305654815122313,0.8945431333287492,-0.08737725149999997,0.10767701699999999,0.17357770499999958
45932.0,0.4610106165,1.1220768929999998,9.535299994499999,0.4314122298372104,0.10832211469577607,0.8371506663775842,9.612155498505105,0.9479828219971669,-0.23820352849999998,0.07786480099999982,0.3148915315000007
45942.0,0.179657828,1.089714948,9.887260662999998,0.4170237354837691,0.15308806468017863,0.8981708676858099,9.948752636444604,1.0020257776443877,-0.2813527885,-0.03236194499999989,0.3519606684999985
45952.0,-0.065704555,0.959286503,10.255990702999998,0.3893113976206032,0.14482742133048945,0.9626538022299924,10.300965633541747,1.0484467984759207,-0.245362383,-0.13042844499999995,0.36873004000000087
45962.0,-0.37579082799999997,0.8491578234999999,10.573137764,0.36479650294709076,0.08327489460040545,1.0220752819433914,10.613836720627612,1.0884158573784186,-0.31008627299999997,-0.11012867950000005,0.3171470610000018
45972.0,-0.679796978,0.6875442315,10.832915922499998,0.35653585959740164,-0.03769911184307752,1.060978670970345,10.875978502439256,1.1199173105486917,-0.3040061500000001,-0.16161359199999992,0.25977815849999786
45982.0,-0.9287878214999999,0.5475052694999999,11.040032370499999,0.36959266773157123,-0.21596355098327433,1.0721697221341326,11.092552617823582,1.1544639052198333,-0.2489908434999999,-0.1400389620000001,0.20711644800000073
45992.0,-0.9767423399999999,0.46483520999999994,11.178894534500001,0.3887773268694929,-0.42513602584703875,1.0543167492154826,11.231107709601863,1.2014459030839073,-0.04795451849999999,-0.08267005949999995,0.1388621640000025
46002.0,-0.8725957169999999,0.5031792115,11.196840704,0.3893113976206032,-0.6079295943961609,1.0170120817833557,11.242057389773622,1.2471789488895741,0.104146623,0.03834400150000006,0.017946169499998277
46012.0,-0.6236048734999999,0.6803853769999999,11.0712175175,0.3562688242218465,-0.7123823141402654,0.9749112495667486,11.10962036341869,1.2589153987238602,0.2489908435,0.1772061654999999,-0.12562318650000037
46022.0,-0.351862602,0.9149604449999998,10.830562326499999,0.29311757589693566,-0.7099842317480253,0.9416033861216888,10.874835181040762,1.215159437846063,0.2717422714999999,0.23457506799999994,-0.2406551910000001
46032.0,-0.16269232349999999,1.154438838,10.592358798,0.21264568007523313,-0.6153908769484367,0.930145299582346,10.656325010451615,1.135382928804708,0.18917027850000004,0.23947839300000007,-0.2382035284999997
46042.0,-0.11356100699999999,1.2992830585,10.3576856635,0.13270785500464086,-0.4776285484300202,0.9413380960753857,10.439477231753006,1.0638880656244496,0.049131316499999994,0.1448442205,-0.2346731344999995
46052.0,-0.171027976,1.2884957435,10.186559620999999,0.07621678310534039,-0.33507180045637536,0.963987233778516,10.269151316529518,1.0234029003163705,-0.05746696900000001,-0.010787314999999964,-0.17112604250000096
46062.0,-0.342252085,1.1508103774999998,10.1397819005,0.05436700619962337,-0.21303139783992386,0.9877027676546151,10.210615946374435,1.0118769218938282,-0.17122410899999999,-0.13768536600000014,-0.04677772049999973
46072.0,-0.48709630549999994,1.0023376965,10.119482135,0.06102892795448572,-0.14828142792018625,1.0020912620080562,10.180661194109193,1.0148393022080993,-0.14484422049999995,-0.14847268099999988,-0.020299765499999012
46082.0,-0.562509444,0.912606849,10.131446248,0.09060702278803362,-0.15334462808022178,1.0082191130118083,10.188006243203043,1.0238310345862203,-0.07541313850000009,-0.08973084749999993,0.011964112999999443
46092.0,-0.561332646,1.0921666104999999,10.1793027,0.144965302341397,-0.2242241943329635,1.009552544560332,10.253103223062942,1.044264223477679,0.0011767980000000344,0.17955976149999986,0.04785645199999955
46102.0,-0.536227622,1.2800620245,10.2751136705,0.21504376246747334,-0.31881754913255217,1.0180784779563243,10.368416455315575,1.0882886734175452,0.02510502400000003,0.1878954140000002,0.09581097050000054
46112.0,-0.5026888789999999,1.4285347055,10.362490922,0.269936112771947,-0.42540306122259386,1.027405517478982,10.4725653792383,1.144288148510784,0.03353874300000004,0.14847268099999988,0.08737725149999953
46122.0,-0.398542256,1.4763911574999997,10.454673431999998,0.29871310147882946,-0.5482410793072068,1.031402321466049,10.565924632966505,1.205648600032608,0.10414662299999994,0.04785645199999977,0.09218250999999889
46132.0,-0.247715979,1.5135583609999999,10.490565770999998,0.3107052587692825,-0.6772104390540757,1.0231416781163598,10.602084338189435,1.2656897843031925,0.15082627699999998,0.037167203500000134,0.035892339000000106
46142.0,-0.05374044199999999,1.5817145784999997,10.5624485155,0.33788352588133824,-0.8229646302173742,1.0010248658350878,10.680357095412772,1.3392112759646926,0.193975537,0.0681562174999999,0.07188274450000165
46152.0,0.282627653,1.676348751,10.493017433499999,0.3781203464568155,-0.945537358255684,0.983704218338296,10.629837175843967,1.4158707149448067,0.336368095,0.09463417250000017,-0.06943108200000125
46162.0,0.6141904895,1.7853006324999998,10.3445447525,0.39224180543470166,-0.9903033082400866,0.9746459595204454,10.515423645401665,1.4437759599922226,0.3315628365,0.1089518814999999,-0.14847268099999944
46172.0,0.7734504855,1.8283518259999998,10.133799844,0.36159905975743717,-0.9596605625628221,0.9647865945759294,10.32642219412959,1.4080182699202712,0.15925999599999996,0.04305119349999997,-0.21074490849999883
46182.0,1.0367590379999998,1.9097470209999998,9.985425229499999,0.3128363057859676,-0.8637337762147098,0.9850376498868196,10.21913499279798,1.3469230720744532,0.26330855249999985,0.08139519500000003,-0.14837461450000156
46192.0,1.243875486,1.7745133174999999,9.829793694,0.2827258855305615,-0.7368972088137778,1.013549348547399,10.065831699629134,1.284614224056169,0.20711644800000029,-0.13523370349999997,-0.15563153549999953
46202.0,1.3659682784999998,1.5889714995,9.76153941,0.2670039596285965,-0.5844810958956171,1.0537844237936242,9.983904617787305,1.2342491149467159,0.12209279249999971,-0.18554181799999991,-0.068254284
46212.0,1.310952972,1.3901907039999999,9.762716207999999,0.24701993969326144,-0.4312656221800429,1.0961522913857868,9.947957360495144,1.203560855707227,-0.05501530649999986,-0.19878079550000005,0.0011767979999994793
46222.0,1.1481625819999999,1.1604208945,9.844111403,0.21424440167005993,-0.30229626243317387,1.1275943978604643,9.978546150706109,1.1869089350132684,-0.16279039000000006,-0.2297698094999998,0.0813951950000007
46232.0,0.89436648,0.8898554209999999,9.944727632000001,0.18120357360055528,-0.21916099417292798,1.1398518451972208,10.024437228368235,1.1747887067264424,-0.2537961019999999,-0.27056547350000015,0.10061622900000167
46242.0,0.662145008,0.6611643429999999,10.006999859499999,0.15056082792329084,-0.18931760929307692,1.1235975938733973,10.050652739404885,1.1493394942537565,-0.23222147199999998,-0.228691078,0.06227222749999761
46252.0,0.5639804414999999,0.5007275489999999,10.073979279,0.12737761946905016,-0.20263970747354965,1.0814967616567903,10.102171080042321,1.1076656329690346,-0.09816456650000005,-0.160436794,0.06697941950000086
46262.0,0.5663340375,0.565451439,10.064368762,0.12364785085753828,-0.22475651975482178,1.0212759211459779,10.096137288558415,1.0529999009052913,0.002353596000000069,0.06472389,-0.009610516999998708
46272.0,0.6130136915,0.7749214830000001,10.0105302535,0.12711232942274703,-0.2234248335355501,0.9631878729811026,10.059175167329585,0.9968987306590003,0.04667965399999996,0.20947004400000013,-0.05383850850000016
46282.0,0.6764627169999999,1.032247979,9.949532890499999,0.11965104687047126,-0.17572673040779707,0.9154897698533496,10.02578388141206,0.939849868597721,0.06344902549999998,0.257326496,-0.060997363000002025
46292.0,0.8332710504999999,1.112466376,9.9303118565,0.09540318757251404,-0.06994232444442075,0.8792514985941914,10.027114023919166,0.8871735426216317,0.1568083335,0.08021839699999989,-0.019221033999999193
46302.0,0.966151158,1.190331177,9.9842484315,0.047706829774013006,0.08327489460040545,0.860599164878128,10.1012649263819,0.8659339306591044,0.1328801075,0.07786480100000004,0.05393657499999982
46312.0,0.9649743599999999,1.354298365,10.085943392,-0.02530378349541379,0.25407630585907454,0.868859808227817,10.222111018939659,0.9056005835973472,-0.0011767980000000344,0.16396718799999999,0.10169496050000149
46322.0,0.7997323074999999,1.4512861335,10.2068593865,-0.10924015788232509,0.4142207367050662,0.9112276758199794,10.340492335509554,1.0069002472891369,-0.16524205250000001,0.09698776850000002,0.1209159944999989
46332.0,0.4872924384999999,1.4848248764999998,10.3206165265,-0.19051141450144105,0.5186734564491708,0.975710610364162,10.438260598469338,1.1213063580741327,-0.312439869,0.033538742999999815,0.11375714000000059
46342.0,0.022849494499999998,1.4261811094999999,10.375631832999998,-0.253929698201907,0.5493179474556873,1.0324669723097655,10.473215866698082,1.196753336296304,-0.4644429439999999,-0.05864376699999996,0.05501530649999786
46352.0,-0.44404511199999996,1.2513285399999998,10.366119382499999,-0.2907020402121755,0.5096134523020682,1.056981866983278,10.450810027397484,1.208893797685392,-0.4668946065,-0.17485256950000005,-0.009512450499999048
46362.0,-0.7264766319999999,0.9760558744999999,10.3349342355,-0.29762925201334106,0.4267434740881256,1.0468572119924588,10.406311499234395,1.1690180437578572,-0.28243151999999994,-0.27527266549999996,-0.031185146999998636
46372.0,-0.9048595955,0.7940444504999999,10.169790249499998,-0.26671947096052145,0.3342811663052219,1.0010248658350878,10.240796414135158,1.088546717580828,-0.17838296350000005,-0.18201142399999992,-0.16514398600000213
46382.0,-0.9635033625,0.6995083445,10.0464225925,-0.21156183060974468,0.25407630585907454,0.9386729783075902,10.116731565118666,0.9951985417869049,-0.05864376700000007,-0.09453610599999995,-0.12336765699999752
46392.0,-0.9324162819999999,0.5762387539999999,9.900401574,-0.16093331966789315,0.2082457050309554,0.8773857416238094,9.960893662268052,0.9160084861222247,0.031087080500000086,-0.12326959050000008,-0.14602101850000082
46402.0,-0.922805765,0.530735898,9.784290838,-0.11963184824869932,0.20185081865164822,0.8147685640500089,9.842032222865045,0.8478816810557083,0.00961051699999993,-0.045502855999999925,-0.11611073599999955
46412.0,-0.977919138,0.636059319,9.755557353499999,-0.07726398065653697,0.19598825769419925,0.7526819665688146,9.825059621965726,0.7816081260189147,-0.055113372999999966,0.10532342100000003,-0.028733484500001794
46422.0,-0.9707602834999999,0.7952212484999999,9.8153779185,-0.012248720690496205,0.18719528892265183,0.6921940906824471,9.895271398252008,0.717164392959584,0.007158854500000089,0.15916192949999985,0.05982056500000077
46432.0,-1.0892246155,1.1064843195,9.902755169999999,0.06662445353637954,0.1784005748218524,0.6426337212428161,10.023735719245206,0.670256430468353,-0.11846433200000017,0.31126307100000017,0.08737725149999953
46442.0,-1.1551253035,1.3446878479999997,10.047697457,0.13963506680580634,0.16854295520658844,0.6093258577977564,10.20287822443986,0.6474431871698116,-0.06590068799999993,0.2382035284999997,0.144942287000001
46452.0,-1.164637754,1.3327237349999999,10.172143845499999,0.16681507924711403,0.16587783743879306,0.5840116023268306,10.324971867536396,0.6296128010689932,-0.009512450499999936,-0.011964112999999887,0.12444638849999912
46462.0,-1.1251169545,1.119723297,10.224805556,0.1356382628187393,0.1645444058902694,0.5557669390418063,10.347285493362806,0.595272618538906,0.03952079949999998,-0.2130004379999999,0.05266171050000068
46472.0,-1.094029874,0.9377118729999999,10.210487847,0.06609212811452127,0.18266441418447452,0.5163294792637425,10.31165685017225,0.5516616614962753,0.031087080499999864,-0.18201142400000003,-0.014317709000000178
46482.0,-1.06892485,0.7916908544999999,10.162533328499999,-0.010382963720114265,0.20691227348243177,0.46543567827558785,10.249217452904379,0.5094613483524912,0.025105024000000142,-0.14602101850000004,-0.04795451850000099
