timestamp,ax,ay,az,gx,gy,gz,acc_mag,gyro_mag,dax,day,daz
88992.0,1.4783524874999998,-0.04285506049999999,9.890889123500001,0.199133341006293,0.17047503468854613,-0.15506028673493222,10.000852478007989,0.30456447178669577,0.0,0.0,0.0
89002.0,1.1107992455,-0.14572681899999998,9.0696802525,0.19566886244108428,0.19472289398650336,-0.13454219604848688,9.138611007815559,0.30709104788159564,-0.36755324199999984,-0.1028717585,-0.8212088710000014
89012.0,1.7070435655,-0.11826819899999999,9.291114409499999,0.2175186393468013,0.23975413401720908,-0.09697223857005693,9.447369584801272,0.3379349320430099,0.59624432,0.02745861999999999,0.22143415699999913
89022.0,1.566906537,0.006276256,9.361820355999999,0.2641503463015858,0.31170009644291935,-0.05753477879199307,9.49204487268674,0.41260466107936355,-0.1401370285000001,0.12454445499999998,0.0707059465000004
89032.0,1.4100982035,0.099635564,9.4970540595,0.29958925676333065,0.3404770851498018,-0.02689203311472863,9.601684227165197,0.4543143732319658,-0.1568083334999999,0.093359308,0.13523370350000086
89042.0,1.3705774039999998,-0.014121576,9.6957367885,0.3262351984535281,0.3495370892969044,-0.012768828807590515,9.792139383767799,0.4782976317036104,-0.0395207995000002,-0.11375713999999999,0.19868272899999972
89052.0,1.2843769505,-0.1373911665,9.9387455755,0.3507500931270404,0.3460726107316956,-0.011704177963873973,10.022333266167552,0.4928781467148744,-0.08620045349999983,-0.1232695905,0.24300878700000084
89062.0,1.2066102159999998,-0.1397447625,10.023769231,0.36247521504193836,0.32315818298226207,-0.025560346895456956,10.097097920112693,0.4862847150399781,-0.07776673450000016,-0.0023535960000000133,0.0850236554999988
89072.0,1.1514968429999999,-0.10983448,10.0273976915,0.36833603067013526,0.30290712767137185,-0.04314628443855183,10.09389484074088,0.4788379280558339,-0.055113372999999966,0.02991028250000001,0.003628460499999875
89082.0,1.0594123995,-0.0392266,10.0525027155,0.3622081796663832,0.2943794489461276,-0.06579542214168224,10.10824931447067,0.4713629842847896,-0.09208444349999989,0.07060788,0.025105024000000142
89092.0,0.9552657764999999,0.0612915625,10.0632900305,0.34142479893363475,0.289316248786092,-0.09137671298816312,10.10871384486407,0.45675429808054346,-0.1041466230000001,0.10051816250000001,0.010787314999999964
89102.0,0.907311258,0.2205515585,10.1207569995,0.30731757469116155,0.27785816224674925,-0.10763096431198632,10.163738433852897,0.4280580270476499,-0.047954518499999876,0.159259996,0.057466969000000034
89112.0,0.9049576619999999,0.35460846399999996,10.2129395095,0.2716116288538616,0.26533542486368994,-0.10496584654419097,10.259085191061581,0.39394618104124496,-0.002353596000000069,0.13405690549999996,0.09218251000000066
89122.0,0.9025059995,0.386970409,10.283547389499999,0.2375044046113884,0.2472154165694848,-0.0857811874062693,10.330324781373882,0.3533867803303676,-0.0024516624999999515,0.03236194500000006,0.07060787999999896
89132.0,0.8785777735,0.3390158905,10.319439728499999,0.20606055280745852,0.2221681964741142,-0.06019989655978841,10.36231957566663,0.3089396162580727,-0.023928225999999997,-0.04795451850000004,0.035892339000000106
89142.0,0.8833830319999999,0.25046184099999996,10.324244987,0.18048100729022962,0.20298353733619254,-0.04074820204631162,10.364995478369359,0.27465637875719623,0.004805258499999909,-0.08855404950000001,0.0048052585000011305
89152.0,0.8307213214999999,0.183384355,10.361314123999998,0.16582547756123323,0.1928571370161214,-0.034353315667004385,10.396179976888401,0.25665563427242916,-0.052661710500000014,-0.06707748599999996,0.03706913699999781
89162.0,0.734910351,0.1630845895,10.4200559575,0.15889652043081576,0.17127439548595955,-0.04074820204631162,10.44721283236685,0.23715699172511984,-0.09581097049999987,-0.02029976550000001,0.05874183350000273
89172.0,0.6787182464999999,0.2085874455,10.448789441999999,0.14930419086185492,0.13183693570789567,-0.051939253210099255,10.472887280201334,0.20584072738353756,-0.05619210450000012,0.04550285600000001,0.02873348449999824
89182.0,0.709805327,0.263602752,10.488212174999997,0.13811313969806727,0.08200953089270956,-0.05966757113793014,10.515507816597243,0.17135058085690894,0.031087080500000086,0.0550153065,0.039422732999998544
89192.0,0.7720775544999999,0.2780185275,10.4320200705,0.12932017092651985,0.031648055326413176,-0.05966757113793014,10.46424583059433,0.14589559643768543,0.062272227499999944,0.014415775500000005,-0.05619210449999734
89202.0,0.8067930954999999,0.32469818149999996,10.3757298995,0.12185888837424409,-0.007255333700540428,-0.05380501018048119,10.41211385624428,0.13340617550711198,0.03471554099999996,0.04667965399999996,-0.056290171000000555
89212.0,0.8115983539999999,0.3833419485,10.301493558999999,0.11093487258601158,-0.03336894996887958,-0.046876053050063704,10.34052283416142,0.12496958480867494,0.00480525850000002,0.05864376700000001,-0.07423634050000061
89222.0,0.8642600644999999,0.45159623249999997,10.208134250999999,0.097878064451842,-0.04882384049528938,-0.033553954869590986,10.254603332296039,0.11441044877518375,0.052661710500000014,0.068254284,-0.09335930800000014
89232.0,0.942026799,0.45993188499999993,10.163808192999998,0.08402189552025902,-0.051488958263084715,-0.017566738921322926,10.217727184309028,0.10009686341821568,0.07776673450000005,0.008335652499999957,-0.04432605800000111
89242.0,0.9767423399999999,0.42884480449999995,10.1435084275,0.07016572658867604,-0.04802447969787597,-0.004509930787153348,10.199445900825145,0.08514645802188987,0.03471554099999996,-0.031087080499999975,-0.020299765499997235
89252.0,0.9923349134999999,0.39530606149999997,10.1423316295,0.05551019685967965,-0.0458934326811909,-0.005841617006425021,10.198425679758902,0.07226142544894297,0.015592573499999984,-0.03353874299999998,-0.0011767980000012557
89262.0,1.0270504544999999,0.39412926349999994,10.1087928865,0.045650831915163684,-0.04722511890046257,-0.016767378123909524,10.168474031760553,0.06778904984479067,0.03471554099999996,-0.0011767980000000344,-0.03353874299999937
89272.0,1.102463593,0.3390158905,10.0740773455,0.04138699255254154,-0.052021283684942986,-0.033021629447732716,10.139891129150168,0.07422617543802733,0.07541313850000009,-0.055113372999999966,-0.03471554100000063
89282.0,1.1898408445,0.3270517775,10.042892198499999,0.04458443574219515,-0.05974960161277388,-0.05007524156896931,10.11841725820291,0.08980710785637043,0.08737725149999997,-0.011964112999999998,-0.031185147000000413
89292.0,1.2891822089999998,0.38569554449999993,10.009451521999999,0.05391147526485285,-0.06960896655728985,-0.06606245751723737,10.099498581232504,0.11007317422343887,0.09934136449999986,0.05864376699999996,-0.03344067649999971
89302.0,1.4112750015,0.446790974,10.004646263499998,0.06377084020936881,-0.07946658617255381,-0.0724573438965446,10.113568418815941,0.12502689736001169,0.12209279250000016,0.061095429500000076,-0.0048052585000011305
89312.0,1.5609244805,0.517398854,10.032202949999999,0.06963165583756577,-0.08852659031965637,-0.06206565353017035,10.166084931670273,0.12859887260949307,0.14964947900000003,0.07060787999999996,0.027556686500000538
89322.0,1.6471249339999998,0.6203686789999999,9.9687539245,0.0714974128079477,-0.0933227551041368,-0.03701843343479973,10.12294090930708,0.12325332073588717,0.08620045349999983,0.10296982499999996,-0.06344902549999887
89332.0,1.7117507575,0.67665885,9.977089577,0.06989869121312091,-0.08932595111706979,-0.005309291584566751,10.145455844000661,0.11354796851289907,0.06462582350000012,0.05629017100000011,0.008335652499999568
89342.0,1.7584304114999998,0.6861713005,9.999841005,0.06190508323898687,-0.08346339015962083,0.022403046278599216,10.176430056311364,0.10630274366320017,0.04667965399999985,0.009512450499999936,0.022751428000001184
89352.0,1.8111901885,0.6598894785,9.966302262,0.04431914569589201,-0.07680321373401047,0.04451985855987136,10.15101200867677,0.09922166155269095,0.05275977700000012,-0.026281821999999955,-0.03353874300000115
89362.0,1.863851899,0.6288023979999999,9.9591434075,0.029396580591340492,-0.07174001357397493,0.05944242366442288,10.15154538818042,0.09769437153264267,0.052661710500000014,-0.031087080500000086,-0.007158854500000089
89372.0,1.921318868,0.664694737,9.917269011999998,0.022734658836478135,-0.07493745676362852,0.07649603578565947,10.123512727423408,0.10947205410301133,0.057466969000000034,0.035892339000000106,-0.041874395500000716
89382.0,1.9919267479999998,0.67665885,9.851368324,0.017139133254584316,-0.08399746091073111,0.10047685970806156,10.073484859957437,0.1320792287415462,0.07060787999999985,0.011964112999999998,-0.06590068799999926
89392.0,2.0804807975,0.680189244,9.8106707265,0.016339772457170915,-0.09438915127710534,0.1295208837904992,10.05188130949742,0.16109611845304156,0.08855404950000012,0.0035303939999999923,-0.04069759749999946
89402.0,2.1942379375,0.6622430745,9.781937242,0.021670007992761597,-0.09945235143714089,0.15110537064991308,10.046867284010178,0.18218999009833264,0.11375714000000015,-0.017946169500000053,-0.028733484500000017
89412.0,2.2588637609999997,0.6790124459999999,9.7532037575,0.030195941388753894,-0.10025171223455429,0.16496153958149604,10.034366294285558,0.1953829834540624,0.06462582349999968,0.016769371499999908,-0.028733484500000017
89422.0,2.3486926749999997,0.7663896975,9.7496733635,0.03872362011399819,-0.09465618665266047,0.18281451250014608,10.057824871460737,0.20947662973950723,0.08982891399999993,0.08737725150000009,-0.0035303940000002143
89432.0,2.4037079814999998,0.86102387,9.748398499,0.04245338872551007,-0.09172403350931,0.21852045833744604,10.077224194208544,0.24076291086773266,0.05501530650000008,0.09463417250000006,-0.0012748644999991399
89442.0,2.4503876355,0.9399674025,9.731727194,0.04165402792809667,-0.09039234729003832,0.26008721980294297,10.079407346685269,0.2784801544025389,0.04667965400000007,0.07894353249999997,-0.016671305000000913
89452.0,2.4827495804999997,1.0118501469999999,9.743691306999999,0.036857863143616255,-0.09119170808745172,0.3061866013358692,10.105810530856207,0.3215970530602404,0.03236194499999989,0.07188274449999987,0.011964112999999443
89462.0,2.4731390635,1.04538889,9.708975766,0.026466172777242013,-0.09572083749637701,0.36107720631109086,10.073403852895026,0.374485895528663,-0.009610516999999597,0.03353874300000004,-0.03471554099999885
89472.0,2.4791211200000003,1.047742486,9.653862392999999,0.01287529389196217,-0.09971764148344403,0.4141037996451826,10.022019005548692,0.4261353518500931,0.005982056500000166,0.002353596000000069,-0.055113373000001076
89482.0,2.4635285464999996,1.0405836314999999,9.6012006825,0.006215117466351808,-0.10078403765641256,0.4639312044603687,9.966686597821996,0.47479280997451734,-0.01559257350000065,-0.007158854500000089,-0.052661710499998904
89492.0,2.434795062,1.081281229,9.536574859,0.013674654689375572,-0.09998467685899916,0.5118945976344249,9.901699658717092,0.5217470755785621,-0.028733484499999573,0.04069759750000013,-0.06462582350000012
89502.0,2.3749744969999997,0.9974343714999999,9.45753326,0.02859721979392709,-0.09279042968227852,0.5582592692136543,9.802056649033213,0.5666403413837806,-0.059820565000000325,-0.0838468575000001,-0.07904159899999996
89512.0,2.2983845604999997,0.895739411,9.374961267,0.04511850649330541,-0.07733553915586874,0.599560740632848,9.694061039528979,0.6062091610598809,-0.07658993650000001,-0.10169496049999993,-0.08257199300000018
89522.0,2.2062020505,0.8203262725,9.36535075,0.054710836062266247,-0.05974960161277388,0.6302034863101125,9.656606927462136,0.6353894275426193,-0.09218250999999977,-0.07541313849999998,-0.009610517000000485
89532.0,2.1595223965,0.7197100434999999,9.3366172655,0.05790827925191986,-0.035501742314816655,0.6496569261528413,9.610095810663521,0.6531981814209714,-0.04667965400000007,-0.10061622900000011,-0.028733484500000017
89542.0,2.0469420544999997,0.6215454770000001,9.340245726,0.057108918454506455,-0.013117894657989381,0.6600486165192155,9.582091670221125,0.6626444626617143,-0.11258034200000022,-0.09816456649999983,0.003628460499999875
89552.0,1.9260260599999999,0.5653533725,9.4025179535,0.062172118614542006,0.0036686820876920805,0.6640454205062825,9.61439258016262,0.6669596330038623,-0.12091599449999979,-0.05619210450000012,0.062272227500001165
89562.0,1.8362952124999998,0.529362967,9.4515512035,0.06989869121312091,0.01992293341151527,0.6640454205062825,9.64282248154884,0.668011280446964,-0.08973084750000004,-0.03599040549999999,0.04903324999999903
89572.0,1.7884387604999998,0.5281861689999999,9.481461486,0.06563485185049876,0.035644859313480194,0.6677751891177944,9.663105388004572,0.6719391289203367,-0.047856451999999994,-0.0011767980000000344,0.029910282500001273
89582.0,1.717732814,0.5796710815,9.5186286895,0.053644439889297714,0.047102945852822965,0.674969436294515,9.689732540766656,0.6787342288191939,-0.07070594649999973,0.05148491250000009,0.037167203499999246
89592.0,1.6949813859999998,0.559371316,9.5113717685,0.04298571414736834,0.06042504403329568,0.6850958366145863,9.67739898354247,0.6890974262858808,-0.022751428000000296,-0.02029976550000001,-0.00725692099999975
89602.0,1.6183914495,0.537796686,9.5341231965,0.04058763175512813,0.06681993041260291,0.7013500879384093,9.685448945987309,0.7056941297779438,-0.07658993649999979,-0.02157463000000004,0.022751427999999407
89612.0,1.542978311,0.4994526845,9.556874624499999,0.055777232235234786,0.04843463207209464,0.7122741037266418,9.69350749938755,0.7160945552504735,-0.07541313850000009,-0.03834400149999995,0.022751427999999407
89622.0,1.4759988915,0.4778780545,9.608359537,0.0877516641317709,0.021788690381897208,0.7229328294685712,9.732806026780807,0.7285650125485628,-0.06697941949999997,-0.02157463000000004,0.0514849125000012
89632.0,1.3718522684999999,0.505434741,9.651508797,0.11759504901162195,-0.004857251308300219,0.7359896376027408,9.7616118024928,0.7453408180831984,-0.1041466230000001,0.027556686499999983,0.043149259999999856
89642.0,1.2677056455,0.527009371,9.807140332500001,0.14104354751216577,-0.03390302071998985,0.7490464457369104,9.902768197938524,0.7629634820748991,-0.10414662299999988,0.02157463000000004,0.1556315355000013
89652.0,1.2222027895,0.4396321195,9.8538199865,0.15410035564633534,-0.06401169564614403,0.7607715676518083,9.939055507718251,0.7788567229838949,-0.045502855999999925,-0.08737725150000003,0.046679653999998294
89662.0,1.124038223,0.3509800035,9.899322842499998,0.155433787194859,-0.09225810426042025,0.7509122027072923,9.969114385423817,0.7723602502577285,-0.09816456650000016,-0.08865211599999995,0.045502855999998815
89672.0,1.0401913655,0.2876290445,9.849014728,0.1538350656000322,-0.11757061440209401,0.7189360254815043,9.907967483619517,0.7445516003032928,-0.08384685749999998,-0.06335095900000004,-0.05030811449999817
89682.0,1.06892485,0.26840801049999996,9.766442735,0.151436983207792,-0.13435893647702749,0.6795003110326923,9.828430540583902,0.7090177405311101,0.028733484500000017,-0.019221034000000026,-0.08257199300000018
89692.0,1.113250908,0.29478789899999996,9.697011653,0.1490389008155518,-0.14128614827819297,0.6477911691824593,9.765155528099768,0.6795643961556351,0.044326058,0.026379888500000004,-0.06943108199999948
89702.0,1.122861425,0.340290755,9.627580571,0.1477054692670281,-0.14235254445116152,0.6299381962638093,9.698810402765288,0.6624977612605302,0.00961051700000004,0.045502856000000036,-0.06943108200000125
89712.0,1.1300202794999998,0.4311984005,9.603554278499999,0.13491569650841367,-0.13968742668336617,0.6182130743489115,9.679417992460634,0.6479986324319704,0.007158854499999867,0.09090764550000002,-0.024026292500000324
89722.0,1.0749069064999999,0.5222041125,9.629934166999998,0.11759504901162195,-0.12503189695436978,0.6134169095644311,9.703801010609569,0.6369787090222336,-0.055113372999999966,0.09100571199999996,0.026379888499999282
89732.0,0.9636014289999999,0.6000689135,9.686224338,0.10453824087745237,-0.09385682585524707,0.6078213839825373,9.752515180248809,0.6238462810595423,-0.11130547749999997,0.07786480100000004,0.05629017100000233
89742.0,0.8714189189999999,0.594086857,9.779583645999999,0.09148317807253478,-0.07360577054435685,0.605423301590297,9.836288243802228,0.6167044311792931,-0.09218251,-0.005982056500000055,0.09335930799999836
89752.0,0.846313895,0.561724912,9.801158275999999,0.07282909902721937,-0.07840193532883727,0.6131498741888759,9.853653415704997,0.6224176325798122,-0.02510502399999992,-0.032361945,0.021574629999999928
89762.0,0.8318981194999999,0.467188806,9.676613820999998,0.06536956180419562,-0.10211746920493624,0.6195465058974351,9.72353716002811,0.6312994773457478,-0.014415775500000061,-0.09453610599999995,-0.12454445500000055
89772.0,0.8762241774999999,0.35460846399999996,9.481461486,0.0776270091409518,-0.11517253200985382,0.6078213839825373,9.528464088323854,0.6234881711020485,0.044326058,-0.11258034200000006,-0.19515233499999773
89782.0,0.825916063,0.2672312125,9.4395870905,0.10560463705042089,-0.10558020244089297,0.5587915946355124,9.479417403152468,0.5784008685585715,-0.050308114499999945,-0.08737725149999997,-0.041874395500000716
89792.0,0.8103234894999999,0.3270517775,9.4754794295,0.14077825746586264,-0.08346339015962083,0.4817841773790187,9.515686913811267,0.5088228069228418,-0.015592573500000095,0.05982056499999999,0.035892339000000106
89802.0,0.8965239429999999,0.5653533725,9.516177027,0.1684905953290286,-0.052021283684942986,0.41836589367855276,9.575019834202534,0.45401025942594503,0.08620045350000005,0.23830159499999998,0.04069759749999946
89812.0,0.9959633739999999,0.8466080945,9.592865029999999,0.18580949749656833,-0.007789404451650692,0.4013122815573162,9.681515779660707,0.4423091582935823,0.09943943099999997,0.281254722,0.07668800299999923
89822.0,1.0617659955,1.0201857994999999,9.665826505999998,0.18527717207471006,0.037508870954610134,0.432756133361246,9.777337476981844,0.4722419050169816,0.06580262150000016,0.17357770499999992,0.07296147599999969
89832.0,1.007927487,0.992629113,9.7963530175,0.1599629166037843,0.06335719717664616,0.47725504797009344,9.897967610499979,0.5073210521310996,-0.05383850850000016,-0.027556686499999872,0.13052651150000116
89842.0,0.9205502354999999,0.874164781,9.847837929999999,0.1165303981679054,0.05856103239216574,0.5047003504577043,9.929324684789322,0.5212784015899148,-0.08737725149999997,-0.11846433200000006,0.051484912499999425
89852.0,0.8164036125,0.7843358669999999,9.791547759,0.0768276483435384,0.03138101995085805,0.5023022680654641,9.856779652987258,0.5091117995753623,-0.10414662299999988,-0.08982891400000004,-0.05629017099999878
89862.0,0.7385388115,0.7185332455,9.650233932499999,0.05391147526485285,0.0031363566658338103,0.48071952653530214,9.705088590680406,0.4837432656799402,-0.07786480100000004,-0.06580262149999994,-0.14131382650000113
89872.0,0.7624670375,0.692153357,9.401243089,0.05391147526485285,-0.003258529713473413,0.4615331220681285,9.457473440160994,0.4646825668637467,0.023928225999999997,-0.02637988849999995,-0.24899084349999967
89882.0,0.6918591574999999,0.6730303894999999,9.1510754475,0.07416253057574305,0.02152165500634208,0.4522078278747228,9.20183790581232,0.45875394512394657,-0.07060788000000007,-0.019122967500000088,-0.25016764149999915
89892.0,0.661948875,0.6035993075,9.088803219999999,0.12132656295238582,0.07001737360225652,0.4428807883520651,9.132844705184173,0.46450614654204947,-0.02991028249999994,-0.06943108199999992,-0.062272227500001165
89902.0,0.5996766475,0.5150452579999999,9.269637845999998,0.17142100314312705,0.12331100231190337,0.41516845048889917,9.303282726830385,0.46578493523418696,-0.062272227499999944,-0.08855404950000012,0.18083462599999933
89912.0,0.4260989425,0.594086857,9.5904133675,0.22151544333386833,0.14675950081244718,0.37440104982081557,9.618239343142925,0.45911173892751617,-0.17357770500000003,0.07904159900000007,0.32077552150000166
89922.0,0.4260989425,0.7185332455,9.844209469499999,0.24150120859845536,0.13769949666534462,0.33096678605568475,9.879590599467258,0.4322302610975235,0.0,0.1244463885,0.253796101999999
89932.0,0.465619742,0.8705363205,9.962771867999999,0.22950905130800234,0.11691611593259615,0.3040538089899321,10.011566237270872,0.39848776839239325,0.03952079949999998,0.152003075,0.11856239849999994
89942.0,0.47395539449999996,0.9675240889999999,9.979443173,0.20845863519969873,0.07881208770305595,0.29925764420545176,10.037431076819768,0.37312395443449087,0.008335652499999957,0.0969877684999999,0.016671305000000913
89952.0,0.5410328805,0.9675240889999999,9.9579666095,0.17301972473795385,0.02738421596379103,0.31098276612034964,10.019476954237398,0.3569257643491332,0.06707748600000002,0.0,-0.021476563500000267
89962.0,0.573296759,0.837095644,9.887260662999998,0.10267422923632241,-0.021910863429536815,0.331499111477543,9.939181138765449,0.347726536513826,0.03226387850000001,-0.13042844499999984,-0.07070594650000217
89972.0,0.5553505894999999,0.7604076409999999,9.5915901655,0.019004890224966254,-0.04855680511973424,0.34642167658209455,9.637698685924223,0.3503240316932999,-0.017946169500000053,-0.07668800300000012,-0.29567049749999796
89982.0,0.547014937,0.7891411254999999,9.119988367,-0.04228234645881463,-0.017114698645056395,0.34988615514730326,9.17039567693084,0.35284703668238043,-0.008335652499999902,0.028733484500000017,-0.47160179850000006
89992.0,0.525440307,0.793946384,8.83383032,-0.038018507096192485,0.056162949999925535,0.34668871195764966,8.884987141208379,0.35326016876145483,-0.02157463000000004,0.00480525850000002,-0.2861580469999989
90002.0,0.499158485,0.7329490209999999,8.7907791265,0.04058763175512813,0.14116397523055338,0.3386951039835156,8.8353930932042,0.3691733972224795,-0.02628182200000001,-0.06099736300000003,-0.043051193500000196
90012.0,0.362649917,0.700587076,9.015841744,0.1700893169238554,0.17980032888195185,0.32164149186227897,9.050289474166629,0.40584699491935905,-0.136508568,-0.03236194499999989,0.225062617499999
90022.0,0.2070183815,0.573689025,9.261204127,0.30465245692336623,0.15715119117882143,0.28966531463649087,9.281264870137376,0.4487935058596807,-0.1556315355,-0.12689805100000007,0.2453623829999998
90032.0,0.198682729,0.571335429,9.2995481285,0.39418435689217135,0.10705675098808018,0.24729744704432854,9.319200308691801,0.4774918663864977,-0.008335652499999985,-0.002353595999999958,0.0383440015000005
90042.0,0.201036325,0.6670483329999999,9.170198415,0.4197639024094002,0.09133482508611526,0.20439725403030792,9.196624818540554,0.4757331410513776,0.0023535959999999856,0.09571290399999988,-0.1293497134999999
90052.0,0.18073655949999998,0.7304973585,8.9643568315,0.39151923912437603,0.13743246128978948,0.18441323409497287,8.995887143421493,0.4540740434445324,-0.02029976550000001,0.06344902550000009,-0.20584158349999981
90062.0,0.1352337035,0.7723717539999999,8.796761183,0.3222383944664611,0.23255988684048842,0.17268811218007493,8.831639349049242,0.4332930508603865,-0.04550285599999998,0.04187439549999994,-0.16759564850000075
90072.0,0.1113054775,0.8226798685,8.820689409,0.24682969880479408,0.36259389743107395,0.14923961367953115,8.85967001221837,0.46332677125063393,-0.023928225999999997,0.050308114500000056,0.023928226000000663
90082.0,-0.06707748599999999,0.9866470565,9.191773045,0.20472886658818684,0.4747749351030095,0.12072791501895176,9.244818197997015,0.5309429133921779,-0.1783829635,0.16396718799999999,0.37108363599999983
90092.0,-0.2789991925,1.084811623,9.628757368999999,0.19566886244108428,0.5174080927414749,0.09648005572099454,9.693689972238813,0.5615210052306903,-0.2119217065,0.09816456650000005,0.4369843239999991
90102.0,-0.3951099285,1.142278592,9.9256046645,0.2004650272255647,0.4963576766331714,0.08049283977272649,9.998926952092656,0.5413282438113719,-0.11611073599999999,0.057466969000000034,0.296847295500001
90112.0,-0.469346269,1.2045508194999999,10.111146482499999,0.21538759233011623,0.4396013146875678,0.07542963961269093,10.193454359909326,0.495308753543588,-0.0742363405,0.06227222749999983,0.18554181799999903
90122.0,-0.4633642125,1.2070024819999998,10.167436653500001,0.24363225561514046,0.3815132665226925,0.07303155722045072,10.249308732198246,0.45852225339560143,0.005982056499999999,0.0024516624999999515,0.05629017100000233
90132.0,-0.5160259229999999,1.2273022475,10.261972759499999,0.28333500543950746,0.3151628296788761,0.06397155307334816,10.347977506578113,0.4286008564168044,-0.05266171049999996,0.020299765500000122,0.09453610599999784
90142.0,-0.5196543835,1.2105328759999998,10.400834923499998,0.33236479478653214,0.22829604747786628,0.04105537999466261,10.483930447502253,0.40530357305853587,-0.003628460500000097,-0.01676937150000013,0.13886216399999896
90152.0,-0.4872924384999999,1.2943797334999998,10.4679124095,0.3800611525850332,0.1187801275737261,0.01547583447743372,10.558885501229707,0.3984905266922508,0.032361945000000114,0.08384685749999998,0.0670774860000023
90162.0,-0.36637644399999997,1.4500112689999998,10.382888753999998,0.41736582001716,0.018856537238546738,0.005084144111059482,10.490049726139752,0.4178225044639974,0.12091599449999996,0.15563153549999997,-0.08502365550000235
90172.0,-0.228691078,1.5840681745,10.2249036225,0.4322883851217115,-0.020312141834710005,0.009080948098126497,10.349407020696122,0.43286059492105705,0.13768536599999998,0.13405690550000027,-0.1579851314999985
90182.0,-0.101793027,1.6068196024999999,10.0812362,0.39951284709851,0.018591247192243598,0.019737928510803873,10.208993798387503,0.40043193590274256,0.126898051,0.02275142799999985,-0.14366742250000009
90192.0,-0.08865211599999999,1.6702686279999999,10.163808192999998,0.3318307240354219,0.11132059035070233,0.0285326426116033,10.300517145825552,0.3511666483940391,0.013140911000000005,0.06344902549999998,0.0825719929999984
90202.0,-0.112580342,1.6438887395,10.384065552,0.24869545577517602,0.19765330180060184,0.030930725003843508,10.513984112100074,0.31917544890728317,-0.02392822600000001,-0.02637988849999995,0.22025735900000143
90212.0,-0.10542148749999998,1.6606581109999998,10.570882234499999,0.1660925129367884,0.23735605162496887,0.03306177202052859,10.701049026489155,0.29157794646678875,0.00715885450000002,0.016769371499999908,0.18681668249999994
90222.0,-0.10542148749999998,1.6845863369999998,10.6642415425,0.10373888008003897,0.22883011822897656,0.03519281903721366,10.796989973766603,0.25369965069099754,0.0,0.023928225999999997,0.09335930800000014
90232.0,-0.008433719,1.6068196024999999,10.657082688,0.0722967736053611,0.1997860941465389,0.040790089948359476,10.777539226626072,0.216344952162212,0.09698776849999999,-0.07776673449999993,-0.007158854500000089
90242.0,0.07776673449999999,1.6355530870000001,10.593633662499998,0.0597740362223018,0.1750041640974714,0.04984834876621005,10.719428890600616,0.19153133094216587,0.0862004535,0.02873348450000024,-0.06344902550000064
90252.0,0.10404855649999999,1.716948282,10.534891829,0.06616892260160902,0.15182270097248274,0.06477091387076156,10.674393816695327,0.17783062203257136,0.026281821999999996,0.08139519499999981,-0.058741833499999174
90262.0,0.11483587149999999,1.708514563,10.5049815465,0.07789229918725493,0.1273078062989704,0.09141685556095899,10.643629389530235,0.17501865414288342,0.010787315000000006,-0.008433718999999895,-0.029910282499999497
90272.0,0.16632078399999997,1.60436794,10.472717668,0.08402189552025902,0.11211995114811574,0.11380070321778626,10.59620094391049,0.18050252747575546,0.05148491249999998,-0.1041466230000001,-0.03226387850000023
90282.0,0.1460210185,1.5636703425,10.532538232999999,0.07576125217056985,0.10545802939325337,0.12499175438157391,10.648978763593464,0.18023346514269947,-0.020299765499999983,-0.040697597499999905,0.05982056499999899
90292.0,0.12326959049999998,1.521795947,10.572059032499999,0.049115310480372425,0.09986250381135955,0.12925559374419607,10.681736304689068,0.17056330761691343,-0.022751428000000004,-0.04187439550000005,0.03952079949999998
90302.0,0.072961476,1.4714878324999998,10.591182,0.009145525280450288,0.09026842891314672,0.13378472315312134,10.693163048195778,0.1616489469197387,-0.05030811449999999,-0.05030811450000017,0.01912296750000131
90312.0,0.028635417999999996,1.4822751475,10.622367147,-0.03615275012581055,0.0753476091378472,0.13698216634277494,10.72532719341117,0.16046307189010423,-0.044326058,0.010787315000000186,0.031185147000000413
90322.0,-0.0155925735,1.3661644114999998,10.643843710499999,-0.08544957484839039,0.04923399286950804,0.1359157701698064,10.731172222136212,0.16792472264826605,-0.044227991499999994,-0.11611073600000021,0.02147656349999849
90332.0,-0.052759777,1.256035732,10.684541308,-0.1344776188661631,-0.009121090670922365,0.12365832283305024,10.75824485297152,0.18291748160529406,-0.0371672035,-0.11012867949999983,0.04069759750000124
90342.0,-0.030008348999999997,1.1914099084999998,10.649825767,-0.1712499608764316,-0.08452978633258938,0.1055400598680971,10.716302857727511,0.21819839164066743,0.022751428000000004,-0.06462582350000012,-0.03471554100000063
90352.0,0.05138684599999999,1.11599677,10.5851999435,-0.1928327024065935,-0.14981382700343726,0.0868877261520337,10.643991133144777,0.259187404853547,0.08139519499999999,-0.07541313849999987,-0.06462582350000012
90362.0,0.06815621749999999,1.082458027,10.394852866999999,-0.21201910687376715,-0.19964123181862337,0.06823539243597031,10.451283499014785,0.29910665639951595,0.016769371499999998,-0.03353874300000004,-0.19034707650000016
