timestamp,ax,ay,az,gx,gy,gz,acc_mag,gyro_mag,dax,day,daz
97112.0,1.3977418244999997,-0.8138538834999999,8.555517593,-0.12086754135911132,-0.447528600150126,-0.47950826803441815,8.707061595956302,0.6669475163908292,0.0,0.0,0.0
97122.0,1.7940285509999998,-1.1610092934999998,8.741059411,-0.0523860574986098,-0.3454739627982616,-0.49336443696600113,8.998477685032519,0.6045701164088095,0.3962867265000001,-0.34715540999999994,0.1855418180000008
97132.0,2.0214447645,-1.0472521535,9.018783739,0.0416749718791206,-0.09553059660790962,-0.4645857029298666,9.301689961495473,0.4761331468572913,0.22741621350000019,0.11375713999999992,0.2777243279999997
97142.0,2.0237983605,-0.6856809679999999,9.333675270499999,0.11495087519485053,0.12350124320037076,-0.40143445460495575,9.57514554714356,0.43544905801261935,0.002353595999999847,0.3615711855,0.31489153149999893
97152.0,2.117255735,-0.461893215,9.743102908,0.15332193879994588,0.2801811954811537,-0.3316212845251826,9.981190884124572,0.4604148081553795,0.09345737450000025,0.22378775299999987,0.40942763750000033
97162.0,2.3338846335,-0.44865423749999994,10.287764249,0.16717810773152886,0.38996240543159705,-0.26367212608653934,10.558712106612088,0.49954197764521036,0.21662889849999978,0.013238977500000082,0.5446613410000012
97172.0,2.546983138,-0.3911872685,10.827620331499999,0.17517171570566287,0.425668351268897,-0.21171367425466817,11.130027521412737,0.506657038954023,0.2130985045,0.05746696899999992,0.5398560824999983
97182.0,2.834317983,-0.2835102515,11.259799396999998,0.18662980224500564,0.3731758286859156,-0.1848006971889156,11.614508984547918,0.456335600060897,0.28733484500000017,0.10767701700000004,0.43217906549999974
97192.0,3.205401619,-0.1817172245,11.5519395005,0.2058144613829273,0.22075971576775477,-0.1661483634728522,11.989784272954205,0.34452826198283265,0.37108363599999983,0.10179302699999998,0.2921401035000013
97202.0,3.611200796,0.012160246,11.632059831,0.22926470521272313,0.01132020552843522,-0.14136643342378472,12.179726391531855,0.2695828640853202,0.405799177,0.19387747049999998,0.08012033049999978
97212.0,4.070936548,0.219276694,11.5446825795,0.23725831318685717,-0.19891866550829773,-0.09739984423679554,12.243377904311558,0.32457182921693445,0.45973575199999983,0.207116448,-0.08737725149999953
97222.0,4.444373779999999,0.40599530999999994,11.341194591999999,0.2273989482423412,-0.37211990448845905,-0.030251791924817716,12.187698111690471,0.4371483454079237,0.3734372319999997,0.18671861599999995,-0.20348798750000086
97232.0,4.791529189999999,0.5616268455,11.097009007,0.2087466145262778,-0.46724733003915797,0.0678060414399797,12.100321714468896,0.5162294797477808,0.34715541000000005,0.15563153550000003,-0.24418558499999854
97242.0,5.0177686055,0.7556023824999999,10.83242559,0.15358897417550102,-0.44699627472826775,0.18904708325901778,11.962039161517067,0.5090521017518479,0.22623941550000026,0.19397553699999992,-0.26458341700000076
97252.0,5.077687237,0.9650724264999999,10.6157966915,0.06325771340928248,-0.3457392528445647,0.31215213671918585,11.807176286498208,0.4700809778342898,0.05991863150000043,0.20947004400000002,-0.21662889849999978
97262.0,5.131525745499999,0.9650724264999999,10.484093382,-0.03746523772331028,-0.20584762263871523,0.42673125678336155,11.71239238190115,0.475264613977921,0.05383850849999927,0.0,-0.13170330950000064
97272.0,5.0991638005,0.9040750634999999,10.406228580999999,-0.10861009402235514,-0.09126850257453949,0.524789090148159,11.623614604106304,0.5436264169669058,-0.032361944999999004,-0.06099736300000003,-0.07786480100000048
97282.0,4.972265749499999,0.8765183769999999,10.358372129,-0.12006818056169792,-0.055562556737239484,0.6156526763362358,11.523349526579217,0.6297076969313186,-0.1268980510000013,-0.027556686499999983,-0.04785645199999955
97292.0,4.766424166,0.8549437469999999,10.335620701,-0.06491054021092112,-0.10139315756535858,0.7336962749656203,11.413797940024299,0.7435080191430179,-0.20584158349999893,-0.02157463000000004,-0.022751427999999407
97302.0,4.5533256615,0.795123182,10.288941047,0.024886649804187144,-0.17600249242961216,0.8954394274064389,11.279508115288968,0.9129118198565966,-0.21309850450000045,-0.05982056499999988,-0.04667965400000007
97312.0,4.2899190425,0.7652128994999999,10.2231384255,0.10829069876924018,-0.2282297249662905,1.0830291607400413,11.113123568092814,1.11210064554041,-0.2634066189999995,-0.02991028250000005,-0.0658026214999996
97322.0,3.9319763174999993,0.6969586154999999,10.2458898535,0.16371362916632012,-0.24101949772490494,1.2804765136889078,10.996565280266141,1.3132070106298064,-0.3579427250000009,-0.068254284,0.022751427999999407
97332.0,3.47351543,0.518575652,10.2913927095,0.1924923632024546,-0.24821374490162557,1.4678009569762072,10.874143370879615,1.5010339844086225,-0.45846088749999936,-0.17838296349999994,0.04550285600000059
97342.0,2.9216952344999996,0.3617673185,10.406228580999999,0.20048597117658865,-0.26260398458431883,1.610090669574297,10.814655422899795,1.643638476553889,-0.5518201955000004,-0.1568083335,0.11483587149999863
97352.0,2.360264522,0.219276694,10.530773035999998,0.1916930024050412,-0.2756607927184884,1.6940270439612082,10.79426290295396,1.726980806345338,-0.5614307124999995,-0.1424906245,0.12454445499999878
97362.0,1.9747651105,0.021770763000000002,10.606186174500001,0.16744514310708397,-0.30870162078799307,1.71560978549137,10.788482579859163,1.7511857419191805,-0.3854994115000001,-0.197505931,0.07541313850000364
97372.0,1.703022839,-0.0405014645,10.6732636605,0.13999984061947315,-0.3766490338973843,1.7014883265134841,10.808352525955662,1.7482925886049416,-0.27174227149999997,-0.0622722275,0.06707748599999874
97382.0,1.5473913035,-0.002157463,10.597850522,0.10775662801812991,-0.4749739026377368,1.67803982801294,10.710222228667792,1.7472920086426473,-0.15563153549999997,0.0383440015,-0.07541313850000009
97392.0,1.4455982765,0.08404299049999998,10.437413728,0.06912027436673143,-0.5975466306760466,1.674043024025873,10.53738216687213,1.778836595769976,-0.10179302700000004,0.08620045349999998,-0.16043679400000066
97402.0,1.3846009135,0.20966617699999998,10.185971222,0.037411132516498455,-0.7185206371195295,1.7097489698631732,10.281784345669529,1.8549698215202866,-0.06099736300000003,0.12562318649999998,-0.25144250600000007
97412.0,1.218182063,0.3031235515,9.971695919499998,0.03314729315387631,-0.7949957289541651,1.7899538303093205,10.050401531136048,1.9588393672626148,-0.16641885049999994,0.0934573745,-0.21427530250000082
97422.0,1.1248227549999998,0.2252587505,9.798118214499999,0.05553114081070359,-0.8251061492095714,1.9103937660016932,9.86504375459933,2.0817031984030088,-0.09335930800000014,-0.07786480099999998,-0.17357770499999958
97432.0,1.0505864145,0.036088471999999996,9.6580792525,0.09549918068137374,-0.8168455058598821,2.0478890591445547,9.71511858083648,2.206854384076636,-0.07423634049999994,-0.1891702785,-0.14003896199999843
97442.0,0.7608979735,-0.160240661,9.603063945999999,0.1410644914631897,-0.7712801950780661,2.181652838346652,9.634494275595332,2.3182712173379176,-0.2896884409999999,-0.196329133,-0.055015306500001415
97452.0,0.45444016099999995,-0.369710705,9.582666114,0.17224130789156442,-0.7187876724950848,2.28743898963928,9.600556844148425,2.403892659333413,-0.30645781250000004,-0.20947004399999997,-0.020397831999998672
97462.0,0.210254576,-0.6150730879999999,9.599435485499999,0.17623811187863142,-0.6606978790009576,2.350590237964191,9.621417958418988,2.448031050907537,-0.24418558499999996,-0.24536238299999996,0.016769371499998798
97472.0,-0.053152043,-0.7515816559999999,9.6017890815,0.17037555092118245,-0.6084723917935312,2.3772361796543886,9.631305918250307,2.4597801393182337,-0.263406619,-0.136508568,0.002353596000000735
97482.0,-0.19319100499999997,-0.8868153594999999,9.6221869135,0.175438751081218,-0.5717000497832626,2.368176175507286,9.664897580656955,2.4425147083576464,-0.14003896199999996,-0.13523370349999997,0.02039783200000045
97492.0,-0.322442652,-1.0089081519999998,9.676025421999999,0.1898272454346593,-0.5314632292077853,2.352455994934573,9.733824165773239,2.4192016772507596,-0.12925164700000003,-0.12209279249999994,0.05383850849999838
97502.0,-0.5199485829999999,-1.0592162664999998,9.757420617,0.2063485321340376,-0.4685790162584296,2.346061108555266,9.82850663759447,2.4012806450448796,-0.1975059309999999,-0.050308114499999945,0.0813951950000007
97512.0,-0.6624392075,-1.098737066,9.8196928445,0.2127434185133448,-0.39423671676973115,2.3428636653656123,9.903151841921845,2.385307633296073,-0.14249062450000005,-0.0395207995000002,0.062272227500001165
97522.0,-0.7702142909999999,-1.1884679135,10.000429404,0.22153638728489222,-0.30683586381761113,2.3300721472777455,10.100211596786846,2.360606453802807,-0.10777508349999998,-0.08973084750000004,0.18073655949999967
97532.0,-0.959286503,-1.159734429,10.128504253000001,0.22846534441530972,-0.21543995220767606,2.305024927182375,10.239717424992012,2.32631698217121,-0.18907221200000002,0.028733484500000017,0.12807484900000077
97542.0,-1.1963132335,-1.0496057495,10.2374561345,0.21221109309148653,-0.12404229526848899,2.2645228165605946,10.360422080583511,2.2778243184605103,-0.2370267305,0.11012867950000005,0.10895188149999946
97552.0,-1.4046064795,-0.9646801604999999,10.294923103499999,0.15465362501921756,-0.04037295625713283,2.21362901557244,10.434987727893777,2.21939206493867,-0.208293246,0.08492558900000002,0.05746696899999826
97562.0,-1.606917669,-0.9407519344999999,10.4182907605,0.06299067803372735,0.031571260839325425,2.161668818411317,10.583382302814613,2.1628168324021138,-0.20231118950000004,0.023928225999999997,0.12336765700000107
97572.0,-1.8056984644999998,-1.0148902085,10.509198406,-0.04199436713223556,0.0694082536933105,2.104378385714603,10.711386474993784,2.1059414575942967,-0.19878079549999983,-0.07413827400000006,0.09090764549999975
97582.0,-1.9780993715,-1.099913864,10.536755092499998,-0.13978691045072983,0.0686088928958971,2.0433599297356295,10.777100515030597,2.0492845978455403,-0.1724009070000001,-0.0850236554999999,0.02755668649999876
97592.0,-2.1791356965,-1.0807908965,10.531949833999999,-0.21626200228536538,0.0414306257838414,1.9863365324144706,10.80919555987449,1.9985040831556133,-0.20103632500000002,0.019122967499999977,-0.004805258499999354
97602.0,-2.434206663,-1.042446895,10.448201043,-0.2554306813586221,-0.016659167710285874,1.9349086606752055,10.778541767884699,1.9517668626155242,-0.25507096649999994,0.038344001499999836,-0.08374879099999966
97612.0,-2.693886755,-1.0831444925,10.366805848,-0.25250027354452365,-0.10805507932022093,1.8898774206445,10.76572762661793,1.909730073431548,-0.259680092,-0.040697597499999905,-0.08139519499999892
97622.0,-2.8902158879999997,-1.10226746,10.275800136,-0.215462641487952,-0.217303963848806,1.8416469920948888,10.731281837117136,1.8668981777465852,-0.19632913299999988,-0.019122967499999977,-0.0910057119999994
97632.0,-3.001619432,-1.1346294049999999,10.113009746,-0.15763988336937984,-0.3164281933865719,1.7806267907866629,10.609904298528882,1.815381200317391,-0.1114035440000003,-0.03236194499999989,-0.1627903900000014
97642.0,-3.0590864009999996,-1.1107011789999999,9.916680612999999,-0.08782671328960666,-0.34893669603421834,1.7100142599094763,10.437059983446733,1.7474607630788983,-0.05746696899999959,0.023928225999999997,-0.19632913300000077
97652.0,-3.1584277655,-1.0711803795,9.823321305,-0.03986332011555049,-0.2849860869118941,1.647929407757534,10.374041392657636,1.672865053426631,-0.0993413645000003,0.03952079949999998,-0.09335930799999836
97662.0,-3.372703068,-1.1298241465,9.811357192,-0.035332445377373206,-0.15735015871354877,1.5655917549654497,10.436204220688726,1.5738757884151215,-0.21427530249999993,-0.05864376700000018,-0.01196411300000122
97672.0,-3.5414755144999996,-1.2758451649999998,9.823321305,-0.04758989271412939,-0.06435552550878691,1.4526113564961005,10.519860795948006,1.4548148282766078,-0.16877244649999978,-0.1460210184999997,0.01196411300000122
97682.0,-3.709071163,-1.35135637,9.866372498499999,-0.03666587692589687,-0.05049935657720393,1.3228443812810702,10.62679063546915,1.3243156076375275,-0.1675956485000003,-0.07551120500000019,0.04305119349999842
97692.0,-3.8562689795,-1.2914377385,9.8891239265,0.016360716408194847,-0.12430933064404412,1.2000046178672052,10.692679454110216,1.2065370137833222,-0.14719781649999986,0.059918631499999986,0.022751428000001184
97702.0,-3.9449210955,-1.1190368314999999,9.849603127,0.12427791471750822,-0.2655343923984173,1.1000827728612779,10.669082792788828,1.1384795214579342,-0.088652116,0.1724009070000001,-0.03952079949999998
97712.0,-3.9257000614999997,-0.9047615289999998,9.7849773035,0.2639042548770546,-0.42780987026109407,1.0092174413439492,10.581847439234307,1.1274691058950819,0.01922103400000008,0.21427530250000004,-0.06462582350000012
97722.0,-3.7665381319999995,-0.7431479369999999,9.685635938999999,0.40033315184694734,-0.5509166690505142,0.9260821730837032,10.41876297354565,1.149523379496415,0.1591619295000002,0.16161359199999992,-0.09934136450000075
97732.0,-3.5642269425,-0.6893094285,9.6090460025,0.4877322594698154,-0.6055402386501806,0.8426798694479022,10.271933910614063,1.1465910779021362,0.2023111894999996,0.05383850849999994,-0.07658993649999957
97742.0,-3.4780264889999994,-0.8258179964999999,9.5288276055,0.5215724483367334,-0.5919511050941528,0.7257026669914863,10.177288399022,1.071955358475678,0.0862004535000005,-0.13650856799999989,-0.08021839699999944
97752.0,-3.0961555379999997,-0.7120608565,9.416247263499999,0.5005220322284298,-0.4941585617756585,0.6385688494149213,9.937752376982372,0.9499921917391537,0.3818709509999998,0.11375713999999992,-0.11258034200000111
97762.0,-3.0290780519999996,-0.6235068069999999,9.471360636499998,0.44083526246872773,-0.3113667385557884,0.5772833580603924,9.963470624743422,0.7902790962743631,0.06707748600000007,0.08855404950000001,0.0551133729999993
97772.0,-2.9513113174999996,-0.5635881755,9.547950573,0.33904591516316646,-0.11711508346732351,0.5167954821740249,10.009556946679409,0.6290831787290693,0.07776673449999993,0.059918631499999986,0.07658993650000134
97782.0,-2.8902158879999997,-0.5180853195,9.8100823275,0.21007830074554948,0.06834360284959395,0.4643029595910435,10.240091579173345,0.5141799089614478,0.06109542949999991,0.045502855999999925,0.26213175450000037
97792.0,-3.025547658,-0.34813607499999993,10.0723121485,0.08244237254720416,0.21622884102957748,0.43419253933563734,10.522671209078348,0.49201099347365734,-0.13533177000000007,0.1699492445000001,0.26222982100000003
97802.0,-3.1332246749999997,-0.20329185449999998,10.227943684000001,-0.032934362985133,0.2687231089418109,0.4277976529563301,10.699030631099737,0.5062683215643,-0.10767701699999987,0.14484422049999995,0.1556315355000013
97812.0,-3.1117481114999994,-0.29910282499999996,10.323656588,-0.11873649434242622,0.21436482938844753,0.4456506258749801,10.786580744439018,0.5085814738173509,0.021476563500000267,-0.09581097049999998,0.0957129039999991
97822.0,-3.0578115364999996,-0.519360184,10.345231218,-0.1776239033047149,0.10005274469982693,0.4813565717122801,10.800173857274649,0.5227475029856871,0.05393657499999982,-0.22025735899999999,0.021574629999999928
97832.0,-3.02437086,-0.732360622,10.183617626,-0.22532026110321596,-0.016659167710285874,0.5000089054283435,10.648438342407362,0.5486853865741925,0.03344067649999971,-0.21300043800000001,-0.16161359200000014
97842.0,-3.037511771,-0.958698104,9.948944491499999,-0.2615602776916262,-0.1069886831472524,0.4877514580915874,10.446390587591722,0.5637036828495742,-0.013140911000000255,-0.22633748200000003,-0.23467313450000127
97852.0,-3.0554579404999997,-1.0915782115,9.69877685,-0.2639583600838664,-0.1698746414258601,0.4440519042801533,10.227103138429863,0.5437954609525157,-0.01794616949999961,-0.1328801074999999,-0.25016764149999915
97862.0,-2.924931429,-1.180132261,9.496465660499998,-0.22638665727618448,-0.19598825769419925,0.3880949031319631,10.006537665889267,0.4901836080324395,0.13052651149999983,-0.08855404950000012,-0.20231118950000138
97872.0,-2.8148027495,-1.1645396874999998,9.28101356,-0.148047553800419,-0.18133272796520286,0.3249419094778003,9.768135948237987,0.4004833092061006,0.11012867949999983,0.015592573500000206,-0.21545210049999852
97882.0,-2.6783922479999998,-1.0867729529999999,9.1624511615,-0.04039564553740875,-0.1325699739937333,0.2684525829077518,9.607568463060336,0.30211487128727454,0.13641050150000034,0.07776673449999993,-0.11856239849999994
97892.0,-2.5179554539999995,-1.099913864,9.2546336715,0.08217708250090101,-0.07954338065964157,0.22981622925635334,9.65391913008439,0.25670161963792376,0.16043679400000022,-0.013140911000000033,0.09218251000000066
97902.0,-2.426949742,-1.135806203,9.3599570925,0.19755556336249017,-0.04543615641716838,0.19810708740612035,9.735961049347322,0.28344146310300555,0.0910057119999994,-0.035892339000000106,0.10532342099999958
97912.0,-2.342024153,-1.1969016325,9.5755072595,0.2793591454034644,-0.052098078172030736,0.16240114156882038,9.930155584272269,0.3273070006165909,0.08492558900000002,-0.06109542949999991,0.21555016699999996
97922.0,-2.2462131825,-1.214847802,9.710740963,0.314265730443351,-0.08540594161709052,0.12349775254186676,10.040907274432284,0.3482941559622943,0.09581097050000009,-0.017946169500000053,0.13523370349999908
97932.0,-2.0606713645,-1.249563343,9.789782562,0.30014252613621284,-0.12750677383369774,0.07579964941411373,10.082044318087423,0.33479710306424026,0.18554181799999991,-0.03471554099999996,0.07904159899999996
97942.0,-1.8535549165,-1.2076889474999999,9.769384729999999,0.2583087292951608,-0.14482742133048945,0.025705209223372487,10.016738811866471,0.2972526524365041,0.20711644800000006,0.04187439550000005,-0.02039783200000045
97952.0,-1.730285326,-1.050880614,9.699953648,0.21380981468631335,-0.12777380920925288,-0.01826137996361667,9.908952424328236,0.2497483957390193,0.12326959050000008,0.1568083334999999,-0.06943108199999948
97962.0,-1.569848532,-0.8952490784999999,9.6257173075,0.17783683347345822,-0.09339954959122455,-0.048637090265325984,9.793892434057192,0.20667603091115233,0.160436794,0.15563153550000008,-0.07423634049999883
97972.0,-1.3532196335,-0.836507245,9.630522566,0.16504706071484376,-0.053696799766857546,-0.061693898399495566,9.761040551173966,0.18420101969190777,0.2166288985,0.05874183349999995,0.004805258499999354
97982.0,-1.17483667,-0.797084512,9.641309881,0.16797746852894224,-0.021987657916624565,-0.05476668659833007,9.745277889414709,0.17804290773577583,0.17838296350000005,0.03942273299999999,0.010787314999999964
97992.0,-1.0335228435,-0.7707046234999999,9.674848624,0.175438751081218,-0.009197885158010117,-0.033716270490026456,9.76037145717494,0.17888583892548382,0.14131382650000002,0.02637988850000006,0.03353874299999937
98002.0,-0.9019176004999999,-0.7958096474999999,9.711917760999999,0.17783683347345822,-0.018523179351415817,-0.012398819006167718,9.786118482297923,0.17922828522836157,0.13160524299999998,-0.02510502400000003,0.037069136999999586
98012.0,-0.748639661,-0.809048625,9.795764618499998,0.1597168251792531,-0.036110862223762676,0.004122467693210606,9.857587203808698,0.16380004076850907,0.1532779394999999,-0.013238977500000026,0.08384685749999932
98022.0,-0.6564571509999999,-0.7192197109999999,9.756243819,0.135736001256851,-0.0433051094004833,0.019577358219620394,9.804718580334963,0.14381539379443017,0.0921825100000001,0.08982891400000004,-0.039520799499998205
98032.0,-0.47326892899999995,-0.6557706855,9.788605764,0.11894767918191755,-0.03984063083527457,0.04142713512533741,9.82195609204867,0.13210614585555805,0.18318822199999996,0.06344902549999998,0.03236194499999989
98042.0,-0.3021428865,-0.7060787999999999,9.8065519335,0.1037598240310629,-0.024652775684419908,0.06380923745291268,9.836579609808716,0.12427984235677828,0.17112604249999996,-0.050308114499999945,0.017946169500000053
98052.0,-0.1883857465,-0.7336354865,9.7526153585,0.09469981988396034,-0.019057250102526086,0.08619308510973997,9.781984284764853,0.1294622824928544,0.11375713999999998,-0.027556686500000094,-0.05393657499999982
98062.0,-0.09620323649999998,-0.7527584539999999,9.699953648,0.09256877286727525,-0.027583183498518384,0.11390367764365394,9.729594088456622,0.14934476054691562,0.09218251000000002,-0.019122967499999866,-0.05266171050000068
98072.0,-0.0124544455,-0.785120399,9.679653882499998,0.10136174163882268,-0.03744254844303436,0.14694625104241058,9.711450377731223,0.1823988700551173,0.08374879099999999,-0.032361945000000114,-0.020299765500000788
98082.0,0.165928518,-0.8640639314999999,9.6604328485,0.12054640077674435,-0.04490383099531011,0.17545794970298997,9.70041759777293,0.21756213110801198,0.1783829635,-0.07894353249999997,-0.019221033999999193
98092.0,0.3192064575,-0.926336159,9.672495027999998,0.1479934485936072,-0.039573595459719425,0.19890644820353376,9.721993186001791,0.25106155703568644,0.1532779395,-0.062272227500000055,0.012062179499999104
98102.0,0.3909911355,-0.914372046,9.735944053499999,0.17810386884901333,-0.02065597169735289,0.22128855053110905,9.786600886897748,0.2848091990472,0.07178467799999999,0.011964112999999998,0.06344902550000064
