timestamp,ax,ay,az,gx,gy,gz,acc_mag,gyro_mag,dax,day,daz
177622.0,0.6261546025,1.6833114724999998,8.9153235815,0.06147573224299627,0.33615390459261185,0.08263610409417552,9.094426956248096,0.3515784961108042,0.0,0.0,0.0
177632.0,0.8081660264999999,1.7527425545,9.165491223,0.06227509304040967,0.3193673278469304,0.09329482983610489,9.366507788265274,0.33849313520871904,0.18201142399999992,0.06943108200000014,0.2501676415000009
177642.0,0.950656651,1.931125518,9.324751219,0.10810743919778076,0.3159028492817217,0.1066186733458296,9.56995188758038,0.3504987447912428,0.14249062450000005,0.17838296350000005,0.1592599959999994
177652.0,1.1182522995,2.149029281,9.3882002445,0.16326507954855757,0.25914648733611806,0.13592973280382237,9.695726836434815,0.3350959270996354,0.16759564849999997,0.2179037629999998,0.06344902550000064
177662.0,1.5252282744999999,2.3729151004999998,9.430074639999999,0.2104291119252003,0.21651332969765258,0.19215376932756772,9.842934271825973,0.3578847637846364,0.40697597499999993,0.22388581949999997,0.04187439549999894
177672.0,1.8604195714999998,2.4770617235,9.462436584999999,0.2389408105857797,0.18640290944224638,0.27022583742777806,9.956641094726447,0.40603049001949065,0.33519129699999994,0.1041466230000001,0.03236194499999989
177682.0,2.223167555,2.5153076585,9.548538972,0.25412866573663434,0.15735888535980874,0.36348750600809504,10.121454593798079,0.4706021298026055,0.36274798350000004,0.03824593499999995,0.08610238700000039
177692.0,2.469706736,2.4998131515,9.8383254795,0.2850384467894539,0.1211188687713985,0.4623464454995579,10.447064917709426,0.5564898311619748,0.24653918100000016,-0.015494506999999658,0.28978650750000057
177702.0,2.632497126,2.6087650329999996,10.2429478585,0.33326887533906524,0.04944168705049537,0.5574738710502568,10.892826857512768,0.6513752686369992,0.16279039000000006,0.10895188149999946,0.4046223789999992
177712.0,2.7738109525,2.8313759879999996,10.646295373,0.38656075871946005,-0.052080624879510796,0.6560640298369125,11.36020784822149,0.7632572455702298,0.1413138264999998,0.22261095499999994,0.40334751450000006
177722.0,2.9724936814999996,3.0480048865,11.038953639,0.416138853553008,-0.14907380740059167,0.7575863417669186,11.831506663087193,0.8771155059176089,0.19868272899999972,0.21662889850000022,0.39265826600000153
177732.0,3.152053443,3.1725493415,11.340606193,0.4060124532329369,-0.22581418928153035,0.8572428967265429,12.190564345283207,0.9750402782701937,0.1795597615000002,0.12454445500000011,0.3016525539999986
177742.0,3.312490237,3.1941239715,11.564492012499999,0.3769684291504993,-0.2775090963963504,0.9592992794076592,12.446384817396074,1.0674135106091585,0.16043679400000022,0.021574629999999928,0.22388581949999953
177752.0,3.4214421184999995,3.1438158569999994,11.8398627445,0.3551186522447823,-0.2918975907497916,1.0693475247336577,12.718969853001832,1.163966317945534,0.10895188149999946,-0.05030811450000039,0.27537073200000073
177762.0,3.4226189165,3.0672259205,12.230069347999999,0.33619928315316366,-0.2732452570337282,1.1871240879874871,13.065098214397771,1.2637074537899395,0.0011767980000003675,-0.07658993649999957,0.39020660349999936
177772.0,3.1221431605,2.9977948385,12.744820406499999,0.31754694943710027,-0.21675593046367977,1.305967047414285,13.459754789829306,1.3613850033770643,-0.300475756,-0.06943108199999992,0.5147510584999999
177782.0,2.6612306104999996,2.9223817,13.417654662999999,0.295164847109525,-0.16559509409997,1.4266740184822129,13.987706024158598,1.4662683169090687,-0.4609125500000002,-0.07541313850000009,0.6728342564999998
177792.0,2.054297042,2.8816841025,14.160998733,0.2607905874914967,-0.1336189168741819,1.5401867423734201,14.596510703568807,1.5678140664165625,-0.6069335684999997,-0.040697597499999905,0.7433440700000009
177802.0,1.2451503505,2.6470109679999996,14.8960071505,0.1752554915097586,-0.13974676787793397,1.6238560813847762,15.18051697037389,1.6392535555816181,-0.8091466915000001,-0.23467313450000038,0.7350084174999996
177812.0,0.5065134725,2.378897157,15.5328510015,0.02390577476456633,-0.18744487100568702,1.6614277841924583,15.72212351485022,1.6721391532465515,-0.7386368779999999,-0.26811381099999965,0.6368438510000001
177822.0,-0.2117255735,1.9885924869999998,15.914721952499999,-0.17434268431096558,-0.27884078261562206,1.635314167924119,16.03987851023854,1.668052751394811,-0.718239046,-0.39030467000000013,0.3818709509999998
177832.0,-0.7109821249999999,1.8761102115,15.985427899,-0.38085178673618664,-0.3808954199674865,1.5785578059785152,16.110840767070215,1.667925103602694,-0.4992565514999999,-0.1124822754999999,0.0707059465000004
177842.0,-1.1023655264999999,1.8198200405,15.7507547645,-0.5836293752206438,-0.4563041156291535,1.4916910237775056,15.893811071773833,1.665526584590869,-0.39138340149999995,-0.05629017099999989,-0.2346731344999995
177852.0,-1.4136285975,1.8425714684999999,15.365255353,-0.7744165517439,-0.4842834888678746,1.4034908100279722,15.539771153112108,1.674526185832257,-0.31126307100000017,0.02275142799999985,-0.38549941149999967
177862.0,-1.6614426429999998,1.9299487199999998,14.879237779,-0.9457520337536793,-0.4525743470176416,1.327549788944447,15.095589110790918,1.6916438428505307,-0.24781404549999975,0.08737725149999997,-0.4860175739999999
177872.0,-1.8828768,1.9324003825,14.3980254635,-1.1032313468318757,-0.36357651779994676,1.2691947054040165,14.648635893142364,1.7205122752115423,-0.22143415700000024,0.0024516625000001735,-0.48121231550000054
177882.0,-2.201396792,1.7899097579999999,13.9814389715,-1.241258965396595,-0.26231949591624376,1.2068428178765191,14.266413722144415,1.7510011205522729,-0.31851999200000014,-0.14249062450000016,-0.4165864920000004
177892.0,-2.599939048,1.5277780035,13.653406529,-1.333721273179499,-0.19597080440167933,1.1327658084341237,13.982463964817983,1.7607882801367116,-0.3985422559999998,-0.2621317544999999,-0.32803244249999963
177902.0,-3.035746574,1.3517486359999997,13.3804874595,-1.3686278582193854,-0.19437208280685248,1.0296447749092907,13.786965811603269,1.7236853202852487,-0.43580752600000006,-0.1760293675000002,-0.27291906950000033
177912.0,-3.3457347804999995,1.1961171005,13.076481309499998,-1.361965936464523,-0.25406059789580654,0.8966803565046068,13.55060887108984,1.6503132009512886,-0.3099882064999995,-0.15563153549999975,-0.3040061500000011
177922.0,-3.5300998005,1.082458027,12.694610358499999,-1.349443199081464,-0.34092738009681633,0.7541218632017099,13.22068274091177,1.5830123848554416,-0.18436502000000043,-0.11365907350000004,-0.3818709509999998
177932.0,-3.485871809,1.0309731144999998,12.184566492,-1.3553040147096607,-0.417667761977755,0.6120974406499233,12.715261241105978,1.544654850940435,0.04422799150000012,-0.05148491250000009,-0.5100438664999984
177942.0,-3.3277886109999995,1.141101794,11.554881495499998,-1.3851491449187638,-0.4339220133015782,0.4857949440001017,12.078558553023601,1.5306610320096805,0.15808319800000037,0.11012867950000005,-0.6296849965000018
177952.0,-3.212854673,1.2667249805,10.927648161499999,-1.43497654973395,-0.3683726825844272,0.3882694360571626,11.46038924590151,1.5315382092970926,0.11493393799999962,0.12562318650000015,-0.6272333339999996
177962.0,-3.1446984555,1.3086974425,10.4871334435,-1.4882701784435968,-0.25406059789580654,0.3195226621503579,11.026413071974325,1.5432399823343619,0.0681562174999999,0.04197246199999993,-0.4405147179999993
177972.0,-3.1387163989999998,1.303892184,10.040636669,-1.554084799207051,-0.08965232768719274,0.2481107704757579,10.600285853679381,1.576317245167427,0.005982056500000166,-0.00480525850000002,-0.4464967744999999
177982.0,-3.2296240445,1.2236737869999998,9.815574051499999,-1.6183024437049303,0.07582059336513766,0.16657247848108683,10.405447754243138,1.6286184182511638,-0.09090764550000019,-0.08021839700000011,-0.22506261750000078
177992.0,-3.4187943229999997,1.0057700239999998,9.670729831,-1.6681315938493684,0.18906802721004173,0.06291911953439558,10.306441841312028,1.6799906395318145,-0.1891702784999998,-0.21790376300000003,-0.14484422049999957
178002.0,-3.5325514629999994,0.7065691325,9.559326287,-1.709433065268562,0.23143414947295207,-0.06658256563433168,10.21561935660655,1.7263129519939864,-0.1137571399999997,-0.29920089149999984,-0.11140354399999985
178012.0,-3.5696205999999995,0.48748857149999997,9.333086871499999,-1.7374124385072833,0.22877077703440873,-0.2043431488234961,10.004316412741709,1.7642829059920784,-0.03706913700000003,-0.219080561,-0.22623941550000026
178022.0,-3.5756026564999996,0.40844697249999995,8.976419010999999,-1.7502022112658977,0.20079140379568763,-0.3357088456333533,9.670980381923876,1.7933837841339928,-0.005982056500000166,-0.07904159900000002,-0.3566678605
178032.0,-3.512153631,0.40481851199999996,8.538257888999999,-1.7539319798774098,0.16481842258283252,-0.45188668729235587,9.241263384109073,1.818692959411083,0.06344902549999976,-0.003628460499999986,-0.43816112200000035
178042.0,-3.3302402735,0.347351543,7.974375513999999,-1.7552654114259332,0.13470974765667834,-0.5440837050289563,8.648804438299468,1.8425879785616786,0.18191335750000004,-0.05746696899999998,-0.5638823749999995
178052.0,-3.0764441714999995,0.18701281549999998,7.422555318499999,-1.744871975730307,0.1437680064745289,-0.6080343141512806,8.037027434923322,1.853362667844603,0.25379610200000036,-0.1603387275,-0.5518201955000004
178062.0,-2.9016896684999995,0.0181423025,6.862301404,-1.7227569087782868,0.19306483119710874,-0.6557306719497815,7.450591428521632,1.8534152556629608,0.17475450299999995,-0.168870513,-0.5602539144999987
178072.0,-2.722129907,-0.2260432825,6.3116580065,-1.6921124177717706,0.269005852280634,-0.6994302257612155,6.877362400452862,1.8506245496175182,0.17955976149999975,-0.24418558499999998,-0.5506433975
178082.0,-2.6167084195,-0.45463629399999994,5.786119632999999,-1.645482456146238,0.3739926427758489,-0.7468612935134136,6.366556174250903,1.8453413781964705,0.10542148749999969,-0.22859301149999994,-0.5255383735000008
178092.0,-2.5664983715,-0.625860403,5.437787425,-1.5714054467038425,0.4885717628400246,-0.8025512592860485,6.045506365429087,1.8308757383167036,0.050210048000000285,-0.17122410900000007,-0.34833220799999953
178102.0,-2.6251421384999998,-0.8162074794999999,5.2210604599999995,-1.4597584797830174,0.5860955254537119,-0.8784940256988258,5.900596429505708,1.8017087826404738,-0.05864376699999996,-0.19034707649999993,-0.21672696500000033
178112.0,-2.6419115099999995,-1.006554556,5.106126522,-1.3132031824930535,0.6300621146407009,-0.9784158707047532,5.83655519630772,1.7546448309735894,-0.016769371499999686,-0.19034707650000005,-0.11493393799999918
178122.0,-2.5425701455,-1.1394346635,5.000803100999999,-1.1503953792085184,0.6441853189478391,-1.1012556341186182,5.724596575492849,1.7178906325288115,0.09934136449999942,-0.1328801074999999,-0.10532342100000136
178132.0,-2.2947561,-1.0592162664999998,4.952946648999999,-0.990783273784385,0.6687002136213513,-1.2256941191273096,5.560532813098555,1.7120565250514996,0.2478140455000002,0.08021839700000011,-0.04785645199999955
178142.0,-1.959564803,-0.8856385615,4.954123447,-0.8668788595268035,0.7326508227436757,-1.3304138742469696,5.400702640109653,1.7487873689932427,0.33519129699999994,0.1735777049999998,0.0011767980000003675
178152.0,-1.5237572769999999,-0.7455995995,5.012767213999999,-0.7981320856199989,0.844564825040056,-1.4034244875163966,5.292030814700377,1.8220606087481641,0.43580752600000006,0.140038962,0.058643766999999514
178162.0,-1.2172994645,-0.5217137799999999,5.055916474,-0.7741495163683448,0.9650065060616807,-1.448190437500799,5.226499272608623,1.9046786011564971,0.3064578124999999,0.22388581950000008,0.043149260000000744
178172.0,-1.000670566,-0.357746592,5.139665265,-0.7592286965930453,1.0268260681673198,-1.455917010099378,5.248379106161624,1.9366193039146966,0.2166288985,0.16396718799999993,0.08374879099999966
178182.0,-0.7360871489999999,-0.34813607499999993,5.1803628625,-0.7179254798445994,1.03108816220069,-1.4377987471344247,5.243966285628517,1.9094043652672987,0.264583417,0.00961051700000004,0.04069759750000035
178192.0,-0.5769252195,-0.4127618985,5.1528061759999995,-0.6347902115843537,0.9791279650395669,-1.400492334373046,5.201406211898104,1.822917706119367,0.15916192949999997,-0.06462582350000007,-0.027556686500000538
178202.0,-0.3960905935,-0.42835447199999993,5.048659553,-0.5135491697653155,0.8882643788514901,-1.3546617335449267,5.082257234147023,1.6993689325258403,0.180834626,-0.015592573499999929,-0.10414662299999922
178212.0,-0.33509323049999995,-0.384028414,5.042677496499999,-0.35686921748453254,0.791005906284106,-1.3035008971812172,5.068368734572671,1.565937601284483,0.06099736300000003,0.044326057999999946,-0.005982056500001498
178222.0,-0.3003776895,-0.453459496,5.187521717,-0.18633309627216663,0.6953461553115489,-1.2693936729387438,5.2159595315923,1.4593103149672586,0.03471554099999996,-0.06943108200000003,0.14484422050000134
178232.0,-0.21054877549999998,-0.4378669225,5.486820675,-0.03684739116810429,0.6178046673039448,-1.2459451744382,5.508290056659292,1.3911936295441658,0.08982891400000001,0.01559257350000004,0.2992989579999996
178242.0,-0.1171894675,-0.430708068,5.776509116,0.062009802994106536,0.5618476661557545,-1.2398155781051958,5.793729401548222,1.362593366835593,0.09335930799999997,0.007158854499999978,0.289688441
178252.0,0.003726527,-0.404426246,5.9225301345,0.1091738353707493,0.5205461947365607,-1.2387509272614794,5.936323581941749,1.348106496896832,0.1209159945,0.02628182200000001,0.14602101849999993
178262.0,0.1497475455,-0.3911872685,5.940476304,0.12889081993052925,0.5114861905894582,-1.2387509272614794,5.9552254806014915,1.3463784113009443,0.1460210185,0.013238977499999971,0.017946169500000053
178272.0,0.269486742,-0.4343365285,5.9896076205,0.17179275827380186,0.5250770694747381,-1.239550288058893,6.011378441892914,1.3570938056414465,0.1197391965,-0.04314925999999997,0.049131316500000466
178282.0,0.43825918849999995,-0.42354921349999997,6.1296465824999995,0.257326108926288,0.5509236503675221,-1.2288915623169636,6.159872748597578,1.3710973950829486,0.16877244649999995,0.01078731500000002,0.14003896199999932
178292.0,0.5890854655,-0.39363893099999997,6.2889065785,0.34419289112729773,0.6074129769375706,-1.2195645227943057,6.32869016833363,1.405260437112364,0.150826277,0.029910282499999996,0.1592599960000003
178302.0,0.7410885405,-0.37088750299999995,6.4385560575,0.3785671507453261,0.6780255078147571,-1.2161017895583488,6.491669574948492,1.4428912777607024,0.152003075,0.022751428000000018,0.1496494789999998
178312.0,0.873968648,-0.37441789699999994,6.5163227919999995,0.35911545623184926,0.7337172189166442,-1.2214302797646877,6.585322519726693,1.4694205649048973,0.1328801075,-0.0035303939999999923,0.07776673449999993
178322.0,1.0284233855,-0.3780463575,6.5785950195,0.3252735220356792,0.7675574077835623,-1.233687727101444,6.669219305050067,1.4889367502958761,0.15445473750000005,-0.0036284605000000414,0.06227222750000028
178332.0,1.2307345749999998,-0.3792231555,6.549861535,0.3263399182086478,0.7345165797140576,-1.237684531088511,6.675268078769598,1.4757626321963337,0.20231118949999982,-0.0011767980000000344,-0.028733484500000017
178342.0,1.5503332985,-0.312243736,6.5809486155000005,0.38629372334390494,0.646051075918221,-1.2123702756175851,6.768302162799804,1.4270411762072766,0.3195987235000002,0.06697941950000003,0.031087080500000752
178352.0,1.9514252834999999,-0.18289402249999998,6.583400278,0.483552195911289,0.5237436379262144,-1.1462886194785757,6.868964265514835,1.3498547046200617,0.4010919849999999,0.12934971350000002,0.0024516624999995074
178362.0,2.3787990905,-0.11709140099999998,6.5438794785,0.5776149706182714,0.393976662711184,-1.0373050249962938,6.9638174974855,1.2509429962735914,0.42737380699999994,0.06580262149999999,-0.03952079949999998
178372.0,2.6731947235,-0.10865768199999999,6.425317079999999,0.652224305482525,0.30391243732052065,-0.9064716536082948,6.96006293794428,1.1573461768268032,0.29439563300000016,0.008433718999999992,-0.11856239850000083
178382.0,2.9222836334999998,-0.31342053400000003,6.321170457,0.7201717185919162,0.2642096874961536,-0.7897614865274342,6.971023598597583,1.1009892228484672,0.24908890999999977,-0.20476285200000005,-0.10414662299999922
178392.0,3.1832385899999998,-0.48935183499999996,6.4193350234999995,0.8155644341889183,0.28792522137225257,-0.7026276689508691,7.181945090518083,1.1143302565180053,0.2609549565,-0.17593130099999993,0.0981645664999995
178402.0,3.300526124,-0.49778555399999996,6.773747354499999,0.9503946095639842,0.34734670108565147,-0.6496028209460294,7.551484382263747,1.2024489467850192,0.11728753400000036,-0.008433719000000006,0.3544123309999998
178412.0,3.3364184630000002,-0.381674818,7.384211316999999,1.1030777578577002,0.372126885805467,-0.6178936790957965,8.11196280816508,1.3179725178038368,0.035892339000000106,0.11611073599999994,0.6104639624999999
178422.0,3.3256311479999994,-0.1254270535,8.0809737995,1.2400407255787032,0.3465473402882381,-0.5960439021900794,8.739433163913032,1.4188250045345923,-0.010787315000000852,0.25624776450000003,0.6967624825000014
178432.0,3.3975138924999997,-0.015298373999999998,8.885413299,1.3415630375087093,0.25408328717608253,-0.5661987719809765,9.512828400850275,1.4781511255025868,0.07188274450000032,0.11012867949999999,0.804439499499999
178442.0,3.6428762755,0.08041453,9.554619095,1.3940555600916908,0.15869057157908042,-0.5238309043888141,10.225837868154105,1.4976556408345199,0.24536238300000024,0.095712904,0.669205796
178452.0,3.9277594579999997,0.24801017849999998,10.021415635,1.3639451398362847,0.11099421378057939,-0.4566828520768363,10.766502437559307,1.4426452396056437,0.2848831824999998,0.16759564849999997,0.4667965400000007
178462.0,4.133699108,0.5353450235,10.1388012355,1.2408400863761164,0.12298462574178043,-0.35862501871203883,10.962178300987562,1.297467241271603,0.20593965000000036,0.28733484500000006,0.11738560050000046
178472.0,4.2318636745,0.6742071875,10.112421347,1.0977492676513614,0.1832054662525928,-0.23551996525187083,10.98290904043599,1.1375796022811646,0.0981645664999995,0.13886216399999995,-0.02637988850000106
178482.0,4.1624325925,0.771194956,10.1997985985,1.043123952722443,0.2338322318651923,-0.0908304249322889,11.043390702009445,1.072863113121022,-0.06943108199999948,0.09698776850000002,0.08737725149999953
178492.0,3.8392054085,0.781982271,10.484681780999999,1.1417158568383505,0.20772036092610513,0.07038040208667133,11.192834604766,1.162590317823644,-0.3232271840000003,0.010787314999999964,0.2848831824999998
178502.0,3.471750233,0.6969586154999999,11.0306179865,1.3458251315420795,0.09314124086192939,0.23318820537120638,11.585047870257272,1.3690497852758312,-0.36745517549999995,-0.08502365550000002,0.5459362055000003
178512.0,3.1927510405,0.6250758710000001,11.6890364675,1.541408472849816,-0.05421341722544786,0.3730815809063079,12.13334053711776,1.5868424751033143,-0.2789991924999997,-0.07188274449999987,0.658418481
178522.0,2.9521939159999997,0.693330155,12.2229104935,1.6312074081941763,-0.18131527467268294,0.49032407340902695,12.593478334185999,1.7129303938986,-0.24055712450000044,0.06825428399999989,0.5338740260000012
178532.0,2.7163439835,0.7891411254999999,12.601152984,1.5803118618767695,-0.24286780140276695,0.5926457461364465,12.914732861303179,1.7051684169489714,-0.23584993249999986,0.09581097049999998,0.3782424904999999
178542.0,2.4721583984999995,0.7723717539999999,12.759236181999999,1.4356240668864397,-0.23380954258491637,0.6691208379710821,13.019455949528345,1.6010640397668208,-0.24418558500000032,-0.01676937150000002,0.15808319799999815
178552.0,2.226697949,0.8022820364999999,12.851418692,1.271215796677826,-0.19810359674761638,0.7141538233310397,13.067547689572761,1.4714789567458735,-0.24546044949999946,0.02991028249999994,0.09218251000000066
178562.0,2.0208563655,0.786689463,12.850143827499998,1.1433145784331773,-0.16372933712958807,0.7442624982571939,13.031843198435645,1.3740095295909587,-0.20584158350000026,-0.015592573499999873,-0.0012748645000009162
178572.0,1.811288255,0.9100571199999998,12.8238620055,1.0918867066939124,-0.15360293680951698,0.7621154711758439,12.983081523292926,1.3403844350994847,-0.2095681104999998,0.12336765699999985,-0.026281821999997845
178582.0,1.6617368424999999,1.0836348249999999,12.842984973,1.0924190321157707,-0.15413700756062723,0.7884961228197382,12.995302873899417,1.3560470841863352,-0.14955141250000015,0.17357770500000003,0.019122967499999532
178592.0,1.530033533,1.272707037,12.887311031,1.0924190321157707,-0.13708339543939063,0.8321956766311722,13.040075591186886,1.3801162426540614,-0.13170330949999998,0.18907221200000013,0.044326057999999335
178602.0,1.320563489,1.430790235,13.011757419499999,1.0561807608566125,-0.07846127652340508,0.9033405329302171,13.156628738737156,1.3920122449001602,-0.2094700439999999,0.15808319799999992,0.12444638849999912
178612.0,0.963797562,1.422356516,13.115904042499999,0.9858352653549811,0.0022776546738526,0.9888756289119552,13.227960638405023,1.3963349768534608,-0.356765927,-0.008433718999999895,0.1041466230000001
178622.0,0.49572615749999993,1.3098742405,13.1997509,0.8976350516054477,0.06249674985541295,1.0672164777169726,13.273844159519351,1.3959246182813119,-0.46807140450000007,-0.11248227550000012,0.08384685750000109
178632.0,-0.0010787315,1.1625783575,13.264376723499998,0.8160985049400286,0.08008443272775981,1.1202413257218125,13.315227353069027,1.3882978477205965,-0.4968048889999999,-0.14729588299999996,0.06462582349999835
178642.0,-0.4260989425,1.013026945,13.309879579499999,0.751348535020291,0.04677656928270003,1.1423581380030845,13.355174215295236,1.3680989671704569,-0.42502021100000004,-0.14955141249999993,0.04550285600000059
178652.0,-0.7839436009999999,0.9746829435,13.300269062499998,0.7089806674281286,-0.021170843826691217,1.1447562203953245,13.358956978177348,1.3466880097294094,-0.3578446584999999,-0.03834400150000006,-0.009610517000000485
178662.0,-1.126391819,0.9531083134999999,13.290756612,0.6786032117971673,-0.09897936720985043,1.1383613340160175,13.372411349737737,1.3289716930685245,-0.342448218,-0.02157463000000004,-0.009512450499999048
178672.0,-1.4579546554999998,0.9615420324999999,13.273987240499999,0.6572857603133085,-0.1725223059011355,1.133565169231537,13.3883879581791,1.3216499194714961,-0.33156283649999985,0.008433719000000006,-0.016769371500000574
178682.0,-1.7273433309999997,0.9495779194999999,13.248784149999999,0.6279764461845678,-0.23967035821311333,1.1207753964729226,13.394614390180978,1.3068794079438386,-0.2693886754999999,-0.011964112999999998,-0.025203090499999803
178692.0,-1.9236724639999998,0.9004466029999999,13.2057329565,0.5853415432168503,-0.29296398692276016,1.0983915488160954,13.375451497126978,1.278638578473129,-0.1963291330000001,-0.04913131650000002,-0.04305119349999842
178702.0,-2.0241906265,0.8921109504999999,13.024996396999999,0.5240560518623214,-0.3347977837638123,1.0565577519750433,13.211500322910924,1.2259847408370308,-0.10051816250000001,-0.008335652500000013,-0.18073655950000145
178712.0,-2.0241906265,0.9160391765,12.740015148,0.4587720111914735,-0.35504883907470247,1.0035311586409517,12.932303021371046,1.1591402946771432,0.0,0.023928226000000108,-0.28498124899999944
178722.0,-2.0134033115,1.003416428,12.422868087,0.40121628844845647,-0.35265075668246226,0.9499722398850017,12.624907482027044,1.0898551843512032,0.010787314999999964,0.08737725149999997,-0.317147061
178732.0,-2.0122265135,1.132668075,12.151125815499999,0.36764138962784154,-0.3334660975445406,0.9044069291031857,12.368583229047177,1.0316548468305329,0.0011767979999999234,0.12925164700000003,-0.27174227150000085
