timestamp,ax,ay,az,gx,gy,gz,acc_mag,gyro_mag,dax,day,daz
86082.0,-0.011375713999999999,1.3137969005,9.621108181999999,-0.07914544559018687,-0.08682838495746589,-0.1291508739890764,9.710402378500065,0.17459415294944275,0.0,0.0,0.0
86092.0,0.29155170449999995,0.119052731,9.738493782499999,-0.07674736319794666,-0.0884271065522927,-0.12728511701869447,9.743584407236721,0.17294800358926032,0.30292741849999993,-1.1947441695,0.11738560050000046
86102.0,0.35970792199999996,-0.20535125099999998,9.985032963499998,-0.0335801348083709,-0.05591860390464632,-0.12595343079942278,9.993620075208902,0.14184069390177867,0.0681562175,-0.324403982,0.24653918099999927
86112.0,0.507003805,-0.20289958849999998,10.204113524499999,0.0223768663398193,-0.053785811558709255,-0.1206231952638321,10.218715864636893,0.1339536968802119,0.14729588300000002,0.002451662500000007,0.21908056100000017
86122.0,0.6900939604999999,-0.22084575799999998,10.4698737395,0.060480894569359504,-0.07243814527477266,-0.10090621070405217,10.494915847409969,0.13815674741904435,0.18309015549999996,-0.017946169499999998,0.265760215000002
86132.0,1.121096228,-0.21133330749999998,10.679343783499998,0.07700218126873783,-0.1022832754838757,-0.07186044129236253,10.740107176628861,0.1468166454683768,0.43100226750000015,0.009512450499999991,0.2094700439999979
86142.0,1.5305238654999997,0.049621649,10.796729383999999,0.06794217712163526,-0.10068455388904887,-0.017236871692696,10.904784775603943,0.12268100329559957,0.40942763749999966,0.2609549565,0.11738560050000046
86152.0,1.7639221354999999,0.32381558299999996,10.8972475465,0.03116983511136673,-0.07803367085666647,0.05550845153042766,11.043834566019212,0.10070750021494022,0.23339827000000013,0.274193934,0.10051816250000023
86162.0,1.9567208745,0.473465062,11.031304452,-0.024787166036823467,-0.03726627018858293,0.14157587293402404,11.213500954579427,0.14848200662348432,0.1927987390000001,0.14964947900000003,0.13405690550000138
86172.0,2.048805318,0.556037055,11.1630077615,-0.0778120140416632,-0.009819222371720098,0.23643626310916782,11.363077167779306,0.24910486380284289,0.09208444349999989,0.08257199300000001,0.13170330949999887
86182.0,2.0381160694999996,0.557213853,11.261172327999999,-0.11618307764675852,-0.03406882699892931,0.33529345727137866,11.457678935615283,0.3564840739690197,-0.010689248500000303,0.0011767980000000344,0.0981645664999995
86192.0,1.9770206399999999,0.370495237,11.4311215725,-0.1361670975820936,-0.15317707647203035,0.43255192983876267,11.606740185637852,0.4786500467227466,-0.06109542949999969,-0.18671861600000006,0.16994924450000148
86202.0,1.9686849875,0.114345539,11.5078095755,-0.14815925487254664,-0.3239784877306994,0.5180870258205008,11.675550381385305,0.6287506593556713,-0.00833565249999979,-0.256149698,0.07668800299999923
86212.0,2.070379948,-0.055701772,11.372477805499999,-0.1625477492259879,-0.5001101345249591,0.6062854942407823,11.559534041347622,0.80256714233751,0.10169496049999971,-0.17004731099999998,-0.13533177000000052
86222.0,2.2080653139999997,-0.175342902,11.075630509999998,-0.17906903592536622,-0.628812458896273,0.6958173942095874,11.29494970144686,0.9547945717142706,0.13768536599999992,-0.11964113,-0.296847295500001
86232.0,2.346927478,-0.2711538725,10.733280358499998,-0.17853496517425596,-0.7015560367901447,0.7904124943384281,10.990218390174284,1.07182438755272,0.1388621640000003,-0.09581097050000001,-0.3423501514999998
86242.0,2.427145875,-0.3525490675,10.395637399,-0.16228071385043277,-0.6978262681786328,0.8748794488179455,10.681039503485236,1.1308008580700297,0.08021839699999989,-0.08139519499999998,-0.33764295949999834
86252.0,2.2942657674999998,-0.3741236975,10.176556838,-0.14256372929065284,-0.6237492587362374,0.9356343600798682,10.438674869445737,1.1334898369395858,-0.13288010750000012,-0.02157463000000004,-0.21908056100000017
86262.0,2.1290237149999998,-0.5093574009999999,10.1215415315,-0.13030628195389665,-0.505707405436105,0.9580164624074435,10.355568063359211,1.0911073500225532,-0.16524205250000001,-0.1352337034999999,-0.05501530649999964
86272.0,2.0967598365,-0.6973508815,10.105948958,-0.1316379681731683,-0.3658140299010035,0.9526879722011048,10.344704171970779,1.028962016555434,-0.03226387849999979,-0.1879934805000001,-0.015592573499999318
86282.0,2.0728316104999998,-0.8576896089999999,10.2052903225,-0.13030628195389665,-0.22645472511701226,0.9441602934758605,10.44893357799669,0.9796428580972216,-0.02392822600000022,-0.1603387274999999,0.09934136449999897
86292.0,2.1002902304999997,-0.9295723534999999,10.291490775999998,-0.11005522664300643,-0.11294025589655307,0.9494905290114511,10.544671934451936,0.9624967111610656,0.02745861999999999,-0.07188274449999998,0.08620045349999828
86302.0,2.117059602,-1.014596009,10.461538087,-0.06582160208046216,-0.015948818704724182,0.9811979255324321,10.721712809325323,0.9835325196391135,0.01676937150000013,-0.08502365550000002,0.17004731100000114
86312.0,2.0452749239999997,-1.003808694,10.7128825265,-0.009597565556716819,0.07384837131038408,1.0312941110524254,10.952471567435461,1.033979322182617,-0.07178467800000021,0.010787314999999964,0.2513444395000004
86322.0,1.7723558545,-0.9079977235,11.0696484535,0.03223623128433527,0.1665777144688428,1.0923143123606511,11.247347332813037,1.1054129846138965,-0.27291906949999967,0.09581097049999998,0.35676592699999965
86332.0,1.4263772424999999,-0.8242489325,11.632255964,0.04609240021591825,0.25477792821837625,1.1442745095217743,11.74833252647638,1.1732009440868216,-0.34597861200000013,0.08374879099999999,0.5626075105000012
86342.0,1.143847656,-0.820620472,12.3062670185,0.0013264502315156904,0.32379173750073603,1.1759819060427552,12.386525475282529,1.2197443552170733,-0.28252958649999993,0.003628460499999986,0.6740110544999993
86352.0,0.8589644734999999,-0.704509736,12.949092926,-0.11538371684934512,0.37761594630298917,1.1837102239705863,12.996659630114085,1.2478289543638452,-0.2848831825,0.11611073599999999,0.6428259075000007
86362.0,0.579965281,-0.5081806029999999,13.388430845999999,-0.27233070450568325,0.4050612487906,1.1885063887550666,13.410618470844478,1.284829196430394,-0.27899919249999994,0.1963291330000001,0.43933791999999805
86372.0,0.380105754,-0.22810267899999997,13.6493858025,-0.4364719393387419,0.41065851970174577,1.2010308714673779,13.656582442246648,1.3422456287324762,-0.19985952699999998,0.2800779239999999,0.2609549565000009
86382.0,0.1107170785,0.020888164499999997,13.734409457999998,-0.5742325225279064,0.3933378722049541,1.2383355388995048,13.734871595573347,1.4205395378309644,-0.2693886755,0.24899084349999998,0.0850236554999988
86392.0,-0.18377662099999997,0.138273765,13.6517393985,-0.676819485301629,0.3626951265276896,1.2956242262669666,13.6536765043365,1.506079183237314,-0.2944936995,0.11738560049999999,-0.08267005949999806
86402.0,-0.5249499745,-0.068842683,13.516505695,-0.7405048043776501,0.319794933513669,1.359574835389291,13.526870960931712,1.5808415157223101,-0.34117335350000005,-0.207116448,-0.13523370350000086
86412.0,-0.911626184,-0.30351581749999995,13.2316225125,-0.7815392404212889,0.276093634372983,1.40354142457628,13.266462168344804,1.6300183464492604,-0.3866762094999999,-0.23467313449999994,-0.2848831824999998
86422.0,-1.3137969005,-0.5488782004999999,12.9095721265,-0.8113843706303919,0.24092175928679327,1.4163311973348944,12.987855175665198,1.649964227353192,-0.40217071650000014,-0.24536238299999996,-0.322050385999999
86432.0,-1.6597755125,-0.7008812755,12.5480990075,-0.821776060996766,0.23505919832934433,1.3987452597917995,12.676785003156898,1.639224518769965,-0.3459786119999999,-0.1520030750000001,-0.3614731190000011
86442.0,-2.0559641725,-0.7248095015,12.161422797999998,-0.821509025621211,0.2784917167652232,1.3606412315622594,12.355263735096162,1.6136230280059884,-0.39618865999999997,-0.023928225999999997,-0.3866762095000009
86452.0,-2.512071464,-0.7260843659999999,11.906449898,-0.7945960485554584,0.3512370399883469,1.3166746423752702,12.190211266437384,1.5774607610060447,-0.45610729149999996,-0.001274864499999917,-0.2549728999999985
86462.0,-2.9658251594999996,-0.7355968164999999,11.863300637999998,-0.7519628909169929,0.43144190043449426,1.2596529903833633,12.25051523735795,1.5291553089691443,-0.45375369549999967,-0.009512450499999936,-0.04314926000000163
86472.0,-3.3045468504999995,-0.6865635664999999,12.002162802,-0.7293137532138625,0.48180337600079065,1.1893057495524801,12.46769069810874,1.475967889105734,-0.33872169099999994,0.04903324999999992,0.1388621640000025
86482.0,-3.492540331,-0.6086987655,12.229579015499999,-0.7602235342666821,0.5164429256651221,1.098175127988848,12.733065422243802,1.4320061903692312,-0.1879934805000003,0.07786480099999993,0.22741621349999797
86492.0,-3.5751123239999996,-0.48778277099999995,12.2631177585,-0.8622781716185465,0.5537475930972489,0.9971868868099522,12.782934612980666,1.4298747250499058,-0.08257199299999973,0.12091599450000007,0.03353874300000115
86502.0,-3.5822711784999997,-0.4088392385,12.151812280999998,-1.0170923669289476,0.6227614023796088,0.8940658532851192,12.67542338669251,1.4905242021414462,-0.007158854500000089,0.07894353249999997,-0.11130547750000197
86512.0,-3.6086510669999994,-0.417174891,11.966270463,-1.1775038331504943,0.7093628945343153,0.7925435413551131,12.505519829527573,1.5867691256669676,-0.026379888499999726,-0.008335652500000013,-0.18554181799999725
86522.0,-3.7068156334999998,-0.383636148,11.698156651999998,-1.285686321506111,0.772247107483671,0.6910212294251069,12.277399068595273,1.6513222737676005,-0.09816456650000038,0.03353874299999998,-0.26811381100000276
86532.0,-3.8325368865,-0.3178335265,11.4299447745,-1.3445754757976516,0.8060872963505891,0.5910976390899276,12.059560302310793,1.6754272166799635,-0.12572125300000003,0.06580262149999999,-0.26821187749999886
86542.0,-3.933055049,-0.4327674645,11.256367069499998,-1.372820139082676,0.8066213671016994,0.47785195057427554,11.931555192015756,1.6624125994480528,-0.10051816250000023,-0.11493393799999996,-0.17357770500000136
86552.0,-3.9594349374999998,-0.6015399109999999,11.038463306499999,-1.38321182944905,0.7791760646140886,0.3512806732196467,11.74251452874419,1.625973067480804,-0.026379888499999726,-0.16877244649999995,-0.21790376299999892
86562.0,-4.0671119545,-0.6086987655,10.852921488499998,-1.375218221474916,0.7272158674529654,0.22444585114796678,11.605938939745592,1.571764618080435,-0.10767701699999987,-0.007158854500000089,-0.1855418180000008
86572.0,-4.026414357,-0.5980095169999999,10.577648822999999,-1.361362052543333,0.6496743794453612,0.10826800948896424,11.333855591959498,1.5123178896288354,0.04069759749999946,0.010689248500000081,-0.2752726654999993
86582.0,-3.8325368865,-0.6518480255,10.3202242605,-1.3368471578698207,0.5961154606894112,0.009676105373056564,11.028158215302504,1.463764869435237,0.19387747050000037,-0.05383850850000005,-0.2574245624999989
86592.0,-3.7164261504999994,-0.63743225,10.056915708,-1.2992772003913908,0.5649403895902885,-0.0662649157104687,10.740563149261655,1.4183335032006517,0.11611073600000044,0.01441577549999995,-0.26330855249999985
86602.0,-3.6086510669999994,-0.6314501935,9.8318530905,-1.2595744505670237,0.5292344437529886,-0.11742575207417849,10.49220792128167,1.3712788557496032,0.10777508349999998,0.005982056500000055,-0.22506261750000078
86612.0,-3.4973455894999996,-0.6290965974999999,9.7180959505,-1.2374576382857516,0.5092486784884015,-0.15073361551923828,10.347394725461365,1.3466091659948831,0.11130547749999975,0.002353596000000069,-0.11375713999999881
86622.0,-3.5355915245,-0.7488357939999999,9.5792337865,-1.2252001909489956,0.4868665761608262,-0.18004467497723103,10.238304664880555,1.3306279178912779,-0.0382459350000004,-0.11973919649999998,-0.13886216400000073
86632.0,-3.6014922125,-0.9762520075,9.378099395,-1.2092129750007272,0.46101999526804216,-0.22667638193201556,10.093193865241334,1.3138179619235093,-0.06590068800000015,-0.22741621350000008,-0.20113439150000012
86642.0,-3.7307438594999995,-1.0815754284999999,9.221291061499999,-1.198554249258798,0.448762547931286,-0.29835356365291865,10.00602138682662,1.3141289745631883,-0.12925164699999936,-0.10532342099999992,-0.15680833350000078
86652.0,-3.7882108285,-1.122273026,9.0716415825,-1.180966566386451,0.43463934362414786,-0.3894841852165506,9.894681350472837,1.3173045663332508,-0.05746696900000048,-0.04069759750000013,-0.14964947899999892
86662.0,-3.8192979089999994,-1.1270782845,8.954354048499999,-1.158851499434431,0.4162540452836396,-0.4712877672575248,9.799887672977254,1.3184522697174161,-0.03108708049999942,-0.00480525850000002,-0.1172875340000008
86672.0,-3.850483056,-1.1594402295,8.844225369,-1.1204804358293357,0.38614362502823346,-0.5640171104159836,9.71549503566284,1.3125161359268078,-0.031185147000000413,-0.03236194499999989,-0.11012867949999894
86682.0,-3.7834055699999993,-1.1988629624999998,8.714973722,-1.0567951167533145,0.33551511408638196,-0.6548806966040603,9.576126413384058,1.2877325177841357,0.06707748600000052,-0.03942273299999988,-0.12925164700000025
86692.0,-3.619438382,-1.1414940599999999,8.5365907585,-0.9899140998168918,0.29528003884015663,-0.7406810826321015,9.342201275300036,1.2711131706196712,0.16396718799999954,0.05736890249999993,-0.1783829635000007
86702.0,-3.3943757645,-1.0971680019999999,8.384489617,-0.9336900632931464,0.28275555612784536,-0.8075638448977763,9.111818182603209,1.2664466835992767,0.2250626174999999,0.044326058,-0.15210114149999931
86712.0,-3.1860825185,-0.9882161205,8.293581971499998,-0.8982511528314017,0.29607939963757,-0.8539285164770056,8.939306171817652,1.2742496049461054,0.20829324599999977,0.1089518814999999,-0.09090764550000152
86722.0,-3.019663668,-0.9451649269999999,8.268378881,-0.8734692227823342,0.29874277207611344,-0.8938983016769277,8.853123444685323,1.2850096889738192,0.16641885049999994,0.043051193500000084,-0.025203090499998027
86732.0,-2.7490981945,-0.9702699509999999,8.277989397999999,-0.8454915948728651,0.28115683453301854,-0.9277384905438459,8.776335974324198,1.2863140788477214,0.27056547350000004,-0.02510502400000003,0.009610516999998708
86742.0,-2.3744841645,-0.9056441275,8.2396453965,-0.8321677513631403,0.2768929951703964,-0.9517193144662479,8.622651714710512,1.2941957157676436,0.37461403000000004,0.0646258234999999,-0.038344001499998726
86752.0,-1.988984753,-0.7942405835,8.094801175999999,-0.861211775445578,0.33871255727603555,-0.9509199536688345,8.373331746151937,1.3268988947572964,0.3854994115000001,0.11140354399999997,-0.14484422050000134
86762.0,-1.8225659024999998,-0.7775692784999999,7.897295245,-0.9278275023356976,0.46847953249106594,-0.9165474393800582,8.142090188552462,1.385783588836182,0.16641885050000016,0.016671305000000136,-0.19750593099999936
86772.0,-1.9195536709999999,-0.8840694974999999,7.7261692025,-0.9917781114580217,0.6065071510557856,-0.8637878814215216,8.009990993622838,1.4483108267011355,-0.09698776850000002,-0.10650021899999995,-0.1711260424999992
86782.0,-2.327706444,-1.1521833085,7.723717539999999,-1.011763876722609,0.7019016119820396,-0.8224864100023278,8.148715009345263,1.4808159608075089,-0.4081527730000001,-0.2681138110000001,-0.0024516625000012837
86792.0,-2.8185292764999996,-1.5220901464999999,7.8087411955,-0.9907134606143052,0.6821828820930076,-0.8251497824408711,8.440219473145161,1.4586839305090433,-0.4908228324999997,-0.3699068379999999,0.08502365550000057
86802.0,-3.1249870889999998,-1.8824845339999998,7.8290409610000005,-0.9571385617936904,0.5710682405940406,-0.8795080619942345,8.637312932630246,1.4197773040165564,-0.30645781250000015,-0.36039438749999997,0.020299765500000788
86812.0,-3.2136392049999998,-2.1087239495,7.671055829499999,-0.9214326159563903,0.43543870442156124,-0.9594476323940788,8.580168481703248,1.3997087876994871,-0.088652116,-0.22623941550000004,-0.15798513150000115
86822.0,-3.077130637,-2.2451344509999998,7.440011155499999,-0.8867930662920589,0.3189955727162556,-1.0377867358698443,8.358416575775314,1.401842154803325,0.136508568,-0.1364105014999999,-0.2310446740000005
86832.0,-2.8605017385,-2.2726911375,7.1012894645,-0.8550839244418259,0.26037345380027005,-1.0937454823472865,7.9859819221590564,1.4125303654923012,0.21662889849999978,-0.027556686500000094,-0.33872169099999905
86842.0,-2.658190549,-2.3038762845,6.731382626499999,-0.8313683905657269,0.2798251483137469,-1.1286503220579212,7.595086240025223,1.4294499165560528,0.20231118950000004,-0.03118514699999997,-0.36990683800000035
86852.0,-2.476179125,-2.4007659864999997,6.4272784099999996,-0.8087192528625965,0.3592306479624809,-1.1465032949765712,7.294179058720261,1.4482897823910499,0.18201142400000014,-0.09688970199999991,-0.30410421649999986
86862.0,-2.3529095344999997,-2.519328385,6.112484944999999,-0.7740797031982651,0.46554912467696746,-1.1558303344992287,7.017525987971784,1.4669284701510172,0.12326959050000008,-0.11856239850000039,-0.31479346500000016
86872.0,-2.380466221,-2.6641726055,5.9796048375,-0.7221195060371419,0.5811928955848598,-1.1704858642282252,6.965637739207522,1.4930769977585665,-0.027556686500000094,-0.1448442205,-0.13288010749999923
86882.0,-2.519328385,-2.879624706,6.03697374,-0.6475101711728883,0.6544705442298416,-1.1973988412939778,7.147328584605711,1.5104188492497732,-0.1388621640000003,-0.21545210049999985,0.057368902499999486
86892.0,-2.5863078045,-3.1490133815,6.185446420999999,-0.5667712399756305,0.6707247955536648,-1.2482926422821323,7.407092598553455,1.5262162070328458,-0.06697941949999997,-0.2693886755000001,0.14847268099999944
86902.0,-2.5647331744999997,-3.2866987475,6.3291138435,-0.4964257444739992,0.6390156537034319,-1.3141090083748386,7.578781363595486,1.5432634290186786,0.021574630000000372,-0.13768536599999992,0.14366742250000097
86912.0,-2.4331279314999996,-3.306998513,6.3781470935,-0.44739595512697444,0.5825263271333834,-1.372198801868966,7.585322079012346,1.5564156303244043,0.1316052430000001,-0.0202997654999999,0.04903324999999992
86922.0,-2.246311249,-3.2614956569999998,6.218985163999999,-0.4234151312045723,0.5305661299722603,-1.4031068375925333,7.372858646282722,1.5586820039076752,0.1868166824999995,0.04550285600000015,-0.15916192950000063
86932.0,-2.06920315,-3.2950344,5.9603838035,-0.4052951229103672,0.5185757180110592,-1.4097687593473958,7.117937092878695,1.555838316406146,0.17710809900000024,-0.03353874300000026,-0.25860136049999927
86942.0,-1.9937900114999998,-3.3895705059999997,5.731790792,-0.35040451793514554,0.5446875889501464,-1.3999093944028798,6.951101532013343,1.542470164470977,0.07541313850000009,-0.09453610599999962,-0.2285930115000001
86952.0,-2.058415835,-3.5116632985,5.7065877015,-0.2598062217933719,0.5809276055385566,-1.3868525862687102,7.009564755869062,1.5258886760833892,-0.06462582350000012,-0.12209279250000016,-0.025203090499999803
86962.0,-2.2403291925,-3.618261584,5.8371142129999996,-0.16841031018343686,0.5907869704830726,-1.3892524139902023,7.22376592343803,1.5190172964276123,-0.18191335750000004,-0.10659828550000006,0.1305265114999994
86972.0,-2.349281074,-3.6745517549999995,6.068158886999999,-0.09433330074104151,0.5414901457604927,-1.4121668417396358,7.472884613233717,1.5153631704952173,-0.1089518814999999,-0.05629017099999967,0.23104467399999962
86982.0,-2.2715143395,-3.7295670614999996,6.2704700765,-0.0429054290017766,0.4365051005945298,-1.4518695915640032,7.641219983815528,1.5166749452638468,0.07776673449999993,-0.05501530650000008,0.2023111895000005
86992.0,-2.0129129789999998,-3.6996567789999997,6.3171497305,-0.009597565556716819,0.31526405877549174,-1.4969025769239606,7.592473882798908,1.5297715073898475,0.25860136050000015,0.02991028249999994,0.04667965400000007
87002.0,-1.652616658,-3.594333358,6.229772479,0.0074560465645197764,0.23053006892041902,-1.5254142755845401,7.379731651410941,1.542753518052684,0.36029632099999986,0.10532342099999958,-0.08737725149999953
87012.0,-1.3509641039999998,-3.3931989664999995,6.0513895154999995,0.0037245326237558994,0.21693919003513917,-1.52727828722567,7.068112782409212,1.5426131890228814,0.30165255400000013,0.20113439150000056,-0.1783829635000007
87022.0,-1.133060341,-3.2172676654999997,5.8586888429999995,-0.014128440294894098,0.26756770097699073,-1.4982342631432324,6.779297303328091,1.5220045974594238,0.2179037629999998,0.17593130099999987,-0.1927006725
87032.0,-1.051665146,-3.1561722359999997,5.771311591499999,-0.017592918860102842,0.32938726308262983,-1.446274065982109,6.661490842806187,1.4834130085069044,0.08139519500000003,0.06109542949999991,-0.08737725150000042
87042.0,-1.0815754284999999,-3.1860825185,5.8083807284999995,0.0021258110289290935,0.3568325655702407,-1.3895177040365057,6.712541538749421,1.434605677095575,-0.02991028249999994,-0.029910282500000385,0.037069137000000474
87052.0,-1.1043268565,-3.269929376,5.8083807284999995,0.0325032666598904,0.34457511823348447,-1.339156228470209,6.756423803849571,1.3831586599879777,-0.022751428000000073,-0.08384685749999976,0.0
87062.0,-1.1617938255,-3.2686545115,5.707862565999999,0.058082812177119296,0.3221930159059092,-1.3013192356162242,6.6793384613196025,1.3418694815643368,-0.057466969000000034,0.001274864500000028,-0.10051816250000023
87072.0,-1.2372069639999999,-3.3632886839999996,5.5989106845,0.09139067562217908,0.30940149781804277,-1.2690760230148808,6.647570435632916,1.309440909179942,-0.07541313849999987,-0.09463417249999972,-0.10895188149999946
87082.0,-1.2539763355,-3.5751123239999996,5.546248973999999,0.14308558273699912,0.3195278981381139,-1.2464268853117506,6.716752374533896,1.294662713645411,-0.01676937150000013,-0.21182363999999998,-0.05266171050000068
87092.0,-1.3137969005,-3.7164261504999994,5.5964590219999995,0.20463810946708313,0.34484215360903964,-1.2312390301608958,6.845307824547326,1.2948908896673594,-0.0598205650000001,-0.1413138264999998,0.050210048000000285
87102.0,-1.377245926,-3.7762467155,5.7113929599999995,0.26352551842937183,0.36535849896623296,-1.2211143751700766,6.9840428936645065,1.3015578546024509,-0.06344902549999998,-0.05982056500000077,0.11493393800000007
87112.0,-1.4143150629999999,-3.793016087,5.850255123999999,0.3077591429919161,0.3589636125869258,-1.2147194887907693,7.114263359586692,1.3035006719233724,-0.03706913699999981,-0.016769371499999686,0.13886216399999984
87122.0,-1.385679645,-3.860093573,6.0801229999999995,0.34000061026400735,0.32085958435738554,-1.2200479789971082,7.334052506357739,1.3065482612245212,0.028635417999999913,-0.06707748600000007,0.22986787600000014
87132.0,-1.3509641039999998,-3.8780397425,6.201038994499999,0.3549231753685589,0.2665013048040221,-1.231771355582754,7.43755207484395,1.30929526017248,0.03471554100000018,-0.017946169500000053,0.12091599449999979
87142.0,-1.2108270755,-3.894809114,6.198587332,0.34692782206517286,0.20867854668545002,-1.2520241562228962,7.420116249338162,1.315853387477226,0.14013702849999987,-0.01676937150000013,-0.0024516624999995074
87152.0,-0.9822340639999999,-3.850483056,6.0909103149999995,0.3362708416524955,0.1751053931940871,-1.2581520072266483,7.272564333603275,1.3140344177226781,0.2285930115,0.044326058000000224,-0.10767701700000032
87162.0,-0.8254257304999999,-3.7966445474999997,5.9688175225,0.34079997106142074,0.1417975297490273,-1.2522894462691994,7.121981471018861,1.3055573587382554,0.1568083335,0.05383850850000016,-0.12209279249999927
87172.0,-0.6302733954999999,-3.7858572324999997,5.904191699,0.3663795165786497,0.11008838789879433,-1.2426971167002385,7.041976935242557,1.3002497941448201,0.19515233499999995,0.010787314999999964,-0.06462582350000012
87182.0,-0.42198014949999996,-3.7307438594999995,5.8874223275,0.4018201723696465,0.08663988939825051,-1.2347035087261047,6.982711411344057,1.3013295800137132,0.208293246,0.05511337300000019,-0.016769371499999686
87192.0,-0.3046926155,-3.595510156,5.8346625505,0.43725908283139137,0.07544883823446287,-1.2211143751700766,6.860307423872967,1.2992337549326858,0.11728753399999997,0.13523370349999952,-0.05275977700000034
87202.0,-0.17298930599999998,-3.5607946149999994,5.912527351499999,0.46896822468162436,0.06665412413366345,-1.2117873356474191,6.904141023504585,1.3010774438366577,0.1317033095,0.03471554100000063,0.0778648009999987
87212.0,-0.07835513350000001,-3.502150848,5.9736227809999995,0.488152883819546,0.06585476333625004,-1.2093892532551789,6.924981532016897,1.305853151669257,0.09463417249999997,0.058643766999999514,0.0610954295000008
87222.0,0.015004174499999998,-3.5069561064999997,5.9927457485,0.49561416637182176,0.053332025953190726,-1.2101886140525921,6.943483842015828,1.3088293198439747,0.093359308,-0.004805258499999798,0.01912296750000042
87232.0,0.20535125099999998,-3.5883513015,6.021479233,0.5129348138686135,0.036011378456399,-1.2083228570822104,7.012606245377982,1.31318051676229,0.1903470765,-0.08139519500000025,0.028733484500000017
87242.0,0.47827032049999996,-3.617084786,6.013045514,0.5361162769936022,0.024288001870753088,-1.199796923686218,7.033403244661816,1.3143527789673772,0.2729190695,-0.028733484500000017,-0.008433719000000117
87252.0,0.7787460764999999,-3.5679534694999995,6.023832829,0.5600988462452562,0.02215520952481602,-1.1790135429534694,7.0443806941362395,1.305478649898974,0.300475756,0.049131316500000466,0.010787314999999964
87262.0,1.0911859455,-3.535689591,6.0394254025,0.5878111841084223,0.03254689989119026,-1.1571620207185005,7.082827602301553,1.2983086039339014,0.312439869,0.03226387849999934,0.015592573500000206
87272.0,1.385679645,-3.3955525625,5.9927457485,0.6093939256385842,0.07811221067300622,-1.138244396956134,7.025872678139881,1.2934692811441104,0.29449369950000004,0.14013702850000032,-0.04667965400000007
87282.0,1.4838442115,-3.1106693799999996,5.997551007,0.6189862552075449,0.16524602824957113,-1.1147958984555901,6.917273719988125,1.2857760805060594,0.09816456649999994,0.2848831825000002,0.004805258500000242
87292.0,1.458641121,-2.9179687074999996,6.139943564999999,0.6413701028643722,0.24731664566610048,-1.081220999634975,6.952775149478534,1.2812337734088348,-0.025203090499999803,0.1927006725,0.14239255799999917
87302.0,1.538859518,-2.9359148769999996,6.403350184,0.6874677390680465,0.2814238699085737,-1.0444486576247067,7.210449248144109,1.281672456295953,0.08021839699999989,-0.017946169500000053,0.2634066190000004
87312.0,1.6430061409999999,-3.0028942964999996,6.697843883499999,0.7511513128148155,0.26703537555513246,-0.9970193352017608,7.521831959240666,1.2765515035859119,0.10414662299999988,-0.06697941949999997,0.2944936994999994
87322.0,1.802266137,-3.075953839,6.9863555265,0.8087087808870845,0.22972896279375363,-0.9344004122987082,7.843393321190314,1.2569365215213393,0.15925999600000007,-0.07305954250000024,0.28851164300000054
87332.0,1.9399515029999999,-3.134597606,7.1526763104999995,0.8326896048094867,0.20281773105725306,-0.8624544498729979,8.046731783048369,1.2158678744397875,0.13768536599999992,-0.05864376699999996,0.16632078399999983
87342.0,1.9853562925,-3.1860825185,7.169445681999999,0.839351526564349,0.19162493456421342,-0.791042558198398,8.09281859490308,1.169178955324508,0.04540478950000004,-0.05148491250000031,0.016769371499999686
87352.0,1.92798739,-3.2111875425,7.126394488499999,0.849210891508865,0.18629644435787474,-0.7329545100335226,8.050736563497116,1.1371401924196283,-0.05736890249999993,-0.025105023999999698,-0.043051193500000196
87362.0,1.8225659024999998,-3.239921027,6.985080662,0.8723923546338537,0.17457132244297682,-0.695916877976951,7.9126598931584775,1.1295325883285865,-0.10542148750000013,-0.028733484500000017,-0.14131382649999935
87372.0,1.8250175649999998,-3.2327621724999998,6.912119186,0.9131615006311893,0.18309900116822111,-0.6716672733497417,7.845943666505308,1.1482709160093199,0.0024516624999999515,0.007158854500000089,-0.07296147599999969
87382.0,1.8908201865,-3.2686545115,7.034211978499999,0.9741817019394149,0.20974494285841855,-0.6399598768287609,7.983698482013087,1.1843021461598975,0.06580262150000027,-0.035892339000000106,0.12209279249999927
87392.0,2.0261519564999997,-3.3237678845,7.2783975635,1.020012302767534,0.24811600646351387,-0.6031875348184923,8.253956372142097,1.210711300278039,0.13533176999999963,-0.05511337300000019,0.24418558500000032
87402.0,2.1075471515,-3.2926808039999997,7.5765197235,1.0506567937740505,0.305938764582086,-0.5538924554251645,8.525676101835582,1.226488922964451,0.08139519500000025,0.031087080500000308,0.29812216000000014
87412.0,2.0308591485,-3.1297923474999996,7.8662081645,1.0469252798332866,0.3618957657302762,-0.49633498735289544,8.706159882908317,1.213824330979614,-0.07668800300000012,0.16288845650000017,0.289688441
87422.0,1.7903020239999998,-2.9897533854999994,8.164232258,1.0234767813327428,0.3880093819986154,-0.44464182556732734,8.876851638154994,1.1814238678349207,-0.2405571245,0.1400389620000002,0.2980240935000005
87432.0,1.5879908344999998,-2.9299328204999995,8.402533853,1.0269412598979515,0.3315183100993149,-0.4105346013248542,9.039291807100271,1.1545784512526007,-0.20231118950000004,0.05982056499999988,0.23830159499999937
87442.0,1.632218826,-2.8186273429999997,8.678983316499998,1.0450595228629047,0.24598321411757681,-0.3873531381998655,9.270035048625294,1.1413586647620193,0.04422799150000012,0.11130547749999975,0.27644946349999877
87452.0,1.8680687584999998,-2.6329874584999997,8.925620563999999,1.0328038208554005,0.17190795000443349,-0.34818271379735677,9.491522864935936,1.1033889966079655,0.23584993249999986,0.18563988450000002,0.2466372475000007
87462.0,2.149421547,-2.4354815275,8.981910735,0.9616572192271037,0.13113880400709793,-0.287162512489131,9.551246186179574,1.012148359573382,0.28135278850000045,0.1975059309999998,0.056290171000000555
87472.0,2.4091997055,-2.4654898765,8.950725588,0.879054276388716,0.12740903539558607,-0.2048266050262985,9.5915781862936,0.9115500102925358,0.25977815849999963,-0.030008349000000045,-0.031185147000000413
87482.0,2.5253104415,-2.5384513525,8.9172849115,0.8444147267243846,0.14472793756312577,-0.10676702633224912,9.609313101768699,0.8633548543513984,0.11611073599999999,-0.07296147600000014,-0.03344067649999971
87492.0,2.36732531,-2.5468850714999998,8.890905022999998,0.8715929938364403,0.14845945150388967,-0.005511749777798093,9.546677161127988,0.884163409688061,-0.15798513149999982,-0.008433718999999673,-0.02637988850000106
87502.0,2.1290237149999998,-2.4774539895,8.961512903,0.9467363994518041,0.11381815651030622,0.08588416183213697,9.538303505328258,0.9574134279672388,-0.23830159500000025,0.06943108199999992,0.07060788000000073
87512.0,1.9135716145,-2.4020408509999998,9.1302853495,1.043460801268078,0.0733160458885258,0.16102756744750085,9.632946960146063,1.058355121802605,-0.21545210049999985,0.07541313850000009,0.16877244650000023
87522.0,1.7184192795,-2.2846552505,9.296704199999999,1.1183371715078865,0.046403068822773244,0.22630986278909673,9.726321165584249,1.1419489603165505,-0.19515233499999995,0.11738560049999958,0.1664188504999995
87532.0,1.6634039729999999,-2.1673677165,9.493033333,1.1404539837891587,0.03761010005122581,0.2796034914987436,9.878364108361652,1.1748310181573833,-0.05501530650000008,0.11728753400000036,0.19632913300000077
87542.0,1.5760267215,-2.1338289735,9.7875270325,1.1335250266587413,0.044804347227946434,0.3278321747191029,10.140649472639726,1.1808303647744154,-0.08737725149999997,0.033538742999999815,0.29449369950000026
87552.0,1.55925735,-2.09077778,10.040146336500001,1.1002171632136815,0.04800179041760005,0.36407219130751317,10.373387762308182,1.1598838470281023,-0.016769371499999908,0.043051193500000196,0.2526193040000013
87562.0,1.5975032849999997,-2.083520859,10.310711809999999,1.0442601620654912,0.032281609844887114,0.38672132901064354,10.63972997516137,1.1140353561368608,0.03824593499999973,0.00725692099999975,0.2705654734999978
87572.0,1.6788984799999997,-1.9339694465,10.498607223999999,0.9760457135805448,-0.028738591463338632,0.40723767436783687,10.806465267142942,1.057985663921197,0.08139519500000003,0.14955141250000015,0.18789541399999976
87582.0,1.8010893389999998,-1.584362374,10.5130229995,0.9102310928170907,-0.11613769908620668,0.435217047606558,10.783217494200066,1.015589723267916,0.12219085900000004,0.3496070725,0.014415775500001615
87592.0,1.8464941285,-1.2408354245,10.290313978,0.8585361857022706,-0.2048702382575984,0.4906417233328899,10.528047059312629,1.0098442936210499,0.045404789500000264,0.34352694949999996,-0.22270902150000005
87602.0,1.8178587105,-1.002631896,9.8893200595,0.8369534441721087,-0.28374341248447416,0.572178269998309,10.104876656815083,1.0528007240205277,-0.028635418000000135,0.23820352849999993,-0.4009939185000011
87612.0,1.8525742514999999,-1.02773692,9.596003157999998,0.8897130021306453,-0.3223797661358726,0.6651746485323229,9.827082534628364,1.1567088020864391,0.03471554099999996,-0.02510502399999992,-0.2933169015000008
87622.0,1.7878503614999999,-1.037347437,9.4284075095,0.9883031609173011,-0.30239574620053755,0.7501756737629508,9.652324423959346,1.2770864758132106,-0.06472389,-0.00961051700000004,-0.16759564849999897
87632.0,1.6873321989999999,-1.0732397759999999,9.570898134,1.0823641902950314,-0.2509678744612726,0.8263837302220312,9.77757764775997,1.38470472809921,-0.10051816250000001,-0.035892338999999884,0.1424906245000006
87642.0,1.5712214629999999,-1.1390423975,9.9611047375,1.1455171839491944,-0.2056695990550118,0.8850058491380166,10.148387165482964,1.462102922405548,-0.11611073599999999,-0.06580262150000005,0.39020660349999936
87652.0,1.39646696,-1.100698396,10.472325402,1.1524443957503596,-0.19154814007712567,0.9116517908282141,10.62220580928006,1.4818663107661594,-0.17475450299999995,0.038344001499999836,0.5112206644999997
87662.0,1.238383762,-1.0217548635,10.928334626999998,1.115406763693788,-0.2227232111762484,0.9100530692333874,11.045636018933376,1.4566861247748666,-0.15808319799999992,0.07894353250000008,0.45600922499999896
87672.0,1.2790813595,-0.8517075525,11.216846269999998,1.0405303934539794,-0.2757498045103401,0.8969962610992177,11.321620693346812,1.4011936864027612,0.040697597499999905,0.17004731100000003,0.28851164299999965
87682.0,1.3724406674999998,-0.5980095169999999,11.332957005999999,0.9304821481279809,-0.3005299892301556,0.8900690492980522,11.43140950487187,1.3222474106345898,0.09335930799999992,0.25369803550000003,0.11611073600000132
87692.0,1.4071562085,-0.4231569475,11.227633585,0.8164353534856635,-0.29226934588046644,0.9116517908282141,11.323378750017927,1.2582118441196404,0.03471554100000018,0.17485256949999994,-0.10532342099999958
87702.0,1.3006559894999998,-0.2735074685,11.0588611385,0.7455557872329217,-0.2725523613206865,0.9644113487867507,11.138443428907514,1.2490906577213134,-0.10650021900000017,0.14964947899999997,-0.16877244650000023
87712.0,0.9762520075,-0.126309652,11.030127654,0.7604783523374733,-0.27761556148072203,1.044350919186595,11.07396668650722,1.3213881211650347,-0.32440398199999987,0.14719781650000002,-0.028733484500000017
87722.0,0.6578300819999999,-0.0030400615,11.154672108999998,0.8406832127836207,-0.3386340174596958,1.1528004429177667,11.174052958441736,1.466414035403536,-0.31842192550000004,0.1232695905,0.12454445499999878
87732.0,0.3968751255,0.070019481,11.3377622645,0.9176906300401144,-0.42390207806587876,1.2593859550078084,11.344922465988047,1.6149000117415697,-0.26095495649999995,0.07305954249999999,0.18309015550000218
87742.0,0.265171816,0.10954028049999999,11.5448787125,0.9547300074259382,-0.5099694994694751,1.3435876194410228,11.548443170028953,1.7253422757771495,-0.13170330949999998,0.039520799499999995,0.20711644799999895
87752.0,0.182599823,0.1238579895,11.7053155065,0.9192893516349413,-0.5757858655621813,1.3859554870331852,11.707394868357007,1.759970138112569,-0.08257199300000001,0.014317709000000012,0.16043679400000066
87762.0,0.25320770299999995,-0.001765197,11.680112416,0.8265617538057346,-0.6205518155465839,1.369434200333807,11.68285681274817,1.7157036217472021,0.07060787999999996,-0.1256231865,-0.025203090499999803
87772.0,0.4543420945,-0.139450563,11.604699277499998,0.7173111239478975,-0.6232169333143792,1.296690622439935,11.614427171391823,1.607588618034117,0.20113439150000006,-0.137685366,-0.07541313850000186
87782.0,0.7691355594999999,-0.1179739995,11.4071933465,0.6104603218115526,-0.5773845871570081,1.1906391811010035,11.433702262079386,1.4572770586150052,0.3147934649999999,0.021476563500000004,-0.19750593099999847
87792.0,1.0792218324999998,0.016180972499999998,11.039738171,0.5092050452571016,-0.4500156943342179,1.0947123947528914,11.092375781222438,1.288487147971607,0.3100862729999999,0.13415497199999998,-0.36745517549999995
87802.0,1.3186021589999999,0.2735074685,10.846939432,0.44418803996180883,-0.2376457762807999,1.054210284131111,10.930215598537899,1.168391138701854,0.23938032650000007,0.257326496,-0.19279873900000055
87812.0,1.3365483285,0.544072942,10.808693496999998,0.41887378449088314,-0.0007609635538695276,1.0936459985799227,10.904596824858896,1.1711180113930113,0.017946169500000053,0.2705654735,-0.03824593500000084
87822.0,1.100698396,0.716473849,11.0827893645,0.4132782589089893,0.18789516595270153,1.1885063887550666,11.16033565055873,1.2722621383924182,-0.23584993249999986,0.172400907,0.2740958675000016
87832.0,0.7344200184999999,0.5967346525,11.5544892295,0.41913907453718624,0.2598393830491598,1.31427655998303,11.593174128067746,1.4037510266810436,-0.36627837750000014,-0.11973919649999998,0.4716998649999997
87842.0,0.3741236975,0.395600261,12.081204400999999,0.4258009962920486,0.1974874955216624,1.4400467312109935,12.093467984258117,1.5146096485240637,-0.3602963209999999,-0.2011343915,0.5267151714999994
87852.0,-0.0281450855,0.20888164499999998,12.475039465,0.4273997178868754,0.028817131279678377,1.5261141526145896,12.47681984083938,1.5850947456589204,-0.402268783,-0.18671861600000003,0.393835064000001
87862.0,-0.41599809299999996,0.0867888525,12.7024556785,0.42979780027911557,-0.2011404696460865,1.5959273226943629,12.709562029533307,1.6649827797838066,-0.38785300749999996,-0.12209279249999998,0.22741621349999974
87872.0,-0.808656359,0.067665885,12.773063558499999,0.4308641964520841,-0.39805549717309474,1.6452241474169427,12.798814650131654,1.7466695823360026,-0.39265826600000003,-0.019122967500000004,0.07060787999999896
87882.0,-1.1988629624999998,0.020888164499999997,12.709614532999998,0.412744188157879,-0.5065067662335184,1.6742681714993803,12.7660491263239,1.7972425487936572,-0.3902066034999998,-0.046777720499999995,-0.06344902550000064
87892.0,-1.4657999754999997,-0.070019481,12.586344942499998,0.35891997935562586,-0.4971797267108607,1.6737341007482702,12.671604133158935,1.782525475902252,-0.26693701299999995,-0.0909076455,-0.12326959049999964
87902.0,-1.698119514,-0.14906107999999998,12.4115904395,0.2597957498178599,-0.3666133906984169,1.641759668851734,12.528104658218902,1.7021380731688511,-0.2323195385000003,-0.07904159899999999,-0.17475450299999906
87912.0,-1.8213891045,-0.230456275,12.311072277,0.14148511581292034,-0.17635853959701903,1.5794077813242364,12.44721129306465,1.5955091075242835,-0.12326959049999986,-0.081395195,-0.10051816250000023
87922.0,-2.0188950355,-0.2387919275,12.2595873645,0.05781752213081615,-0.018613936472519525,1.500799897143664,12.427004510211372,1.5020285202894064,-0.19750593100000002,-0.008335652500000013,-0.051484912499999425
87932.0,-2.1697213125,-0.21966896,12.3086206145,0.03596599989584715,0.04720242962018664,1.4165982327104496,12.500323454119041,1.4178406734992919,-0.15082627700000018,0.019122967500000004,0.049033250000000805
87942.0,-2.2104189099999996,-0.059232165999999996,12.5049497475,0.056484090582292486,0.046403068822773244,1.3254676111468178,12.698945956049855,1.3274818588155286,-0.04069759749999946,0.160436794,0.196329132999999
87952.0,-2.1984547969999997,0.24722564649999998,12.774338422999998,0.0698079340920172,0.018158405537749004,1.2580525234592848,12.964491743222089,1.2601186559749613,0.011964112999999887,0.3064578125,0.26938867549999834
87962.0,-2.1948263365,0.5847705395,12.961057039,0.016514305382370347,-0.010086257747275229,1.2260780915627485,13.158579664974202,1.2262307863888258,0.003628460499999875,0.337544893,0.18671861600000206
87972.0,-2.357714793,0.8158152135,12.998126176,-0.09593202233586832,-0.008754571528003558,1.229275534752402,13.235394123142894,1.233044174299077,-0.16288845650000017,0.23104467399999995,0.037069136999999586
87982.0,-2.640146313,0.785904931,12.866520932999999,-0.22623306830200898,0.0013718287920675431,1.2527240332529461,13.158091808235142,1.272988918489515,-0.2824315199999998,-0.02991028249999994,-0.13160524300000098
87992.0,-2.9813196664999997,0.557213853,12.611548032999998,-0.3357489882061491,-0.01781457567510612,1.2636497943704303,12.971117840051447,1.3076144481460763,-0.3411733534999999,-0.228691078,-0.2549729000000003
88002.0,-3.379959989,0.16102519299999998,12.290674445,-0.40023192275033165,-0.0884271065522927,1.2359374565072645,12.747969914970684,1.3021314609359855,-0.39864032250000037,-0.3961886600000001,-0.32087358799999777
88012.0,-3.5380431869999995,-0.1322917085,11.8106389275,-0.41595384865229657,-0.19927471267570457,1.1797134199835193,12.329900346920622,1.266669557781292,-0.15808319799999948,-0.2933169015,-0.48003551750000106
88022.0,-3.5619714129999998,-0.38245935,11.318639296999999,-0.40929192689743427,-0.3239784877306994,1.088315763044332,11.872047466087064,1.207026570555285,-0.02392822600000022,-0.2501676415,-0.4919996305000005
88032.0,-3.3812348534999996,-0.475818658,10.7464212695,-0.3754517380305162,-0.4270995212555324,0.9785345530938888,11.275846869809207,1.1317720089512273,0.18073655950000012,-0.09335930800000003,-0.5722180274999982
88042.0,-2.9957354419999995,-0.38726460849999994,10.2843319215,-0.3370806744254209,-0.46946738884769473,0.861824386013028,10.718763351573514,1.0376725314805737,0.3854994115000001,0.08855404950000006,-0.462089348000001
88052.0,-2.5600259825,-0.1203275955,9.928840859,-0.30164176396367604,-0.4465512157690092,0.762700156475262,10.254271917823408,0.9338668378089499,0.4357094594999995,0.26693701299999995,-0.3554910625000005
88062.0,-2.1434394904999996,0.2519328385,9.634347159499999,-0.27552814769533684,-0.3623495513357947,0.6955503588340322,9.873117450649277,0.8312660580102053,0.4165864920000004,0.372260434,-0.29449369950000026
88072.0,-2.034487609,0.5990882485,9.506174243999999,-0.25234493924109613,-0.2235225719736618,0.6563816797607754,9.739886822646055,0.7378869954592576,0.10895188149999946,0.34715541,-0.12817291550000043
88082.0,-2.152951941,0.7259862994999999,9.4846976805,-0.24035452727989512,-0.06497686272249689,0.6228067809401605,9.753037898921518,0.6707313753346008,-0.11846433199999984,0.12689805099999996,-0.02147656349999849
88092.0,-2.3217243874999998,0.5332856269999999,9.584039044999999,-0.24834813525402913,0.07145028891814387,0.5705795484034822,9.875657046878528,0.6263728611034817,-0.16877244649999978,-0.1927006725,0.09934136449999897
88102.0,-2.41635856,0.302240953,9.7288832655,-0.2707319829108564,0.16018282808953557,0.4914410841303033,10.029023276365528,0.5834969444279668,-0.09463417250000017,-0.23104467399999995,0.14484422050000134
88112.0,-2.5097178679999996,0.232809871,9.7959607515,-0.3019070540099791,0.18869452675011497,0.4005774979422265,10.115025025076406,0.5359252051770739,-0.0933593079999997,-0.06943108199999998,0.06707748599999874
