timestamp,ax,ay,az,gx,gy,gz,acc_mag,gyro_mag,dax,day,daz
77522.0,2.1667793175,2.212772506,11.335604801499999,0.7364154979402274,0.14664256375256354,0.7170301259383264,11.751052335422777,1.0382408336285036,0.0,0.0,0.0
77532.0,2.0327224119999996,2.1290237149999998,11.348745712499998,0.6831218692305806,-0.00763930613597918,0.7258230947098738,11.724279578305294,0.996761261302595,-0.1340569055000005,-0.0837487910000001,0.013140910999998923
77542.0,2.4097881045,2.029584284,11.3104997775,0.6887173948124744,-0.1227507516220132,0.7005088392389481,11.741111373770247,0.990006076139409,0.37706569250000044,-0.09943943099999997,-0.03824593499999729
77552.0,2.540314616,2.1697213125,11.156045039999999,0.7350820663917038,-0.19576311022069198,0.652545446064892,11.64552402671037,1.002239691308424,0.13052651149999983,0.14013702850000032,-0.15445473750000183
77562.0,2.656425352,2.419888954,11.0100240215,0.7766505731864528,-0.2639775587056384,0.6056484490638042,11.581583965695131,1.0196471488629908,0.11611073599999999,0.25016764150000004,-0.14602101849999904
77572.0,2.819215742,2.5060894074999998,10.8484104295,0.8032965148766502,-0.3223326422460687,0.5821999505632605,11.48548955705453,1.0431396864783582,0.16279039000000006,0.08620045349999961,-0.16161359200000014
77582.0,2.9054161954999995,2.6341642565,10.7574047175,0.8352726921024383,-0.34018561516471874,0.5877954761451543,11.449979076635342,1.076526936362375,0.08620045349999961,0.12807484900000032,-0.0910057119999994
77592.0,2.914928646,2.7682211619999997,10.7454406045,0.8840354460739078,-0.30474495937372187,0.626965900547663,11.472765629866819,1.1258216557822676,0.00951245050000038,0.1340569054999996,-0.011964112999999443
77602.0,2.879036307,2.8555984134999997,10.923823568,0.9285343606827552,-0.20375671819482602,0.7053050040234286,11.652176350407684,1.1837009790815192,-0.035892339000000106,0.08737725149999997,0.17838296349999894
77612.0,2.7641023689999997,2.9142421804999996,11.365515084,0.9266686037123734,-0.040414844159180695,0.8196188340413012,12.054376902915735,1.237789599992613,-0.11493393800000007,0.05864376699999996,0.44169151600000056
77622.0,2.517563188,2.950232586,11.944891966,0.8390024607139501,0.16449553667121355,0.9509845308511583,12.55875952459001,1.2788101847369733,-0.24653918099999972,0.03599040550000021,0.579376882
77632.0,2.1452046874999997,2.917870641,12.578205423,0.6506133665829342,0.3659414389363991,1.085280635475114,13.089198749047565,1.3172110488621362,-0.3723585005000003,-0.03236194499999989,0.6333134569999999
77642.0,1.689097396,2.824511333,13.132477281,0.3974743025321806,0.5274175560016625,1.2049229556993255,13.538569858718482,1.3740430956572682,-0.45610729149999973,-0.09335930800000014,0.5542718579999999
77652.0,1.3025192529999998,2.6569156845,13.552594166999999,0.16032245442969514,0.613750267451562,1.2845954907236143,13.871862384495463,1.4326821891049908,-0.38657814300000015,-0.16759564849999986,0.42011688599999886
77662.0,0.8595528725,2.3923322675,13.832770157499999,-0.07389724052943991,0.6497232486644171,1.3373550486821508,14.064409516540936,1.4886637055589647,-0.4429663804999998,-0.2645834169999999,0.2801759905000001
77672.0,0.33881975749999993,2.200808393,14.015860313,-0.24363400094439244,0.6238766677716331,1.3610705825582499,14.19164179100854,1.5169353162582322,-0.5207331150000001,-0.19152387450000008,0.1830901555000004
77682.0,-0.08139519499999999,2.1194131979999997,14.0900966535,-0.3414265442628867,0.5372751756169264,1.359204825587868,14.248837187174173,1.5008912210293064,-0.4202149524999999,-0.08139519500000025,0.07423634050000061
77692.0,-0.3878530075,2.005656058,14.091273451499998,-0.3837926665257971,0.4147024475786167,1.3429505742640448,14.23857695359222,1.4569801562899904,-0.30645781250000004,-0.1137571399999997,0.001176797999997703
77702.0,-0.58055368,1.9601532019999999,14.061363168999998,-0.3989822670059037,0.2873335547558265,1.3221654482020442,14.20919340853597,1.410627127731883,-0.19270067249999995,-0.04550285600000015,-0.029910282499999497
77712.0,-0.751777789,1.9566228079999999,13.966827063,-0.4210990792871758,0.17941635644651308,1.313107189384194,14.123236203666947,1.3905988473853654,-0.17122410900000007,-0.0035303939999999923,-0.09453610599999784
77722.0,-0.8522959514999999,1.8883685239999999,13.795602954,-0.4714605548534722,0.09841213520295226,1.3197673658098041,13.95030483307769,1.4049006737113117,-0.1005181624999999,-0.068254284,-0.17122410900000062
77732.0,-0.9492837199999999,1.8512993869999999,13.660369250499999,-0.5452705289203125,0.0520474636237229,1.327495683737635,13.817891918138942,1.4360618644476117,-0.09698776850000002,-0.03706913700000003,-0.13523370350000086
77742.0,-1.0701997145,1.8357068134999999,13.511896569500001,-0.623609632396078,0.03712664384842338,1.3298937661298753,13.677956566640797,1.4693143947064982,-0.12091599450000001,-0.015592573499999984,-0.14847268099999766
77752.0,-1.1778767314999998,1.7602936749999998,13.373034405499999,-0.7024828066229537,0.029398325920592484,1.3237659151261232,13.539722176896424,1.498900448067682,-0.10767701699999987,-0.07541313850000009,-0.1388621640000025
77762.0,-1.217397531,1.5915212284999998,13.249764814999999,-0.7818883062716877,0.025134486557970338,1.2976522988577839,13.400420300201894,1.5152169991885098,-0.0395207995000002,-0.1687724465,-0.12326959049999964
77772.0,-1.227008048,1.3867583765,13.153953844499998,-0.8543665941192562,0.016873843208281177,1.2472908232914877,13.283642169521354,1.5119396157250173,-0.00961051700000004,-0.20476285199999977,-0.09581097050000054
77782.0,-1.189938911,1.2586835275,12.955271115499999,-0.9151197600519267,0.0011536626355682519,1.176943582460604,13.070550428747072,1.4908526763131806,0.03706913700000003,-0.1280748490000001,-0.19868272899999972
77792.0,-1.0773585689999998,1.2371088975,12.774534555999999,-0.9633501886015382,-0.01536762406381007,1.1020689575500475,12.879436052595995,1.463842797893078,0.11258034200000022,-0.021574629999999928,-0.18073655949999967
77802.0,-0.9780172045,1.3053631815,12.553002332499998,-1.0073150324592752,-0.024692918257215774,1.037317242301058,12.65852907124932,1.4461398189682626,0.09934136449999986,0.068254284,-0.22153222350000057
77812.0,-0.8559244119999999,1.404704546,12.299304297,-1.044354409845099,-0.029756118417251325,0.9917536768484939,12.40881491725996,1.4405335523647733,0.12209279250000005,0.09934136450000008,-0.2536980354999976
77822.0,-0.7625651039999999,1.4801176845,12.106505558,-1.0678029083456428,-0.03961548336176729,0.9696368645672218,12.220463605104886,1.4429026601684372,0.09335930800000003,0.07541313849999987,-0.19279873900000055
77832.0,-0.67273619,1.446677008,11.934104650999998,-1.0773952379146037,-0.07025822903903174,0.9677711075968397,12.040278326011876,1.4499302169856245,0.08982891399999993,-0.03344067649999993,-0.17240090700000188
77842.0,-0.5793768819999999,1.3425303849999999,11.700706381,-1.0688693045186113,-0.1198203438079147,0.9715008762083517,11.791717229497085,1.449362776328253,0.09335930800000003,-0.1041466230000001,-0.23339826999999858
77852.0,-0.545838139,1.1736598719999998,11.467308111,-1.0467524922373392,-0.17764310192648686,0.9571123818549104,11.540128772320369,1.429444634523186,0.033538742999999926,-0.1688705130000001,-0.23339827000000035
77862.0,-0.44169151599999995,1.160518961,11.2697041135,-1.0249027153316221,-0.21654649095344045,0.9507174954756031,11.337906617184043,1.4146312999653952,0.10414662300000005,-0.01314091099999981,-0.1976039974999999
77872.0,-0.41178123349999995,1.2802581574999998,11.002767100499998,-1.016375036606378,-0.23066969526057857,0.9312658009621263,11.084651938692222,1.3976704602265353,0.029910282499999996,0.11973919649999987,-0.2669370130000015
77882.0,-0.3758888945,1.356848094,10.7466174025,-1.0177084681549016,-0.22640585589795642,0.9056862554448976,10.838455369973884,1.3810350216561789,0.03589233899999994,0.07658993650000023,-0.256149697999998
77892.0,-0.37108363599999994,1.4490306039999998,10.495272963,-1.0030529384259053,-0.2232084127083028,0.8846358393365938,10.601327620827231,1.3559195260144914,0.004805258500000076,0.09218250999999977,-0.2513444395000004
77902.0,-0.36873004,1.4681535715,10.330030910499998,-0.9505586705136717,-0.24239307184622447,0.8758411252357945,10.440353220259937,1.3150718094545524,0.002353595999999958,0.0191229675000002,-0.1652420525000018
77912.0,-0.324403982,1.4083330064999997,10.090650584,-0.8567646765114965,-0.27809901768352446,0.8870321763995821,10.193619033940514,1.2642036451943057,0.044326058,-0.059820565000000325,-0.2393803264999974
77922.0,-0.26330855249999996,1.319778957,9.8320492235,-0.7405868348524939,-0.3023468769814817,0.9128805026216181,9.923726105777336,1.2137682258339062,0.06109542950000002,-0.08855404949999968,-0.25860136050000015
77932.0,-0.1903470765,1.2430909540000001,9.561483749999999,-0.6273394010075898,-0.2946203043829028,0.9403258051092289,9.643831117920033,1.1681474511231684,0.07296147599999997,-0.0766880029999999,-0.2705654735000014
77942.0,-0.107677017,1.1354139369999998,9.4729297005,-0.5399402933847217,-0.24452411886290953,0.9613762212175325,9.541339332553836,1.1294121496816667,0.08267005949999999,-0.10767701700000032,-0.08855404949999901
77952.0,-0.142392558,1.0563723379999999,9.5782531215,-0.4941096925566027,-0.17444565873683324,0.9760317509465289,9.63738195863326,1.1077967570751663,-0.034715541,-0.07904159899999996,0.10532342099999958
77962.0,-0.2478140455,0.929474287,9.7386899155,-0.5183575518545599,-0.13340947736394257,0.9792291941361825,9.786082746513165,1.1159670491836982,-0.1054214875,-0.12689805099999985,0.16043679400000066
77972.0,-0.381870951,0.789435325,9.8463669325,-0.6174817813923259,-0.1406054698699152,0.9645736644071862,9.88534143694617,1.153887343971103,-0.13405690550000002,-0.140038962,0.10767701700000032
77982.0,-0.5051405415,0.6206628784999999,9.88706453,-0.7451159642614191,-0.17151350559348277,0.932332197135095,9.919396876614975,1.2057603446012577,-0.12326959049999997,-0.16877244650000012,0.04069759749999946
77992.0,-0.646454368,0.4506155674999999,9.700345914,-0.861827876671532,-0.2229413773327477,0.8934288081081413,9.732300267194601,1.261215755488615,-0.14131382650000002,-0.17004731099999998,-0.18671861600000028
78002.0,-0.7697239585,0.306948145,9.4046754165,-0.9457625057291913,-0.26850668811456363,0.8438666933392583,9.441112848903316,1.2956363513473772,-0.12326959049999997,-0.14366742249999992,-0.29567049749999974
78012.0,-0.8559244119999999,0.1454326195,9.1604898315,-0.9798697299716645,-0.2762332607131425,0.7804484096387924,9.201539610243879,1.2827896250541932,-0.08620045349999994,-0.1615155255,-0.24418558500000032
78022.0,-0.9444784615,-0.020986230999999998,8.990442520499998,-0.9729425181704989,-0.2554498799803941,0.7039733178041568,9.039941188998043,1.2277826424193095,-0.08855404950000012,-0.1664188505,-0.17004731100000114
78032.0,-1.052253545,-0.1060098865,8.9521965855,-0.9524244274840535,-0.21441544393675538,0.6176388610250053,9.014449474285085,1.1552333250539428,-0.10777508349999987,-0.0850236555,-0.038245934999999065
78042.0,-1.189938911,-0.23653639799999998,9.0443790955,-0.9500263450918134,-0.17124821554717962,0.5259759140395152,9.125387515202194,1.099330100491343,-0.13768536600000014,-0.1305265115,0.09218251000000066
78052.0,-1.2856518149999998,-0.36461124699999997,9.155684573,-0.9774716475794243,-0.13554226970987962,0.4361787240244069,9.252697009581686,1.0789227998292092,-0.09571290399999977,-0.128074849,0.1113054775000002
78062.0,-1.3299778729999998,-0.5094554675,9.271795309,-1.0273007977238624,-0.10836225726857195,0.3514429888400822,9.380542322703397,1.0911468655544379,-0.044326058,-0.14484422050000006,0.11611073599999955
78072.0,-1.3622417515,-0.6818563744999999,9.317298164999999,-1.096047571630667,-0.07665311541833895,0.2747026069591435,9.441010316723968,1.1325447018334283,-0.03226387850000023,-0.17240090699999988,0.045502855999998815
78082.0,-1.4208855184999998,-0.8099312234999999,9.263361589999999,-1.1869111578187437,-0.029223792995393055,0.20115792293860643,9.40663447735536,1.204191279071827,-0.058643766999999736,-0.128074849,-0.05393657499999982
78092.0,-1.5166964889999999,-0.9499701854999999,9.205992687499998,-1.290299226719132,0.034194490705072904,0.13107946281253013,9.378332098800259,1.2973909138104023,-0.09581097050000009,-0.140038962,-0.057368902500000374
78102.0,-1.6675227659999998,-1.0792218324999998,9.2071694855,-1.3779653697175551,0.10400766078484609,0.06153158277906009,9.418987306159579,1.3832542388592455,-0.15082627699999995,-0.12925164699999991,0.0011767980000012557
78112.0,-1.8542413819999999,-1.196607433,9.2179568005,-1.43365533549019,0.1445097714066265,-0.018938567713390468,9.478439113446703,1.4410445393389197,-0.18671861600000006,-0.11738560050000024,0.010787314999999964
78122.0,-2.003890861,-1.392936566,9.2550259375,-1.4637657557455963,0.14504384215773675,-0.11326663246667601,9.57138213444103,1.4752888645521922,-0.14964947900000003,-0.19632913299999988,0.037069136999999586
78132.0,-2.0997018315,-1.5497448995,9.245415420499999,-1.4837497756809315,0.11333470030750378,-0.21718702678892235,9.606672854446012,1.5038378754814026,-0.09581097050000009,-0.15680833350000012,-0.009610517000000485
78142.0,-2.161974059,-1.6382989489999997,9.202364226999999,-1.4984070507391798,0.08189084850357395,-0.32190678190858213,9.593834616275847,1.534781345017023,-0.06227222749999983,-0.08855404949999968,-0.043051193500000196
78152.0,-2.1355941704999997,-1.6323168924999998,9.089783885,-1.516792349079688,0.06776938952568781,-0.4258271762308285,9.478891917023851,1.5768895029139116,0.02637988850000017,0.005982056499999944,-0.11258034199999933
78162.0,-2.0997018315,-1.6203527795,9.007211891999999,-1.5493008517273343,0.07789404451650693,-0.5257507665660078,9.389577039389156,1.6379299374145795,0.03589233899999966,0.011964112999999887,-0.08257199300000018
78172.0,-2.0302707494999996,-1.6323168924999998,8.874331784499999,-1.5967301741502804,0.09708044898368058,-0.6259413922767423,9.248795725671698,1.7177818514532641,0.06943108200000037,-0.011964112999999887,-0.13288010750000012
78182.0,-1.9679985219999998,-1.637122151,8.703205742,-1.643361881105065,0.1282555200828033,-0.728528355050465,9.071878378123838,1.8021768267329996,0.06227222749999983,-0.004805258500000242,-0.1711260424999992
78192.0,-1.8902317874999999,-1.6789965464999999,8.4901072375,-1.6705401482171205,0.1756865878350012,-0.8327157847482666,8.85855103941295,1.8748295234818833,0.07776673449999993,-0.04187439549999983,-0.21309850449999956
78202.0,-1.7489179609999999,-1.6993943784999999,8.324865185,-1.675603348377156,0.22817911041798267,-0.9353044928512413,8.67467784049707,1.9324872009593224,0.14131382650000002,-0.020397832000000005,-0.16524205250000001
78212.0,-1.6842921375,-1.74362237,8.241116393999999,-1.6577503754585061,0.28626890391210996,-1.0341616870134522,8.590288609416117,1.974734561293332,0.0646258234999999,-0.04422799150000012,-0.08374879100000143
78222.0,-1.6519301924999998,-1.8969003094999999,8.3428113545,-1.6233761158404778,0.32623694378278006,-1.129289112564151,8.713759546937728,2.004264068611213,0.032361945000000114,-0.1532779394999999,0.10169496050000149
78232.0,-1.571809862,-2.0034005285,8.5056017445,-1.577812550387914,0.31771101038678773,-1.2334747969327005,8.878595663499716,2.027780265450567,0.08012033049999978,-0.10650021899999995,0.16279038999999962
78242.0,-1.5334658605,-2.0812653295,8.729487564,-1.53837509060985,0.2510952834966682,-1.3429907168368407,9.104237257844744,2.057491391552603,0.03834400150000006,-0.07786480100000004,0.22388581949999953
78252.0,-1.399408955,-2.1291217815,8.740274879,-1.5213214784886133,0.1453091322040399,-1.4405162247797798,9.104060080220824,2.100147799243296,0.13405690550000005,-0.047856451999999994,0.010787314999999964
78262.0,-1.1431611904999999,-2.137457434,8.5630687135,-1.5354446827957515,0.026467918106494008,-1.519921724428514,8.899532997958364,2.16066030948976,0.2562477645000001,-0.008335652500000013,-0.17720616549999946
78272.0,-0.7720775544999999,-2.135103838,8.251903708999999,-1.552231259541433,-0.045478044319216246,-1.5649547097884715,8.558544676042356,2.2046708097359575,0.37108363599999994,0.002353595999999847,-0.3111650045000012
78282.0,-0.46924820249999993,-2.0967598365,7.896314579999999,-1.544504686942854,-0.044411648146247706,-1.5670857568051568,8.183421022642642,2.200732807875845,0.302829352,0.03834400150000006,-0.3555891289999993
78292.0,-0.26576021499999997,-2.089600982,7.643695276,-1.5119961842952077,0.011278317626387358,-1.5391081288956874,7.9286277645124015,2.1575712025804696,0.20348798749999997,0.007158854500000089,-0.25261930399999954
78302.0,-0.18554181799999997,-2.135103838,7.5204256855,-1.4704276775004588,0.0861546878661961,-1.4994053790713204,7.8198399380292445,2.101855531616939,0.080218397,-0.04550285600000015,-0.12326959049999964
78312.0,-0.18191335749999998,-2.216499033,7.430694837999999,-1.4368527786798437,0.13544976725952393,-1.466362805672564,7.756364239023764,2.057452897373488,0.003628460499999986,-0.08139519499999981,-0.08973084750000115
78322.0,-0.23820352849999998,-2.3123100035,7.385191981999999,-1.4168687587445086,0.14584320295515016,-1.4551717545087763,7.7423884612097,2.036249531485415,-0.056290171,-0.09581097050000009,-0.0455028559999997
78332.0,-0.23584993249999997,-2.4211638184999997,7.306150382999999,-1.401413868218099,0.12692383386353162,-1.4655634448751507,7.700486533050024,2.031734899191071,0.0023535960000000133,-0.1088538149999998,-0.07904159899999996
78342.0,-0.1903470765,-2.5241336435,7.151695645499999,-1.385691942316134,0.08775340946102289,-1.5018034614635607,7.586450636868623,2.0453010675046905,0.04550285599999998,-0.10296982500000018,-0.15445473750000005
78352.0,-0.10532342099999999,-2.563654443,6.9279078924999995,-1.3662402478026572,0.05178217357741976,-1.5558947056413688,7.3877821362766625,2.071256175189131,0.0850236555,-0.03952079949999998,-0.22378775299999987
78362.0,-0.035892338999999995,-2.5385494189999998,6.647731902,-1.3465232632428772,0.03286280448580123,-1.6086542635999057,7.116028446652857,2.09808803489536,0.06943108199999999,0.025105024000000142,-0.2801759904999992
78372.0,0.032361944999999996,-2.5181515869999997,6.3304867745,-1.3217413331938097,0.042722169430317196,-1.6510221311920679,6.8130167703238635,2.1153485323510592,0.068254284,0.020397832000000005,-0.31724512750000056
78382.0,0.12454445499999998,-2.5109927324999997,6.0276574225,-1.2820385833694428,0.09494765663774353,-1.6869951124049232,6.530945553819784,2.1209880942680996,0.09218251,0.007158854500000089,-0.30282935199999983
78392.0,0.2023111895,-2.527762104,5.8062232655,-1.2375396687605953,0.17755234480538315,-1.7133740187195654,6.335829833624708,2.121009145412911,0.0777667345,-0.01676937150000013,-0.22143415700000002
78402.0,0.2250626175,-2.5480618694999997,5.572726929,-1.197302848185118,0.3006573982655512,-1.7376218780175228,6.131766295105967,2.131492146917072,0.022751428000000018,-0.0202997654999999,-0.2334963365
78412.0,0.22986787599999997,-2.5372745545,5.303436319999999,-1.1786505144690547,0.4346882128432037,-1.7632031688640035,5.883624580615682,2.1649610371401717,0.004805258499999965,0.01078731499999952,-0.26929060900000046
78422.0,0.284981249,-2.542079813,5.132212211,-1.1706569064949206,0.5671203058260295,-1.7954446361360947,5.7343688638490296,2.2171342935046447,0.05511337300000002,-0.004805258499999798,-0.17122410899999974
78432.0,0.3411733535,-2.577972152,5.014924676999999,-1.1448103256021365,0.6681085470049254,-1.8330163389437768,5.6490538313605665,2.2620584897436116,0.056192104500000006,-0.035892339000000106,-0.1172875340000008
78442.0,0.40579917699999996,-2.7073218654999995,4.9071495935,-1.084324195045021,0.7155396147571232,-1.873518449565557,5.619108629351766,2.279874400292554,0.06462582349999996,-0.12934971349999946,-0.10777508349999909
78452.0,0.5267151715,-2.8114684884999996,4.797020914,-0.9836012439124283,0.7128744969893279,-1.9180173641744045,5.58508671222481,2.270341838745521,0.12091599450000007,-0.1041466230000001,-0.11012867949999983
78462.0,0.6668522,-2.7983275775,4.6629640085,-0.8554312449629727,0.6867608807209887,-1.9675794789432874,5.47891982348786,2.252725488848188,0.14013702849999998,0.01314091099999981,-0.1340569054999996
78472.0,0.8200320729999999,-2.746842665,4.4785989885,-0.734724273895045,0.6739711079623742,-2.0259345624837177,5.317466137814721,2.2579786678542213,0.1531798729999999,0.05148491249999987,-0.18436502000000043
78482.0,1.0246968585,-2.5660080389999997,4.242749056,-0.6473251662721768,0.7080783322048475,-2.082957959804877,5.063133462611991,2.2932768384435827,0.2046647855000001,0.18083462600000022,-0.23584993249999986
78492.0,1.2282829124999999,-2.2811248565,3.9207967365,-0.6116192204348768,0.8066702363207552,-2.136783913936382,4.699452795063557,2.364453517375301,0.20358605399999985,0.2848831824999998,-0.32195231950000025
78502.0,1.5095376345,-1.9686849875,3.5999231485,-0.6230773069742197,0.9737418789679124,-2.174620906790367,4.371941345110417,2.4627981373981838,0.2812547220000001,0.31243986899999987,-0.320873588
78512.0,1.7478392294999998,-1.8035410014999997,3.2755191664999996,-0.6630453468448898,1.199700930577358,-2.1780853853555757,4.127557137869762,2.573512657963894,0.2383015949999998,0.16514398600000035,-0.3244039820000002
78522.0,1.9513272169999998,-1.832274486,3.0300587169999997,-0.6910247200836108,1.4456457474513913,-2.149573686694996,4.043038897700493,2.6810583405480832,0.20348798749999997,-0.02873348450000024,-0.2454604494999999
78532.0,1.9908480164999998,-1.9530924139999999,3.0695795164999997,-0.639596848344346,1.653753571471439,-2.1106702976680425,4.147332179913095,2.756612796354371,0.03952079949999998,-0.12081792799999991,0.03952079949999998
78542.0,1.872285618,-2.1434394904999996,3.237175165,-0.4746579980431259,1.7539441971821736,-2.089352846184184,4.310346776501552,2.768937662316232,-0.11856239849999972,-0.1903470764999997,0.1675956485000003
78552.0,1.7453875669999999,-2.2081633805,3.434681096,-0.22791382037167954,1.73715587510724,-2.1042754112887354,4.44065282421843,2.738180098256941,-0.12689805100000018,-0.06472389000000023,0.1975059309999998
78562.0,1.6376124834999999,-2.126670119,3.628656633,0.046277405116629644,1.6508231636573405,-2.1487743258975827,4.513496361068368,2.7100903710999327,-0.10777508349999998,0.08149326149999991,0.19397553700000003
78572.0,1.6209411784999999,-1.9123948164999998,3.7172106824999998,0.3007481553866549,1.5501002125247478,-2.210593888003222,4.483565489253519,2.7166128652266495,-0.016671305000000025,0.21427530250000015,0.0885540494999999
78582.0,1.7717674554999998,-1.6346704884999999,3.6909288604999997,0.4886049240958126,1.4954748975958292,-2.284136826694507,4.408430942593249,2.7735286160867316,0.15082627699999995,0.2777243279999999,-0.026281822000000066
78592.0,2.011147782,-1.291143539,3.6729826909999996,0.6074461381933585,1.498672340785483,-2.353150635976867,4.38207358310316,2.8552281014727696,0.2393803265000003,0.34352694949999996,-0.017946169500000053
78602.0,2.3499675395,-0.887697958,3.823808968,0.7095025208744749,1.5333118904498144,-2.4021804253238916,4.5751360772219964,2.936819704430507,0.33881975750000004,0.40344558099999994,0.15082627700000018
78612.0,2.7210511755,-0.471111466,4.0500483835,0.8411352530598872,1.5540970165118149,-2.4282922962629785,4.901934049105268,3.0032198598772575,0.37108363599999983,0.416586492,0.22623941550000026
78622.0,3.2477663469999998,-0.14435388799999999,4.3073748795,0.9922179344295243,1.5399738122046767,-2.4293586924359474,5.396508375073098,3.0426632130740154,0.5267151714999998,0.326757578,0.2573264960000001
78632.0,3.816355914,0.08316039199999999,4.601868579,1.1430370710821105,1.5173246745015463,-2.392321060379375,5.979020198285656,3.054833542053297,0.5685895670000001,0.22751427999999996,0.2944936994999994
78642.0,4.243729721,0.33931008999999995,4.901167537,1.2839950974609282,1.5005380977558649,-2.3086517213680193,6.491980938651714,3.038113026813849,0.4273738070000004,0.256149698,0.2992989580000005
78652.0,4.553815994,0.7271630974999999,5.110637581,1.4015046253392025,1.5095981019029674,-2.1932732405064304,6.883648942378274,3.0089116224372225,0.3100862729999996,0.3878530074999999,0.2094700439999997
78662.0,4.799178377,1.0360725725,5.2136074059999995,1.4809101249879366,1.5618235891103938,-2.04805137476499,7.161512525552766,2.9710102920505386,0.2453623829999998,0.3089094750000001,0.10296982499999974
78672.0,4.8997946059999995,1.2982043269999999,5.318930826999999,1.5128863022137247,1.671339509014534,-1.879381010523006,7.347404085664481,2.935008296501619,0.10061622899999989,0.2621317544999999,0.10532342099999958
78682.0,4.9380405409999995,1.4777640884999999,5.5081011055,1.5166160708252368,1.8293528928438405,-1.7037816891506046,7.543686689824155,2.923957653100741,0.03824593499999995,0.17955976149999997,0.18917027850000068
78692.0,4.9272532259999995,1.5747518569999999,5.869672291,1.53100631050793,1.984966448951655,-1.530048124748585,7.823728047931213,2.9368553574062015,-0.010787314999999964,0.09698776850000002,0.3615711854999999
78702.0,4.8757683135,1.610644196,6.336468831,1.6002854098365928,2.066770030992629,-1.3683049723077665,8.15586467637084,2.950374595062007,-0.051484912499999425,0.035892339000000106,0.4667965400000007
78712.0,4.7680912965,1.7088087624999997,6.846414630999999,1.736181981384627,2.042522171694672,-1.2177546163599875,8.516344010085941,2.94434220158171,-0.10767701700000032,0.09816456649999972,0.5099457999999988
78722.0,4.741711408,1.8847400634999998,7.316937697999999,1.9152440359929854,1.9210158398293309,-1.0762625192300592,8.920406350617267,2.918356144232798,-0.02637988850000017,0.1759313010000001,0.47052306700000024
78732.0,4.799178377,2.1361825695,7.708419165999999,2.115358252038899,1.734757792715,-0.9318400142860326,9.328189272482419,2.8900607166769143,0.057466969000000034,0.25144250600000007,0.3914814679999994
78742.0,4.950004654,2.4139068975,7.974179380999999,2.298417110634325,1.5495661417736377,-0.783953030776797,9.691079887442124,2.880704566013669,0.15082627700000018,0.27772432800000013,0.26576021500000024
78752.0,5.0817079635,2.7072237990000003,8.2004187965,2.4412408939835246,1.4248623667186426,-0.6302034863101125,10.019964319405624,2.8960397615892552,0.13170330950000064,0.29331690150000034,0.22623941550000026
78762.0,5.1403517305,3.0268225225,8.442152719,2.5337049470956803,1.3758325773716182,-0.4657969614307506,10.33706017332233,2.9205381095223313,0.058643766999999514,0.3195987234999995,0.24173392249999992
78772.0,5.066115389999999,3.3979061585,8.849226760499999,2.592060030636111,1.3827615345020354,-0.28380275367904195,10.748027989613554,2.951499392972241,-0.07423634050000061,0.37108363600000027,0.4070740414999996
78782.0,4.970402485999999,3.5751123239999996,9.4513550705,2.6592080829480884,1.4067423584244374,-0.06743603163855691,11.261191840596524,3.0091293275240187,-0.09571290399999999,0.17720616549999946,0.6021283100000012
78792.0,4.868609459,3.624145574,10.199504398999999,2.7527367869039607,1.429126206081265,0.17344733040469246,11.868769068063814,3.1064522380534174,-0.10179302699999937,0.04903325000000036,0.7481493284999985
78802.0,4.71895998,3.5415735809999997,11.144080927,2.8611863106351323,1.4144706763522685,0.41486127254054816,12.609594221465017,3.2185748824410294,-0.1496494789999998,-0.08257199300000018,0.9445765280000007
78812.0,4.6172650195,3.4530195314999994,12.001182137,2.981360956281202,1.3278709295268138,0.6266988651721079,13.314310077156334,3.3233275229396777,-0.1016949605000006,-0.08855404950000034,0.8571012100000015
78822.0,4.625600672,3.6636663734999995,12.706280271999999,3.1026019981002397,1.1522716081544124,0.801498825747096,14.009574983693755,3.405329556041284,0.008335652500000457,0.21064684200000006,0.7050981349999983
78832.0,4.5609748485,3.8935342494999996,13.416183665499998,3.1740138897748396,0.929242964359065,0.8726436820461408,14.695444350788039,3.4204332554677155,-0.06462582350000012,0.22986787600000014,0.7099033934999994
78842.0,4.6651214715,4.2754052005,13.959668208499998,3.1905334311449662,0.7179376971493634,0.8864998509777239,15.326930040413126,3.388335889197724,0.1041466230000001,0.38187095100000024,0.5434845429999999
78852.0,4.7429862725,4.896656478,14.527080977499999,3.098870484159476,0.5817758355550259,0.8859675255558656,16.04709460218594,3.2751182966070274,0.0778648009999996,0.6212512774999999,0.5674127690000006
78862.0,4.66992673,5.531146732999999,15.174712143499999,2.8822367267434355,0.5620571056659939,0.9328645225569532,16.812902440793245,3.0811415021812554,-0.07305954249999935,0.6344902549999993,0.647631166
78872.0,4.493897362499999,5.9992181375,15.872651423999999,2.583799387286421,0.6521213310566573,1.0730231881383578,17.553540810725412,2.872744378889879,-0.17602936750000087,0.46807140450000073,0.6979392805
78882.0,4.205483785999999,6.171619044499999,16.536953895,2.251787149008792,0.7885502280265501,1.29152270252478,18.145132119389476,2.7130034496289865,-0.2884135765,0.17240090699999921,0.664302471000001
78892.0,3.7852688335,6.0351104765,17.0158126145,1.9197749107311628,0.8922035869732413,1.5419983941369901,18.446915664609186,2.619030735978831,-0.4202149524999994,-0.1365085679999991,0.4788587194999998
78902.0,3.33033834,5.7346347205,17.300695797,1.593091162659872,0.9124546422841315,1.7740870420794401,18.52812089492001,2.553017383341724,-0.45493049350000003,-0.300475756,0.2848831824999998
78912.0,2.9125750499999996,5.343153252499999,17.372578541499998,1.2754674187356843,0.8477046723643938,1.9566135752530072,18.407576301136714,2.484704616381804,-0.41776329000000034,-0.39148146800000116,0.0718827444999981
78922.0,2.517563188,5.0067851574999995,17.220575466499998,0.9743649615108744,0.7301951444861197,2.079186303291317,18.10950693465608,2.40947872184948,-0.3950118619999996,-0.3363680949999992,-0.15200307499999965
78932.0,2.1763898344999997,4.68954003,16.832722459,0.7113665325156048,0.5807094393820573,2.1346109790176486,17.608776328479223,2.3237533923188542,-0.34117335350000033,-0.31724512749999967,-0.3878530074999986
78942.0,1.8447289315,4.502821414,16.4136843045,0.5104547010015296,0.42456181252313263,2.1575254067670824,17.119797252446645,2.257372945543769,-0.33166090299999973,-0.18671861600000028,-0.4190381545000008
