timestamp,ax,ay,az,gx,gy,gz,acc_mag,gyro_mag,dax,day,daz
106842.0,-0.5302455655,2.0257596904999997,9.0302575195,0.2759784426423514,-0.5202564700807297,-0.0737768128110523,9.269865886401666,0.5935266746934934,0.0,0.0,0.0
106852.0,-0.35058773749999994,1.8952331789999997,9.167942885499999,0.20723166873554671,-0.40194583607579015,-0.11987444901472653,9.368350832257397,0.4678411089164457,0.17965782800000007,-0.13052651150000005,0.13768536599999948
106862.0,-0.39373699749999996,1.9299487199999998,9.142739794999999,0.1574025185911086,-0.2394050681668102,-0.18382505813705077,9.352508852928533,0.3404144408245182,-0.04314926000000002,0.03471554100000018,-0.025203090499999803
106872.0,-0.5565273875,1.9538769459999998,9.2157993375,0.13048954152535605,-0.11869635176963036,-0.24964142422975694,9.437071329719474,0.3056749663652209,-0.16279039,0.023928225999999997,0.07305954250000113
106882.0,-0.7121589229999999,1.9096489544999997,9.420464123,0.13155593769832458,-0.03289596574158912,-0.32345139829659714,9.638416558427096,0.3507276954644175,-0.15563153549999997,-0.04422799150000012,0.20466478550000033
106892.0,-0.7875720615,1.7947150164999999,9.722214743499999,0.1518069930092148,-0.006517059426946826,-0.40205753714791775,9.917798710461646,0.42981170105933997,-0.07541313850000009,-0.11493393799999985,0.30175062049999823
106902.0,-0.791200522,1.8209968385,10.086041458499999,0.18005165629423903,-0.0342276519608608,-0.4758692565440099,10.27960408062591,0.5099428207326792,-0.003628460499999986,0.026281822000000066,0.3638267150000001
106912.0,-0.7301050925,1.8389430079999998,10.375827966000001,0.19763933916658588,-0.09631424944205508,-0.5267630575321646,10.562791809592492,0.5708038733334119,0.06109542950000002,0.01794616949999983,0.28978650750000234
106922.0,-0.585260872,1.8521819855,10.6522774295,0.20110207240254263,-0.15653508995286744,-0.5600709209772243,10.827932527991669,0.6153248852723462,0.1448442205,0.013238977500000138,0.27644946349999877
106932.0,-0.501512081,1.9586822044999999,10.86184554,0.19470718602323542,-0.1853120786597499,-0.5763251723010476,11.048422461167558,0.6359262213607144,0.08374879099999999,0.10650021899999995,0.20956811049999935
106942.0,-0.4176652235,2.078421401,11.0521926165,0.1744561307123452,-0.17278934127669063,-0.5835194194777682,11.253676794331406,0.6330766232531628,0.08384685749999998,0.11973919650000009,0.19034707650000016
106952.0,-0.34107528699999995,2.113136942,11.223318659,0.13608506710724988,-0.13335188149862676,-0.5965762276119377,11.425609909694309,0.6262627764289516,0.07658993650000007,0.03471554100000018,0.17112604250000096
106962.0,-0.2884135765,2.1035264249999996,11.398073162,0.08092742675647308,-0.08112639429120043,-0.616827282922828,11.594139796383665,0.627380775295254,0.05266171049999996,-0.009610517000000485,0.17475450299999906
106972.0,-0.2560516315,2.0532183104999997,11.5776329235,0.010049605832983349,-0.03023084797379378,-0.6445396207859939,11.761073589595359,0.6453264456920744,0.032361945,-0.050308114499999945,0.1795597615000002
106982.0,-0.21770762999999999,1.9874156889999999,11.6794259505,-0.0696229291913058,0.015067427432467046,-0.6834430098129476,11.849312565134586,0.6871453465612577,0.0383440015,-0.06580262149999982,0.10179302700000115
106992.0,-0.18907221199999996,1.9490716875,11.745228572,-0.14156714628776407,0.055037212632389185,-0.7314064029870038,11.907351634720872,0.747011163245096,0.028635418000000024,-0.038344001499999836,0.0658026214999996
107002.0,-0.15553346899999998,1.9778051719999998,11.730910863,-0.20765054775602537,0.09287420548637426,-0.7828325293970166,11.897486021593828,0.8152123263973832,0.03353874299999998,0.028733484499999795,-0.014317709000000178
107012.0,-0.132782041,1.9885924869999998,11.741698177999998,-0.26041010571456197,0.1227175903662253,-0.8339933657607265,11.909643456166664,0.8822799806617323,0.02275142799999999,0.010787314999999964,0.010787314999998188
107022.0,-0.050210048,1.9850620929999998,11.7488570325,-0.2958490161763068,0.13577439850039488,-0.8824908296858929,11.915478762186202,0.9406122432439035,0.08257199299999998,-0.0035303939999999923,0.0071588545000018655
107032.0,0.026477955,1.9945745434999997,11.812306057999999,-0.31743350303572065,0.1312452690914696,-0.9253910226999135,11.97954936963585,0.9870855557660708,0.076688003,0.009512450499999936,0.06344902549999887
107042.0,0.18809154699999997,2.0089903189999996,11.825446968999998,-0.33608583675178405,0.10992781760761085,-0.9549673722042095,11.996358470324227,1.0183322133389143,0.16161359199999997,0.014415775499999839,0.013140910999998923
107052.0,0.420313019,2.1119601439999998,11.8637909705,-0.3651298608342217,0.09367356628378766,-0.9765518590636233,12.057635542489361,1.0467798649829676,0.23222147200000004,0.10296982500000018,0.03834400150000228
107062.0,0.6681270644999999,2.241211791,11.832703889999998,-0.4114945324134511,0.09287420548637426,-0.9770841844854815,12.061604595361924,1.0642588368543382,0.2478140454999999,0.12925164700000025,-0.03108708050000253
107072.0,0.8691633894999999,2.333394301,11.7249288065,-0.4741134553165036,0.1117935745779928,-0.9573654545964496,11.986414371240464,1.0741647850696587,0.20103632500000002,0.09218250999999977,-0.1077750834999982
107082.0,0.9973363049999999,2.311819671,11.6782491525,-0.5290040602917253,0.1451014380230526,-0.9312535836573624,11.946576629493512,1.080801998608519,0.12817291549999998,-0.021574629999999928,-0.04667965400000007
107092.0,1.089518815,2.2555295,11.6231357795,-0.5721712886813011,0.19013267805375828,-0.9067386889838501,11.889985278472903,1.0889010372642989,0.09218251,-0.05629017099999967,-0.0551133729999993
107102.0,1.139728863,2.194532137,11.6554977245,-0.5942881009625731,0.22663798468847168,-0.8912837984574403,11.914930985419334,1.094956589295702,0.05021004800000006,-0.06099736300000025,0.03236194499999989
107112.0,1.2259293165,2.1394187639999998,11.777590516999998,-0.6086765953160145,0.23809607122781443,-0.8843548413270228,12.032940360649086,1.0996637768873536,0.08620045350000005,-0.05511337300000019,0.12209279249999838
107122.0,1.394701763,2.104703223,11.8637909705,-0.627861254453936,0.23250054564592063,-0.8803580373399559,12.12948905998679,1.1060273651583763,0.1687724465,-0.03471554099999974,0.08620045350000183
107132.0,1.543174444,2.077244603,11.983530167,-0.6582387100848974,0.2122494903350304,-0.8779599549477156,12.25974419670763,1.1176500919757957,0.14847268099999988,-0.02745861999999999,0.11973919649999942
107142.0,1.7610782069999997,2.0951907725,11.991865819500001,-0.6982084952848195,0.18640290944224638,-0.8707657077709949,12.30024660961039,1.131580339775461,0.2179037629999998,0.017946169500000053,0.008335652500001345
107152.0,2.0004585335,2.1777627655,11.953521817999999,-0.7573629396226634,0.17281377588621855,-0.8534450602742032,12.31386084298719,1.1540501264487486,0.23938032650000007,0.08257199299999973,-0.03834400150000228
107162.0,2.2434673204999998,2.263963219,11.849375194999999,-0.8271761097024366,0.19279779582155362,-0.8190725459854269,12.270548789154361,1.1799453979414285,0.24300878699999995,0.08620045350000005,-0.1041466230000001
107172.0,2.4386196554999997,2.2568043644999998,11.830252227499999,-0.8927254404195876,0.23276758102147577,-0.7641801956809533,12.287998190514427,1.1979611138171038,0.19515233499999995,-0.007158854500000089,-0.019122967499999532
107182.0,2.5666945045,2.1573649335,11.845844801,-0.944952672956266,0.2658084090909804,-0.7012959827315975,12.311221839651202,1.2064019727545818,0.12807484900000032,-0.09943943099999997,0.015592573500001095
107192.0,2.7067334665,1.999379802,11.9104706245,-0.9801245480424556,0.27966457802256334,-0.6376106636555765,12.376721542815533,1.2022494600885754,0.14003896199999977,-0.15798513149999982,0.06462582350000012
107202.0,2.8396135739999995,1.8784638075,11.991865819500001,-1.0003773486825978,0.2682064914832206,-0.5784562193177326,12.465828386377893,1.1862972475304523,0.13288010749999968,-0.12091599450000001,0.0813951950000007
107212.0,2.910221454,1.849730323,12.066102159999998,-1.010502003673417,0.24502502835823192,-0.5219668927476842,12.549171786006605,1.1634435960005174,0.07060788000000073,-0.028733484500000017,0.07423634049999706
107222.0,2.9569991745,1.8641460985,12.1283743875,-1.034217537549516,0.21864437671433765,-0.4692073347891476,12.622058076158279,1.1565322310526935,0.04677772049999973,0.014415775500000061,0.062272227500001165
107232.0,2.9713168834999997,1.81619158,12.147497354999999,-1.0853783739132257,0.1997250076227191,-0.4172471376280244,12.636810035256802,1.179843831651966,0.014317708999999734,-0.0479545185000001,0.019122967499999532
107242.0,2.9988735699999998,1.7731403865,12.055314845,-1.159188347980066,0.18773459566151804,-0.366885662061728,12.5486208617186,1.2302711057028937,0.027556686500000094,-0.04305119349999997,-0.09218250999999889
107252.0,3.0371195049999997,1.7851044994999998,11.825446968999998,-1.2452557693836621,0.18986738800745515,-0.3199886650606404,12.33903922428395,1.299655455103144,0.03824593499999995,0.011964112999999887,-0.22986787600000191
107262.0,3.0742867085,1.7396016435,11.546545842999999,-1.3289251083950184,0.19866035677900257,-0.27388928352771413,12.07477426491395,1.3713217057676863,0.037167203500000134,-0.045502855999999925,-0.27890112599999917
107272.0,3.1005685305,1.7060629005,11.249698547499998,-1.3883465881084174,0.2045229177364515,-0.22566060030735483,11.793213864015735,1.4213580052621475,0.026281822000000066,-0.033538742999999815,-0.296847295500001
107282.0,3.124594823,1.6151552550000001,10.958735242,-1.4200557299586505,0.19732692523047887,-0.17103528537843632,11.509374327474335,1.4438660812048303,0.02402629249999988,-0.09090764549999997,-0.29096330549999827
107292.0,3.1472481844999995,1.5349368579999998,10.6858161725,-1.4309797457468827,0.1762765091221753,-0.11001508407021057,11.244904159900518,1.4459874685242222,0.022653361499999747,-0.08021839700000033,-0.27291906950000033
107302.0,3.171274477,1.443931146,10.373376303499999,-1.4304474203250246,0.15336208137274177,-0.04313406713378786,10.942981992897357,1.4392915959127253,0.024026292500000324,-0.09100571199999985,-0.3124398690000003
107312.0,3.2000079615,1.3254668139999999,10.031026151999999,-1.4347112596876468,0.14190399483339897,0.028012534494508988,10.612181627299195,1.4419839959281788,0.028733484500000017,-0.11846433200000006,-0.3423501514999998
107322.0,3.1628407579999998,1.167383616,9.741337711,-1.440839110691399,0.14190399483339897,0.09302953978980175,10.308249442418532,1.4507958443286089,-0.037167203500000134,-0.15808319799999992,-0.28968844099999913
107332.0,3.1221431605,0.9567367739999999,9.397712695,-1.4387080636747138,0.13710783004891855,0.15138462333023217,9.948875668493653,1.4531334259882,-0.040697597499999905,-0.21064684200000006,-0.3436250160000007
107342.0,3.081445563,0.7700181580000001,9.027805856999999,-1.419788694583095,0.12405102191474897,0.20254545969394194,9.570241026905517,1.4395184113260562,-0.040697597499999905,-0.18671861599999984,-0.36990683800000035
107352.0,3.0383943694999997,0.6622430745,8.697419818499998,-1.3867478665135906,0.0979374056464098,0.2505088528679981,9.236639959074353,1.4125919672962837,-0.043051193500000196,-0.10777508350000009,-0.33038603850000037
107362.0,3.0311374484999996,0.542503878,8.4293060075,-1.3446452889677314,0.06489657757690516,0.29980393226132596,8.974146447290666,1.3791899494716682,-0.007256921000000194,-0.11973919649999998,-0.2681138109999992
107372.0,3.0359427070000002,0.45993188499999993,8.238958930999999,-1.3049425391433644,0.03185400417814851,0.3592254119747249,8.792549671496362,1.3538584138145775,0.0048052585000006864,-0.08257199300000007,-0.19034707650000016
107382.0,2.9832809964999996,0.37971348799999993,8.030665684999999,-1.2788289228750251,0.0009442231253289323,0.42530706811373425,8.575298197805349,1.3476981886633626,-0.05266171050000068,-0.080218397,-0.2082932460000002
107392.0,2.9258140275,0.297141495,7.8295312935,-1.2617770560830406,-0.03369532653900253,0.49032407340902695,8.363626071714492,1.3541175765983453,-0.05746696899999959,-0.08257199299999995,-0.20113439149999923
107402.0,2.8145085499999998,0.17142024199999997,7.6009382819999995,-1.2401925692236266,-0.08432383748085405,0.5500125884979811,8.107102197713036,1.359302014208486,-0.1113054775000002,-0.125721253,-0.2285930115000001
107412.0,2.72232604,0.07090207949999999,7.2968340655,-1.201022144821118,-0.1522712505902453,0.6096993582576831,7.788444873810224,1.3554977069574359,-0.09218250999999977,-0.10051816249999998,-0.30410421649999986
107422.0,2.6229846754999997,-0.0440318585,6.95683751,-1.1447998536266246,-0.22368314226484529,0.6691208379710821,7.435023574475995,1.3447392121910253,-0.0993413645000003,-0.11493393799999999,-0.33999655549999996
107432.0,2.5786586175,-0.16975311149999997,6.564179243999999,-1.0715222049816426,-0.2791078179911772,0.7280082469333707,7.05455494923892,1.3251630154194303,-0.04432605799999978,-0.12572125299999998,-0.39265826600000064
107442.0,2.5056971415,-0.33734875999999997,6.238598463999999,-0.9795922226205974,-0.30335567728913443,0.7887631581952933,6.731451043112321,1.2937437571978945,-0.07296147600000014,-0.1675956485,-0.3255807800000001
107452.0,2.4146914295,-0.42109755099999996,5.995589677,-0.8791363068635598,-0.29536206931500036,0.8537784181613342,6.477279785689971,1.2605780362015706,-0.09100571199999985,-0.08374879099999999,-0.24300878699999906
107462.0,2.2758292654999996,-0.6019321769999999,5.8112246569999995,-0.7850752774858293,-0.266850370654421,0.9217275765999774,6.269932472167382,1.2398120974981333,-0.1388621640000003,-0.18083462599999994,-0.18436502000000043
107472.0,2.1022515605,-0.7814919384999999,5.728652664,-0.6974091344874062,-0.2356735542260463,0.9819484171107897,6.152044588453458,1.2272506748396579,-0.17357770499999958,-0.17955976149999997,-0.08257199299999929
107482.0,1.8831709994999999,-0.9119203834999999,5.765721801,-0.6057461875019159,-0.23114442481712105,1.0291124494874324,6.13363511188327,1.2163176486786529,-0.21908056100000017,-0.13042844500000006,0.037069136999999586
107492.0,1.6413390104999999,-0.9981208369999999,5.869868424,-0.5023581186015279,-0.27084717464148805,1.0722779325477563,6.176211967518192,1.2147023651763562,-0.24183198900000002,-0.08620045349999994,0.1041466230000001
107502.0,1.394701763,-1.0376416364999999,6.006376992,-0.3928421986973877,-0.3577139568424978,1.1162445217347454,6.252875957792596,1.236238690666226,-0.24663724749999982,-0.03952079949999998,0.136508568
107512.0,1.2104348095,-1.126195686,6.0698260175,-0.284392674966216,-0.475223484720772,1.1596787854998762,6.290966303671815,1.2851347943087765,-0.1842669535000001,-0.08855404950000012,0.06344902549999976
107522.0,1.093049209,-1.1668932834999999,6.1033647605,-0.18340268845806815,-0.590334930206806,1.1993815353242432,6.309315169500265,1.3493138786926713,-0.11738560050000002,-0.040697597499999905,0.03353874300000026
107532.0,0.9458513924999998,-1.1417882595,6.0590387025,-0.09333846306740474,-0.6881274735253003,1.2310906771744763,6.237809333782102,1.4134411002705451,-0.14719781650000008,0.02510502399999992,-0.044326058000000224
107542.0,0.7950251155,-1.1202136294999998,6.0135358465,-0.024324653785044968,-0.7408870314838369,1.2513417324853666,6.168432287634665,1.4544282084936928,-0.15082627699999984,0.02157463000000015,-0.0455028559999997
107552.0,0.6477292324999999,-1.1693449459999998,5.9297870555,0.02950130034646015,-0.7499470356309395,1.2572042934428154,6.078593199494941,1.464190396917291,-0.14729588300000007,-0.04913131650000002,-0.08374879099999966
107562.0,0.48376204449999993,-1.1980784304999998,5.8686916259999995,0.07160213256306737,-0.7307606311637659,1.2489436500931264,6.009239472879299,1.448791981809116,-0.16396718799999999,-0.028733484500000017,-0.0610954295000008
107572.0,0.314989598,-1.1992552285,5.867514827999999,0.10037912126994987,-0.687328112727887,1.2284255594066809,5.997096114515145,1.4112141076167795,-0.16877244649999995,-0.0011767980000001454,-0.0011767980000003675
107582.0,0.1617116585,-1.2327939714999998,5.831622488999999,0.12249593355122203,-0.6231104682300076,1.2001808961216567,5.962696746512614,1.3578313933510993,-0.1532779395,-0.033538742999999815,-0.035892339000000106
107592.0,0.0012748644999999999,-1.285455682,5.782491172499999,0.1395495456724586,-0.5551630551206163,1.1591447147487661,5.923647701856179,1.29278635636297,-0.160436794,-0.052661710500000236,-0.04913131649999958
107602.0,-0.16151552549999998,-1.3130123685,5.707078034,0.16166635795373077,-0.49893901859687095,1.0999902704109221,5.858398111342113,1.2186282249197768,-0.16279038999999998,-0.027556686499999872,-0.0754131384999992
107612.0,-0.306359746,-1.30820711,5.670008897,0.20936271575223178,-0.46456475897884264,1.030177100331149,5.827028662078375,1.1493119768274036,-0.1448442205,0.00480525850000002,-0.037069137000000474
107622.0,-0.35058773749999994,-1.2471116805,5.6053830735,0.2893022861520761,-0.4525743470176416,0.9624967225973129,5.7531312088292585,1.1022337743699524,-0.04422799149999995,0.06109542949999991,-0.06462582350000012
107632.0,-0.37333916549999996,-1.218378196,5.6615751780000005,0.39961756685362965,-0.4600356295699174,0.9073390822465361,5.803211271109315,1.0929735542929626,-0.022751428000000018,0.028733484500000017,0.056192104500000895
107642.0,-0.376967626,-1.1753270025,5.842409803999999,0.5248554126597348,-0.48774796743308335,0.869500344063299,5.97136922922482,1.1266774748167818,-0.0036284605000000414,0.04305119349999997,0.18083462599999844
107652.0,-0.31950065699999997,-1.2160246,6.0602155005,0.634371332563875,-0.5141268737477256,0.8473835317820269,6.189265579220935,1.176780472230848,0.057466969000000034,-0.040697597499999905,0.21780569650000103
107662.0,-0.3231291175,-1.2471116805,6.239775261999999,0.7124451459933373,-0.5298487996496906,0.8340614336015543,6.371380956314182,1.2181856638300934,-0.0036284605000000414,-0.031087080500000086,0.1795597614999993
107672.0,-0.3494109395,-1.273491569,6.3822658865,0.7662693547955906,-0.534644964434171,0.8244691040325933,6.517452464493929,1.2460992198047367,-0.02628182200000001,-0.02637988849999995,0.1424906245000006
107682.0,-0.42129368399999995,-1.3010482555,6.445714912,0.8129010617503749,-0.5207887955025879,0.8196729392481129,6.589192337312445,1.2664489066091706,-0.07188274449999993,-0.027556686500000094,0.06344902549999976
107692.0,-0.5122013295,-1.317817627,6.521128050499999,0.8699227137422817,-0.490945410622737,0.8074154919113568,6.672638499948232,1.2844114218873646,-0.09090764550000002,-0.016769371499999908,0.0754131384999992
107702.0,-0.7204945754999998,-1.3201712229999998,6.633610326,0.9543914135510513,-0.46296603738401587,0.7839669934108129,6.801966660354641,1.3190165915516836,-0.20829324599999988,-0.002353595999999847,0.11248227550000145
107712.0,-0.9000543369999999,-1.3369405945,6.857496145499999,1.0697698944126404,-0.4408492251027437,0.7447965690083042,7.044342506460192,1.3760369164640398,-0.17955976150000008,-0.01676937150000013,0.22388581949999864
107722.0,-1.1107992455,-1.4087252725,7.2034747574999995,1.192077332404647,-0.4123392717714163,0.6867067755141769,7.42350526632286,1.4361887887791909,-0.21074490850000005,-0.07178467799999999,0.3459786120000006
107732.0,-1.2891822089999998,-1.3872487089999999,7.5649478765,1.2904022011449996,-0.38915606331717567,0.5982412717183403,7.798389969909567,1.474609406427193,-0.17838296349999982,0.021476563500000045,0.36147311900000023
107742.0,-1.3549848304999998,-1.227988713,7.987614491499999,1.3564838572840088,-0.37130309039852566,0.49059110878458206,8.194261738250816,1.4894945706614995,-0.06580262150000005,0.15925999599999985,0.4226666149999989
107752.0,-1.3549848304999998,-0.9359466759999999,8.283284988999998,1.3833968343497614,-0.3507849997120803,0.375212627922993,8.445400539950326,1.4756766019236136,0.0,0.2920420370000001,0.29567049749999974
107762.0,-1.279571692,-0.508572869,8.504719146,1.390325791480179,-0.3292022581819184,0.26090054323437234,8.615462717137692,1.4523942394222897,0.07541313849999987,0.42737380699999994,0.2214341570000009
107772.0,-1.164637754,-0.050013915,8.7178176505,1.4071123682258604,-0.31161632063882355,0.160976952899193,8.795409432033573,1.4501667240243021,0.11493393800000007,0.45855895399999996,0.21309850450000134
107782.0,-1.0593143329999999,0.3833419485,9.0337879135,1.4390868001223964,-0.2990918379265123,0.09036442202200641,9.103758672750377,1.4726141635092842,0.10532342100000003,0.4333558635,0.31597026299999875
107792.0,-1.0497038159999998,0.759230843,9.372607670999999,1.4715953027700428,-0.30575375968137464,0.06265208415884045,9.461716764349665,1.5043282156310158,0.00961051700000004,0.3758888945,0.3388197574999996
107802.0,-1.1227633584999999,1.0668654535,9.7496733635,1.497441883662827,-0.3473222664761235,0.07437720607373835,9.871926364697183,1.5389921768875636,-0.07305954250000002,0.30763461049999996,0.37706569250000044
107812.0,-1.2053353515,1.142278592,9.950807755,1.5128985195184887,-0.405677350016554,0.1026218693587626,10.08841953272589,1.5697029307319188,-0.08257199300000018,0.07541313850000009,0.20113439150000012
107822.0,-1.266430781,1.0524496779999999,10.077705806,1.5222238137118944,-0.46216667658660243,0.12074187765296772,10.211349154743104,1.5954127920378016,-0.06109542949999991,-0.08982891400000015,0.1268980510000013
107832.0,-1.3441975154999999,0.9627188304999998,10.205780655,1.5262206176989614,-0.5005377401916977,0.09302953978980175,10.338841970223159,1.6088946200789886,-0.07776673449999993,-0.08973084750000004,0.128074848999999
107842.0,-1.3837183149999999,0.8394492399999999,10.319537794999999,1.5272870138719299,-0.5234539132703834,0.011491247795130666,10.445679092535652,1.6145406996529394,-0.03952079949999998,-0.12326959049999997,0.11375713999999881
107852.0,-1.2963410635,0.840626038,10.4775229265,1.5203580567415125,-0.5218551916755565,-0.11667700582507293,10.590828058467054,1.6116559761518163,0.08737725149999997,0.0011767980000001454,0.15798513150000204
107862.0,-1.1551253035,0.9818417979999999,10.692975027,1.4993076406332089,-0.4757575554718823,-0.2618988715665131,10.799909384394457,1.5946346515040721,0.1412157599999999,0.1412157599999999,0.21545210049999852
107872.0,-0.9850779924999999,1.2379914959999998,10.8354656515,1.4369557531057116,-0.37503460433928953,-0.39965945475567755,10.950356956753167,1.5379273294311198,0.17004731100000003,0.25614969799999987,0.1424906245000006
107882.0,-0.7684490939999999,1.4583469215,11.000707704,1.326640472404158,-0.2255488992352272,-0.5203681711528574,11.123527306675832,1.442785598249414,0.2166288985,0.2203554255000002,0.16524205250000001
107892.0,-0.6236048734999999,1.7455836999999998,11.175462206999999,1.1990045442058126,-0.06647086456220404,-0.6162949575009697,11.328146407601022,1.3497591442560992,0.1448442205,0.28723677849999985,0.17475450299999906
107902.0,-0.539758016,1.9730979799999997,11.271175111,1.0881569380824008,0.06223145980910981,-0.6781127742773568,11.455297583971452,1.2836647580754768,0.08384685749999998,0.22751427999999985,0.09571290400000088
107912.0,-0.4427702475,2.0664572879999996,11.340606193,1.0063516107121744,0.15442673221645828,-0.7111553476761135,11.535841540169901,1.2419070450457939,0.09698776849999996,0.09335930799999992,0.06943108199999948
107922.0,-0.38177288449999996,2.0844034574999997,11.4507348725,0.9599886844621971,0.2090520471453768,-0.7276748890462399,11.645162833952345,1.2226167743244774,0.06099736300000003,0.017946169500000053,0.11012867950000071
107932.0,-0.3111650045,2.0747929405,11.581261384,0.9416016407924369,0.22663798468847168,-0.7407316971804094,11.769758054034233,1.219287444885098,0.07060787999999996,-0.009610516999999597,0.1305265114999994
107942.0,-0.270467407,2.0664572879999996,11.6590281185,0.9394705937757517,0.23010246325368042,-0.7545878661119924,11.843831095103951,1.2267660689178785,0.040697597500000016,-0.008335652500000457,0.07776673450000082
107952.0,-0.18063849299999998,1.999379802,11.732087661,0.9232163424519285,0.23436630261630256,-0.7783033999880913,11.90260604839072,1.2300455931409109,0.08982891400000001,-0.06707748599999963,0.07305954249999935
107962.0,-0.132782041,2.0005566,11.766803202,0.8811155102353213,0.2503535185645706,-0.817206789015045,11.936394571846774,1.2275456662166144,0.047856451999999994,0.0011767979999999234,0.03471554100000063
107972.0,-0.13631243499999998,2.0604752315,11.773962056499998,0.819028912754127,0.26154456972835827,-0.8619727389994475,11.953673986162675,1.2174608513869385,-0.0035303939999999923,0.059918631499999986,0.007158854499998313
107982.0,-0.1279767825,2.1526577415,11.641081949,0.7433531817169049,0.29458714312711487,-0.904605896637913,11.839134358230444,1.207338960647143,0.008335652499999985,0.09218251000000022,-0.13288010749999835
107992.0,-0.11238420899999998,2.1885500804999998,11.46397385,0.6567534348914502,0.3614681600635376,-0.9491065565760125,11.67154994414936,1.209457548125197,0.015592573500000012,0.03589233899999966,-0.1771080989999998
108002.0,-0.0130428445,2.1657986525,11.3573755645,0.5744175274286178,0.4589936680064768,-0.9933384358093047,11.562042796671578,1.2358608057315044,0.09934136449999999,-0.02275142799999985,-0.1065982855000005
108012.0,0.043247326499999995,2.2101247104999997,11.406506881,0.5243213419086246,0.5434623678152464,-1.0317094994144,11.618731462320335,1.278549453871115,0.05629017099999999,0.04432605799999978,0.049131316500000466
108022.0,0.14739394949999998,2.3058376145,11.6698154335,0.5240560518623214,0.5669108663157901,-1.0524928801471485,11.896352564241994,1.3052830875334605,0.104146623,0.09571290400000043,0.26330855249999985
108032.0,0.30420228299999996,2.4566638915,11.985883763,0.5554981583369992,0.533070677448872,-1.0511611939278769,12.238837611674134,1.3029514214626257,0.15680833349999998,0.15082627699999973,0.3160683295000002
108042.0,0.481310382,2.5715978295,12.3139162055,0.5848092177949921,0.45020069923492934,-1.0346399072284986,12.588777041340657,1.2708903290368552,0.17710809900000002,0.11493393800000007,0.32803244249999963
108052.0,0.650180895,2.7212473085,12.5029884175,0.5738834566775075,0.34148414012820255,-1.01385652649575,12.812206737263516,1.214025821852752,0.168870513,0.14964947900000025,0.18907221199999924
108062.0,0.8344478485,2.866091529,12.554473329999999,0.5117986045255651,0.2447579929826768,-0.9912073887926197,12.904479240099272,1.1420754678743028,0.1842669535,0.1448442205,0.051484912499999425
108072.0,1.0595104659999999,2.967884556,12.517404193,0.41240733961224413,0.19546291358934895,-0.9701569726843161,12.907993991950914,1.0721427684794982,0.2250626174999999,0.10179302699999981,-0.03706913699999781
108082.0,1.277414229,3.0325103794999997,12.430026941499998,0.297028858750655,0.18800163103707318,-0.958164815393863,12.858206565483489,1.020612840239663,0.21790376300000003,0.06462582349999968,-0.08737725150000308
108092.0,1.471389766,3.0444744925,12.25046718,0.185914217251688,0.19999204299827425,-0.9485724858249022,12.708570293594391,0.9870920292976565,0.19397553700000003,0.011964113000000332,-0.17955976149999842
108102.0,1.6544799215,2.925912094,12.119940668499998,0.08492597607279208,0.22717205543958194,-0.9427099248674532,12.577409399412197,0.9734071946663226,0.18309015549999996,-0.11856239849999994,-0.13052651150000116
108112.0,1.8963119104999997,2.7559628495,11.924788333499999,-0.00300720230118623,0.25994584813353144,-0.9397795170533547,12.385148642164372,0.9750725244311716,0.2418319889999998,-0.16994924450000015,-0.1951523349999995
108122.0,2.0567487045,2.7547860514999996,11.632746296499999,-0.07575252552430989,0.29272138615673293,-0.9341839914714609,12.130121508943587,0.9818981540660828,0.16043679400000022,-0.0011767980000003675,-0.29204203699999987
108132.0,2.1944340705,2.7954836489999995,11.369339677500001,-0.12371417336911407,0.31563755923541853,-0.9173974147257795,11.911849328461697,0.9780338859354718,0.13768536599999992,0.040697597499999905,-0.26340661899999773
108142.0,2.2937754349999997,2.8014657054999996,11.143100261999999,-0.1410348208659058,0.3300260535888597,-0.8838225159051645,11.716582236057002,0.9539131283115092,0.09934136449999986,0.005982056500000166,-0.22623941550000204
108152.0,2.4062577105,2.842163303,10.974327815499999,-0.1479637779963233,0.34095006937709227,-0.8374578443259351,11.588953335496589,0.9162291582514887,0.11248227550000012,0.04069759750000035,-0.16877244650000023
108162.0,2.4158682275,2.840986505,10.8809685075,-0.1666161117123867,0.34441454794230103,-0.7817678785533001,11.502308432460108,0.8703696487436712,0.00961051700000004,-0.0011767979999999234,-0.09335930799999836
108172.0,2.423027082,2.7835195359999996,10.7791754805,-0.2079175831315805,0.3278950065721747,-0.7212800026669327,11.39340446428597,0.819139608954087,0.007158854500000089,-0.05746696900000048,-0.10179302700000115
108182.0,2.3620297189999997,2.7583164455,10.618836752999998,-0.2622758626849439,0.29831691173862684,-0.6621255583290887,11.222619480042017,0.772134614538819,-0.06099736300000025,-0.02520309049999936,-0.160338727500001
108192.0,2.2841649179999997,2.7104599935,10.3290502455,-0.30917285968603153,0.2562160795220196,-0.6064355925564537,10.920315092663287,0.7273229437405159,-0.07786480100000004,-0.047856451999999994,-0.2897865074999988
108202.0,2.21238024,2.669762396,10.076529008,-0.32622647180726816,0.20851972172351854,-0.5494121952352949,10.656392186218728,0.6721294112957249,-0.07178467799999977,-0.04069759750000035,-0.2525212374999999
108212.0,2.0675360195,2.7104599935,9.809591995,-0.31370198909495683,0.16321970098800573,-0.49238879791413626,10.385056267380644,0.6062147615029467,-0.1448442205,0.04069759750000035,-0.2669370129999997
108222.0,1.9537788794999997,2.6207291459999995,9.574918860499999,-0.28545732580993255,0.11525630781394954,-0.42630714177512696,10.117536476427093,0.5258399761124481,-0.11375714000000015,-0.08973084750000071,-0.23467313450000127
