timestamp,ax,ay,az,gx,gy,gz,acc_mag,gyro_mag,dax,day,daz
100312.0,-0.5373063535,1.7708848569999998,8.9474893935,0.1827481899885703,0.011377801393751035,-0.08788430915492247,9.136864765391811,0.2031009776054567,0.0,0.0,0.0
100322.0,-0.354216198,1.5889714995,9.2503187455,0.17901842137705837,-0.0464449567248211,-0.10014175649167865,9.392480845575228,0.2103166674107005,0.18309015550000002,-0.18191335749999982,0.30282935199999983
100332.0,-0.37088750299999995,1.5411150475,9.172552010999999,0.1886107509460192,-0.0618998472512309,-0.124656651165191,9.308507051295209,0.2344032575325418,-0.01667130499999997,-0.047856451999999994,-0.07776673450000082
100342.0,-0.4331597305,1.6739951549999998,9.1677467525,0.22591541837814602,-0.07042578064722319,-0.15370067524762865,9.32938731370204,0.2821727563254833,-0.062272227500000055,0.1328801074999999,-0.004805258499999354
100352.0,-0.49425515999999997,1.7170463484999998,9.219231665,0.27414584692775734,-0.07495665538540047,-0.1814130131107946,9.390781054791049,0.3371722510827965,-0.061095429499999965,0.04305119349999997,0.0514849125000012
100362.0,-0.531324297,1.849926456,9.370057941999999,0.32424028711849856,-0.0845489849543613,-0.20406215081392504,9.56569491660844,0.3923285052635155,-0.037069136999999974,0.13288010750000012,0.1508262769999984
100372.0,-0.5337759595,1.9588783375,9.567563873,0.36687344475696404,-0.10533236568710978,-0.2224474491544333,9.780613456220507,0.44178490169357115,-0.0024516625000000625,0.10895188150000013,0.19750593100000025
100382.0,-0.5684915005,2.0630249605,9.7459468365,0.38978961783564964,-0.15036535104706747,-0.23843466510270137,9.978112763126658,0.4810371861827389,-0.03471554099999996,0.10414662299999988,0.1783829635000007
100392.0,-0.520536982,2.162366325,9.838129346499999,0.38472641767561405,-0.19966043044039533,-0.25655467339690646,10.0864055000574,0.5036854220472817,0.04795451849999999,0.09934136449999986,0.09218250999999889
100402.0,-0.45355756249999996,2.1707019775,9.796254951,0.362876640769897,-0.20685467761711596,-0.2733412501425879,10.04411631765659,0.49918308574914544,0.06697941950000003,0.008335652500000013,-0.04187439549999894
100412.0,-0.415213561,2.2736718025,9.7579109495,0.3340996520630145,-0.15116471184448085,-0.2909289330149348,10.027901668100554,0.4680950669264318,0.03834400149999995,0.10296982500000018,-0.0383440015000005
100422.0,-0.411683167,2.3635007165,9.820183176999999,0.3066543495754037,-0.06642897666015618,-0.303186380351691,10.108986907535341,0.43631603257775176,0.0035303939999999923,0.08982891399999993,0.06227222749999939
100432.0,-0.460716417,2.3646775145,9.982973567,0.2778756155392692,0.019638444743440196,-0.3074484743850611,10.26955308686293,0.4148796097965896,-0.04903324999999997,0.0011767979999999234,0.1627903900000014
100442.0,-0.5947733225,2.3694827729999997,10.152922811499998,0.261621364215446,0.07186393195086652,-0.30931423135544306,10.442702980214388,0.41144313902214774,-0.13405690550000005,0.004805258499999798,0.16994924449999793
100452.0,-0.7611921729999999,2.3623239185,10.272662008,0.26108903879358775,0.07852585370572887,-0.3183742355025456,10.56823412641678,0.4191610069057038,-0.16641885049999983,-0.007158854499999645,0.1197391965000012
100462.0,-0.8282696589999999,2.3538901995,10.3504287425,0.2669498544217847,0.06360503393042935,-0.33782593001602246,10.64698102059416,0.4352403750897814,-0.06707748600000007,-0.008433719000000117,0.07776673450000082
100472.0,-0.8545514809999999,2.356341862,10.308554347,0.2645517720295445,0.05721014755112212,-0.3570105891539441,10.60890653787399,0.44801473394838204,-0.026281821999999955,0.0024516624999999515,-0.041874395500000716
100482.0,-0.867692392,2.3550669975,10.2762904685,0.25043031305165836,0.06440439472784276,-0.3690027464443971,10.578344692948527,0.4505843923605426,-0.013140911000000144,-0.001274864500000028,-0.03226387850000023
100492.0,-0.8796565049999999,2.3503598054999997,10.212841443,0.23177797933559496,0.08358905386576443,-0.37220018963405077,10.516659028510773,0.44636436102660404,-0.011964112999999887,-0.004707192000000138,-0.06344902549999887
100502.0,-0.9383983384999999,2.3108390059999997,10.188815150499998,0.21205924944656304,0.11050203093151698,-0.37006739728811366,10.489638817633757,0.44060152365990307,-0.05874183349999995,-0.03952079949999998,-0.0240262925000021
100512.0,-1.0125366125,2.2904411739999997,10.166161788999998,0.18514627238081047,0.14567565134695873,-0.3692680364907003,10.470061923567172,0.43801760278048996,-0.07413827400000006,-0.020397832000000005,-0.022653361499999747
100522.0,-1.0700035815,2.288087578,10.114676876499999,0.14784160494868367,0.19976689552476698,-0.37539763282370436,10.425302909029766,0.45020810236050457,-0.057466969000000034,-0.002353595999999847,-0.051484912499999425
100532.0,-1.1837607215,2.2269921485,10.146940755,0.11053693751655688,0.27251047341863865,-0.3911178133964173,10.45567741280912,0.48933987844276955,-0.11375713999999992,-0.06109542949999991,0.03226387850000023
100542.0,-1.315464031,2.2007103265,10.212841443,0.07456395630370174,0.34632044748547886,-0.41803079046216984,10.529753173644519,0.547948334882614,-0.1317033095000002,-0.026281822000000066,0.06590068800000104
100552.0,-1.4483441384999998,2.162366325,10.356410798999999,0.037793359622685214,0.4118715235318819,-0.45613481869171,10.67842560982962,0.6157316483265761,-0.13288010749999968,-0.03834400150000006,0.14356935599999865
100562.0,-1.5764189874999999,2.1671715834999996,10.597065989999999,0.0007539822368615504,0.44997555176142207,-0.4950382077186637,10.93066956288109,0.6689853457090944,-0.1280748490000001,0.004805258499999798,0.2406551910000001
100572.0,-1.6470268674999997,2.1372613009999997,10.8017307755,-0.03095515961337143,0.43904979064393757,-0.525415663349625,11.133641413185664,0.6854083161621991,-0.07060787999999985,-0.02991028249999994,0.20466478550000033
100582.0,-1.6734067559999997,2.071360613,10.898718543999998,-0.05466894816021838,0.39188575826729477,-0.5504628834449956,11.219308840630228,0.6779177881397243,-0.02637988849999995,-0.06590068799999971,0.09698776849999824
100592.0,-1.7129275554999999,2.0678302189999997,10.907152262999999,-0.0642630230584312,0.342590678873967,-0.5693822525366141,11.232809671371932,0.6676033694399711,-0.0395207995000002,-0.0035303940000002143,0.008433719000001005
100602.0,-1.7451914339999999,2.021150565,10.866454665500001,-0.0594651129446988,0.32180729814121845,-0.5747107427429528,11.189753337097004,0.6613535171287994,-0.03226387850000001,-0.046679653999999626,-0.040697597499997684
100612.0,-1.7978531444999999,1.8929776495,10.883224037,-0.048008771734608026,0.35191597306737266,-0.5821720252952286,11.191970592805793,0.6819633137491853,-0.052661710500000014,-0.1281729155000002,0.016769371499998798
100622.0,-1.9272028579999998,1.7972647454999997,11.047191225,-0.0416121400260488,0.4315885080916618,-0.604821162998359,11.35714336367282,0.7441833441599062,-0.1293497134999999,-0.09571290400000021,0.16396718800000087
100632.0,-2.0875415855,1.745779833,11.303340922999999,-0.04747470098349776,0.5296480867857112,-0.6423928658060408,11.62631038283719,0.8339361708834404,-0.1603387275000001,-0.05148491249999965,0.256149697999998
100642.0,-2.2863223809999997,1.7098874939999997,11.6217628485,-0.07625343501963225,0.6093188764807483,-0.6996815531735028,11.967303663681887,0.9309341305588382,-0.19878079549999983,-0.03589233900000033,0.3184219255000009
100652.0,-2.4801998515,1.7098874939999997,11.857612781,-0.11568914946844414,0.6564829088573911,-0.7740255979914532,12.234299628897961,1.0215035072248262,-0.19387747050000037,0.0,0.23584993250000075
100662.0,-2.6562292189999996,1.6045640729999997,12.02883689,-0.1455325343482952,0.686061003690939,-0.8536981330157424,12.422684752277044,1.1048347938283898,-0.17602936749999953,-0.10532342100000003,0.17122410899999885
100672.0,-2.809409092,1.505124642,12.24066053,-0.15565893466836628,0.7020482196392072,-0.9405649152167521,12.648792426349155,1.1839610493497525,-0.15317987300000047,-0.09943943099999974,0.21182364000000042
100682.0,-2.911202119,1.4094117379999997,12.507597543,-0.15539189929281114,0.6916565292728328,-1.0362246661893093,12.91903771658485,1.2555066529774799,-0.10179302699999981,-0.09571290400000021,0.2669370129999997
100692.0,-2.805878698,1.3806782535,12.712360395,-0.16072213482840184,0.6532854656677376,-1.136148256524489,13.091345787196307,1.320396290921838,0.10532342100000003,-0.028733484499999795,0.204762852
100702.0,-2.7866576640000003,1.5530791605,12.857204615499999,-0.17084678981922094,0.6138497512189256,-1.2083595089965022,13.24708369189022,1.3660647296688901,0.019221033999999637,0.1724009070000001,0.14484422049999957
100712.0,-2.76155264,1.5422918454999999,12.984102666499998,-0.20522104943724925,0.5912006135157952,-1.2925611734297167,13.363822775478548,1.4360878216918298,0.025105024000000142,-0.010787315000000186,0.1268980509999995
100722.0,-2.717226582,1.586519837,13.048728489999998,-0.2569142112228173,0.5975954998951024,-1.3775621986603444,13.422730001637504,1.5234181647207183,0.044326058000000224,0.04422799150000012,0.06462582350000012
100732.0,-2.71840338,1.6894896619999997,13.0906028855,-0.30967376918135386,0.5991942214899293,-1.4756200320251418,13.476200360645475,1.6224629540608282,-0.0011767979999999234,0.10296982499999974,0.041874395500000716
100742.0,-2.6190620154999995,1.7660795985,13.142087797999999,-0.34458035422124045,0.5898671819672716,-1.573412575343636,13.51639725221234,1.7153151445512103,0.0993413645000003,0.07658993650000023,0.051484912499999425
100752.0,-2.5376668204999997,1.8547317144999997,13.2522164775,-0.34804483278644927,0.5733476405971453,-1.6674736047213663,13.619876071064713,1.797312144578712,0.08139519499999981,0.08865211599999978,0.11012867950000071
100762.0,-2.5221723134999996,1.951719483,13.285755220499999,-0.35177460139796113,0.5403050671983886,-1.751675269154581,13.663156805744078,1.8665586474570584,0.015494507000000102,0.09698776850000024,0.03353874299999937
100772.0,-2.4934388289999996,2.055866106,13.2845784225,-0.35763716235541004,0.5179229648708134,-1.837210365136319,13.672009600030167,1.9420325597688959,0.028733484500000017,0.10414662299999988,-0.0011767979999994793
100782.0,-2.334178833,2.2054175185,13.324099222000001,-0.36030228012320537,0.5099293568966793,-1.9155512139413364,13.70561481047213,2.014741208026274,0.1592599959999994,0.14955141250000015,0.03952079950000176
100792.0,-2.1247087889999996,2.3957645949999997,13.422263788499999,-0.36536548028324095,0.5109940077403958,-1.9587166970016603,13.798957954888756,2.056982719723792,0.20947004400000058,0.1903470764999997,0.09816456649999772
100802.0,-1.9750593099999998,2.5957221884999995,13.662820913,-0.37469077447664667,0.5067319137070256,-1.9667103049757944,14.046754367418796,2.065216655110324,0.1496494789999998,0.19995759349999975,0.24055712450000044
100812.0,-1.8780715415,2.6759405855,13.9549610165,-0.38934630420564303,0.47102596786972567,-1.9645792579591093,14.332785762166159,2.05743229969041,0.0969877684999998,0.08021839700000033,0.2921401035000013
100822.0,-1.8003048069999998,2.786069265,14.361936991499999,-0.4218548068532894,0.39188575826729477,-1.9765696699203101,14.740030986917937,2.058728633318836,0.07776673450000016,0.11012867950000027,0.40697597499999816
100832.0,-1.6925297234999999,2.823138402,14.6732000625,-0.4908686161356492,0.2511947672640319,-1.9968207252312005,15.037871105177357,2.071555893071827,0.10777508349999998,0.03706913700000003,0.31126307100000083
100842.0,-1.5033594449999998,3.0433957609999998,14.749789998999999,-0.5966547674282775,0.06493672014970103,-2.0066800901757165,15.135344475549404,2.094511559630625,0.1891702785,0.22025735899999965,0.07658993649999957
100852.0,-1.163460956,3.1835327894999996,14.600140519999998,-0.7400108761993358,-0.08854578894142831,-1.9968207252312005,14.988416381382788,2.131372670920181,0.33989848899999986,0.14013702849999987,-0.1496494790000007
100862.0,-0.8570031435,3.3726050014999998,14.306921685,-0.8862991381137445,-0.1527634334393077,-1.951789485200495,14.724025502043759,2.1490335091283583,0.30645781250000004,0.18907221200000013,-0.29321883499999757
100872.0,-0.5218118465,3.5210776824999996,14.0267456945,-1.0355178078422518,-0.11439236983421235,-1.8761137541632726,14.471346531250006,2.145969609103381,0.33519129699999994,0.14847268099999988,-0.2801759905000001
100882.0,-0.2344770015,3.536670256,13.914263419,-1.2073856152738893,-0.0022113321622768156,-1.7817856894099873,14.358612135482632,2.1523348152521398,0.287334845,0.015592573500000206,-0.11248227550000145
100892.0,-0.114737805,3.4528233985,13.891511990999998,-1.3805868542540505,0.11156842710448553,-1.6818620990748079,14.314651919666856,2.1787904204787534,0.1197391965,-0.08384685749999976,-0.022751428000001184
100902.0,-0.220061226,3.3486767755,13.916617015,-1.5074234216549824,0.16006414570039995,-1.5824725794907386,14.31552626458941,2.1913843496139345,-0.105323421,-0.1041466230000001,0.02510502400000192
100912.0,-0.4200188195,3.3438715169999997,13.8986708455,-1.5692429837606217,0.10810394853927678,-1.4934730049437919,14.30143152983259,2.169025500603338,-0.19995759349999997,-0.004805258500000242,-0.017946169500000053
100922.0,-0.5600577815,3.3558356299999996,13.854344787499999,-1.5822980465655394,-0.03152239162026959,-1.414334540670613,14.265979355975691,2.1224992255057566,-0.140038962,0.011964112999999887,-0.04432605800000111
100932.0,-0.532501095,3.482733681,13.647326406,-1.573772113169547,-0.22337596431649429,-1.3391911350552492,14.094768864399759,2.0784822303390116,0.027556686499999983,0.1268980510000004,-0.2070183814999993
100942.0,-0.31106693799999996,3.5654037405,13.326452817999998,-1.5748385093425155,-0.3928456893558917,-1.2565881922168616,13.798667007470982,2.0526709310000233,0.22143415700000002,0.08267005949999984,-0.3208735880000013
100952.0,-0.015396440499999999,3.5761910555,12.981651004,-1.5958889254508193,-0.4791801461350432,-1.1611954766198593,13.465238293675775,2.0309726757760664,0.29567049749999996,0.010787314999999964,-0.34480181399999843
100962.0,0.2276123465,3.571385797,12.671662797499998,-1.625465274955115,-0.48157822852728344,-1.06127188628468,13.167294404882046,2.000088239777092,0.243008787,-0.004805258499999798,-0.3099882065000017
100972.0,0.420313019,3.4612571174999998,12.530348971,-1.6550433697886628,-0.4357458823699123,-0.9538870133972249,13.006406467676845,1.9593221951000361,0.1927006725,-0.11012867950000027,-0.14131382649999757
100982.0,0.4910189655,3.4372308249999994,12.490926237999998,-1.6883512332337227,-0.4045708112707896,-0.8433046973201161,12.964524428299237,1.9301218201492645,0.0707059465,-0.024026292500000324,-0.0394227330000021
100992.0,0.5304416985,3.39898489,12.3927616715,-1.729120379231058,-0.4226890742357427,-0.735654534386358,12.861376618564412,1.9260609889911682,0.03942273299999999,-0.03824593499999951,-0.09816456649999772
101002.0,0.6226242085,3.3881975749999995,12.17005265,-1.772285862291382,-0.48424160096582675,-0.6258715791066626,12.64823012187943,1.9409282159104497,0.09218251,-0.010787315000000408,-0.22270902150000005
101012.0,0.7400098089999999,3.2206019264999997,11.818091981499999,-1.802130992500485,-0.5559205280159819,-0.501700129473526,12.271397205273175,1.9515190922750676,0.11738560049999991,-0.16759564849999986,-0.35196066850000207
101022.0,0.871615052,3.038688569,11.455343998,-1.8093252396772057,-0.6233356157035148,-0.36766931489587346,11.883528395672677,1.948688235160632,0.1316052430000001,-0.1819133574999996,-0.3627479834999985
101032.0,0.9087822555,2.811174289,11.073473047,-1.796268431543036,-0.6702326127046024,-0.2328391395208075,11.460819839508943,1.9313223703420686,0.03716720350000002,-0.22751427999999985,-0.3818709509999998
101042.0,0.8524920844999999,2.5980757844999998,10.7311228955,-1.756298646343114,-0.7144662372671466,-0.10653664287098587,11.074011880726188,1.8990516042529095,-0.05629017100000011,-0.21309850450000045,-0.3423501514999998
101052.0,0.8237586,2.3802700879999996,10.3492519445,-1.7022074021653057,-0.7584328264541359,0.003511602455012591,10.651351075503921,1.8635296411866837,-0.028733484499999906,-0.21780569650000015,-0.3818709509999998
101062.0,0.8046356324999999,2.255725633,10.033281681499998,-1.6409201654815246,-0.7994672624977746,0.0922441416264043,10.315157678522677,1.827642162720589,-0.019122967500000088,-0.12454445499999967,-0.3159702630000023
101072.0,0.914764312,2.094112041,9.769875062499999,-1.5804340349244093,-0.8527608912074215,0.17031795505586664,10.033571533787427,1.8038794533268394,0.11012867950000005,-0.16161359200000014,-0.2634066189999995
101082.0,1.113447041,1.87503148,9.487345476,-1.4980963821323248,-0.9180431865490174,0.26384665901173876,9.734743527442328,1.7767135734267048,0.19868272899999995,-0.21908056099999973,-0.28252958649999904
101092.0,1.2355398334999999,1.7600975419999998,9.255124004,-1.4021695957842124,-0.9851912388609951,0.37176385732105216,9.501674713803702,1.7535363463813207,0.12209279249999994,-0.11493393800000029,-0.2322214719999991
101102.0,1.3696948054999998,1.643986806,9.021725734,-1.2987832722130763,-1.0592682483033906,0.5015308325360825,9.272016592847189,1.7494057236754932,0.13415497199999993,-0.11611073599999977,-0.23339827000000035
101112.0,1.4773718224999999,1.432163166,8.783424139,-1.1975279956586253,-1.1429375873147467,0.6491507806697631,9.021211583902241,1.7781384549374049,0.1076770170000001,-0.21182363999999998,-0.23830159500000114
101122.0,1.483353879,1.191507975,8.5644416445,-1.0912077736148866,-1.236733326646174,0.8018339289634788,8.773237182869208,1.8338978641330816,0.005982056500000166,-0.2406551910000001,-0.21898249449999874
101132.0,1.411569201,0.938888671,8.309370677999999,-0.9720995241417858,-1.344116454204377,0.9377305005115134,8.480547188132974,1.9055091232762984,-0.07178467799999999,-0.252619304,-0.2550709665000017
101142.0,1.3373328604999999,0.6958798839999999,8.013700180499999,-0.8402015019100703,-1.458962609644108,1.046180024242685,8.154268733349097,1.9821713102746463,-0.07423634050000016,-0.24300878700000006,-0.29567049749999974
101152.0,1.3504737715,0.47326892899999995,7.659385915999999,-0.69684364780976,-1.5652810863585944,1.1301163986295963,7.791916035025364,2.0525250359633334,0.013140911000000033,-0.22261095499999994,-0.35431426450000014
101162.0,1.4929643959999999,0.3392120235,7.265550852,-0.551888817443875,-1.617773608941576,1.193000611578952,7.42510852901212,2.0844719177372486,0.14249062449999994,-0.13405690549999993,-0.39383506399999924
101172.0,1.563572276,0.3427424175,7.033329379999999,-0.4397077797719394,-1.579936616087591,1.2497569735245557,7.213179104569686,2.0619008548714297,0.07060788000000007,0.0035303939999999923,-0.23222147200000087
101182.0,1.5623954779999998,0.290080707,6.9124133855,-0.3824190924044776,-1.4802800611279667,1.304115253077919,7.092720582279274,2.0095248231656573,-0.0011767980000001454,-0.052661710500000014,-0.1209159944999989
101192.0,1.621039245,0.152395341,6.7951258515,-0.377355892244442,-1.3326583676650343,1.3360914303037073,6.987469349593763,1.9244521569657789,0.05864376700000018,-0.137685366,-0.11728753399999992
101202.0,1.6844882705,0.0028439284999999996,6.750799793499999,-0.40826567329726154,-1.1565267208707746,1.3464831206700814,6.957787484057056,1.8213323997366362,0.06344902549999998,-0.14955141249999998,-0.04432605800000111
101212.0,1.7203806094999998,0.013533176999999999,6.712455791999999,-0.47328267859255435,-0.9798627486546565,1.3504799246571484,6.92942676907532,1.7343366244644605,0.035892338999999884,0.010689248499999998,-0.038344001499999614
101222.0,1.712044957,0.012356378999999999,6.66459934,-0.5556185860553868,-0.8218511101546019,1.3534120778004988,6.880998109113209,1.6780570648129944,-0.00833565249999979,-0.0011767979999999997,-0.04785645199999955
101232.0,1.7143985529999999,-0.0079433865,6.608309169,-0.6336923994848491,-0.6918170995640163,1.3611386503990777,6.827076648830526,1.6531410653735077,0.002353595999999847,-0.020299765499999997,-0.05629017099999967
101242.0,1.7192038115,0.013533176999999999,6.489844837,-0.6992417302020002,-0.5953579877940457,1.374994819330661,6.713712155036988,1.653481443522188,0.00480525850000002,0.021476563499999997,-0.11846433200000028
101252.0,1.7215574075,0.067469752,6.3114618735,-0.7546664059283321,-0.510622252609721,1.3965775608608226,6.542389705252752,1.667538710974044,0.002353596000000069,0.053936574999999994,-0.17838296349999982
101262.0,1.70243444,0.1344491715,6.071983480499999,-0.8068936384650105,-0.4309497175854319,1.4266879811162287,6.307562365104292,1.694766532105165,-0.019122967499999977,0.0669794195,-0.23947839300000062
101272.0,1.6796830119999997,0.172793173,5.828974693499999,-0.8585868002505784,-0.3448822961818355,1.461062240734257,6.068619157510232,1.7293981505378078,-0.022751428000000296,0.0383440015,-0.24300878699999995
101282.0,1.5683775344999997,0.20152665749999998,5.660202247,-0.8966908284801187,-0.2819980832324798,1.5010320259341792,5.876930368938471,1.771065923026927,-0.11130547749999997,0.02873348449999999,-0.16877244649999934
101292.0,1.4044103465,0.1668111165,5.472306832999999,-0.911346358209115,-0.26574383190865664,1.5316747716114436,5.652109026234606,1.8019987721442767,-0.16396718799999976,-0.03471554099999999,-0.18789541400000065
101302.0,1.240345092,0.159652262,5.23282844,-0.8924269891174966,-0.29958402077557467,1.5783064785662282,5.38018942737921,1.8377235528483353,-0.16406525449999987,-0.007158854500000006,-0.23947839299999973
101312.0,1.1182522995,0.18112882549999998,4.9958017095,-0.845529992116409,-0.35101189251483955,1.6321306873684813,5.122629264099362,1.8713580354665258,-0.12209279250000016,0.02147656349999999,-0.23702673049999934
101322.0,0.9327104814999999,0.20388025349999997,4.695325953499999,-0.7810470575722265,-0.4021727288785494,1.6960812964908054,4.791409167424325,1.9100966400425357,-0.18554181800000003,0.02275142799999999,-0.30047575600000087
101332.0,0.7759021479999999,0.196721399,4.433194199,-0.7083017343491028,-0.4437394903440463,1.7680272589165158,4.50487893934374,1.9556371009071671,-0.1568083335,-0.007158854499999978,-0.2621317544999995
101342.0,0.662145008,0.0303025485,4.1865569515,-0.6320936778900224,-0.4546652514615308,1.8423695584052142,4.2387042081534645,2.000147119152323,-0.11375713999999992,-0.1664188505,-0.24663724749999982
101352.0,0.42992353599999994,-0.1575928655,4.0549517085,-0.5604147508398672,-0.43201611375840043,1.9025903989160267,4.0807233569957075,2.0299144911924905,-0.23222147200000004,-0.187895414,-0.1316052430000001
101362.0,0.10669635200000001,-0.37069136999999996,3.949530221,-0.49140094155750746,-0.41656122323199063,1.9342995407662598,3.968322714940771,2.038752768599641,-0.32322718399999995,-0.21309850449999995,-0.10542148750000013
101372.0,-0.21653083199999998,-0.556233188,3.9076558254999996,-0.4143935243010136,-0.41576186243457725,1.9481557096978426,3.95298052249228,2.034672108342272,-0.323227184,-0.18554181800000003,-0.04187439550000027
101382.0,-0.5349527574999999,-0.6975470144999999,3.864604632,-0.33019185986779925,-0.4277522743957783,1.9585474000642167,3.963321240054933,2.031725028361865,-0.3184219254999999,-0.1413138264999999,-0.04305119349999975
101392.0,-0.7875720615,-0.845921629,3.7999788084999997,-0.2561148504254039,-0.44347420029774315,1.9614795532075673,3.971862547913063,2.027231170979153,-0.2526193040000001,-0.1483746145000001,-0.06462582350000012
101402.0,-0.9383983384999999,-1.0159689399999998,3.7005393775,-0.19216424130307966,-0.4650569418279051,1.956681643093835,3.9505412304103817,2.020348511321327,-0.15082627699999984,-0.1700473109999998,-0.09943943099999952
101412.0,-1.190919576,-0.9932175119999999,3.6993625795,-0.11862130261179461,-0.5074248094200674,1.9593467608616302,4.011240949787034,2.027459168503098,-0.2525212375000001,0.022751427999999962,-0.0011767980000003675
101422.0,-1.364497281,-1.2098464105,3.63238316,-0.0061732295643039435,-0.5548558771722654,1.9585474000642167,4.064454279224668,2.035635299235637,-0.17357770500000003,-0.2166288985000001,-0.06697941949999997
101432.0,-1.5476855029999999,-1.2912416055,3.5701109324999996,0.10307565496428112,-0.6017528741733529,1.9457576273056023,4.099796015697195,2.0392900373512677,-0.18318822199999985,-0.08139519500000003,-0.06227222750000028
101442.0,-1.7930478859999999,-1.355867429,3.597667619,0.204065641472429,-0.6108128783204555,1.928971050559921,4.242241094435024,2.0336333180418533,-0.24536238300000002,-0.0646258234999999,0.027556686500000538
101452.0,-1.9810413664999997,-1.4624657145,3.7747757179999994,0.31145051435988413,-0.5985554309836993,1.915380171674641,4.50691275521,2.0307513951489717,-0.18799348049999987,-0.10659828550000006,0.17710809899999935
101462.0,-2.1677599825,-1.515127425,4.0429875955,0.4188336419180872,-0.5764386187024273,1.8900676615329675,4.831205145000821,2.019915559103061,-0.18671861600000006,-0.052661710500000014,0.2682118775000002
101472.0,-2.416750826,-1.491199199,4.3434633515,0.5171585106584398,-0.5852315874739746,1.849563805581935,5.189415525075394,2.0076940023426113,-0.24899084350000011,0.023928225999999997,0.300475756
101482.0,-2.6047443064999998,-1.4744298275,4.609125499999999,0.6149510539769341,-0.6286658512391055,1.8000016908130518,5.495695960769308,2.00334511211408,-0.18799348049999987,0.016769371499999908,0.2656621484999997
101492.0,-2.6382830494999996,-1.4528551975,4.795942182499999,0.7031495223972155,-0.6699673226582993,1.7472421328545154,5.66324881071498,1.99903239971226,-0.033538742999999815,0.02157463000000015,0.18681668249999994
101502.0,-2.6429902415,-1.3822473174999999,4.998253372,0.779624614231851,-0.6840887816361855,1.7054083360134633,5.82052762506197,1.9960484946064945,-0.004707192000000582,0.07060788000000007,0.2023111895000005
101512.0,-2.648972298,-1.3128162354999997,5.287941813,0.8441092941052856,-0.6657034832956772,1.6763643119310254,6.058289306515291,1.9914514642297718,-0.005982056499999722,0.06943108200000014,0.289688441
101522.0,-2.635831387,-1.3187982919999999,5.564489343,0.8899398949334046,-0.631596259053204,1.6617087822020293,6.296854586540571,1.988009790693052,0.01314091099999981,-0.005982056500000166,0.2765475300000002
101532.0,-2.6406366455,-1.3068341789999998,5.8050464674999995,0.9016650168483026,-0.5876296698662149,1.6558462212445804,6.50994177814167,1.9748759808973024,-0.004805258499999798,0.01196411300000011,0.24055712449999955
101542.0,-2.706439267,-1.317621494,6.012162915499999,0.8832779731785423,-0.5415320336625405,1.649184299489718,6.723618284073222,1.9476256763219344,-0.06580262150000005,-0.010787315000000186,0.20711644799999984
101552.0,-2.8776633759999997,-1.2684901775,6.051683714999999,0.8443745841515887,-0.48450863634138186,1.6307990011492097,6.820035895974588,1.8992689222961063,-0.17122410899999974,0.04913131650000002,0.03952079949999998
101562.0,-3.0560463395,-1.2206337255,5.94871389,0.7849531044381898,-0.39657545796740357,1.5753743254228776,6.798276462904277,1.804224968021115,-0.17838296350000027,0.047856451999999994,-0.10296982499999974
101572.0,-3.3038603849999997,-1.189546645,5.902034236,0.7223359268643892,-0.28732657343881846,1.4866417862514858,6.867643175582087,1.6776261656495874,-0.24781404549999975,0.031087080499999864,-0.04667965399999918
101582.0,-3.5779562525,-1.217005265,5.995393544,0.6975539968153217,-0.19513130103147003,1.3664688859346685,7.087144453676561,1.5465752549885177,-0.27409586750000026,-0.02745861999999999,0.09335930799999925
101592.0,-3.7611444744999996,-1.1415921265,6.099540167,0.7249992993029325,-0.14157238227552002,1.2271078358214251,7.256295927688938,1.4322919968174264,-0.18318822199999962,0.07541313850000009,0.1041466230000001
101602.0,-3.7480035634999997,-1.205041152,6.3138154695,0.7671001315195397,-0.10586643643822004,1.0704278835406422,7.440693561283094,1.321160916770823,0.01314091099999981,-0.06344902549999998,0.21427530249999993
101612.0,-3.4690043709999996,-1.2637829855,6.8345485845,0.8201267248536315,-0.09174323213108193,0.9379957905578166,7.768023758611154,1.249344135362705,0.27899919250000016,-0.05874183350000006,0.5207331150000005
101622.0,-3.4726328314999995,-1.328408809,7.337335529999999,0.9147200796532201,-0.18527193608695405,0.8505966829349484,8.22559064298977,1.2627562042778244,-0.003628460499999875,-0.0646258234999999,0.5027869454999987
101632.0,-3.211677875,-1.7006692429999999,7.664191174499999,1.0666038671495226,-0.4178929094512623,0.8031656151827505,8.48215638892224,1.3990544301776981,0.26095495649999956,-0.372260434,0.32685564450000015
101642.0,-2.9889688535,-1.5953458219999999,7.981436302,1.2182223645995223,-0.6859545386065674,0.8090281761401996,8.670777851026365,1.6152789073203853,0.22270902150000005,0.10532342100000003,0.31724512750000056
101652.0,-2.9829867969999997,-1.4612889165,8.3153527345,1.366641673530616,-0.9558801794030024,0.8545934869220154,8.954254107837162,1.8739654236659777,0.005982056500000166,0.13405690549999982,0.3339164324999997
101662.0,-3.107531252,-1.3367444614999997,8.538061756,1.5238539512332572,-1.1839737686876373,0.9222756099851036,9.183797405582148,2.1388120652369182,-0.12454445500000011,0.12454445500000033,0.22270902150000005
101672.0,-3.3158244979999996,-1.3810705195,8.736744485,1.640831153689673,-1.3473138973940308,0.9673068500158093,9.446308912879509,2.333080400482843,-0.20829324599999977,-0.044326058000000224,0.19868272899999972
101682.0,-3.4641991125,-1.572594394,8.827750196999999,1.7010519942004854,-1.4219232322582844,0.9518519594893995,9.612642829093335,2.412771377108305,-0.14837461450000022,-0.19152387450000008,0.0910057119999994
101692.0,-3.4630223145,-1.7868696965,8.8001935105,1.706115194360521,-1.373694549037925,0.8447341219774995,9.624387392724861,2.347645950163151,0.0011767979999999234,-0.21427530249999993,-0.02755668649999876
101702.0,-3.396042895,-1.7868696965,8.816962881999999,1.66028284820315,-1.1922326667080745,0.6584778201924206,9.615864241944958,2.1474521897562173,0.06697941949999997,0.0,0.016769371499998798
101712.0,-3.1302826799999997,-1.7197922104999999,8.86128894,1.545438438092671,-0.895394048845887,0.44664022756086086,9.553993750373232,1.8410860820500932,0.26576021500000024,0.06707748600000007,0.04432605800000111
101722.0,-2.8142143505,-1.4505016015,8.965435563,1.3602467871513089,-0.5122209742045478,0.2542543294427779,9.508038290878899,1.475563252595737,0.31606832949999975,0.2692906089999998,0.1041466230000001
101732.0,-2.6741753884999997,-1.017145738,9.234726171999998,1.1609319319028082,-0.1279815033902402,0.12528496969590897,9.667779834719678,1.174665288221848,0.1400389620000002,0.4333558635000001,0.2692906089999987
101742.0,-2.8620708025,-0.7095111274999999,9.660923181,1.0452881609949158,0.09051626566692993,0.08744797684192389,10.100905505337254,1.0528379184471677,-0.1878954140000002,0.30763461050000007,0.4261970090000009
101752.0,-3.3002319245,-0.4819968475,10.1301713835,1.0863225970385546,0.04228758244657061,0.11835775789474345,10.66509371621137,1.0935691945732726,-0.4381611219999999,0.2275142799999999,0.4692482025000011
101762.0,-3.664156706,-0.531128164,10.306200750999999,1.2605884868624324,-0.24096190185958916,0.15566242532687025,10.951069144728825,1.292817373806738,-0.3639247815000002,-0.049131316499999966,0.1760293674999982
101772.0,-3.8329291524999993,-0.6640082715,10.2547158385,1.497475044918615,-0.6036168858144828,0.14846817815014965,10.967745885143744,1.621365984260681,-0.16877244649999934,-0.1328801075,-0.051484912499999425
101782.0,-3.7036775055,-0.7226520385,10.026024760499999,1.6983868764326902,-0.8700797933749612,0.07092669014254556,10.71263858867898,1.9096039967105174,0.12925164699999936,-0.05864376700000007,-0.22869107800000066
101792.0,-3.3038603849999997,-0.763349636,9.672887293999999,1.7948459882026608,-0.9596116933437663,-0.0663015676247606,10.250021693283399,2.036350318888864,0.3998171205000003,-0.040697597500000016,-0.3531374664999998
101802.0,-2.7926397205,-0.5957539875,9.362899087499999,1.8089691925097988,-0.8415680947143818,-0.2410997828704967,9.788648463646284,2.0096605441693254,0.5112206644999997,0.16759564850000008,-0.3099882064999999
101812.0,-2.4119455674999997,-0.221041891,9.188046517999998,1.7471496304041596,-0.5700437323231199,-0.3919171741938307,9.501922950387025,1.8791170158375825,0.3806941530000003,0.3747120965,-0.1748525695000005
101822.0,-2.1546190715,0.3044964825,9.152154179,1.6240445769439915,-0.14849959407668553,-0.513425251388424,9.407285876771981,1.7097305068651594,0.2573264959999997,0.5255383735,-0.03589233899999833
101832.0,-2.2109092425,0.8096370239999999,9.408303877,1.4913454485856108,0.28903176011801696,-0.5701816133340275,9.698443876786458,1.6225774796779753,-0.05629017100000011,0.5051405414999999,0.25614969799999976
101842.0,-2.6274957345,1.1531639734999999,9.981796768999999,1.4236650708517744,0.5951974175028623,-0.5597899229676533,10.386038114806475,1.641477065822607,-0.416586492,0.34352694949999996,0.5734928919999991
101852.0,-3.211677875,1.1627744905,10.7287692995,1.4692286363043385,0.6708731485400844,-0.49956908245684095,11.259369874483019,1.6906427284661778,-0.5841821404999998,0.00961051700000004,0.7469725305000008
101862.0,-3.7599676764999996,0.9999841005,11.414646400499999,1.595265842907857,0.507531274504439,-0.4593322618813636,12.05949740155141,1.7359283484503805,-0.5482898014999997,-0.16279038999999995,0.6858771009999991
101872.0,-4.0879020525,0.8024781695,11.779846046500001,1.7514134697667818,0.19949986014921184,-0.49876972165942757,12.494786404040667,1.8319444782864724,-0.32793437599999997,-0.19750593100000002,0.36519964600000243
101882.0,-4.0771147375,0.7342238855000001,11.734343190499999,1.8990334179004622,-0.13517575056696082,-0.6197437281029105,12.44414558775379,2.0021694969125234,0.010787314999999964,-0.06825428399999989,-0.04550285600000237
101892.0,-3.7312341919999996,0.8946606795000001,11.3883645785,1.9885653178692675,-0.3853844068036159,-0.7956083395216151,12.017378004366291,2.176213637112914,0.3458805455,0.160436794,-0.3459786119999997
101902.0,-3.2906214074999998,1.2717263719999998,10.9131343195,2.026135275347697,-0.4757156675698344,-0.9850638298255996,11.469175118036443,2.3025812253230895,0.44061278449999985,0.37706569249999977,-0.47523025899999993
101912.0,-2.7974449789999998,1.7301872594999999,10.528811705999999,2.014144863386496,-0.38431975595989937,-1.15053675087793,11.030644691216875,2.3512158600707056,0.4931764285,0.4584608875,-0.3843226135000002
101922.0,-2.4024331169999997,2.1791356965,10.401913655,1.9669808310098535,-0.14476982546517367,-1.2523260981834914,10.89587651139156,2.336298899566774,0.39501186200000005,0.4489484370000001,-0.1268980509999995
101932.0,-2.241996323,2.5251143084999996,10.6473741045,1.9134219122539033,0.16219519271708505,-1.283501169282614,11.170019028834021,2.3097328733824947,0.16043679399999977,0.3459786119999997,0.24546044950000123
101942.0,-2.263570953,2.7214434414999995,11.163301960999998,1.8516023501482644,0.4411825829898746,-1.2605849962039286,11.711076745415644,2.2830128924871738,-0.021574629999999928,0.19632913299999988,0.5159278564999976
101952.0,-2.461076884,2.7752819499999997,11.895956782499999,1.8169628004839327,0.6143820766407839,-1.2152867207976674,12.460853787042952,2.2706256776904037,-0.19750593100000025,0.05383850850000016,0.7326548215000006
101962.0,-2.7831272699999996,2.7812640064999994,12.697944619499998,1.809768553307212,0.6522208148240211,-1.179847810335923,13.293570793235316,2.256700038415354,-0.32205038599999947,0.005982056499999722,0.8019878369999986
101972.0,-3.0392769679999994,2.819608008,13.363521955,1.8063040747420034,0.5765450837867988,-1.190239500702297,13.991823070949689,2.2387069288096524,-0.25614969799999976,0.0383440015000005,0.6655773355000019
101982.0,-3.2152082689999997,2.892569484,13.909458160499998,1.7983104667678695,0.46303235989559166,-1.2483275488671721,14.566315551693709,2.2375524955759305,-0.17593130100000032,0.07296147600000014,0.5459362054999986
101992.0,-3.2894446095,3.1667634179999995,14.224251625499999,1.7316947398777498,0.3798953463060938,-1.3423903235741548,14.939148927903858,2.2237578391297057,-0.07423634050000016,0.2741939339999995,0.31479346500000105
102002.0,-3.2906214074999998,3.5808982474999995,14.469712075,1.6213794591761963,0.37616557769458187,-1.4543043258705353,15.265110187609086,2.210287982306049,-0.0011767979999999234,0.4141348295,0.24546044950000123
102012.0,-3.1613697604999995,3.871861553,14.843149307,1.4713614286502756,0.44970851638586695,-1.5528944846571908,15.662204570177787,2.186006286337823,0.12925164700000025,0.2909633055000005,0.3734372319999988
102022.0,-3.0691872505,4.117223935999999,15.2849388895,1.2832393698948148,0.5613554833066922,-1.616846839108767,16.124540308906564,2.139162677362931,0.09218250999999933,0.24536238299999935,0.4417895825000002
102032.0,-2.9794564029999995,4.337481295,15.628465839,1.0527476982179396,0.6426267399258082,-1.6554831927601654,16.490598804247302,2.0644300531822903,0.08973084750000071,0.22025735900000054,0.34352694950000107
102042.0,-2.8645224650000003,4.514687460499999,15.7589923505,0.7945471793364026,0.6735365209786277,-1.6821291344503628,16.64132602053103,1.9785133535688237,0.11493393799999918,0.17720616549999946,0.1305265114999994
102052.0,-2.7077141315,4.5002716849999995,15.6464120085,0.5536638172931532,0.6559505834355328,-1.6949189072089774,16.504374262493883,1.8998854945768484,0.15680833350000034,-0.014415775499999839,-0.11258034199999933
102062.0,-2.4753945929999994,4.454768829,15.361528825999999,0.3839270568782006,0.6077201548859216,-1.7095744369379737,16.18484203144759,1.8545534575982208,0.23231953850000053,-0.0455028559999997,-0.28488318250000155
102072.0,-2.3233915179999998,4.4691846045,15.081450901999998,0.29572858845791916,0.5341772161946365,-1.723962931291415,15.900374853582878,1.828892802982081,0.15200307499999965,0.014415775499999839,-0.2800779240000004
102082.0,-2.1702116449999997,4.556561856,14.7904875965,0.2693496821432769,0.4467781085717685,-1.7266280490592103,15.627878866751818,1.803719587232912,0.15317987300000002,0.08737725150000042,-0.29096330549999827
102092.0,-2.031349481,4.604418308,14.4996223575,0.2637524112321311,0.37882895013312523,-1.7189014764606314,15.34816266460316,1.7798030772162037,0.13886216399999984,0.04785645199999955,-0.2908652390000004
102102.0,-1.9139638804999999,4.6655137374999995,14.3272214505,0.2458994383134811,0.3452557966417623,-1.7173027548658046,15.188796880014136,1.7688405385300578,0.11738560050000002,0.06109542949999991,-0.1724009070000001
102112.0,-1.8170741785,4.7158218519999995,14.127361923499999,0.19580499812273985,0.34711980828289224,-1.7228982804476984,15.00410241325784,1.7683919936942245,0.09688970199999991,0.050308114499999945,-0.19985952700000098
102122.0,-1.5787725835,4.6415855115,13.987224894999999,0.10680716890504499,0.3921527936428499,-1.7316912492192458,14.82158220954449,1.7787484834888587,0.23830159500000003,-0.07423634049999972,-0.14013702849999987
102132.0,-1.3669489434999997,4.600887914,13.698713251999997,-0.03201981045708797,0.4822170190335133,-1.7466138143237973,14.515214906154418,1.8122412472113087,0.2118236400000002,-0.04069759749999946,-0.2885116430000014
