timestamp,ax,ay,az,gx,gy,gz,acc_mag,gyro_mag,dax,day,daz
101042.0,1.5665142709999997,1.9347539784999999,9.185889054999999,0.3430828617230293,0.19985241665811468,0.36631843005482984,9.517236870506954,0.5402185026912603,0.0,0.0,0.0
101052.0,1.8753256795,1.6438887395,9.4576313265,0.31563755923541853,0.23982220185803685,0.4411948002946386,9.780900106842987,0.5931227605741962,0.3088114085000002,-0.29086523899999994,0.27174227150000085
101062.0,1.7484276285,1.8114843879999998,9.747319767499999,0.32869436736958807,0.29844432077402233,0.5229983823356128,10.067210016184529,0.6860293781380131,-0.12689805099999996,0.16759564849999986,0.28968844099999913
101072.0,1.601229812,1.9933977455,10.0944751775,0.3742579328221521,0.3290870664512868,0.5994734741702483,10.41326080494317,0.7795740784682181,-0.14719781650000008,0.18191335750000026,0.34715541000000094
101082.0,1.6407506114999997,2.1634450565,10.5697054365,0.429682608548484,0.3344155566576255,0.6866072917468132,10.912892838107114,0.8762936047373351,0.03952079949999976,0.17004731100000003,0.47523025899999993
101092.0,1.577301586,2.399294989,11.1335878115,0.46885303295099273,0.34160980383434614,0.7937251292587132,11.497881295865772,0.983117493181688,-0.06344902549999976,0.23584993249999986,0.5638823750000004
101102.0,1.4563855915,2.600331314,11.7153182895,0.4664549505587525,0.34134451378804304,0.9136327395292276,12.088484791651558,1.081120289668844,-0.12091599450000001,0.20103632500000002,0.5817304780000008
101112.0,1.280356224,2.6566214849999996,12.284005923,0.4214219651987949,0.33121811346797186,1.0284788949689585,12.633042044226649,1.1597718520630973,-0.17602936749999998,0.05629017099999967,0.5686876334999997
101122.0,1.0253833239999999,2.563262177,12.910062458999999,0.3670636856454314,0.27552814769533684,1.1102824770099327,13.201948213974223,1.201406961960577,-0.25497290000000006,-0.0933593079999997,0.6260565359999983
101132.0,0.803949167,2.4614691499999997,13.406867347999999,0.33855198698485206,0.15215605885961367,1.1617086034199458,13.654642314113914,1.2195637717639052,-0.2214341569999999,-0.10179302700000026,0.49680488899999986
101142.0,0.6818563744999999,2.4639208124999996,13.707343103999998,0.31696924545469024,0.011463322527098757,1.1856911726716,13.94371144482319,1.2273811418132632,-0.12209279250000005,0.0024516624999999515,0.3004757559999991
101152.0,0.6494944294999999,2.5345286925,13.838948347,0.2756677740354964,-0.12363214289427032,1.2112707181888287,14.08411055260471,1.2483807036076757,-0.032361945,0.07060788000000029,0.13160524300000276
101162.0,0.6064432359999999,2.6961422845,13.891708123999999,0.18880099183448662,-0.1987755485096342,1.2467113739798255,14.163915815168014,1.2764978586796203,-0.04305119349999997,0.16161359200000014,0.052759776999998564
101172.0,0.5202427825,2.6147470895,13.856992582999998,0.04224569454452275,-0.19424641910070892,1.2706921979022276,14.111123213270766,1.2861473600838247,-0.08620045349999994,-0.08139519500000025,-0.03471554100000063
101182.0,0.319108391,2.8577558764999997,13.763535208499999,-0.15759974079658395,-0.12496557444279399,1.3421040895768277,14.060707672464284,1.357091544573841,-0.2011343915,0.24300878699999995,-0.0934573744999998
101192.0,-0.072373077,2.669762396,13.6666455065,-0.37929669837265967,-0.06261368691529658,1.4233753461959435,13.925159550745075,1.4743757442877135,-0.391481468,-0.18799348049999987,-0.09688970199999858
101202.0,-0.4876847045,2.3023072205,13.5852503115,-0.5325139174174859,-0.04689176101333165,1.5086434068021266,13.787584303810458,1.6005545408956783,-0.4153116275,-0.36745517549999995,-0.0813951950000007
101212.0,-0.9582077715,1.8103075899999999,13.525331679999999,-0.5999290051050188,-0.08819323243252546,1.557406160773596,13.679545780390013,1.6712889657473202,-0.470523067,-0.49199963050000006,-0.05991863150000043
101222.0,-1.3879351744999997,1.3542002985,13.488262543,-0.5988626089320503,-0.16573472044012955,1.561670000136218,13.626938354816485,1.6807491220469892,-0.4297274029999997,-0.45610729149999996,-0.037069136999999586
101232.0,-1.7267549319999997,1.0405836314999999,13.429618776,-0.5842070792030539,-0.2523344672655842,1.5235659719066779,13.580101522375442,1.6511280584839896,-0.33881975750000004,-0.313616667,-0.058643766999999514
101242.0,-1.968586921,0.8215030704999999,13.3589128295,-0.5836747537811957,-0.3463954966433146,1.4596136174551018,13.528146722539377,1.609701205365976,-0.24183198900000025,-0.21908056099999995,-0.0707059465000004
101252.0,-2.1960031344999997,0.7328509545,13.2763408365,-0.6193806996184957,-0.430597161076529,1.398328126100573,13.476673413538034,1.5888259547322996,-0.22741621349999974,-0.08865211599999989,-0.08257199300000018
101262.0,-2.459311687,0.712551189,13.015385879999998,-0.6963881168749895,-0.5068052175356095,1.3482336859098316,13.264848765668736,1.599856871619465,-0.2633085525000003,-0.02029976550000001,-0.2609549565000009
101272.0,-2.7059489345,0.6251739374999999,12.762766575999999,-0.7805897813082039,-0.5483737243303584,1.295739417997598,13.061439919155685,1.6090291444133296,-0.24663724749999982,-0.08737725150000009,-0.25261930399999954
101282.0,-2.9597450365,0.5162220559999999,12.5114221365,-0.846139112025355,-0.5523705283174254,1.2360526482378962,12.867099897408487,1.5965245837971442,-0.25379610200000036,-0.10895188150000001,-0.25134443949999863
101292.0,-3.2805205579999996,0.31391086649999994,12.323428655999999,-0.8850425010523086,-0.5390484301369527,1.1625079642173592,12.756459109137197,1.557336895334734,-0.32077552149999944,-0.2023111895,-0.1879934805000012
101302.0,-3.590606831,0.159456129,12.190548548499999,-0.9034295447220688,-0.5355839515717439,1.0737771703752195,12.70934135135393,1.5020094950022593,-0.31008627300000047,-0.15445473749999994,-0.13288010750000012
101312.0,-3.800076875,0.013435110499999998,12.0373686755,-0.913821235088443,-0.559564775494146,0.9714554976477998,12.622955651827844,1.4463428955757744,-0.2094700439999997,-0.14602101850000002,-0.15317987299999913
101322.0,-3.9042234979999995,-0.0787473995,11.8985065115,-0.9348716511967466,-0.6059294470733754,0.8611402169462462,12.522923759229363,1.4080830842973031,-0.10414662299999966,-0.09218251,-0.13886216399999896
101332.0,-3.9329569825,-0.1373911665,11.629117835999999,-0.9671131184688379,-0.6589560404074671,0.7412308613464798,12.276946224627729,1.385263165220404,-0.02873348450000046,-0.058643767,-0.2693886755000019
101342.0,-3.950903152,-0.09787036699999999,11.375321734,-1.016675233237721,-0.688534135241015,0.6242554042193159,12.042307041312018,1.3774623751551576,-0.017946169500000053,0.03952079950000001,-0.253796101999999
101352.0,-3.936585443,-0.084729456,11.053369414499999,-1.0814252031574585,-0.6890664606628734,0.5104756449525535,11.733748737899479,1.380173337419737,0.014317709000000178,0.013140910999999991,-0.32195231950000114
101362.0,-3.8851005305,-0.10748088399999998,10.7181781175,-1.1523047694102002,-0.6653509267867743,0.4033578074406535,11.401092071857532,1.3903940657974796,0.05148491249999987,-0.02275142799999999,-0.33519129699999795
101372.0,-3.7689897945,-0.10032202949999999,10.414073901,-1.22131857869256,-0.636839228126195,0.29917037774285204,11.075571488466746,1.4094985590836138,0.11611073599999999,0.007158854499999992,-0.30410421650000075
101382.0,-3.6324812265,-0.095516771,10.0729005475,-1.29273047036716,-0.6107256118578558,0.20457527761401134,10.708285051969947,1.4442952905156554,0.136508568,0.0048052584999999925,-0.34117335350000033
101392.0,-3.4744960949999997,-0.09669356900000001,9.6096344015,-1.362543640446933,-0.5782188545394614,0.11557744839631649,10.218930770435254,1.4846616996626238,0.15798513150000026,-0.0011767980000000067,-0.4632661460000005
101402.0,-3.314059301,-0.164947853,9.1092991185,-1.4166348846247414,-0.521727782640161,0.03110874858754693,9.69481961023818,1.5099741818167145,0.16043679399999977,-0.068254284,-0.5003352830000001
101412.0,-3.229133712,-0.22359162,8.702225077,-1.4448812932390178,-0.4340616396417378,-0.05549099823790771,9.284719652917731,1.5096922565364008,0.08492558900000002,-0.058643766999999986,-0.4070740414999996
101422.0,-3.141658394,-0.40079778549999995,8.375467498999999,-1.4438148970660492,-0.3370702024499089,-0.15514755319753196,8.954278985840103,1.4907342290403913,0.08747531800000008,-0.17720616549999996,-0.3267575780000005
101432.0,-3.0482990859999997,-0.5983037165,8.0617527655,-1.4280929711640842,-0.24753830248110376,-0.2641311476798138,8.639557413833943,1.4732582966534225,0.09335930800000014,-0.19750593100000008,-0.31371473349999945
101442.0,-2.941798867,-0.7120608565,7.752941356999999,-1.4126380806376744,-0.19078194053550016,-0.37684451077360764,8.322818688540739,1.474434088388621,0.10650021899999951,-0.11375713999999992,-0.30881140850000044
101452.0,-2.8220596705000003,-0.8041453,7.438049825499999,-1.3870585351204456,-0.15880576330971205,-0.4860951406314447,7.995952454460646,1.4783230824337286,0.11973919649999987,-0.0920844435,-0.3148915314999998
101462.0,-2.701143676,-0.872399584,7.131592013,-1.3454900283256968,-0.1297617392272744,-0.5742936090517262,7.6757320714342,1.468671057347025,0.12091599450000023,-0.068254284,-0.3064578124999997
101472.0,-2.561104714,-0.9454591264999999,6.802480839,-1.277010289794447,-0.09272410717070276,-0.6683546384294565,7.329863292102883,1.4443167806965589,0.1400389620000002,-0.07305954249999991,-0.32911117399999945
101482.0,-2.4006679199999996,-1.0017492975,6.5271101069999995,-1.2034656057739102,-0.047958157186300185,-0.7557554913815766,7.0263699351842,1.421898664418417,0.16043679400000022,-0.05629017100000011,-0.27537073200000073
101492.0,-2.30848541,-1.034013176,6.250562576999999,-1.142180114419381,-0.0029251718263424964,-0.8356933164521689,6.742983068740226,1.4152622688279757,0.09218250999999977,-0.03226387850000001,-0.2765475300000002
101502.0,-2.134907705,-1.12384209,6.0613922984999995,-1.0816922385330137,0.04743630373995389,-0.9148335260545998,6.523904394489471,1.4174726389629406,0.17357770500000003,-0.08982891399999993,-0.1891702784999998
101512.0,-1.9529943474999998,-1.1980784304999998,5.8758504805,-1.0188080255836578,0.11778179924158534,-0.9939719903277787,6.306758098753144,1.4282236039158651,0.18191335750000004,-0.07423634049999994,-0.18554181799999991
101522.0,-1.857183377,-1.1872911154999999,5.775332317999999,-0.9649820714521529,0.2051809068644534,-1.067781964394619,6.1816869600527005,1.4537702453456112,0.09581097049999987,0.010787314999999964,-0.10051816250000023
101532.0,-1.7829470365,-1.2459348824999998,5.7107064945,-0.9156869920588251,0.2840540810913291,-1.1469221739970499,6.110926487261886,1.494857806487459,0.07423634049999994,-0.05864376699999996,-0.06462582349999924
101542.0,-1.6465365349999999,-1.4015664179999998,5.695113921,-0.8538674299531859,0.34107747841248787,-1.2375187248095714,6.091780819951023,1.5417120446015162,0.13641050150000011,-0.15563153549999997,-0.015592573500000206
101552.0,-1.5040459105,-1.485315209,5.602931410999999,-0.7696640201907194,0.36532533771044506,-1.3459682485407432,5.988418469625259,1.5929456464139717,0.14249062449999994,-0.0837487910000001,-0.09218251000000066
101562.0,-1.3209557549999997,-1.4961025239999999,5.4688745055,-0.6716061868259221,0.38770918536727234,-1.457349925415265,5.821669453506842,1.6508307265461497,0.18309015550000018,-0.010787314999999964,-0.1340569054999996
101572.0,-1.057549136,-1.4314767004999998,5.357569028,-0.5812766713889554,0.43087466842759614,-1.5650018336782756,5.6454478661053615,1.724171188719374,0.26340661899999973,0.06462582350000012,-0.1113054774999993
101582.0,-0.722357839,-1.3057554474999997,5.26420972,-0.5106623951825169,0.5150780781900626,-1.6524009413011436,5.471627007790567,1.804580388704925,0.33519129700000005,0.12572125300000003,-0.09335930800000014
101592.0,-0.41952848699999995,-1.1680700814999998,5.212724807499999,-0.46722987674663796,0.6443127279832347,-1.712888817187511,5.358441171220024,1.8887643445416653,0.302829352,0.13768536599999992,-0.0514849125000012
101602.0,-0.1621039245,-1.0603930645,5.175557604,-0.4520420215957833,0.7871365113324347,-1.7496594138685273,5.285556512411935,1.9710996781745356,0.25742456249999995,0.10767701699999987,-0.037167203499999246
101612.0,0.2988086255,-1.0496057495,5.262934855499999,-0.4336549779260231,0.9291609338842213,-1.782434951891729,5.374889963273058,2.056324643304624,0.46091255,0.010787314999999964,0.08737725149999953
101622.0,0.5453478064999999,-0.9358486094999999,5.4592639885,-0.3755669297611478,1.0464034263869404,-1.8058834503922727,5.565678767777599,2.1206663306341342,0.24653918099999994,0.11375714000000003,0.19632913300000077
101632.0,0.825523797,-1.2112193414999999,5.824365567999999,-0.2545929233176648,1.0541317443147713,-1.8823585422269085,6.005978363459275,2.1723915329585846,0.2801759905000001,-0.27537073199999995,0.3651015794999992
101642.0,1.244463885,-1.1668932834999999,6.117682469499999,-0.10830466140325612,0.9912457860361634,-1.9654938104871544,6.351091960739846,2.2039655231149693,0.41894008800000004,0.044326058,0.2933169014999999
101652.0,1.6191759815,-0.8436660994999999,6.2889065785,0.0020106192982974674,0.9019809214429134,-2.040637216102518,6.548576127648865,2.2310925290044796,0.3747120964999999,0.32322718399999995,0.17122410900000062
101662.0,2.039390934,-0.45698989,6.3247989175,0.06969274236138558,0.829502633595345,-2.0691489147630975,6.661158794688261,2.23031588097847,0.42021495250000007,0.3866762094999999,0.035892339000000106
101672.0,2.527762104,-0.05119071299999999,6.261349892,0.10992781760761085,0.8279039120005183,-2.0488978594522074,6.752533170119519,2.212575750354679,0.48837116999999974,0.405799177,-0.06344902549999976
101682.0,2.9599411694999995,0.2780185275,6.285278118,0.16321970098800573,0.9179681373911815,-1.9820150971865325,6.952932262660403,2.190362987619036,0.43217906549999974,0.3292092405,0.023928225999999775
101692.0,3.3884917745,0.4778780545,6.5199512525,0.2506205539401258,1.0647904700567006,-1.8754295850964908,7.363423678955543,2.171134619464215,0.4285506050000003,0.19985952699999998,0.23467313450000038
101702.0,3.6758266194999996,0.6706767935,7.0107740849999995,0.358270716873884,1.2001529708536247,-1.7315411509035743,7.9443352125191575,2.137044645600691,0.28733484499999973,0.192798739,0.49082283249999925
101712.0,3.811060323,0.8825004335,7.6571303864999996,0.4608594249768587,1.2563752620481181,-1.5631360767078935,8.59852508029919,2.057732879404473,0.1352337035000004,0.21182363999999998,0.6463563015
101722.0,3.9714971169999997,0.9543831779999999,8.300054360499999,0.5415966108448643,1.220404026164515,-1.371549539387224,9.250650733221082,1.914121473405099,0.16043679399999977,0.07188274449999998,0.6429239739999995
101732.0,4.1306590465,0.9735061454999999,8.771656158999999,0.5972883219467514,1.1042261845055124,-1.163441715367176,9.744332206235642,1.7116265454643094,0.1591619295000002,0.019122967499999977,0.47160179850000006
101742.0,4.170179846,0.9507547174999998,9.1020421975,0.6556434054871819,0.9304926201034929,-0.9457415617781673,10.056913375678628,1.4799026633196182,0.03952079949999998,-0.022751428000000073,0.33038603850000037
101752.0,4.147428418,0.8155210139999999,9.3103354435,0.7398450699203963,0.7309124748086893,-0.7240463495313436,10.224900149986889,1.2672201425112148,-0.022751428000000296,-0.13523370349999997,0.2082932460000002
101762.0,4.042104997,0.664694737,9.4133052685,0.8602867509420209,0.5132123212196806,-0.5106100353049571,10.265999609299511,1.1243677283932516,-0.10532342099999958,-0.15082627699999984,0.10296982500000063
101772.0,3.973850713,0.5125935954999999,9.5043109805,1.012969899235737,0.287785595032093,-0.3224862312202443,10.314367110851306,1.1013291673211383,-0.068254284,-0.1521011415000001,0.0910057119999994
101782.0,3.9391351719999994,0.34862640749999996,9.5880597715,1.172313223955063,0.09619905771142345,-0.16687267511242984,10.371558053501433,1.1880315835295199,-0.03471554100000063,-0.16396718799999999,0.08374879099999966
