timestamp,ax,ay,az,gx,gy,gz,acc_mag,gyro_mag,dax,day,daz
53722.0,0.8981910735,0.481310382,8.921011438499999,0.13026090339334478,0.025335199421949686,0.07578219612159379,8.97902288526897,0.15281595640381265,0.0,0.0,0.0
53732.0,1.2788852265,0.6010495785,9.0694841195,0.13239195041002985,0.044786893935426494,0.09230173749172012,9.17890789866843,0.1674906121122774,0.38069415299999987,0.11973919649999998,0.14847268100000122
53742.0,1.2753548325,0.6261546025,9.158038169,0.16569981385508964,0.08422260838423837,0.10775662801812991,9.267592062659745,0.21485196521440933,-0.0035303939999999923,0.02510502400000003,0.08855404949999901
53752.0,1.306441913,0.7003909429999999,9.231097711499999,0.19074877927971226,0.09754645189396309,0.12081343615229949,9.34935842207047,0.24595994273199728,0.031087080500000086,0.07423634049999994,0.07305954249999935
53762.0,1.330370139,0.7518758555,9.295723534999999,0.21499663857766949,0.10207558130288835,0.12827471870457524,9.420492452519646,0.27036527579694386,0.023928225999999997,0.05148491250000009,0.06462582350000012
53772.0,1.445304077,0.7530526535,9.365154617,0.2453723488793788,0.11326663246667601,0.14186385226060308,9.505898861983153,0.30522495344113476,0.11493393800000007,0.0011767979999999234,0.06943108200000125
53782.0,1.562591611,0.8500404219999999,9.496857926499999,0.2672221257850958,0.1412460057053971,0.15731874278701288,9.662016960134533,0.34074519140982895,0.11728753399999992,0.0969877684999999,0.13170330949999887
53792.0,1.6476152665,0.9948846425,9.703876307999998,0.2693549181310329,0.1761525907452837,0.1786361942708716,9.892908921002451,0.3680933265507967,0.0850236554999999,0.14484422050000012,0.2070183814999993
53802.0,1.7050822355,1.0978544675,9.912169554,0.2600278786083752,0.2049295794521662,0.21380981468631335,10.117494508467594,0.3941132667701117,0.057466969000000034,0.10296982499999996,0.20829324600000199
53812.0,1.7374441804999998,1.164833887,10.091729315499999,0.2429742664871386,0.21825342296189093,0.25724233312219225,10.306238442903354,0.4157459185123698,0.03236194499999989,0.06697941949999997,0.17955976149999842
53822.0,1.7733365194999997,1.154046572,10.235396737999999,0.22325728192735866,0.214523654350379,0.30413933012327987,10.451788951466554,0.43401030441369753,0.035892338999999884,-0.010787314999999964,0.14366742250000009
53832.0,1.8248214319999998,1.19837263,10.344348619499998,0.2128638462317324,0.2009327754650992,0.35077103707806434,10.572209730267895,0.45686466020200706,0.05148491250000009,0.044326058,0.10895188149999946
53842.0,1.8882704574999998,1.2390702274999998,10.472423468499999,0.20993343841763393,0.18361387329755946,0.40832675982108135,10.713193438603342,0.49448644654749213,0.06344902549999998,0.040697597499999905,0.12807484900000077
53852.0,1.9049417625,1.2546628009999998,10.582552148,0.2173947209699097,0.16709258659818113,0.482936094685335,10.825589675757584,0.5553446396172186,0.016671305000000247,0.015592573499999984,0.11012867950000071
53862.0,1.9336752469999998,1.2486807444999999,10.663947343,0.22112448958142156,0.16442746883038578,0.560210547317384,10.909540618047231,0.6243142555830794,0.028733484499999795,-0.005982056499999944,0.0813951950000007
53872.0,1.9636835959999999,1.1600286285,10.806437967499999,0.21446256782655923,0.17721724158900024,0.6294913919752988,11.044492800919587,0.6882292904884061,0.030008349000000045,-0.08865211599999978,0.14249062449999883
53882.0,1.9708424505,1.0116540139999999,10.9656979635,0.19767599108087777,0.19507021450765025,0.6798511222123431,11.187233600646909,0.7343879999096188,0.007158854500000089,-0.14837461450000022,0.15925999600000118
53892.0,1.9457374264999998,0.9062325265,11.067392924,0.17529388875330248,0.20599597562513472,0.7150247426277849,11.27361244939592,0.7644754227429005,-0.025105024000000142,-0.10542148749999991,0.10169496049999971
53902.0,1.9612319335,0.8440583654999999,11.2230244595,0.1601042882731958,0.20226620701362286,0.7454021982587462,11.424322441172865,0.7887771794316285,0.015494507000000102,-0.06217416100000006,0.15563153549999953
53912.0,1.9743728445,0.7746272835,11.425335648999999,0.16197004524357778,0.1854778849386894,0.7776436655308375,11.6205202228537,0.8156997069374081,0.013140911000000033,-0.06943108199999992,0.2023111894999996
53922.0,2.046255589,0.633313457,11.651575064499998,0.1715623748125386,0.1630957826111141,0.8080211211617988,11.846832882842955,0.8419810063180879,0.07188274449999987,-0.14131382650000002,0.2262394154999985
53932.0,2.0186989024999997,0.548387868,11.853886254,0.16783260620102672,0.14177833112725538,0.8336006666790277,12.037046723989006,0.8620666739696983,-0.027556686500000094,-0.08492558900000002,0.20231118950000315
53942.0,1.9241627964999999,0.48846923649999996,11.969996989999999,0.14624811934161286,0.12285896203563684,0.8530523611925045,12.133500426630834,0.8741745637454454,-0.09453610599999984,-0.059918631499999986,0.11611073599999777
53952.0,1.781672172,0.45257689749999996,12.082577332,0.11453897749137987,0.12046087964339663,0.8637110869344339,12.221614318918354,0.8795605963108472,-0.14249062449999994,-0.035892338999999995,0.11258034200000111
53962.0,1.5805377805,0.403445581,12.1842722925,0.07270518065032779,0.12525704442787705,0.8682402163433591,12.292980082559295,0.8802365839637473,-0.2011343914999999,-0.049131316499999966,0.10169496049999971
53972.0,1.399801221,0.3627479835,12.371088975,0.03140370923113397,0.12445768363046364,0.8735704518789499,12.455315009473384,0.8829503057160843,-0.18073655950000012,-0.040697597500000016,0.18681668249999994
53982.0,1.286044081,0.25987622499999996,12.475235597999998,0.005822418384653084,0.11539942481261307,0.8749021380982215,12.544040348157438,0.8824991099438952,-0.11375713999999992,-0.10287175850000002,0.10414662299999833
53992.0,1.2225950555,0.1856398845,12.517109993499998,-0.0005724679946541401,0.09408197332875434,0.871704694908568,12.578046089350593,0.8767672556332592,-0.06344902549999998,-0.07423634049999997,0.041874395500000716
54002.0,1.169933345,0.0850236555,12.543391815499998,0.003958406743523139,0.0719651610474822,0.855984514335855,12.598120942858495,0.859013470308427,-0.052661710500000014,-0.10061622899999999,0.02628182199999962
54012.0,1.01793027,0.04314926,12.536232961,-0.013095205377713455,0.039189623024280675,0.8405296238094452,12.577566566935102,0.8415446271338896,-0.1520030750000001,-0.0418743955,-0.007158854499998313
54022.0,0.706667199,0.050308114499999994,12.508676274499999,-0.05359731599949386,-0.022362903705803346,0.8261393841267519,12.528722663414904,0.8281781533884081,-0.31126307099999995,0.007158854499999992,-0.027556686500000538
54032.0,0.406191443,0.12454445499999998,12.40933491,-0.09783094056203814,-0.09617287777264354,0.8141489721655509,12.416605643982672,0.8256262254970756,-0.300475756,0.0742363405,-0.09934136449999897
54042.0,0.11414940599999998,0.099439431,12.1375926385,-0.1316711294289562,-0.16012348689496778,0.8146812975874091,12.138536705282773,0.8406440590518705,-0.292042037,-0.02510502399999999,-0.27174227150000085
54052.0,-0.03187161249999999,0.0599186315,11.8490809955,-0.16444666745215772,-0.19103326794778733,0.814416007541106,11.84927535674665,0.8525314359237004,-0.1460210185,-0.039520799499999995,-0.28851164299999965
54062.0,-0.1660265845,0.039618866,11.543898047499999,-0.21773855083255259,-0.19742815432709457,0.8200115331229998,11.545159878164448,0.8710952112682033,-0.13415497199999998,-0.020299765499999997,-0.30518294800000056
54072.0,-0.3323473685,0.020397831999999998,11.2481294835,-0.2744949127781562,-0.206221123098642,0.8253400233293385,11.253056816815649,0.8939019872796043,-0.16632078400000003,-0.019221034000000005,-0.2957685639999994
54082.0,-0.417371024,-0.0669794195,11.108090521500001,-0.32245830595221237,-0.21581345266760282,0.8085534465836571,11.11613061492845,0.8968352587918212,-0.08502365549999996,-0.0873772515,-0.14003896199999843
54092.0,-0.553879592,-0.167497582,11.006395560999998,-0.36829065210958345,-0.22300944517357546,0.7771113401089792,11.021596131577784,0.8884105199703016,-0.13650856800000005,-0.10051816250000001,-0.10169496050000326
54102.0,-0.6927417559999999,-0.281254722,10.925000365999999,-0.41092380974804893,-0.23952898654370178,0.7192885819904071,10.950553792217697,0.8623274186724403,-0.13886216399999984,-0.11375714,-0.08139519499999892
54112.0,-0.808852492,-0.4164884255,10.8650817345,-0.4359710298434195,-0.2675083597824229,0.64387988632874,10.903105340211825,0.8223215730083488,-0.1161107360000001,-0.13523370349999997,-0.059918631499998654
54122.0,-0.9201579695,-0.373437232,10.693955691999998,-0.43224126123190765,-0.30081622322748264,0.5666054336966911,10.739964357368107,0.7735403192871153,-0.11130547749999997,0.04305119349999997,-0.17112604250000274
54132.0,-0.9907658494999999,-0.27164420499999997,10.5526418655,-0.4119902059210175,-0.32639576874471155,0.5021207538232567,10.602530730167626,0.7269080953252132,-0.07060787999999996,0.10179302700000004,-0.14131382649999757
54142.0,-1.0434275599999998,-0.16632078399999997,10.4604593555,-0.4015985155546432,-0.33945257687888114,0.4536250352273422,10.513686965295543,0.6944674882457876,-0.0526617104999999,0.105323421,-0.09218251000000066
54152.0,-1.10815145,-0.10404855649999999,10.352782338499999,-0.4082604373095056,-0.3381208906596095,0.4144546108248335,10.412441014795922,0.6728855369277605,-0.06472389000000023,0.062272227499999985,-0.10767701700000032
54162.0,-1.1296280134999999,-0.1375872995,10.25579457,-0.4245146886333288,-0.3306596081073337,0.37501889637602154,10.318735967932756,0.6558869338066102,-0.021476563499999823,-0.033538743000000024,-0.09698776849999824
54172.0,-1.1105050459999999,-0.16396718799999999,10.210291714,-0.45062655957241593,-0.3128066351886837,0.3238580600123118,10.271814035549376,0.6370214519504633,0.019122967499999977,-0.026379888499999976,-0.04550285600000059
54182.0,-1.0566665375,-0.21417723599999997,10.227061085499999,-0.49699123115164534,-0.29948279167895897,0.25750936849774736,10.283734463046061,0.6348238347900617,0.05383850849999994,-0.05021004799999998,0.016769371499998798
54192.0,-0.9656608255,-0.179461695,10.177929768999999,-0.5494854990638788,-0.3050783172608528,0.1876961984179742,10.225212061985511,0.6559245049887624,0.09100571199999996,0.03471554099999996,-0.049131316500000466
54202.0,-0.8267986614999999,-0.13160524299999998,10.0666242915,-0.6065071510557856,-0.3186691961461327,0.12187983232526803,10.10137815314629,0.6958848140187163,0.13886216400000007,0.04785645200000002,-0.11130547749999842
54212.0,-0.693918554,0.0012748644999999999,9.910992755999999,-0.6661956661447396,-0.3327906551240188,0.07844556856013714,9.9352555072504,0.7488123883554746,0.1328801074999999,0.13288010749999998,-0.1556315355000013
54222.0,-0.587418335,0.15808319799999998,9.7445739055,-0.7130926631458272,-0.33359001592143217,0.06698748202079435,9.763542963368144,0.7901080734319551,0.10650021900000006,0.15680833349999998,-0.1664188504999995
54232.0,-0.568197301,0.1856398845,9.511175635499999,-0.7328113930348592,-0.31627111375389244,0.08297644329831441,9.529940834491558,0.8024494035758621,0.01922103399999997,0.02755668650000001,-0.23339827000000035
54242.0,-0.5586848504999999,0.07070594649999999,9.4178163275,-0.7248177850607251,-0.27816708552435226,0.10402685940661803,9.434637908874631,0.7833002850040668,0.009512450500000047,-0.114933938,-0.09335930799999836
54252.0,-0.6100716964999999,-0.1267999845,9.493229465999999,-0.6997688196361025,-0.23633154335404818,0.10669197717441337,9.513657099405581,0.7462654871507834,-0.051386845999999986,-0.19750593099999997,0.07541313849999831
54262.0,-0.669990328,-0.313616667,9.519511288,-0.6755209603381453,-0.2123507194316461,0.08457516489314122,9.548211225972809,0.7131439927644415,-0.0599186315000001,-0.18681668250000003,0.026281822000001398
54272.0,-0.708236263,-0.5230867109999999,9.5339270635,-0.6688607839125349,-0.1976951897026497,0.034480724702399976,9.574496517498492,0.6983173037120447,-0.03824593499999995,-0.2094700439999999,0.014415775499999839
54282.0,-0.715493184,-0.7649187,9.555501693499998,-0.6795177643252124,-0.17158157343431055,-0.050787335903782996,9.61273341607066,0.7026834151052181,-0.007256920999999972,-0.24183198900000002,0.02157462999999815
54292.0,-0.727457297,-0.9061344599999999,9.5458911765,-0.7096281845806185,-0.13480923142404203,-0.16856389915761233,9.616356489447476,0.7417273605089292,-0.011964112999999998,-0.1412157599999999,-0.009610516999998708
54302.0,-0.6975470144999999,-0.8845598299999999,9.565014144,-0.7501302952023989,-0.09937032096229716,-0.2940687803392726,9.631122131154164,0.8118167084008653,0.02991028250000005,0.021574629999999928,0.019122967499999532
54312.0,-0.6663618674999999,-0.8571012100000001,9.5937476285,-0.7791760646140886,-0.08684583824998585,-0.39718981386410557,9.654980796562514,0.8788727368204363,0.03118514699999997,0.027458619999999878,0.028733484500000017
54322.0,-0.5981075835,-0.744520868,9.505193579,-0.7890354295586044,-0.0756547870861982,-0.4728655449013277,9.55304919795719,0.9229855792278766,0.06825428399999989,0.11258034200000011,-0.08855404949999901
54332.0,-0.6077181005,-0.569766365,9.4297804405,-0.7996924099712819,-0.04954117081785904,-0.5101702123334545,9.466504854295328,0.9498610023177303,-0.00961051699999993,0.17475450299999995,-0.07541313850000009
54342.0,-0.671167126,-0.42374534649999995,9.3591725605,-0.8111504965106245,-0.007440338601251827,-0.5152316671642381,9.39277043512294,0.9609808309621863,-0.06344902549999998,0.14602101850000004,-0.07060788000000073
54352.0,-0.7250056344999999,-0.4249221445,9.4440981495,-0.8244743400203494,0.05437922350438732,-0.4965793334481746,9.481412439944407,0.9640052239011799,-0.05383850849999994,-0.0011767980000000344,0.08492558900000091
54362.0,-0.8914244849999999,-0.5278919695,9.712310027,-0.8204775360332823,0.09168389093651412,-0.47126507797724887,9.767408745644099,0.9506209006293767,-0.16641885050000005,-0.10296982499999996,0.26821187749999886
54372.0,-0.948891454,-0.677443382,9.8954001825,-0.7927651981701164,0.07969347897531308,-0.4667359485683236,9.963848117023405,0.9234014055148851,-0.057466969000000034,-0.14955141250000004,0.1830901555000004
54382.0,-0.982430197,-0.8079698935,10.041519267499998,-0.7637211740876788,0.026933921016776493,-0.4877863646766272,10.121763366150859,0.9066041062203722,-0.03353874300000004,-0.13052651150000005,0.1461190849999987
54392.0,-0.9332988805,-0.848667491,10.0175910415,-0.7485315736075722,-0.031955233274764176,-0.5344180716314118,10.096703104744828,0.920284373934117,0.04913131650000002,-0.040697597500000016,-0.023928225999998887
54402.0,-0.8470984269999999,-0.8295445235,9.8451901345,-0.7575915777546746,-0.06286501432758376,-0.5890416412310783,9.916324351590706,0.9617000903688356,0.08620045350000005,0.019122967500000088,-0.1724009070000001
54412.0,-0.7693316925,-0.7612902395,9.594924426499999,-0.794096884389388,-0.051939253210099255,-0.6356733481858627,9.655775931124811,1.0185127163736252,0.07776673449999993,0.068254284,-0.2502657080000006
54422.0,-0.7106879255,-0.7852184655,9.366331415,-0.8489892346938618,-0.008506734774220362,-0.6716463293987179,9.426017692622349,1.082572804460448,0.05864376699999996,-0.023928225999999997,-0.22859301149999922
54432.0,-0.7226520385,-0.8079698935,9.225115655,-0.8940204747245674,0.04611858015469816,-0.7057535536411911,9.288584400525016,1.1399507055743225,-0.011964112999999998,-0.022751428000000073,-0.1412157599999997
54442.0,-0.7597211755,-0.7996342409999999,9.073014513499999,-0.9156049615839812,0.10020982433250643,-0.7355969385210421,9.139813102359609,1.1787609217018884,-0.03706913699999992,0.008335652500000124,-0.1521011415000011
54452.0,-0.8316039199999999,-0.8511191535,8.9006136065,-0.9243979303555288,0.1513706606962162,-0.755315668410074,8.979804645170566,1.203298121626952,-0.07188274449999998,-0.05148491250000009,-0.17240090699999833
54462.0,-0.8758319115,-0.9528141139999999,8.712718192499999,-0.9124075183943277,0.19134044589613833,-0.7760990491428225,8.808313946207855,1.21302447623229,-0.04422799150000001,-0.10169496049999993,-0.18789541400000154
54472.0,-0.9070170585,-1.0031222285,8.640835447999999,-0.8751011056329489,0.2377051174753677,-0.8094069125878822,8.74602603409881,1.215502043642476,-0.03118514700000008,-0.05030811450000017,-0.07188274449999987
54482.0,-0.912999115,-1.0282272525,8.6576048195,-0.8372641127789637,0.2803382751138332,-0.8501760585852178,8.766124564333095,1.2257243057200262,-0.005982056499999944,-0.02510502399999992,0.016769371500000574
54492.0,-0.9213347675,-1.0509786804999999,8.706736136,-0.8143479397002783,0.29978996962731,-0.8904111338314432,8.818200954990651,1.2433296345033475,-0.008335652500000013,-0.02275142799999985,0.049131316500000466
54502.0,-0.9477146559999999,-1.0749069064999999,8.709089731999999,-0.8010258415198056,0.2955278755939399,-0.931979640626192,8.82620144155267,1.2639482483777988,-0.02637988849999995,-0.023928225999999997,0.0023535959999989586
54512.0,-0.8914244849999999,-1.126391819,8.680356247499999,-0.8004917707686953,0.2750097849074945,-0.9900676887910673,8.798407851758176,1.3025557513025512,0.056290171,-0.05148491250000009,-0.028733484500000017
54522.0,-0.796888379,-1.082065761,8.5067785425,-0.8076877632746678,0.24809680784174196,-1.0513549254748482,8.612269072134948,1.3487989947820698,0.09453610599999995,0.044326058,-0.17357770499999958
54532.0,-0.671167126,-0.9755655419999999,8.326041983,-0.8140826496539751,0.22464830934119812,-1.092923432269597,8.40982571403471,1.3811875514069232,0.12572125300000003,0.10650021900000006,-0.18073655949999967
54542.0,-0.544269075,-0.8654368624999998,8.120102333,-0.7980936883764551,0.20519661482772134,-1.1081112874204517,8.184208678141538,1.380930777219373,0.12689805099999996,0.11012867950000005,-0.20593964999999947
54552.0,-0.44129925,-0.7816880715,7.933383717,-0.7549282053161313,0.19533724988320536,-1.096386165505554,7.984006417227925,1.3454128958374603,0.10296982500000001,0.08374879099999988,-0.18671861600000028
54562.0,-0.40658370899999996,-0.7541313849999999,7.7561775514999995,-0.7122933023484138,0.19826940302655582,-1.0721383062075966,7.803352783814066,1.302364408445121,0.034715541000000016,0.027556686500000094,-0.17720616550000035
54572.0,-0.3431346835,-0.8056162975,7.535920192499999,-0.6693931093343932,0.22118383077598938,-1.0393645135136471,7.58662323946217,1.255901275488073,0.06344902549999998,-0.05148491250000009,-0.22025735900000054
54582.0,-0.3407810875,-0.931239484,7.401863286999999,-0.6262258809448175,0.25902256895922643,-1.0223109013924105,7.467992959664377,1.2265280772575542,0.002353595999999958,-0.12562318650000004,-0.1340569054999996
54592.0,-0.303613884,-1.0665712539999999,7.307327181,-0.5835927233063519,0.29978996962731,-1.0345683487291668,7.390993584126433,1.2250657781431422,0.03716720350000002,-0.13533176999999985,-0.09453610599999962
54602.0,-0.241439723,-1.1718946749999999,7.239072896999999,-0.5444222989038432,0.3357629508401651,-1.0753357493972504,7.337288782460155,1.2511911814876202,0.062174161000000006,-0.10532342100000003,-0.06825428400000089
54612.0,-0.103754357,-1.2125922724999998,7.188764782499999,-0.5009880351387123,0.36374232407888624,-1.1347572291106494,7.291055073446877,1.2926606123408169,0.13768536599999998,-0.040697597499999905,-0.050308114499999945
54622.0,0.0195152335,-1.0629427935,7.1385547344999996,-0.45089359494797104,0.39251931278576874,-1.191780626431808,7.217284248527593,1.3333107313800148,0.1232695905,0.1496494789999998,-0.050210047999999396
54632.0,0.16318265599999998,-0.907311258,7.1073695875,-0.40053211938167466,0.43009101559345064,-1.2346808194458287,7.166906218964545,1.367421290699397,0.14366742249999997,0.15563153549999997,-0.031185146999999525
54642.0,0.31881419149999995,-0.7636438354999999,7.0571595395,-0.3589636125869258,0.4809848165816053,-1.2538654785837502,7.105511604533118,1.3901006824426616,0.15563153549999997,0.14366742250000009,-0.050210048000000285
54652.0,0.47679932299999994,-0.7229462379999999,6.9948873119999995,-0.3357821494619371,0.5441360649065161,-1.2490693137992699,7.04829322354215,1.4032134049046872,0.1579851315,0.040697597500000016,-0.06227222750000028
54662.0,0.553487326,-0.7050000685,6.920650971499999,-0.33711383568120873,0.6190124351463249,-1.229085293863935,6.978451345818176,1.4168531302383023,0.076688003,0.017946169499999942,-0.07423634050000061
54672.0,0.6013437779999999,-0.6847003029999998,6.821309606999999,-0.35789896174320923,0.7029488095332362,-1.1987078382329734,6.881910606715121,1.434966611835352,0.047856451999999994,0.020299765500000122,-0.09934136449999986
54682.0,0.6157595535,-0.6895055615,6.826114865499999,-0.3744185031133355,0.7908819879072144,-1.168597417977567,6.888426663909984,1.4598984415271956,0.014415775500000061,-0.004805258500000131,0.004805258500000242
54692.0,0.5629997765,-0.660772077,6.9302614885,-0.3512370399883469,0.8526998046836016,-1.1411521154899564,6.98441928760496,1.4672056999120577,-0.05275977700000001,0.028733484500000017,0.10414662300000099
54702.0,0.5498588655,-0.642727841,7.028426055,-0.2736955519807428,0.8697534168048382,-1.1161048953945858,7.079139542357413,1.4412044958094923,-0.013140911000000033,0.018044235999999936,0.0981645664999995
54712.0,0.6013437779999999,-0.6594972125,7.162482960499999,-0.1596505026676773,0.85136811846433,-1.10864361284231,7.217874553640249,1.4069138624790025,0.05148491249999998,-0.01676937150000002,0.1340569054999996
54722.0,0.691172692,-0.7313799569999999,7.2534886725,-0.040807543240879415,0.8145957764540614,-1.1142391384242039,7.322959391786469,1.380854949731674,0.08982891400000004,-0.07188274449999987,0.0910057120000003
54732.0,0.7905140565,-0.6822486405,7.246231751499999,0.05485220773167779,0.7842200661523521,-1.126231295714657,7.321082589169099,1.3734652555839022,0.09934136449999997,0.04913131649999991,-0.007256921000000638
54742.0,0.916137243,-0.615269221,7.1480671849999995,0.11507304824249014,0.770363897220769,-1.1328914721402672,7.232753842320047,1.3748255992019975,0.12562318650000004,0.06697941949999997,-0.0981645664999995
54752.0,1.0107714154999998,-0.5302455655,7.0523542809999995,0.14944556253126645,0.778090469819348,-1.1235661779468618,7.144124867250244,1.374830793810678,0.09463417249999984,0.08502365550000002,-0.09571290399999999
54762.0,1.0813792955000001,-0.46444294399999997,6.998417706,0.1771579003944324,0.8113983332644078,-1.0993183186489044,7.096685058294596,1.3777710051432628,0.07060788000000029,0.06580262150000005,-0.05393657499999982
54772.0,1.1137412405,-0.395011862,6.993710514,0.19394622246936588,0.8590946910629088,-1.0780008671650456,7.092844329008309,1.3920289849824254,0.03236194499999989,0.06943108199999998,-0.004707191999999694
54782.0,1.2202414595,-0.27164420499999997,6.9912588515,0.2003411088486731,0.9171844845570362,-1.0572174864322972,7.102146163116461,1.4138856927719075,0.10650021899999995,0.12336765700000002,-0.0024516625000003955
54792.0,1.320759622,-0.09453610599999998,7.0247975945,0.19447854789122415,0.9869976546368093,-1.0167153758105167,7.148505039386642,1.4302784453587916,0.10051816250000001,0.177108099,0.03353874300000026
54802.0,1.3974476249999999,0.044326057999999995,7.103839193499999,0.2011404696460865,1.0378914556249639,-0.9530300567344956,7.240121266328533,1.4233560521626731,0.0766880029999999,0.13886216399999998,0.07904159899999907
54812.0,1.4620734485,0.102969825,7.203180557999999,0.23924449787562674,1.0549450677462004,-0.8760226394780019,7.350787148654108,1.3919636096550088,0.06462582350000012,0.058643767000000006,0.09934136449999986
54822.0,1.4704091009999998,0.0934573745,7.411473803999999,0.31145575034764006,1.0394901772197906,-0.7979488260485395,7.556505882518075,1.3469472305748602,0.00833565249999979,-0.009512450500000005,0.2082932460000002
54832.0,1.5004174499999998,-0.02745862,7.6257491065,0.4095135837124375,0.9880640508097778,-0.7371956601158689,7.772004627852608,1.2990109256820368,0.030008349000000045,-0.1209159945,0.21427530250000082
54842.0,1.5315045305,-0.1364105015,7.784911036,0.5097042094231721,0.9115889589751424,-0.701756749654124,7.935297964808637,1.2582747501695348,0.031087080500000086,-0.1089518815,0.15916192949999974
54852.0,1.5446454415,-0.1591619295,7.87473995,0.6096277997583514,0.827652584588231,-0.685767788376604,8.026380961546424,1.2356910271539265,0.013140911000000033,-0.02275142799999999,0.08982891400000081
54862.0,1.6619329755,-0.0669794195,7.9177911435,0.68636818163929,0.768231104874832,-0.6796399373728519,8.090607149638268,1.2341761445337551,0.11728753400000014,0.09218251,0.04305119349999931
54872.0,1.8223697694999998,0.11022674599999999,7.9370121775,0.7292683746533106,0.7455819671717017,-0.6668501646142375,8.14428289158134,1.2379070942874273,0.16043679399999977,0.17720616549999998,0.01922103400000008
54882.0,2.0294862174999997,0.30410421649999997,7.8938629175,0.7447232651797204,0.7578394145084578,-0.6231488654735514,8.15624701941997,1.231766141937438,0.20711644799999984,0.19387747049999998,-0.043149259999999856
54892.0,2.2162048335,0.41550776049999993,7.862775837,0.7324658178429643,0.8023383291173052,-0.5410782480570221,8.179697697713257,1.2136797926963965,0.18671861600000028,0.11140354399999997,-0.031087080499999864
54902.0,2.301228489,0.42619700899999996,7.9717277184999995,0.7148798802998695,0.8596287618140191,-0.4249021517272715,8.308173040263846,1.1960588154175047,0.08502365550000013,0.010689248500000026,0.10895188149999946
54912.0,2.301228489,0.36637644399999997,8.1572695365,0.7258038960881019,0.8995985470139413,-0.2991319804993081,8.483568267445852,1.1939634764613618,0.0,-0.05982056499999999,0.18554181799999991
54922.0,2.2605308914999998,0.34725347649999994,8.47686826,0.7769647324518117,0.9022619194524846,-0.18588454665440407,8.779970409162125,1.2051156921444972,-0.04069759750000035,-0.019122967500000032,0.3195987235000004
54932.0,2.138438099,0.33999655549999996,8.800095444,0.8515758126453172,0.8705527776022516,-0.09608735663929581,9.062571102315069,1.2215876077381658,-0.12209279249999971,-0.007256920999999972,0.3232271840000003
54942.0,2.0079115874999998,0.37000490449999995,9.111358515,0.8990051350682632,0.8191266511922387,-0.021478021775042218,9.337315811379296,1.2164045416685547,-0.13052651150000028,0.03000834899999999,0.31126307099999906
54952.0,1.9037649644999999,0.472876663,9.338774728499999,0.886747687731507,0.760237496900698,0.0494015444776995,9.54257024119487,1.1690692990527958,-0.10414662299999988,0.10287175850000002,0.22741621349999974
54962.0,1.9229859984999997,0.4872924384999999,9.457337126999999,0.8339881297729704,0.7178696293085356,0.12347855392009482,9.663154485196793,1.1073030111780555,0.01922103399999986,0.01441577549999995,0.11856239849999994
54972.0,1.951719483,0.320873588,9.584235177999998,0.7806962463925756,0.6954875269809604,0.2119440577159314,9.786201139717619,1.0668222967854784,0.02873348450000024,-0.16641885049999994,0.1268980509999995
54982.0,1.9241627964999999,0.2442836515,9.726627736,0.7505858261371694,0.6739047854507985,0.31000189108072884,9.91813309471845,1.0552857028905167,-0.027556686500000094,-0.07658993649999998,0.14239255800000095
54992.0,1.873854682,0.170047311,9.9960164115,0.7404594258170982,0.6397975612083253,0.40805972444552624,10.171557970940784,1.060251771667497,-0.050308114499999945,-0.0742363405,0.2693886755000001
55002.0,1.7649028004999998,0.12336765699999998,10.2760943355,0.7473883829475159,0.5750458459593357,0.4981239498361897,10.427282304901004,1.0664870319513489,-0.10895188150000013,-0.04667965400000003,0.2800779240000004
55012.0,1.6236870405,0.0599186315,10.533518897999999,0.7687058344313745,0.4649976006333372,0.5652737474774194,10.658094117730974,1.0614451648911316,-0.1412157599999999,-0.06344902549999998,0.2574245624999989
55022.0,1.4823732139999999,-0.025105024,10.6077552385,0.805476431112391,0.32776934286603115,0.5985816109224792,10.710860460660427,1.0557106460270895,-0.14131382650000002,-0.0850236555,0.07423634050000061
55032.0,1.4094117379999997,-0.029812216,10.602949979999998,0.8638315146528214,0.2041302186547528,0.6033777757069596,10.69625534913116,1.073284105953546,-0.07296147600000014,-0.004707191999999999,-0.0048052585000011305
55042.0,1.351944769,0.033538742999999996,10.6544348925,0.9096638608101926,0.1380485625157435,0.598047540171369,10.739919105106424,1.0973634792455023,-0.05746696899999981,0.063350959,0.0514849125000012
55052.0,1.339980656,-0.014317708999999998,10.788491797999999,0.9048676960257122,0.1375144917646332,0.5908532929946484,10.871398641884054,1.0894050654365373,-0.011964112999999887,-0.047856451999999994,0.1340569054999996
55062.0,1.3351753974999998,-0.016671304999999997,10.927353961999998,0.8486436595019669,0.14950664905508626,0.5945848069354123,11.008634605859926,1.0469381030237617,-0.004805258500000242,-0.0023535959999999995,0.13886216399999896
55072.0,1.3291933409999999,0.10659828549999999,11.166734288499999,0.7849600857551977,0.14577513511432239,0.6148358622463024,11.246069215605596,1.0076883763101372,-0.005982056499999944,0.12326959049999998,0.23938032650000096
55082.0,1.2800620245,0.287334845,11.388266512,0.7625762380983704,0.10527302449254197,0.6516064589273189,11.463582958571847,1.008561304985408,-0.0491313164999998,0.1807365595,0.22153222350000057
55092.0,1.2884957435,0.44061278449999997,11.530659069999999,0.7868240973963276,0.014409438304465184,0.6969047343335798,11.610790649023679,1.05117838680804,0.008433718999999895,0.15327793949999996,0.14239255799999917
55102.0,1.306441913,0.46816947099999995,11.60126695,0.82919196498849,-0.0873799090010961,0.7430041158665059,11.683979115471827,1.1168033307136405,0.017946169500000053,0.027556686499999983,0.07060788000000073
55112.0,1.282513687,0.308909475,11.694724324500001,0.8808851267740581,-0.15612668290790074,0.7683183713374317,11.768893042556684,1.1792570828374007,-0.023928225999999997,-0.15925999599999996,0.09345737450000158
55122.0,1.2788852265,0.07070594649999999,11.8216223755,0.9237870651173307,-0.19503007193485436,0.770716453729672,11.890807472259935,1.2187793576717023,-0.003628460500000097,-0.23820352849999998,0.1268980509999995
55132.0,1.306441913,-0.1028717585,11.918512077499999,0.9179245041598818,-0.1976951897026497,0.760857088785156,11.990342080702007,1.2085413906537725,0.027556686500000094,-0.17357770499999997,0.09688970199999858
55142.0,1.3579268255,0.271840338,12.180741898499999,0.8068098626609147,-0.1841043108173699,0.7891017520701803,12.259214315389459,1.1434675889017105,0.05148491250000009,0.37471209650000004,0.26222982100000003
55152.0,1.363908882,0.37235850049999997,12.17593664,0.7047534799797982,-0.17238093423172393,0.8439923570454019,12.257745769617983,1.1129760791595167,0.005982056499999944,0.10051816249999995,-0.004805258499999354
55162.0,1.3255648805,0.356765927,12.2154574395,0.6749100950999473,-0.17264796960727907,0.9276616960567581,12.292347401343612,1.1601151581667386,-0.03834400150000006,-0.015592573499999984,0.03952079949999998
55172.0,1.3052651149999999,0.33999655549999996,12.3076399495,0.6591881691979824,-0.19130030332334247,1.011065745021811,12.381329323005515,1.222038783843909,-0.020299765500000122,-0.01676937150000002,0.09218251000000066
55182.0,1.2274003139999998,0.1424906245,12.420122224999998,0.6352073452755803,-0.1984945505000631,1.0672880362163044,12.481436263219734,1.257772718069814,-0.07786480100000004,-0.19750593099999997,0.1124822754999979
55192.0,1.0023376965,-0.035892338999999995,12.472783935499999,0.6112265213531781,-0.17957518140844458,1.104060378226573,12.51304552135453,1.2746742426805315,-0.2250626174999999,-0.1783829635,0.05266171050000068
55202.0,0.730595425,-0.0789435325,12.550648736499998,0.5739218539210513,-0.13880603541110903,1.1312386453386287,12.572143232693602,1.2760698580337608,-0.27174227149999997,-0.0430511935,0.0778648009999987
55212.0,0.5199485829999999,-0.1028717585,12.6200798185,0.5315539863288891,-0.07885223027585181,1.1578863323580781,12.63120515837549,1.2765061978945698,-0.21064684200000006,-0.023928225999999997,0.06943108200000303
55222.0,0.2733113355,-0.038245934999999995,12.661954214,0.46946738884769473,-0.01703266817021266,1.1858639602675471,12.664961364137246,1.2755246266685327,-0.24663724749999993,0.0646258235,0.04187439549999894
55232.0,0.071000146,0.041972461999999995,12.8307266605,0.39485805398344115,0.010679669692953302,1.2146426943036819,12.830991752189844,1.2772563614895986,-0.2023111895,0.080218397,0.16877244650000023
55242.0,-0.0989490985,0.08865211599999999,13.017445276499998,0.34049977443007773,-0.02049714673542141,1.2396899143990523,13.018123199925455,1.2857648748017487,-0.16994924449999999,0.046679653999999994,0.1867186159999985
55252.0,-0.30841914249999997,0.068254284,13.2353490395,0.3183829621488056,-0.10496584654419097,1.2556771303473202,13.239117992228122,1.2996578762138393,-0.20947004399999997,-0.02039783199999999,0.21790376300000247
55262.0,-0.6221338759999999,0.010885381500000001,13.3059569195,0.32637657012293964,-0.220077292030225,1.2540784087524934,13.320497685701804,1.3144079790125123,-0.31371473349999995,-0.0573689025,0.07060787999999896
55272.0,-0.9680144215,0.009610516999999999,13.139636135499998,0.3322391310803886,-0.3402519376762946,1.2460848007783594,13.17524884226504,1.333747184456023,-0.34588054550000014,-0.001274864500000002,-0.1663207840000016
55282.0,-1.261331323,0.050308114499999994,12.855831684499998,0.31278743656691177,-0.4239212766876507,1.2458177654028044,12.91765829835112,1.35262971056229,-0.2933169015,0.040697597499999995,-0.28380445099999996
55292.0,-1.481588682,0.076688003,12.512304734999999,0.2610942747813437,-0.4534993715211986,1.245285439980946,12.599950629027798,1.3507656078395898,-0.22025735899999987,0.02637988850000001,-0.3435269494999993
55302.0,-1.5881869675,0.040795663999999995,12.232226810999999,0.19261279092084221,-0.43777744561923365,1.2324956672223317,12.334965540514705,1.322041734908939,-0.10659828550000006,-0.03589233900000001,-0.2800779240000004
55312.0,-1.5797532485,0.0718827445,12.041879734499998,0.09668600457272987,-0.39381085643224456,1.2125099019577446,12.145272948569946,1.27852080017093,0.008433718999999895,0.031087080500000003,-0.19034707650000016
55322.0,-1.606133137,0.065900688,11.871832423499999,0.01514945790731078,-0.34424874166336156,1.1842652386727204,11.980167429803066,1.2333778244075286,-0.02637988849999995,-0.005982056499999999,-0.17004731099999937
55332.0,-1.7150850184999997,0.1891702785,11.850355859999999,-0.03734306467567068,-0.311474948969412,1.1445624888483532,11.975317783824662,1.1867748055943914,-0.10895188149999968,0.12326959050000001,-0.021476563500000267
55342.0,-1.8299208899999997,0.167693715,11.701883179,-0.04373969638422989,-0.32639576874471155,1.1024616566317462,11.845286048917183,1.1505950909148928,-0.11483587149999996,-0.021476563500000018,-0.14847268099999944
55352.0,-1.8766986105,0.3005738225,11.5952848935,-0.03547905303454073,-0.36290107537942495,1.0656893146214776,11.750020172699884,1.126343495126671,-0.0467777205000004,0.13288010749999998,-0.10659828549999872
55362.0,-2.0538067095,0.356765927,11.298437598,-0.0037699111843077517,-0.3716940441509724,1.032648486551973,11.4891294745318,1.0975124470664206,-0.1771080989999998,0.056192104500000006,-0.296847295500001
55372.0,-2.265728416,0.492097697,11.068569721999998,0.027139869868511822,-0.32852856109064865,1.011065745021811,11.308798392810692,1.0634479435991597,-0.21192170650000008,0.13533177000000002,-0.22986787600000191
55382.0,-2.4596058864999994,0.5160259229999999,10.869886993,0.024209462054413346,-0.2349998571347765,1.0022710309210117,11.156629737994535,1.0297369811412025,-0.19387747049999948,0.02392822599999994,-0.19868272899999795
55392.0,-2.6655455365,0.458558954,10.744165739999998,-0.008833111344343302,-0.11322648989388014,0.9812206148127081,11.079373031450757,0.9877713079469049,-0.20593965000000036,-0.05746696899999992,-0.1257212530000018
55402.0,-2.889431356,0.38677427600000003,10.707096603,-0.07598116365632114,-0.0021118483949131386,0.9399191433935142,11.096861068229407,0.9429875891292575,-0.22388581949999997,-0.07178467799999999,-0.03706913699999781
55412.0,-3.0917425455,0.22751427999999996,10.669929399499999,-0.14046409820050365,0.04984834876621005,0.8671755654996426,11.111166820166689,0.8798911763153574,-0.20231118950000004,-0.15925999600000007,-0.03716720350000102
55422.0,-3.238940362,-0.020299765499999997,10.660416948999998,-0.17563771861594538,0.029332003409016705,0.766717904413353,11.141617309690657,0.7871247166571533,-0.1471978165000003,-0.24781404549999997,-0.009512450500000824
