timestamp,ax,ay,az,gx,gy,gz,acc_mag,gyro_mag,dax,day,daz
49092.0,0.353431666,-0.208685512,9.638564018999999,0.1293044629632519,0.055410713092315975,-0.11074812235604818,9.647299100463904,0.17903948691002258,0.0,0.0,0.0
49102.0,0.46110868299999996,0.0546230405,9.99297635,0.1317025453554921,0.014376277048677293,-0.10248747900635902,10.003758355025914,0.16749901834928665,0.10767701699999999,0.26330855249999996,0.3544123310000007
49112.0,1.338607725,0.33950622299999994,10.13419211,0.1423612710974215,0.04075518336331959,-0.08516683150956729,10.227853383739506,0.1708247806052458,0.877499042,0.28488318249999994,0.14121576000000147
49122.0,1.720478676,0.2748803995,10.542442949499998,0.15781616162383125,0.14147813449591234,-0.07477514114319306,10.68544381165622,0.22475169664122033,0.381870951,-0.06462582349999996,0.4082508394999973
49132.0,1.549254567,0.20191892349999999,11.033265782,0.19112402506889103,0.18091559427397622,-0.046263442482613694,11.143334993676259,0.26720619626120606,-0.17122410899999996,-0.072961476,0.4908228325000028
49142.0,1.364889547,0.20907777799999996,11.5862627755,0.25027846940673487,0.12415923232837262,-0.022814943982069874,11.668252743907301,0.28031294813093044,-0.18436502,0.007158854499999978,0.552996993499999
49152.0,1.197391965,0.15161080899999999,11.999318873499998,0.3264865258658152,-0.020530307991209296,-0.042800709246656944,12.059866781319993,0.3299194535491359,-0.16749758199999998,-0.05746696899999998,0.41305609799999843
49162.0,1.1650300199999999,0.14445195449999998,12.387171880999999,0.42561075540358123,-0.21931109248859948,-0.0952932318296384,12.442676099782439,0.48818302964798693,-0.032361945000000114,-0.007158854500000006,0.3878530075000004
49172.0,1.245248417,0.37549662849999993,12.6122344985,0.5292658596795244,-0.4074348965733123,-0.12993278149396986,12.679120647079962,0.6804469655122076,0.08021839700000011,0.23104467399999995,0.22506261750000078
49182.0,1.5145390259999998,0.7477570625,12.6265522075,0.5974803081644708,-0.5377341972102009,-0.1333972600591786,12.739026247500975,0.814822443532888,0.2692906089999998,0.37226043400000003,0.014317709000000178
49192.0,1.962310665,1.1153103045,12.5690852385,0.6110694417204986,-0.575571190064186,-0.09156171788887453,12.770140326322778,0.8444356728722839,0.44777163900000017,0.36755324199999995,-0.057466969000000034
49202.0,2.274750534,1.4779602215,12.610959633999999,0.5412562716407255,-0.5004295297780741,0.014489723450056925,12.899424766191979,0.7372909995042544,0.31243986899999987,0.36264991700000015,0.04187439549999894
49212.0,2.219637161,1.3738135984999997,12.7091242005,0.37604864063469823,-0.3741270331282525,0.08643394054651518,12.974436052239435,0.5374518053918429,-0.055113372999999743,-0.10414662300000033,0.09816456650000127
49222.0,2.1035264249999996,1.354690631,13.0551028125,0.17886657773213488,-0.2195781278641546,0.20954073933593523,13.292694217928052,0.35229977051849354,-0.11611073600000044,-0.019122967499999755,0.3459786119999997
49232.0,1.6534011899999999,1.3857777114999998,13.305270453999999,-0.028707175536802732,-0.11219325497669949,0.3158592160504218,13.47903324481652,0.33642008375475224,-0.4501252349999998,0.031087080499999864,0.25016764149999915
49242.0,1.0764759705,1.273295436,13.5519077015,-0.1923143396187512,-0.0951396428554629,0.39100087633653363,13.654094042900736,0.44600228941295655,-0.5769252194999999,-0.1124822754999999,0.2466372475000007
49252.0,0.554467991,1.1774844654999999,13.5530844995,-0.30289665569585994,-0.14949792240882628,0.4634791641841022,13.615432562725452,0.5735058399607502,-0.5220079795,-0.09581097050000009,0.0011767980000012557
49262.0,0.32822857549999995,1.0158708735,13.3532249725,-0.38336855151756244,-0.23769813615835972,0.5221012831000877,13.39583311315866,0.6899721733813545,-0.22623941550000004,-0.16161359199999992,-0.19985952700000098
49272.0,0.1522972745,0.705882667,12.9952822475,-0.4326636309108903,-0.2973849059180618,0.5697976408985888,13.015330402705105,0.7747934894889649,-0.17593130099999996,-0.3099882064999999,-0.35794272499999913
49282.0,0.0169655045,0.42815833899999994,12.640967983,-0.4651721335585367,-0.32642893000049944,0.6041719005166172,12.648228292485443,0.8294363420748654,-0.13533177,-0.2777243280000001,-0.35431426450000103
49292.0,-0.143373223,0.2833141185,12.328528114,-0.4760978946760212,-0.31790299660450716,0.6055035867358888,12.332616438878784,0.8332863338103481,-0.1603387275,-0.14484422049999995,-0.3124398690000003
49302.0,-0.3062616795,0.26409308449999996,12.091501383499999,-0.45025131378323713,-0.2885919371465144,0.5772589234508645,12.098262151267564,0.7869176681541468,-0.1628884565,-0.019221034000000026,-0.23702673050000023
49312.0,-0.44747743949999996,0.3909911355,11.956169613499998,-0.4473191606398867,-0.24808982652473396,0.546614432444348,11.970927363979857,0.7486189493040515,-0.14121575999999997,0.126898051,-0.13533177000000052
49322.0,-0.569570232,0.5047482755,11.739540715,-0.47796365164640314,-0.2062542843544299,0.5170380829400522,11.764182813521026,0.7337018885896686,-0.12209279250000005,0.11375714000000003,-0.216628898499998
49332.0,-0.5276958365,0.443652846,11.518008491499998,-0.5091387227455259,-0.15429408719330673,0.5015831924136425,11.538622550109238,0.7311734426616042,0.04187439550000005,-0.06109542950000002,-0.22153222350000235
49342.0,-0.580357547,0.4796432515,11.429454442,-0.5728240418215469,-0.08448091711353352,0.5218342477245326,11.454226354181364,0.7794712248334417,-0.052661710500000014,0.03599040549999999,-0.08855404949999723
49352.0,-0.7012735415,0.46287387999999996,11.272646108499998,-0.6447682589180053,-0.02452711197827631,0.5610046721270413,11.303919103402782,0.8550169174224097,-0.12091599450000001,-0.01676937150000002,-0.15680833350000256
49362.0,-0.7803151405,0.32038325549999996,11.145748057499999,-0.7191105584067037,0.023701571242082997,0.5945778256184042,11.177622149194493,0.9333833887575106,-0.07904159899999996,-0.1424906245,-0.1268980509999995
49372.0,-0.9238844964999999,0.13003617899999997,10.965011497999999,-0.7779997126982443,0.045019022725941736,0.5916474178043057,11.004633075300339,0.9784461826591446,-0.14356935599999998,-0.1903470765,-0.18073655949999967
49382.0,-1.0376416364999999,-0.10100849499999999,10.7291615655,-0.8126392623625758,0.015974998643504098,0.5519446679799388,10.77969437324004,0.9824869911741,-0.11375713999999992,-0.23104467399999995,-0.23584993249999897
49392.0,-1.0843212905,-0.262622087,10.492134835,-0.823032698058202,-0.04051607325579637,0.473071493753063,10.551285060002515,0.9501689389086485,-0.04667965400000007,-0.16161359200000003,-0.23702673050000023
49402.0,-1.0939318075,-0.35352973249999997,10.271877475999998,-0.7889237284864768,-0.10126923918846698,0.39979384510808114,10.336011656010157,0.890219763182732,-0.00961051700000004,-0.09090764549999997,-0.22025735900000143
49412.0,-0.9586000375,-0.4445354445,10.0144529135,-0.7023239816610223,-0.13697518502576697,0.33717492220502854,10.070044337043429,0.7910171329958676,0.13533176999999996,-0.09100571200000002,-0.2574245624999989
49422.0,-0.7048039355,-0.36549384549999997,9.8828476705,-0.5954731795246773,-0.13217902024128655,0.2830836780272203,9.914686702912098,0.6724551804325652,0.253796102,0.07904159900000002,-0.1316052429999992
49432.0,-0.696468283,-0.011179581,9.8755907495,-0.5051419187584588,-0.08048411312646651,0.28041856025942496,9.900125539803335,0.5833357690821813,0.008335652500000013,0.3543142645,-0.00725692099999975
49442.0,-0.6665580005,0.1013026945,9.9677732595,-0.4571785255844027,-0.010405653000390192,0.3489000441199265,9.99054881158922,0.5751971163494994,0.02991028249999994,0.11248227549999999,0.09218250999999889
49452.0,-0.698821879,0.12170052649999999,10.178518167999998,-0.45424811777030416,0.07752752537358812,0.44615851668731044,10.203205140201069,0.6414119516356376,-0.03226387850000001,0.02039783199999999,0.21074490849999883
49462.0,-0.8436660994999999,-0.042364728,10.4741886655,-0.4766302200978795,0.15160453481598343,0.546614432444348,10.508196584481693,0.7409100076553026,-0.1448442204999999,-0.16406525449999998,0.2956704975000015
49472.0,-0.9765462069999999,-0.38353808149999996,10.666889337999999,-0.4904863890294624,0.18597704910475976,0.6052365513603337,10.718361446765305,0.8009217463144732,-0.1328801075,-0.34117335349999994,0.19270067249999911
49482.0,-1.079516032,-0.6300772625,10.816538817,-0.4971483107843248,0.17798344113062572,0.6129648692881645,10.888519835116814,0.8090491203961988,-0.10296982499999996,-0.246539181,0.1496494790000007
49492.0,-1.28663248,-0.5355411565,10.8703773255,-0.5022115109443603,0.14467557768556596,0.5799222958894079,10.95934900747489,0.7806774582203021,-0.20711644800000006,0.09453610599999995,0.05383850850000016
49502.0,-1.423141048,-0.39550219449999996,10.814185221,-0.5158006445003882,0.09617985908965151,0.5351580912342573,10.914593644403427,0.7494631763969559,-0.136508568,0.14003896200000004,-0.05619210449999912
49512.0,-1.4746259605,-0.40383784699999997,10.723179509,-0.5339206527945933,0.06473775261497368,0.500783831616229,10.831628940851306,0.7348786880176031,-0.05148491250000009,-0.008335652500000013,-0.09100571200000118
49522.0,-1.3585152244999998,-0.497197155,10.492134835,-0.5698918886781965,0.044486697304083465,0.4696070151878543,10.591395659777746,0.7397881992380473,0.11611073600000021,-0.09335930800000003,-0.23104467399999962
49532.0,-1.3057554474999997,-0.4983739529999999,10.301787758499998,-0.6354429647245995,0.05700943468714278,0.4410953165272749,10.396162989626758,0.7756306565135451,0.05275977700000012,-0.0011767979999999234,-0.19034707650000193
49542.0,-1.2997733909999998,-0.5774155519999999,10.1293868515,-0.7212433507526407,0.10097602387413193,0.4133847239933609,10.228748583037135,0.8374216730138964,0.005982056499999944,-0.07904159900000002,-0.17240090699999833
49552.0,-1.229165511,-0.6612624095,10.032399083,-0.8043786190128867,0.1761194294894958,0.38433895458167133,10.129024987047314,0.9087130725249396,0.07060787999999985,-0.0838468575000001,-0.09698776850000002
49562.0,-1.2160246,-0.7821784039999999,9.97140172,-0.860602655536632,0.2725785412594664,0.3622238876296512,10.075682167729791,0.9726983790679306,0.013140911000000033,-0.1209159944999999,-0.06099736300000025
49572.0,-1.2507401409999999,-0.795319315,9.893536919,-0.8803213854256638,0.35171700553264534,0.3555619658747888,10.003947045078597,1.0124697058161076,-0.03471554099999996,-0.013140911000000033,-0.0778648009999987
49582.0,-1.3034018514999999,-0.7857087979999999,9.868431894999999,-0.864599459523699,0.40580999503970555,0.36515429544374967,9.985096031986949,1.0225221938734725,-0.052661710500000014,0.00961051700000004,-0.02510502400000192
49592.0,-1.4446176114999998,-0.8479810255,9.846857264999999,-0.8323579922516078,0.43005785433766275,0.3832743037379548,9.98832267502143,1.012259244091382,-0.1412157599999999,-0.062272227500000055,-0.021574629999999928
49602.0,-1.611036462,-0.9988073024999999,9.959437606999998,-0.7926552424272407,0.40820807743194576,0.3984621588888094,10.138217395437259,0.9765798789112972,-0.16641885050000016,-0.15082627699999995,0.11258034199999933
49612.0,-1.7583323449999997,-1.3100703734999999,10.064761027999998,-0.7462905708480114,0.3272021108591329,0.4061887314873883,10.300846157949511,0.9104944387939207,-0.14729588299999974,-0.31126307099999995,0.10532342099999958
49622.0,-1.8576737094999998,-1.6248638385,9.970224922,-0.6588914632251432,0.20143193963116957,0.4043247198462584,10.271149843123814,0.7988687412167914,-0.09934136450000008,-0.31479346500000016,-0.09453610599999784
49632.0,-1.9091586219999999,-1.8882704574999998,9.8852012665,-0.53738338603055,0.04928286208856388,0.4051240806436718,10.243420134107426,0.6747853175600962,-0.05148491250000009,-0.26340661899999973,-0.08502365550000057
49642.0,-1.9414225004999999,-1.9947706765,9.7355517875,-0.48542318886942687,-0.09860412142067165,0.36888406405526153,10.125670347407445,0.6176033498672365,-0.03226387850000001,-0.10650021900000017,-0.14964947899999892
49652.0,-1.8804251374999998,-2.0894048489999997,9.393201636,-0.45691323553809954,-0.1785436918205159,0.29907089397548836,9.804787009176675,0.5745354247756111,0.06099736300000003,-0.09463417249999972,-0.3423501514999998
49662.0,-1.7595091429999998,-2.0259558235,9.0041718305,-0.45158300000250884,-0.16255473054299588,0.22685964150347496,9.395503167805536,0.5308639592741788,0.12091599450000001,0.06344902549999976,-0.3890298054999999
49672.0,-1.575144123,-1.8379623429999998,8.648582701499999,-0.49901406775470675,-0.07488858754457269,0.15864519301852859,8.980933544303314,0.5289533416374325,0.18436501999999977,0.1879934805000001,-0.35558912900000195
49682.0,-1.4326534985,-1.742249439,8.492951166,-0.600801669731016,0.05914222703307985,0.09256353687951926,8.787385769529005,0.6107605567893651,0.14249062450000016,0.09571290399999977,-0.15563153549999953
49692.0,-1.3369405945,-1.8104056565,8.4043971165,-0.7071201464455026,0.2435345171770288,0.04113566514025435,8.700509737144298,0.7490127539049577,0.09571290399999999,-0.0681562174999999,-0.08855404949999901
49702.0,-1.469820702,-1.8319802864999999,8.518154256499999,-0.7742699440867324,0.4095397636512174,0.023282692221604357,8.836032854379924,0.8762184933477796,-0.13288010750000012,-0.021574629999999928,0.11375713999999881
49712.0,-1.7307756585,-1.9289680550000001,8.734783155,-0.8051779798103,0.4942754988355421,0.011559315635958444,9.111143665980597,0.9448563201347027,-0.2609549565,-0.09698776850000024,0.21662889850000155
49722.0,-1.886407194,-2.240231126,8.909537658,-0.8113075761433041,0.4625663569853092,-0.01269028899125077,9.378540871521237,0.9339960712748556,-0.15563153549999997,-0.3112630709999997,0.17475450299999906
49732.0,-1.9821200979999998,-2.4700009355,9.0388873715,-0.7926552424272407,0.34212467596368445,-0.05132664264264924,9.577640086103079,0.8648618684481413,-0.09571290399999977,-0.22976980950000003,0.1293497134999999
49742.0,-1.9809433,-2.5455121405,8.9347407485,-0.7500203394595232,0.20729450058861854,-0.08543386688512242,9.499124204796678,0.7828157287562686,0.0011767979999997014,-0.07551120500000019,-0.1041466230000001
49752.0,-1.866009362,-2.5550245909999996,8.5922925305,-0.7164471859681603,0.11136771424050616,-0.10301980442821729,9.156289233601813,0.7323335429715607,0.11493393800000007,-0.009512450499999492,-0.34244821799999947
49762.0,-1.7020421739999998,-2.4952040259999997,8.227190950999999,-0.7012575854880536,0.10124305924968706,-0.11048108698049305,8.76411214200603,0.7170902515242846,0.1639671880000002,0.05982056499999988,-0.365101579500001
49772.0,-1.5643568079999999,-2.4796114525,7.889646057999999,-0.699925899268782,0.16972279778093657,-0.10168811820894562,8.416780863169722,0.7273531232755369,0.13768536599999992,0.015592573499999762,-0.33754489299999957
49782.0,-1.5547462909999998,-2.452054766,7.7471554335,-0.7009922954417505,0.28030511385804535,-0.0790389805058152,8.273344300562508,0.7590838659615055,0.00961051700000004,0.027556686500000094,-0.14249062449999972
49792.0,-1.7188115455,-2.5119733975,7.8250202345,-0.6764774007682383,0.374900213986886,-0.046263442482613694,8.396145850866708,0.774798135199038,-0.1640652545000001,-0.059918631499999986,0.07786480100000048
49802.0,-1.9174942744999999,-2.5909169299999997,8.0140924465,-0.610661034675532,0.40714168125897726,-0.011356857442727101,8.638015545942785,0.7340301261531113,-0.19868272899999995,-0.07894353249999986,0.18907221199999924
49812.0,-2.013305245,-2.659171214,8.2223856925,-0.515533609124833,0.38022870419322463,0.006761405522226033,8.873117604942438,0.6406203916785438,-0.09581097050000031,-0.06825428400000044,0.2082932460000002
49822.0,-2.0036947279999997,-2.7945029839999997,8.328983977999998,-0.4196068227767207,0.29762576135483704,-0.0001658062789394613,9.010883064183032,0.5144424234397303,0.009610517000000485,-0.13533176999999963,0.10659828549999872
49832.0,-1.8457095964999999,-2.7800872085,8.2894631785,-0.3519264450428847,0.21289002617051234,-0.02574709712542035,8.935923488324239,0.41211321135555673,0.15798513149999982,0.014415775499999839,-0.039520799499998205
49842.0,-1.6948833195,-2.6041559075,8.132654845,-0.32101666399006507,0.15453494263008194,-0.059852576038641546,8.70599404348455,0.3612687059675311,0.15082627699999995,0.17593130099999987,-0.15680833350000078
49852.0,-1.5882850339999999,-2.4113571685,7.926715195,-0.30955857745072224,0.13908005210367214,-0.08090473747619716,8.436237699706464,0.34887727113208067,0.10659828550000006,0.1927987390000001,-0.20593964999999947
49862.0,-1.4291231045,-2.325156715,7.737642983,-0.33194067977829755,0.16626006454497982,-0.08783194927736264,8.2048684041546,0.3814989846225548,0.15916192949999997,0.08620045350000005,-0.18907221200000013
49872.0,-1.3369405945,-2.3383956925,7.7004757795,-0.37164517493191657,0.23873660706329636,-0.08516683150956729,8.157991897433503,0.44985407944315525,0.09218251,-0.013238977499999915,-0.037167203500000134
49882.0,-1.4590333869999998,-2.4460727095,7.7914814915,-0.4030872814065944,0.3192085028849989,-0.06624920774720076,8.29573589001774,0.5184229762201644,-0.12209279249999994,-0.10767701700000032,0.0910057120000003
49892.0,-1.575144123,-2.566988704,7.832179089,-0.3892311124750114,0.35438212330044067,-0.05159367801820438,8.391277572387526,0.5289134672561381,-0.11611073600000021,-0.12091599449999979,0.04069759750000035
49902.0,-1.645752003,-2.667604933,7.8250202345,-0.3497936526969475,0.3511846801107871,-0.05745449364640134,8.429445853926513,0.49898627020365294,-0.07060787999999985,-0.10061622899999989,-0.007158854500000089
49912.0,-1.5942670904999998,-2.6496587634999997,7.7363681185,-0.32074962861450995,0.31787681666572726,-0.07637386273801985,8.331492710420319,0.45799449968248346,0.05148491250000009,0.017946169500000053,-0.08865211600000045
49922.0,-1.4673690395,-2.4892219695,7.622709045,-0.29889985170879285,0.2909638395999747,-0.08916363549663431,8.151999208553041,0.42655741841078654,0.12689805099999973,0.16043679399999977,-0.11365907350000004
49932.0,-1.5452338405,-2.3874289424999997,7.6082932695,-0.28344496118238316,0.2880334317858762,-0.09209578863998479,8.122419039426127,0.41447067222090933,-0.07786480099999982,0.10179302700000026,-0.014415775499999839
49942.0,-1.688901263,-2.5035396785,7.708909498499999,-0.26692541981225676,0.2685817372723994,-0.0960925926270518,8.279334759148853,0.3906649660463531,-0.14366742250000009,-0.11611073600000044,0.100616228999999
49952.0,-1.7547038845,-2.8171563455,7.7783405805,-0.23548156800832695,0.24166876020664685,-0.12300556969280436,8.456827879502065,0.3591458320890407,-0.06580262150000005,-0.3136166669999998,0.06943108200000125
49962.0,-1.8264885624999998,-3.0901734815,7.8848407995,-0.19364777116727486,0.2008996142093113,-0.18482513179844354,8.663483540018353,0.3346945527071144,-0.07178467799999977,-0.273017136,0.10650021899999995
49972.0,-1.9126890159999999,-3.215796668,7.939954172499999,-0.15394502134290783,0.14600900923408963,-0.27329063559428013,8.777391397405443,0.34598478561537127,-0.08620045350000005,-0.12562318649999993,0.0551133729999993
49982.0,-1.8887607899999999,-3.1403835294999998,7.8728766865,-0.13742373464352953,0.07885921159285979,-0.37880975151135327,8.683986029182194,0.41061038215870266,0.023928225999999997,0.07541313850000009,-0.06707748599999963
49992.0,-1.7990299424999998,-2.8950211464999995,7.6549729235,-0.14541734261766354,0.026099653634323206,-0.4835295066310131,8.37951470147358,0.5055968544568346,0.08973084750000004,0.24536238300000024,-0.2179037629999998
50002.0,-1.6565393179999999,-2.5933685925,7.316251232499999,-0.17979160223569185,0.015707963267948967,-0.566664774891259,7.937078509483391,0.5947106249656766,0.14249062449999994,0.30165255399999946,-0.3387216910000008
50012.0,-1.4542281285,-2.3479081429999997,7.000182903,-0.21496522265113358,0.07219903516724943,-0.622356485993146,7.5252915407404535,0.6623823241046443,0.20231118949999982,0.24546044950000034,-0.3160683294999993
50022.0,-1.284278884,-2.2570004975,6.9486979904999995,-0.2522698900832604,0.19610344942483088,-0.6455379491181348,7.418074363389886,0.7202887643650879,0.16994924450000015,0.09090764549999975,-0.05148491250000031
50032.0,-1.136983001,-2.424596146,7.022934330999999,-0.26585902363928826,0.3335987425676922,-0.6386107373169692,7.516182770083457,0.7679796971988934,0.14729588299999996,-0.16759564849999986,0.07423634049999972
50042.0,-1.1058959204999999,-2.5550245909999996,7.301835457,-0.2389460465735357,0.43965018390662364,-0.6191590428034924,7.814598997305982,0.7960812883541398,0.031087080500000086,-0.13042844499999973,0.27890112600000094
50052.0,-1.2016088244999998,-2.5526709949999997,7.5831882455,-0.2093679517399878,0.44444634869110405,-0.59464414812998,8.091028175857499,0.7713424395078244,-0.09571290399999999,0.002353595999999847,0.28135278849999956
50062.0,-1.262704254,-2.5035396785,7.7675532655,-0.17206328430786097,0.35784660186564937,-0.5701292534564676,8.258148502374688,0.6947714227862495,-0.06109542950000013,0.04913131649999958,0.18436502000000043
50072.0,-1.2447580844999997,-2.4759829919999996,7.762748006999999,-0.14328629560097847,0.22701323047765046,-0.5557407591030264,8.242582792170415,0.617182113032578,0.017946169500000275,0.027556686500000538,-0.0048052585000011305
50082.0,-1.239952826,-2.371836369,7.468254307499999,-0.1217018087415646,0.08685456489624581,-0.566664774891259,7.933341866673135,0.5860580285234951,0.004805258499999798,0.10414662299999966,-0.29449369950000026
50092.0,-1.122665292,-2.3228031189999996,7.0648087265,-0.11290883997001716,-0.01253670001707527,-0.5861164694047357,7.521124518948488,0.5970243635716767,0.11728753399999992,0.04903325000000036,-0.40344558099999883
50102.0,-0.9155488439999999,-2.4209676855,6.6566559535,-0.12703204427715528,-0.02452711197827631,-0.5959758343492517,7.142155326177942,0.6098572903749817,0.20711644800000006,-0.09816456650000038,-0.4081527730000003
50112.0,-0.7000967435,-2.5646351079999996,6.340587623999999,-0.12969716204495063,0.05914222703307985,-0.5999726383363188,6.875357452894172,0.616673595683478,0.21545210049999997,-0.14366742249999964,-0.3160683295000002
50122.0,-0.547995602,-2.707027666,6.220848427499999,-0.11983779710043466,0.20596281436934685,-0.6069015954667362,6.806412647072609,0.6520056173813972,0.15210114149999998,-0.1423925580000005,-0.11973919650000031
50132.0,-0.452282698,-2.692709957,6.296261566,-0.10624691821515482,0.3565131703171257,-0.6095649679052796,6.8628096475806375,0.7141144854553437,0.09571290399999999,0.014317709000000178,0.07541313850000098
50142.0,-0.5109264649999999,-2.5502193324999998,6.4160007624999995,-0.0929248200346821,0.46416507858013595,-0.600504963758177,6.92313009273224,0.7646505436145268,-0.05864376699999996,0.14249062450000016,0.11973919649999942
50152.0,-0.4594415525,-2.4113571685,6.550057667999999,-0.10011906721140272,0.5201220797283261,-0.5866505401558461,6.994925688552062,0.7903857676510544,0.051484912499999924,0.13886216399999984,0.1340569054999996
50162.0,-0.398346123,-2.277300263,6.6386117175,-0.12383460108750168,0.5342435387062123,-0.5685305318616408,7.029647335200913,0.789922865053745,0.06109542950000002,0.13405690550000005,0.08855404950000079
50172.0,-0.30018155649999995,-2.1899230115,6.6123298955,-0.14861478580731718,0.5094633539863969,-0.5413505194203332,6.971999599116672,0.7580894726167142,0.09816456650000005,0.08737725149999997,-0.02628182199999962
50182.0,-0.138666031,-2.33594403,6.5799679504999995,-0.15181222899697078,0.46070060001492724,-0.4859275890232532,6.983683913884784,0.6865985854202544,0.16151552549999995,-0.14602101849999993,-0.03236194500000078
50192.0,0.007453054,-2.672312125,6.669796864499999,-0.10571459279329655,0.43245593672990296,-0.42224226994723213,7.185227752488432,0.6135814916313738,0.14611908499999998,-0.3363680950000001,0.08982891399999993
50202.0,-0.034519408,-3.1129249095,6.84700303,-0.012719959588534674,0.41380360301383956,-0.37827568076024304,7.521498758528344,0.5607920380085604,-0.041972462,-0.44061278449999985,0.17720616550000035
50212.0,-0.1481784815,-3.3463231794999997,6.964290564,0.09892875266154258,0.3799616688176695,-0.38333888092027857,7.727947899918714,0.5487316880763207,-0.11365907349999999,-0.2333982699999999,0.11728753399999992
50222.0,-0.30861527549999995,-3.3606408885,6.989395588,0.1900593742251745,0.3221406560283494,-0.4331680310647167,7.7614947822751175,0.5723038625885061,-0.16043679399999997,-0.014317709000000178,0.025105024000000142
50232.0,-0.37569276149999997,-3.1476404504999995,6.8996647405,0.22762933170360444,0.26271917631495045,-0.50537928353673,7.593033582697119,0.6133878858304378,-0.06707748600000002,0.21300043800000035,-0.08973084750000027
50242.0,-0.16975311149999997,-2.9285598895,6.675778921,0.2047131586249189,0.25285981137043445,-0.5781228614306018,7.291865560151264,0.6633789297446744,0.20593965,0.21908056099999973,-0.22388581949999953
50252.0,0.18818961349999996,-2.887862292,6.474644529499999,0.15195360066638233,0.31787681666572726,-0.6218224152420357,7.091980381499164,0.7147018143438937,0.3579427249999999,0.040697597499999905,-0.201134391500001
50262.0,0.483860111,-2.8603056055,6.448362707499999,0.11384957243684211,0.4521729212896829,-0.6335475371569336,7.07084509598028,0.7866413145324327,0.2956704975,0.027556686500000094,-0.02628182199999962
50272.0,0.5832014755,-2.738212813,6.6374349195,0.12477533355432661,0.6056554303808123,-0.6167592150820002,7.203712631754596,0.873372379688026,0.09934136450000003,0.12209279249999971,0.18907221200000102
50282.0,0.4311984005,-2.6687817309999997,7.037252039999999,0.1836627425166153,0.7252977506050236,-0.5650660532964321,7.53865002920266,0.9375971814214449,-0.152003075,0.06943108200000037,0.39981712049999896
50292.0,0.134351105,-2.4915755655,7.522092816,0.276392085675074,0.7788566693609735,-0.5056445735830332,7.925142229041077,0.9688584681086572,-0.2968472955,0.1772061654999999,0.4848407760000004
50302.0,-0.19485813549999997,-2.367129177,7.929166857499999,0.3677897426142611,0.7753921907957647,-0.4504869332322564,8.277255419983828,0.9692475542049738,-0.3292092405,0.1244463885,0.4070740414999996
50312.0,-0.5420135454999999,-2.1875694154999996,8.247588783,0.4138873788179353,0.7303609507650591,-0.4043892970285821,8.549968383836509,0.9318050140981712,-0.34715540999999994,0.1795597615000002,0.31842192550000004
50322.0,-0.836507245,-2.1575610665,8.397238262,0.3901718449418364,0.6453599255344312,-0.37534527294614456,8.710248248782056,0.8423820843264289,-0.29449369950000004,0.0300083489999996,0.1496494790000007
50332.0,-0.8413125035,-2.5155037915,8.4738281985,0.3152954747020276,0.5214537659475978,-0.35242909986745896,8.879264068113418,0.7039400093913518,-0.00480525850000002,-0.357942725,0.07658993649999957
50342.0,-0.696468283,-3.0888986169999995,8.4163612295,0.25640806573973896,0.3858242297751185,-0.3276489151476435,8.992302212490426,0.5674145257705211,0.1448442205,-0.5733948254999994,-0.057466969000000034
50352.0,-0.47258246349999994,-3.584526708,8.320550259,0.24867974781190808,0.23953596786070974,-0.31352571084050535,9.072139908407387,0.46638768018549265,0.22388581950000003,-0.4956280910000004,-0.09581097050000054
50362.0,-0.2835102515,-3.8706847549999996,8.169723982,0.27585976025321574,0.10896963184826597,-0.3303122875861868,9.044720475358039,0.44393602615977007,0.18907221199999996,-0.2861580469999998,-0.1508262769999984
50372.0,-0.18887607899999997,-3.758104413,8.015367310999999,0.3182276278453781,0.03622605395439431,-0.36228846481197496,8.854667474415729,0.48356393770112843,0.0946341725,0.11258034199999978,-0.15435667100000217
50382.0,-0.17455837,-3.431346835,7.950643421,0.34887037352264255,0.030630528372500482,-0.39399760666220796,8.661255251664862,0.5271459767898781,0.014317708999999984,0.32675757800000005,-0.0647238899999989
50392.0,-0.24036099149999998,-2.972787881,8.005756794,0.3491374088981977,0.09884497685744686,-0.4075867402182358,8.543265361460598,0.5457052414480038,-0.06580262149999999,0.4585589539999999,0.05511337300000019
50402.0,-0.39716932499999996,-2.497557622,8.1409904975,0.31849291789168127,0.18784280607514173,-0.39239888506738113,8.52474420896701,0.5391655993694927,-0.15680833349999998,0.47523025899999993,0.13523370350000086
50412.0,-0.4702288675,-2.3395724904999997,8.345753349499999,0.2707965600931802,0.2304777090428592,-0.35722526465193943,8.68022543467767,0.5040442847901286,-0.07305954250000002,0.15798513150000026,0.20476285199999822
50422.0,-0.39962098749999997,-2.672312125,8.5528697975,0.24628166541966787,0.1931730416107324,-0.3129933854186471,8.969533477280754,0.44264584268109053,0.07060788000000001,-0.3327396345000002,0.20711644800000073
50432.0,-0.3301899055,-3.2062842175,8.7084032665,0.2793242388184245,0.07939328234397006,-0.2887455261206899,9.285772520855309,0.4095110529980303,0.06943108199999998,-0.5339720925,0.15553346899999987
50442.0,-0.18887607899999997,-3.6097297984999996,8.7515525265,0.3659239856438792,-0.11432604732263656,-0.3052650674908162,9.468658564732694,0.4900587411689462,0.14131382650000002,-0.4034455809999997,0.043149259999999856
50452.0,0.1067944185,-3.5390238519999997,8.6809446465,0.458918618848641,-0.3003170590614123,-0.3670846295964553,9.375227721418009,0.6599604230370233,0.29567049749999996,0.07070594649999995,-0.07060787999999896
50462.0,0.3760850275,-3.1403835294999998,8.4414662535,0.5258013811143157,-0.37359296237714223,-0.4227745953690904,9.014532775981452,0.7712179668608278,0.269290609,0.3986403224999999,-0.23947839300000062
50472.0,0.3713778355,-2.483239913,8.281127525999999,0.5569781975426904,-0.28512745858130567,-0.4209105837279605,8.65340829177104,0.7541141158134826,-0.004707192000000027,0.6571436165,-0.160338727500001
50482.0,0.182207557,-1.7756901155,8.308586146,0.5409892362651704,-0.08261690547240358,-0.35669293923008116,8.498169139621513,0.6532417314602633,-0.18917027849999998,0.7075497974999998,0.027458620000000877
50492.0,-0.0679600845,-1.4512861335,8.6138671605,0.48210182730288165,0.1380136559307036,-0.2559699880974884,8.735534183615501,0.5630191612358895,-0.2501676415,0.324403982,0.3052810145000002
50502.0,-0.15896579649999998,-1.8691474899999998,9.108318453499999,0.4101558648771714,0.27124510971094273,-0.14858511521003323,9.299486411313197,0.5136918137338969,-0.09100571199999997,-0.4178613564999998,0.4944512929999991
50512.0,-0.1577889985,-2.5418836799999998,9.563150880499999,0.38004544462176526,0.2632515017368087,-0.08916363549663431,9.89646021433451,0.4708354776770936,0.001176797999999979,-0.67273619,0.4548324269999995
50522.0,-0.1577889985,-3.1619581594999997,9.803806071499999,0.4320056417828884,0.1007089884985768,-0.0782396197084018,10.302305094397878,0.45043602541178596,0.0,-0.6200744794999999,0.2406551910000001
50532.0,-0.10395048999999999,-3.3068023799999997,9.706818303,0.5127445729801461,-0.1769449702256891,-0.1248695813339343,10.25514842662946,0.5566048256629422,0.05383850850000001,-0.1448442205,-0.09698776849999824
50542.0,0.0481506515,-3.2505122089999996,9.392024838,0.5996113551811559,-0.464456548565219,-0.22159572847946005,9.938726209314092,0.7901634828613889,0.15210114149999998,0.05629017100000011,-0.31479346500000105
50552.0,0.2576206955,-2.9548417115,8.982597200499999,0.7075285534904694,-0.6288648187738329,-0.30686378908564305,9.459625279534098,0.9951045167959794,0.209470044,0.29567049749999974,-0.40942763750000033
50562.0,0.2827257195,-2.232974205,8.6474059035,0.8207759873353734,-0.5947575945313597,-0.33137868375915536,8.935532244502776,1.0664059497625828,0.025105023999999976,0.7218675064999998,-0.3351912969999997
50572.0,0.158279331,-1.5183636194999999,8.506092077,0.8863253180525243,-0.4151614691718912,-0.2767533688302368,8.641995304907608,1.0171155500063682,-0.12444638849999998,0.7146105855000002,-0.14131382649999935
50582.0,0.1438635555,-1.3112471714999998,8.6354417905,0.889522761242178,-0.17561153867716545,-0.1691032058964786,8.735612215779824,0.9223264332810467,-0.014415775500000005,0.20711644800000006,0.1293497134999999
50592.0,0.22888721099999998,-1.8044235999999998,9.0987079365,0.8602117017841852,0.040489893317016454,-0.05665513284898793,9.278729438739143,0.8630257281364233,0.08502365549999999,-0.4931764285,0.4632661460000005
50602.0,0.26595634799999995,-2.367129177,9.614635793,0.8362308778617832,0.1457419738585345,0.003563962332572421,9.905314470105576,0.8488436286273099,0.037069136999999974,-0.562705577,0.5159278564999994
50612.0,0.23604606549999999,-2.693886755,9.9642428655,0.8231740697276135,0.1007089884985768,-0.01642005760276265,10.324673335097344,0.8294742116111907,-0.02991028249999997,-0.32675757800000005,0.34960707249999956
50622.0,0.23486926749999998,-2.6890814965,10.077901939,0.8306336069506374,-0.049574332073646935,-0.09102939246701626,10.433140963283043,0.8370759545520873,-0.0011767980000000067,0.004805258499999798,0.11365907350000093
50632.0,0.5029830785,-2.611314762,9.9534555505,0.8671389135853507,-0.19453090776878398,-0.19814722997891623,10.302583858395703,0.9105133136202056,0.26811381100000004,0.07776673449999993,-0.12444638850000089
50642.0,0.5401502819999999,-2.0414503305,9.7834082395,0.931091268036927,-0.23130324977905253,-0.2932746555296152,10.008714131183872,1.003215912129078,0.03716720349999991,0.5698644315000001,-0.17004731099999937
50652.0,0.5042579429999999,-1.4034296814999998,9.766638868,1.0038348459307986,-0.1505643185817948,-0.320719958017226,9.879834296278561,1.0645258584954533,-0.035892338999999995,0.6380206490000002,-0.016769371500000574
50662.0,0.530539765,-0.9844895934999999,9.996506744,1.0528646352778233,-0.013336060814488673,-0.29300762015406007,10.058868688117641,1.0929571154464832,0.026281822000000066,0.41894008799999993,0.22986787600000014
50672.0,0.6742071875,-0.9114300509999999,10.468206609000001,1.0491331213370594,0.10097602387413193,-0.2477093447477992,10.529416397799729,1.0826986575955722,0.14366742249999997,0.07305954250000002,0.4716998650000015
50682.0,0.7974767779999999,-1.01793027,10.9817808695,1.0278174151824526,0.12762196556432936,-0.20081234774671156,11.057651753955163,1.0549983905458753,0.12326959049999997,-0.10650021900000006,0.5135742604999987
50692.0,0.9770365394999999,-1.0562742715,11.3336434715,1.0104967676856609,0.0431532657555598,-0.1715012882887188,11.4246133446706,1.0258550646817652,0.17955976149999997,-0.03834400150000006,0.35186260200000063
50702.0,1.179347729,-0.955756109,11.5731218645,1.006232928323039,-0.0967383644502897,-0.16777151967720694,11.672252588783204,1.0247001024752922,0.20231118950000015,0.10051816250000001,0.23947839299999885
50712.0,1.2045508194999999,-0.564274641,11.6186247205,1.0179580502379366,-0.20598899430812675,-0.15071790755597034,11.694519611469618,1.0494693637635855,0.025203090499999803,0.39148146799999994,0.04550285600000059
50722.0,1.05127288,-0.0638412915,11.684427342000001,1.03847439559513,-0.2337013321712927,-0.0782396197084018,11.731798356995448,1.0673175820988912,-0.1532779394999999,0.5004333495000001,0.06580262150000138
50732.0,0.6849945024999999,0.312047603,11.8951722505,1.0501995175100278,-0.17134769931454333,0.0515273555066286,11.91896447029097,1.0653328723944404,-0.36627837750000003,0.3758888945,0.21074490849999883
50742.0,0.2552670995,0.304790682,12.285378854000001,1.038209105548827,-0.08714603488132887,0.2201994650778646,12.291809965917613,1.0648757592604927,-0.42972740299999995,-0.007256921000000027,0.39020660350000114
50752.0,-0.050013915,-0.0196133,12.8097404295,0.9934431555644243,-0.04104839867765464,0.38727110772502177,12.809853080515692,1.0670488204624782,-0.3052810145,-0.324403982,0.5243615754999986
50762.0,-0.44149538299999996,-0.42658927499999993,13.314880971,0.9206978323413006,-0.07035945813564741,0.5093097650122212,13.32902666568918,1.0545289889632792,-0.39148146799999994,-0.40697597499999993,0.5051405414999994
50772.0,-0.6330192574999999,-0.7594269759999999,13.9469195635,0.746431942517423,-0.20572195893257164,0.5495465855876985,13.981917179806972,0.9494649118995845,-0.1915238744999999,-0.33283770099999993,0.6320385925000007
50782.0,-0.6306656615,-0.6300772625,14.022332702,0.4858315959143935,-0.36080318961852775,0.5652667661604115,14.05064236748247,0.8280928680728262,0.002353595999999847,0.1293497134999999,0.07541313850000009
50792.0,-0.5911448619999999,-0.9150585115,13.5411203865,0.3328831575743745,-0.49590040036914884,0.4941219098613666,13.584871204727099,0.7751676370231232,0.03952079950000009,-0.284981249,-0.48121231550000054
50802.0,-0.6509654269999999,-0.7294186269999999,13.027546126,0.3035720981163817,-0.5662458958707803,0.4323023477557275,13.064178718374206,0.7743873405605225,-0.05982056499999999,0.18563988450000002,-0.5135742604999987
50812.0,-0.9323182154999999,-0.390696936,12.437381928999999,0.373650558242458,-0.5729078176256427,0.4149834455881878,12.478394552127634,0.8000308539573467,-0.2813527885,0.33872169099999994,-0.5901641970000018
50822.0,-1.1537523725,-0.35951178899999997,12.1417114315,0.49728968245373634,-0.5539884485340241,0.449090669830661,12.20170273975305,0.8694151247321528,-0.22143415700000013,0.031185147000000024,-0.29567049749999974
50832.0,-1.253093737,-0.5833976085,12.159657601,0.5982796689618842,-0.5153520948826257,0.5143729651722568,12.23796836312585,0.9423937029146323,-0.09934136449999986,-0.22388581950000003,0.017946169500000053
50842.0,-1.364497281,-0.9664453574999999,12.21712457,0.6782174940324766,-0.482309521483869,0.552476993401797,12.331017890579323,0.9989155479638808,-0.11140354400000008,-0.38304774899999994,0.057466969000000034
50852.0,-1.4482460719999999,-1.222693122,12.322447990999999,0.7165885576375718,-0.4985637728076922,0.5343587304368439,12.467362176761748,1.023525402365477,-0.08374879099999988,-0.2562477645,0.10532342099999958
50862.0,-1.389602305,-1.1760134679999998,12.2207530305,0.6875445335551342,-0.5284089030167952,0.4752025407697481,12.355598199822362,0.9888128787404542,0.05864376699999996,0.04667965400000007,-0.10169496049999971
50872.0,-1.1861143175,-0.956932907,12.079439204,0.6139998495345972,-0.5148180241315153,0.4043247198462584,12.175197708694924,0.8975031433248247,0.20348798749999997,0.21908056099999984,-0.14131382649999935
50882.0,-0.9538928454999999,-0.5690798994999999,11.902331105,0.4882296783066338,-0.44180741086208863,0.332113467374245,11.954047399343937,0.737469567021857,0.2322214720000001,0.38785300750000007,-0.1771080989999998
50892.0,-0.7850223324999999,-0.18720894849999997,11.752681626,0.34380717336260697,-0.3171036358070938,0.2886792036091141,11.780357917102528,0.549630576745923,0.168870513,0.38187095099999996,-0.1496494790000007
50902.0,-0.7503067914999999,0.0510926465,11.5982268885,0.2063136255489977,-0.1620224051211376,0.30306769796255534,11.622583090562173,0.40083238566354984,0.03471554099999996,0.23830159499999998,-0.15445473750000005
50912.0,-0.872399584,0.12650578499999998,11.415136733,0.12344364733505495,0.0002530727415391778,0.35875940906444237,11.4491236075469,0.37940309923017473,-0.12209279250000005,0.07541313849999998,-0.18309015549999863
50922.0,-1.1166832354999998,0.09532063799999999,11.248717882499998,0.10718939601123174,0.13934708747922728,0.4237764143597352,11.30441159338029,0.4587958443292507,-0.24428365149999987,-0.031185146999999996,-0.16641885050000305
