timestamp,ax,ay,az,gx,gy,gz,acc_mag,gyro_mag,dax,day,daz
249242.0,-0.6436104394999999,0.3507838705,9.4560622625,0.013550736312483973,-0.19503007193485436,0.353968480267718,9.4844291991618,0.4043686887440258,0.0,0.0,0.0
249252.0,-0.5334817599999999,0.3268556445,9.159214967,0.03300243082596078,-0.25231875930231623,0.29454700055431904,9.180558600232942,0.3892452341029092,0.11012867949999994,-0.023928225999999997,-0.2968472954999992
249262.0,-0.29645502949999997,0.30773267699999995,9.167648686,0.07137349443105612,-0.22993665697474094,0.23326150919979016,9.177601397692479,0.33522525800151676,0.23702673049999995,-0.019122967500000032,0.008433718999999229
249272.0,-0.38863753949999996,0.44659484099999996,9.080173367999999,0.10521368329797416,-0.1928990249181693,0.16531235076114692,9.09945242759436,0.2749693188006316,-0.09218251,0.138862164,-0.08747531800000097
249282.0,-0.40060165249999996,0.5806517465,9.064678860999999,0.1358564289752386,-0.17344733040469246,0.11042174578592524,9.092086723506297,0.24644250376270344,-0.011964112999999998,0.1340569055,-0.015494506999999658
249292.0,-0.39461959599999996,0.6799931109999999,9.1304814825,0.16783260620102672,-0.1798422167839997,0.07711388234086547,9.164267966336977,0.2577936335359989,0.005982056499999999,0.09934136449999997,0.06580262150000138
249302.0,-0.3407810875,0.7925734529999999,9.101747997999999,0.20700303060353548,-0.19662879352968116,0.06379003883114075,9.1425445608482,0.2925445370846372,0.05383850849999994,0.112580342,-0.028733484500001794
249312.0,-0.2952782315,0.9601691014999999,9.0849786265,0.2483045020227293,-0.20568879767678372,0.06805387819376289,9.140347399384495,0.3295365496446304,0.045502856000000036,0.16759564849999997,-0.016769371499998798
249322.0,-0.303613884,1.0319537795,9.0467326915,0.28347637710891904,-0.19636175815412604,0.08217708250090101,9.110460053424127,0.3544994630920299,-0.008335652500000013,0.0717846780000001,-0.038245934999999065
249332.0,-0.338329425,1.0128308119999998,9.0382989725,0.3005299892301556,-0.17611070284323585,0.09949598466844076,9.101161539597678,0.3622605485665788,-0.034715541000000016,-0.0191229675000002,-0.008433719000001005
249342.0,-0.40423011299999995,0.9397712694999999,9.064678860999999,0.2962678951967855,-0.15506028673493222,0.09896365924658249,9.122224228569142,0.34872935651895803,-0.06590068799999993,-0.07305954249999991,0.026379888499999282
249352.0,-0.46885593649999996,0.8452351634999999,9.0849786265,0.28720789104968286,-0.13347754520477034,0.07231771755638505,9.13625114665583,0.324860708654745,-0.06462582350000001,-0.09453610599999995,0.020299765500000788
249362.0,-0.4497329689999999,0.769822025,9.0706609175,0.2808130046703757,-0.11002904670422652,0.018491763424879924,9.11437190232232,0.3021659809197703,0.019122967500000032,-0.07541313849999998,-0.014317709000000178
249372.0,-0.5167123885,0.733929686,9.1005712,0.27921428307554885,-0.0833831050140291,-0.04545884569744431,9.144727477770502,0.29492348961606535,-0.06697941950000008,-0.035892338999999995,0.029910282499999497
249382.0,-0.57663102,0.7985555095,9.110181717,0.2824117262652025,-0.05167396316379612,-0.1067460823812252,9.163274804988667,0.3063026407083105,-0.059918631499999986,0.06462582350000001,0.009610517000000485
249392.0,-0.660379811,0.908684189,9.0814482325,0.2882725418933994,-0.0188984251405946,-0.15470773022602938,9.150656285190278,0.3277082401682421,-0.08374879099999999,0.11012867950000005,-0.028733484500000017
249402.0,-0.78845466,1.0068487554999999,9.101747997999999,0.29173702045860817,0.013610077507051782,-0.1845528604351324,9.191149100434863,0.34547862685064,-0.128074849,0.09816456649999983,0.020299765499999012
249412.0,-0.9345737449999999,1.0990312654999999,9.12214583,0.29546853439937204,0.03359409744238686,-0.2048039157460226,9.235520686522024,0.3610745935509523,-0.14611908499999993,0.09218251,0.02039783200000045
249422.0,-1.085400022,1.0774566355,9.132933144999999,0.3037274324198092,0.039723693775390936,-0.22212281791356234,9.260101178722625,0.37837398336745137,-0.15082627700000006,-0.021574629999999928,0.010787314999999964
249432.0,-1.1716004755,1.0188128685,9.207071419,0.32184744071401433,0.03545985441276879,-0.2445066655703896,9.337065462434099,0.40574214210195875,-0.08620045350000005,-0.05864376699999996,0.07413827400000095
249442.0,-1.2984985265,0.9349660109999999,9.302882389499999,0.35542233953462926,0.030930725003843508,-0.2802126114076896,9.439485188182516,0.45365279320362345,-0.12689805099999996,-0.0838468575000001,0.09581097049999876
249452.0,-1.4193164544999999,0.875145446,9.421346721499999,0.3937916578104726,0.03572688978832393,-0.3337715301636396,9.567764252759773,0.5174473062668746,-0.12081792799999991,-0.05982056499999988,0.11846433200000028
249462.0,-1.5666123374999998,0.862004535,9.500388320499999,0.42523550961440243,0.05597794509921413,-0.3987885354589324,9.66719733297405,0.5856543903942251,-0.14729588299999996,-0.013140911000000033,0.07904159899999996
249472.0,-1.7222438729999998,0.9194715039999999,9.621304315,0.43909167854598546,0.10234261667844351,-0.4680676347875953,9.817385014686531,0.6498944715048556,-0.15563153549999997,0.05746696899999992,0.12091599450000068
249482.0,-1.8694416895,0.9565406409999999,9.7398667135,0.43189568604001277,0.16496153958149604,-0.5392142364158922,9.963673309832602,0.7102803572636965,-0.14719781650000008,0.03706913700000003,0.11856239849999994
249492.0,-2.0179143704999998,1.0068487554999999,9.95767241,0.4041850935060988,0.23557407045868264,-0.6079610103226967,10.209846357707717,0.7671227558595823,-0.14847268099999988,0.050308114499999945,0.21780569650000103
249502.0,-2.151971276,1.034405442,10.16361206,0.3658140299010035,0.2955278755939399,-0.6716463293987179,10.440305795202827,0.8199179358449543,-0.13405690550000005,0.027556686500000094,0.20593964999999947
249512.0,-2.2441537859999996,1.0415642964999998,10.341995023499999,0.3357036096455973,0.32377253887896407,-0.7220078049650143,10.633811332963381,0.8595468811482082,-0.09218250999999977,0.007158854499999867,0.17838296349999894
249522.0,-2.3052492155,1.002043497,10.556270326,0.3255772093255262,0.31790997792151515,-0.7635745664305112,10.851410429572347,0.8888832273104263,-0.06109542950000035,-0.03952079949999976,0.21427530250000082
249532.0,-2.303974351,0.945753326,10.762111909499998,0.3322391310803886,0.277940192721593,-0.8038113870059884,11.046528862783441,0.91309711248676,0.001274864500000028,-0.05629017100000011,0.20584158349999804
249542.0,-2.2740640685,0.90025047,10.904602534,0.3487604177797669,0.2219831915734028,-0.8499090232096627,11.175516754087804,0.9451220630607639,0.02991028249999994,-0.045502855999999925,0.14249062450000238
249552.0,-2.2130667055,0.8787739064999999,11.030323786999999,0.3647476337280349,0.16789194739559454,-0.8962736947888921,11.28441184412355,0.9821074677859943,0.060997362999999805,-0.021476563500000156,0.12572125299999826
249562.0,-2.1758995019999996,0.8930916154999999,11.1404524665,0.3722089162803107,0.1303202445879126,-0.941839005570708,11.3860367307868,1.0210698095245188,0.03716720350000058,0.014317709000000067,0.11012867950000071
249572.0,-2.2011025925,0.9170198414999999,11.303242856499999,0.3540889079861056,0.11726343645374303,-0.9916664103858942,11.55201614807706,1.0594960772817323,-0.025203090500000247,0.023928225999999997,0.16279038999999962
249582.0,-2.1544229384999998,0.8907380194999999,11.461227988,0.30825830715798647,0.10980389923071925,-1.048956843082608,11.695926616144284,1.0988132411233533,0.04667965400000007,-0.026281822000000066,0.15798513150000026
249592.0,-2.083716992,0.885932761,11.613329129499999,0.26056194935948546,0.11086855007443579,-1.0998506440707627,11.831997584087642,1.1357181886861258,0.07070594649999995,-0.004805258499999909,0.15210114149999931
249602.0,-2.0370373379999998,0.9181966395,11.795242487,0.2088670422446654,0.10820343230664047,-1.1531442727804095,12.005013599006256,1.1768921522149902,0.04667965400000007,0.03226387850000001,0.18191335750000093
249612.0,-1.967606256,0.9385944715,11.989218024,0.16623388460619992,0.08955109859057704,-1.2075025523337728,12.18580250896867,1.2221765492524483,0.0694310819999997,0.020397832000000005,0.19397553700000003
249622.0,-1.8754237459999998,0.991256182,12.142397897,0.1395879429160025,0.06690196088744664,-1.251734431567065,12.326298298130057,1.2612691042551665,0.09218251000000022,0.052661710500000014,0.1531798730000009
249632.0,-1.7880464944999999,1.0163612059999998,12.245367722,0.11986921302697055,0.0471849763276667,-1.2895714244210503,12.416888942668166,1.295989779630258,0.08737725149999997,0.02510502399999981,0.10296982499999885
249642.0,-1.663600106,1.0223432625,12.3088167475,0.08895943197415099,0.02400176787342602,-1.3242127194146336,12.462733278964082,1.3274144762122013,0.12444638849999978,0.005982056500000166,0.06344902550000064
249652.0,-1.4995348514999998,1.000866699,12.383053088,0.03913028182971287,-0.006908013179393556,-1.358852269078965,12.513606302751283,1.359433113022929,0.1640652545000003,-0.021476563500000045,0.07423634050000061
249662.0,-1.352337035,1.025971723,12.489553306999998,-0.020556487929989212,-0.03408628029144926,-1.3926924579458833,12.604379208871126,1.3932611837410347,0.14719781649999986,0.025105024000000142,0.10650021899999729
249672.0,-1.1978822974999999,1.034405442,12.526720510499999,-0.07784692062670308,-0.06739414373650904,-1.424136309749813,12.626307590316515,1.4278537538588651,0.15445473750000005,0.008433718999999895,0.03716720350000102
249682.0,-1.0135172774999999,1.0882439505,12.548197073999999,-0.12101240368702684,-0.1028347995275059,-1.4486494590940733,12.636009733121172,1.4573277782206464,0.18436502,0.05383850849999994,0.021476563500000267
249692.0,-0.833957516,1.162480291,12.545843478,-0.1564530594780237,-0.130812427436975,-1.4593081848360028,12.627154633563789,1.4734889987106579,0.17955976149999986,0.07423634050000016,-0.0023535959999989586
249702.0,-0.6855829015,1.2654501159999998,12.521915252,-0.19429005233200877,-0.15079644737231007,-1.4547790554270774,12.604354386051822,1.4754220728607066,0.1483746145,0.10296982499999974,-0.023928226000000663
249712.0,-0.5406406145,1.337234794,12.524268848,-0.2374572807215845,-0.16758476944724354,-1.437725443305841,12.607053555264782,1.4668077806745343,0.144942287,0.07178467800000021,0.002353596000000735
249722.0,-0.393442798,1.3228190185,12.5278973085,-0.28355491692525875,-0.17557837742137758,-1.4164079918219823,12.603684317029085,1.4551435519657827,0.14719781650000002,-0.014415775500000061,0.003628460499999875
249732.0,-0.2042725195,1.3181118265,12.489553306999998,-0.3344487179134134,-0.1713145380587554,-1.3988220542788874,12.560576732689333,1.4484156017529006,0.18917027849999998,-0.004707191999999916,-0.03834400150000228
249742.0,0.014808041499999999,1.3551809635,12.4357147985,-0.40026508400611954,-0.16172220848979457,-1.3801697205628238,12.509345996955945,1.4461101852043314,0.219080561,0.03706913700000003,-0.05383850849999838
249752.0,0.22908334399999997,1.4126479325,12.396193999,-0.47354273265110153,-0.1595911614731095,-1.3508586611048312,12.478528720187262,1.440323290358434,0.21427530249999996,0.057466969000000034,-0.03952079949999998
249762.0,0.413448364,1.4689381035,12.353044739,-0.5369610163515675,-0.15852476530014098,-1.3103565504830508,12.44694472653205,1.42495316543689,0.18436502000000005,0.05629017099999989,-0.043149259999999856
249772.0,0.6049722385,1.4616811824999998,12.290870578,-0.5854567349474818,-0.16625133789871985,-1.2639918789038216,12.392255761312237,1.40288080954274,0.19152387450000002,-0.007256921000000194,-0.06217416099999973
249782.0,0.8013013715,1.398232157,12.224969889999999,-0.6166335513758566,-0.19023390715037394,-1.2152291249323517,12.330735009083734,1.3759388439156544,0.196329133,-0.06344902549999976,-0.06590068800000104
249792.0,0.9760558744999999,1.3671450765,12.1268053235,-0.6230284377551638,-0.22194304900060693,-1.1648676493660555,12.24259686849208,1.3395296905223584,0.17475450299999984,-0.031087080500000086,-0.0981645664999995
249802.0,1.1771902659999998,1.3839144479999999,12.001182137,-0.611570351215821,-0.24832195531524923,-1.12223449172759,12.137930993674177,1.3019571200315752,0.2011343914999999,0.016769371499999908,-0.1256231864999986
249812.0,1.4034296814999998,1.4078426739999998,11.919786941999998,-0.607573547228754,-0.26031411260570225,-1.08839255753142,12.084409650799014,1.273384235729189,0.22623941550000004,0.023928225999999997,-0.08139519500000247
249822.0,1.652420525,1.520423016,11.7904372285,-0.627292277117786,-0.25951475180828887,-1.05268661169412,12.002357675816139,1.2525943516469258,0.24899084350000011,0.11258034200000022,-0.12934971349999813
249832.0,1.8655190295,1.705964834,11.661185581499998,-0.6659286307691844,-0.24059538271667033,-0.9996617636892802,11.93204619629235,1.2250186615905343,0.2130985045,0.18554181799999991,-0.12925164700000202
249842.0,2.0773426694999997,1.9130812819999998,11.518694957,-0.7096281845806185,-0.20568879767678372,-0.9205215540868492,11.85982993429844,1.1803558672618073,0.21182363999999976,0.20711644799999984,-0.14249062449999883
249852.0,2.2485667785,2.018404703,11.422982052999998,-0.7458682011690287,-0.17238093423172393,-0.8139360419968076,11.815859219101522,1.1173747985627533,0.17122410900000018,0.10532342100000003,-0.09571290400000088
249862.0,2.430480136,2.021935097,11.3726739385,-0.7711807113107025,-0.1401394669596327,-0.6974929102915018,11.803947125407165,1.0492164312496828,0.18191335750000004,0.0035303940000002143,-0.05030811449999817
249872.0,2.5418836799999998,1.8974887084999998,11.3403119935,-0.7996924099712819,-0.1044335211223327,-0.5898410020284917,11.775581181048148,0.9991630090098715,0.11140354399999985,-0.12444638850000023,-0.03236194499999989
249882.0,2.623278875,1.695177519,11.243422291499998,-0.8385957989982354,-0.0841824658114425,-0.5051070121734189,11.669180078392111,0.9825796127512223,0.08139519500000025,-0.20231118949999982,-0.09688970200000213
249892.0,2.6639764725,1.5778899849999999,11.171539547,-0.8783002941518544,-0.0841824658114425,-0.44328745006777975,11.592661614184285,0.9874218235611987,0.040697597499999905,-0.11728753400000014,-0.0718827444999981
249902.0,2.715461385,1.4963967235,11.0698445865,-0.9022811180742566,-0.09777159936747035,-0.3950570215181685,11.495842416142935,0.9898184439214145,0.05148491249999987,-0.08149326149999991,-0.10169496049999971
249912.0,2.7178149809999996,1.4353993605,10.915389848999999,-0.9137392046135994,-0.130812427436975,-0.3486923499389391,11.339868833047587,0.9867206190841391,0.002353595999999847,-0.06099736300000003,-0.15445473750000183
249922.0,2.6435786404999995,1.3875429085,10.762111909499998,-0.90308047887167,-0.18277262459809818,-0.2961998273559577,11.168564639381291,0.9678297997826173,-0.07423634050000016,-0.047856451999999994,-0.15327793950000057
249932.0,2.5909169299999997,1.3156601639999999,10.6185425535,-0.8657758114395432,-0.25871539101087543,-0.24237387322445256,11.008962628957708,0.935546099153608,-0.05266171049999979,-0.0718827445000001,-0.14356935599999865
249942.0,2.533449961,1.186408517,10.4341775335,-0.7893007196049076,-0.3591713067679131,-0.1898813506414711,10.80268460498117,0.8877243834071612,-0.05746696899999959,-0.1292516469999998,-0.18436501999999955
249952.0,2.522662646,1.0834386919999999,10.239025198499998,-0.6795177643252124,-0.47401571687839195,-0.14591476145448193,10.600721826383538,0.8412647677702835,-0.010787314999999964,-0.10296982500000018,-0.1951523350000013
249962.0,2.6076863015,0.9769384729999999,9.9528671515,-0.566005040434005,-0.5829993113606738,-0.10354689386231959,10.335085929128313,0.819128721308351,0.08502365549999968,-0.10650021899999995,-0.2861580469999989
249972.0,2.762141039,0.9889025859999999,9.723097341999999,-0.4799376190304087,-0.66666865037203,-0.061180771599409225,10.156080610448743,0.8237295031519394,0.15445473750000005,0.011964112999999998,-0.22976980950000048
249982.0,2.807643895,1.108543716,9.4297804405,-0.4245146886333288,-0.7156984397190548,-0.005489060497522166,9.901135923087322,0.832146085292052,0.04550285600000015,0.1196411300000001,-0.293316901499999
249992.0,2.878251775,1.212690339,9.2358049035,-0.39067275443715876,-0.7226256515202202,0.060859631017042275,9.74961760040409,0.8237213897805918,0.07060787999999985,0.10414662299999988,-0.19397553700000003
250002.0,2.9417008005,1.186408517,9.099394402,-0.3853442642308201,-0.6909165096699872,0.12454495009306336,9.636397005728925,0.8008540877736926,0.0634490255000002,-0.026281821999999844,-0.13641050150000034
250012.0,2.9764163415,1.174444404,8.998778173,-0.40426188799318663,-0.6416214302766594,0.18796148846427732,9.550726804955545,0.7813035613766192,0.03471554099999974,-0.01196411300000011,-0.10061622899999989
250022.0,2.912967316,1.2186723955,9.0167243425,-0.4351716690460061,-0.6005852489037687,0.2540448899325386,9.553630663798451,0.7839743802203769,-0.06344902549999976,0.04422799150000012,0.017946169500000053
250032.0,2.8758001125,1.233088171,8.9880889245,-0.45995359909507366,-0.5867290799721858,0.3161314874137329,9.517167395776681,0.8097823435590199,-0.037167203500000134,0.014415775499999839,-0.028635418000000357
250042.0,2.847066628,1.233088171,8.950921721,-0.4692788932884793,-0.5963231548703987,0.36862400999671435,9.473399309498202,0.8436276699271446,-0.028733484500000017,0.0,-0.037167203499999246
250052.0,2.8136259514999997,1.2857498815,8.8658980655,-0.46528208930141235,-0.6120433354431115,0.4219158933771092,9.390090109289057,0.8769820341199817,-0.033440676500000155,0.052661710500000014,-0.08502365550000057
250062.0,2.7812640064999994,1.3121297699999999,8.771361959499998,-0.45995359909507366,-0.6200369434172456,0.4832031300608901,9.294832146506806,0.9107625318508409,-0.032361945000000336,0.02637988849999995,-0.0945361060000014
250072.0,2.7453716674999997,1.2761393644999999,8.705559337999999,-0.4538240027620695,-0.6205710141683558,0.5466214137613561,9.216960489107956,0.9433236873371685,-0.03589233899999966,-0.03599040549999999,-0.0658026214999996
250082.0,2.715461385,1.186408517,8.5762096245,-0.44210062617642365,-0.614975488586462,0.6071075443184716,9.073735020706891,0.970683978231921,-0.02991028249999994,-0.08973084749999982,-0.12934971349999813
250092.0,2.7130097225,1.1098185805,8.418224492999999,-0.4381038221893567,-0.624834853530978,0.659600066901453,8.913956621531632,1.0086752705704662,-0.0024516624999999515,-0.07658993650000001,-0.15798513150000204
250102.0,2.7094793284999996,1.0702977809999998,8.309272611499999,-0.43144190043449426,-0.6373575909140372,0.7027672952910288,8.805159107239707,1.0422325476960224,-0.0035303940000002143,-0.0395207995000002,-0.10895188149999946
250112.0,2.6759405855,1.0319537795,8.231505877,-0.4178527668784664,-0.6469499204829982,0.7435364412883644,8.716838625513034,1.070509959750358,-0.033538742999999815,-0.038344001499999836,-0.07776673449999905
250122.0,2.623278875,0.9984150365,8.096174107,-0.40479595874429686,-0.6501473636726518,0.7800417479230777,8.568924075517755,1.0931680983312237,-0.05266171049999979,-0.03353874300000004,-0.13533177000000052
250132.0,2.6017042449999996,0.9781152709999998,7.9393657735,-0.4063946803391237,-0.6410891048548011,0.8136166467436926,8.411843041048595,1.1127101709025218,-0.021574630000000372,-0.020299765500000122,-0.1568083334999999
250142.0,2.624455673,0.9972382384999999,7.745488302999999,-0.42105021006812005,-0.6112439746456981,0.8463904394376421,8.238618860936478,1.1257349829824619,0.022751428000000296,0.019122967500000088,-0.19387747050000037
250152.0,2.656817618,0.9816456649999998,7.6581110515,-0.44236766155197876,-0.5688761070535358,0.8775672558660169,8.165107038124786,1.135532237204899,0.03236194499999989,-0.015592573500000095,-0.08737725149999953
250162.0,2.6304377295,0.942222932,7.498851055499999,-0.45329167734021125,-0.521713820006145,0.9247312882426596,8.002484230221091,1.154463776039004,-0.026379888499999726,-0.03942273299999988,-0.1592599960000003
250172.0,2.5993506490000002,0.957717439,7.3133092374999995,-0.4658161600525226,-0.486007874168845,0.9804212540152947,7.8203796898056215,1.1892914630338185,-0.031087080499999864,0.01549450699999999,-0.18554181799999991
250182.0,2.566988704,0.9374176734999999,7.222303525499999,-0.4588872029221051,-0.4439052966229858,1.0414414553235205,7.722036720678261,1.2215685335837636,-0.032361945000000336,-0.02029976550000001,-0.0910057120000003
250192.0,2.4640188789999997,0.817678477,7.145713589,-0.42238189628739176,-0.3988740565922801,1.1117869508251519,7.602710689210573,1.254423055973862,-0.10296982500000018,-0.11973919649999998,-0.07658993649999957
250202.0,2.2940696345,0.7206907084999999,7.051177482999999,-0.3616287303547211,-0.35650618900011777,1.1805354700612085,7.44991640772025,1.2851210049975814,-0.1699492444999997,-0.09698776850000002,-0.09453610600000051
250212.0,2.125297188,0.6249778045,7.0236207964999995,-0.29927684282722367,-0.32559640794729816,1.2415556713694345,7.364695138732196,1.317968184225409,-0.16877244650000023,-0.09571290399999999,-0.02755668649999965
250222.0,2.0223273629999996,0.5088670685,6.928986623999999,-0.2419864101305098,-0.28829174051517137,1.2919171469357307,7.235994008573613,1.345629765159673,-0.10296982500000018,-0.11611073599999999,-0.09463417250000017
250232.0,1.9121986834999998,0.4070740415,6.7901244599999995,-0.19855389169463092,-0.24139474351408371,1.3300211751652709,7.065975039775655,1.3662545138045552,-0.11012867949999983,-0.10179302699999998,-0.13886216399999984
250242.0,1.8223697694999998,0.33528936349999994,6.7339323554999995,-0.17776876563263044,-0.1841043108173699,1.344142634143157,6.984217601314659,1.3682892794352344,-0.08982891399999993,-0.07178467800000005,-0.056192104500000006
250252.0,1.7230284049999998,0.214373369,6.738737614,-0.1727073108018469,-0.11029433675052966,1.346540716535397,6.9588337712659625,1.3620442567006792,-0.09934136450000008,-0.12091599449999993,0.004805258500000242
250262.0,1.5949535559999999,0.13415497199999998,6.817681146499999,-0.17696940483521703,-0.03462035104255952,1.3529356029147044,7.003045810049432,1.3648998075273568,-0.12807484899999988,-0.08021839700000002,0.07894353249999941
250272.0,1.4369684244999998,0.10061622899999999,6.872794519499999,-0.18016859335412266,0.037857936805009,1.3673258425973975,7.022129761391299,1.3796644176193784,-0.15798513150000004,-0.033538742999999996,0.05511337300000019
250282.0,1.2453464834999999,0.050308114499999994,6.917022510999999,-0.18150027957339432,0.10127622050547495,1.3950364351313116,7.028415126330479,1.4104346421117753,-0.19162194099999996,-0.050308114499999994,0.044227991499999675
250292.0,1.086184554,0.052759777,7.0104798855,-0.18096795415153605,0.13911321335946003,1.4224834829481745,7.094322286477923,1.440680792480193,-0.15916192949999997,0.002451662500000007,0.09345737450000069
250302.0,0.9652685595,-0.029812216,7.167288219,-0.16551306362512627,0.14071193495428685,1.4443332598538914,7.232057285060609,1.460579675467697,-0.1209159944999999,-0.082571993,0.1568083334999999
250312.0,0.8767145099999999,-0.13160524299999998,7.27261164,-0.13353688639933814,0.09434900870430947,1.4605875111777147,7.3264471838875025,1.4697107583742546,-0.08855404950000012,-0.10179302699999998,0.10532342100000047
250322.0,0.8754396455,-0.20819517949999997,7.3156628335,-0.08717221482010878,0.006682865705886288,1.459521115004746,7.370797955386747,1.4621373194318594,-0.001274864499999917,-0.07658993649999998,0.043051193500000196
250332.0,0.8587683405,-0.23339827,7.276142033999999,-0.017092009364780468,-0.09803688941377348,1.449129424638372,7.330361567755425,1.4525424117122339,-0.016671305000000025,-0.025203090500000025,-0.03952079950000087
250342.0,0.8395473065,-0.2285930115,7.146890386999999,0.06950773746067418,-0.18197326380068476,1.4387377342719976,7.199662259339048,1.4518649600852334,-0.01922103399999997,0.0048052584999999925,-0.12925164700000025
250352.0,0.8240527994999999,-0.0909076455,7.016461941999999,0.1499796332823767,-0.21288304485350437,1.441401106710541,7.06527178528247,1.464735550060825,-0.015494507000000102,0.137685366,-0.13042844499999973
250362.0,0.705490401,0.0132389775,6.859555542,0.23205025069890609,-0.19130030332334247,1.458988789582888,6.895751895929211,1.489661509548249,-0.11856239849999983,0.104146623,-0.15690639999999956
250372.0,0.5043560094999999,-0.001176798,6.851219889499999,0.30266278157609267,-0.1206877724461559,1.4901638606820105,6.869759118299031,1.5253716365043986,-0.20113439150000012,-0.0144157755,-0.008335652500000457
250382.0,0.31528379749999996,-0.10404855649999999,6.894271083,0.34769402160679835,-0.03382099024514612,1.5144117199799678,6.902260770281411,1.5541807647937727,-0.18907221199999996,-0.10287175849999998,0.043051193500000196
250392.0,0.21829602899999997,-0.338721691,7.006851425,0.3786038026596179,0.044786893935426494,1.5194749201400033,7.018429484739132,1.566572927824037,-0.09698776849999999,-0.2346731345,0.11258034200000022
250402.0,0.14523648649999998,-0.5900661305,7.125315756999999,0.3916606107937875,0.09381493795319922,1.4840360096782583,7.151181462690384,1.537713287531942,-0.07305954249999999,-0.2513444395,0.1184643319999994
250412.0,0.06864655,-0.7541313849999999,7.274965236,0.4039180581305437,0.11193494624740434,1.4174202827881388,7.314270003197684,1.478093193250874,-0.07658993649999998,-0.16406525449999987,0.1496494790000007
250422.0,-0.025889555999999998,-0.861808402,7.398332892999999,0.4273665566310875,0.11673111103188476,1.3473400773328106,7.44840342533307,1.4183065994335058,-0.094536106,-0.1076770170000001,0.1233676569999993
250432.0,-0.1372931,-0.8415086365,7.4964974595000005,0.4644041886876592,0.11406599326408941,1.2868539467756952,7.544830040557684,1.3728347976439663,-0.11140354400000001,0.02029976550000001,0.09816456650000127
250442.0,-0.289296175,-0.755308183,7.6604646475,0.5086378132502035,0.12792216219567237,1.2500816047654264,7.703044939747768,1.3556476397728388,-0.152003075,0.08620045349999994,0.1639671879999991
250452.0,-0.4784664535,-0.708628529,7.8448296675,0.5206282252114045,0.15376874308845642,1.237024796631257,7.891288681281767,1.3508993014723132,-0.1891702785,0.04667965400000007,0.18436502000000043
250462.0,-0.6208590115,-0.800811039,7.9537815489999995,0.4923835619263803,0.16789194739559454,1.2167737413203668,8.018067420616882,1.3233168991675266,-0.142392558,-0.09218251,0.10895188149999946
250472.0,-0.6628314734999999,-0.977919138,7.9477994925,0.45374720827498183,0.18761067728462646,1.1786697130908266,8.035122163085767,1.2768502605263263,-0.04197246199999993,-0.17710809900000002,-0.005982056499999722
250482.0,-0.7095111274999999,-1.0976583345,7.8915093215,0.4217710310491937,0.2235819131682296,1.1141850332173922,7.999011140801407,1.212141890528459,-0.04667965399999996,-0.11973919649999998,-0.05629017099999967
250492.0,-0.6962721499999999,-1.1647358205,7.966922459999999,0.3953903794052994,0.24782977246618682,1.0187923176203901,8.081661829232518,1.120576161931546,0.013238977500000026,-0.06707748600000007,0.0754131384999992
250502.0,-0.6999006105,-1.1622841579999998,8.1788441665,0.38446636361706693,0.24090256066502133,0.9130061663277617,8.290612596690737,1.019523755603768,-0.003628460500000097,0.0024516625000001735,0.21192170650000008
250512.0,-0.7095111274999999,-1.031855713,8.364385984499998,0.3860650852118937,0.23024383492309194,0.836265784446823,8.457605166369323,0.9494203156538303,-0.00961051699999993,0.13042844499999995,0.18554181799999903
250522.0,-0.8196398069999999,-0.7852184655,8.443329516999999,0.4041850935060988,0.20386492860844965,0.8101521681784839,8.519283466608245,0.9280479699527178,-0.11012867950000005,0.24663724749999993,0.0789435325000003
250532.0,-0.9692892859999999,-0.6367457845,8.522371116,0.46600291028248597,0.16629322580076775,0.8165470545577911,8.600917180909487,0.954757163704979,-0.14964947899999992,0.148472681,0.07904159900000174
250542.0,-1.0674538525,-0.573296759,8.5846433435,0.555534810251291,0.13938024873501517,0.8394632276364767,8.669730574602411,1.016240271634727,-0.09816456650000005,0.06344902549999998,0.06227222749999939
250552.0,-1.1955287015,-0.5913409949999999,8.672020595,0.6282801334744147,0.1375144917646332,0.8645104477318473,8.773990782339698,1.0775084574152691,-0.1280748490000001,-0.018044235999999936,0.08737725149999953
250562.0,-1.3199750899999998,-0.653515156,8.7582210485,0.6610539261683642,0.15936426867035025,0.8746368480519183,8.881207813790342,1.1078713279987162,-0.12444638849999978,-0.06217416100000006,0.08620045350000005
250572.0,-1.4767834235,-0.8056162975,8.797741848,0.6642513693580179,0.1894746889257564,0.8565168397577133,8.957129480071861,1.1003415997889265,-0.15680833350000012,-0.15210114149999998,0.03952079949999998
250582.0,-1.6132919915,-1.0162631395,8.858739211,0.6557254359620256,0.2081270226418198,0.8021585602043498,9.061609251510093,1.0567644300554655,-0.136508568,-0.21064684199999995,0.06099736300000025
250592.0,-1.7485256949999997,-1.1755231355,8.924639898999999,0.6514615965994035,0.20626301100068986,0.7088968916240328,9.1699724140803,0.9846224883198283,-0.13523370349999975,-0.15925999600000007,0.06590068799999926
250602.0,-1.792851753,-1.2401489589999999,8.924639898999999,0.6485311887853049,0.19693597147803216,0.5841913712397859,9.187028038248641,0.8947938521918323,-0.044326058000000446,-0.0646258234999999,0.0
250612.0,-1.7174386145,-1.250936274,8.788131331,0.6352073452755803,0.20439725403030792,0.4480295096454484,9.041332271689196,0.8037394170129529,0.07541313850000009,-0.010787315000000186,-0.13650856799999822
250622.0,-1.6743874209999998,-1.0808889629999998,8.731841159999998,0.6157556507621035,0.25982192975663987,0.324125095387867,8.956391250353478,0.7427782536451372,0.043051193500000196,0.17004731100000026,-0.05629017100000233
250632.0,-1.743818503,-0.903780864,8.8288289285,0.6037652388009025,0.35281656296140174,0.21913830489265204,9.044663789785456,0.7328257551119723,-0.06943108200000014,0.1771080989999998,0.09698776850000179
250642.0,-1.8275672939999998,-0.744520868,9.032316916,0.5997684348138353,0.4514084670773094,0.1373347228516778,9.245380598333726,0.7631203087645299,-0.08374879099999988,0.15925999600000007,0.20348798749999908
250652.0,-1.849141924,-0.55897905,9.339951526499998,0.6029658780034891,0.5172248331700156,0.07018667053969997,9.53763481953482,0.7975058286970179,-0.02157463000000015,0.18554181799999991,0.3076346104999992
250662.0,-1.930537119,-0.350685804,9.694363857499999,0.6066956466150009,0.5276165235363898,0.018226473378576784,9.890937503723608,0.804233180030543,-0.08139519500000003,0.20829324600000004,0.3544123310000007
250672.0,-2.104114824,-0.1962310665,9.900205441,0.6104271605557647,0.48471633052236923,-0.022542672618758763,10.123234344716233,0.779794467477194,-0.1735777049999998,0.1544547375,0.2058415835000016
250682.0,-2.1328483085,-0.0538385085,10.071429549999998,0.6176214077324853,0.4223626976656198,-0.05371948904713347,10.294932426814757,0.7501548074713124,-0.028733484500000017,0.142392558,0.17122410899999707
250692.0,-2.0586119679999997,0.006080123,10.2139201745,0.608828438960938,0.39012123039352853,-0.0718394973413386,10.419313102779215,0.7266550459947481,0.07423634050000016,0.0599186315,0.14249062450000238
250702.0,-2.0287016854999997,-0.011866046499999998,10.301297426,0.5629960928035669,0.40530908554438316,-0.08356287392698451,10.499166633153523,0.6987294249105613,0.02991028249999994,-0.017946169499999998,0.08737725149999953
250712.0,-2.0657708224999998,-0.0897308475,10.341995023499999,0.4835905931548328,0.43035805096900576,-0.10328160381601645,10.546673493674872,0.6555417633595079,-0.03706913700000003,-0.07786480100000001,0.04069759749999946
250722.0,-2.140007163,-0.18789541399999998,10.3192435955,0.39858956792420497,0.4234290938385883,-0.13579010646366282,10.540480241789806,0.5971639592108563,-0.07423634050000016,-0.09816456649999998,-0.022751427999999407
250732.0,-2.2046329865,-0.2644853505,10.3215971915,0.3381016920378375,0.38159529699753625,-0.18188774266733707,10.557733075304268,0.5413047900971375,-0.06462582350000012,-0.07658993650000001,0.002353596000000735
250742.0,-2.254941101,-0.326757578,10.337189765,0.3250448839036679,0.3325655076505115,-0.2418415478025943,10.585321068412629,0.52415773167468,-0.050308114499999945,-0.0622722275,0.015592573499999318
250752.0,-2.2740640685,-0.37706569249999994,10.267758683,0.33996744900821946,0.2632846629925966,-0.3071255884734422,10.52332714954853,0.528415373780362,-0.019122967499999977,-0.050308114499999945,-0.06943108199999948
250762.0,-2.280046125,-0.4009939185,10.341995023499999,0.3964567755782679,0.2174540621644775,-0.36308258962163237,10.597936946448598,0.5799079331584456,-0.005982056500000166,-0.023928226000000052,0.07423634049999883
250772.0,-2.3662465784999998,-0.33391643249999997,10.3312077085,0.4702667496451081,0.17588555536972858,-0.4022512686948891,10.60398395747213,0.643344874523875,-0.08620045349999961,0.06707748600000002,-0.010787314999999964
250782.0,-2.3399647564999997,-0.1579851315,10.473600266499998,0.5054403700605499,0.15723322165366518,-0.443819775489638,10.73297241708307,0.6907736581501996,0.026281822000000066,0.17593130099999998,0.14239255799999917
250792.0,-2.3195669244999997,-0.0095124505,10.711901861499998,0.5147656642539555,0.17242107680451982,-0.4888527608495957,10.96016982963111,0.7305407166007369,0.020397832000000005,0.148472681,0.23830159499999937
250802.0,-2.287303046,0.102969825,10.768093965999999,0.5033093230438648,0.19693597147803216,-0.5101702123334545,11.008823991222087,0.7432211629637788,0.03226387849999979,0.1124822755,0.056192104500000895
250812.0,-2.2214023579999997,0.3233252505,10.775350887,0.46760337720656475,0.22118383077598938,-0.5093708515360411,11.006695888944627,0.7259709841076831,0.06590068800000015,0.22035542549999998,0.007256921000001526
250822.0,-2.1818815584999998,0.4992565514999999,10.844781969,0.4340284783859498,0.25982192975663987,-0.5000438120133834,11.073353611019815,0.7112889491376646,0.03952079949999998,0.17593130099999993,0.06943108199999948
250832.0,-2.195120536,0.542307745,10.987174526999999,0.4201723094543669,0.3013904365513888,-0.48805340005218234,11.217426440347785,0.7110394406637008,-0.01323897750000036,0.043051193500000084,0.14239255799999917
250842.0,-2.2752408665,0.3747120965,11.217042403,0.45534592986980865,0.3602778455136775,-0.473397870323186,11.451601216710051,0.7491632568696265,-0.08012033049999978,-0.16759564850000003,0.22986787600000191
250852.0,-2.3949800629999998,0.262229821,11.498395191499998,0.5296882293585071,0.406909552468462,-0.4651372269734968,11.748097120857466,0.8139395826028052,-0.11973919649999987,-0.1124822755,0.2813527884999978
250862.0,-2.4596058864999994,0.180834626,11.746209237,0.5840465089118705,0.3975825129458043,-0.48005979207804833,12.00232451312037,0.8541894304792487,-0.06462582349999968,-0.08139519499999998,0.24781404550000197
250872.0,-2.535019025,0.13170330949999998,11.888601794999998,0.5995013994382803,0.339494464780929,-0.5037735806248953,12.15658339579515,0.85349062096837,-0.07541313850000053,-0.04913131650000002,0.1423925579999974
250882.0,-2.6176890845,0.102969825,11.885071401,0.5733877831699411,0.2664838515115022,-0.5336187108339984,12.170366516043757,0.8273669811861494,-0.08267005949999984,-0.028733484499999976,-0.003530393999998438
250892.0,-2.5865039375,0.018044235999999998,11.767685800499999,0.5147656642539555,0.1924068420691069,-0.5783846608184009,12.04859980713299,0.7978301184085739,0.03118514699999997,-0.084925589,-0.11738560050000046
250902.0,-2.405767378,-0.046581587499999993,11.7414039785,0.4417550509845288,0.14657449591173577,-0.6426005599870283,11.985426730312051,0.793452637287044,0.18073655949999967,-0.06462582349999998,-0.02628182199999962
250912.0,-2.3052492155,-0.050210048,11.663539177499999,0.39192764616934267,0.1481732175065626,-0.7041548320463643,11.889274205752043,0.819387948234737,0.10051816250000023,-0.0036284605000000067,-0.07786480100000048
250922.0,-2.292010238,0.06472388999999999,11.600090151999998,0.37487403404810604,0.16416217878408262,-0.7478543858577983,11.82453346426661,0.8525056860768626,0.013238977499999915,0.11493393799999999,-0.06344902550000064
250932.0,-2.314761666,0.247912112,11.646769806,0.37647275564293287,0.17188875138266155,-0.771302884358342,11.877155757992426,0.8753202945281069,-0.02275142799999985,0.183188222,0.04667965400000185
250942.0,-2.268082012,0.3627479835,11.6503982665,0.37407467325069266,0.1630957826111141,-0.7784971315350627,11.874660495389225,0.8789709206119762,0.04667965400000007,0.11483587149999999,0.003628460499999875
250952.0,-2.1004863635,0.4070740415,11.765332204499998,0.35595466495648753,0.1745538691504569,-0.7737009667505823,11.958293946912217,0.8693595129119287,0.16759564849999986,0.044326058,0.11493393799999829
250962.0,-2.026250023,0.39393313049999995,11.832311624,0.3349042488481839,0.21985214455671773,-0.7590454370215859,12.011014563077449,0.858280721457755,0.07423634050000016,-0.013140911000000033,0.06697941950000263
250972.0,-1.9245550624999999,0.39991518699999995,11.8131886565,0.2938698128045452,0.25342704337733263,-0.7526505506422787,11.975611490836195,0.8467984320810238,0.10169496049999993,0.005982056499999999,-0.01912296750000131
250982.0,-1.8754237459999998,0.3496070725,11.772491059,0.23098385452593756,0.2608865806003564,-0.7630422410086529,11.926063267752593,0.8388377736800561,0.04913131650000002,-0.050308114499999945,-0.04069759749999946
250992.0,-1.7545077515,0.25742456249999995,11.699431516499999,0.16463516301137313,0.24756448241988369,-0.7883564964795787,11.833058043664172,0.8425549687689001,0.12091599449999979,-0.09218251000000005,-0.07305954250000113
251002.0,-1.5881869675,0.2670350795,11.635982490999998,0.1140066520695216,0.22571470551416664,-0.8176675559375715,11.746903170975699,0.8558766716264495,0.16632078400000005,0.00961051700000004,-0.06344902550000064
251012.0,-1.5211094815,0.317343194,11.510359304499998,0.08895943197415099,0.18414619871941773,-0.8392502974677334,11.614768705238042,0.8638082338341386,0.06707748600000007,0.0503081145,-0.12562318650000037
251022.0,-1.470801367,0.39148146799999994,11.489961472500001,0.09722007532384014,0.1327183269801528,-0.8477779761929777,11.59032911700487,0.8635933037490766,0.050308114499999945,0.07413827399999995,-0.020397831999996896
251032.0,-1.4325554319999998,0.42864867149999997,11.5138896985,0.12706346020369116,0.08928580854427393,-0.846444544644454,11.610581843239203,0.8605727428199761,0.038245935000000175,0.03716720350000002,0.023928225999998887
251042.0,-1.3391961239999999,0.49690295549999997,11.4528923355,0.1513113195016484,0.04691794095211157,-0.8333877365102844,11.541624740662638,0.8483109854046751,0.09335930799999992,0.068254284,-0.06099736300000025
251052.0,-1.212298073,0.5663340375,11.299614395999999,0.15770620588095563,0.007747516549602829,-0.8094069125878822,11.378562578732033,0.8246640658662777,0.12689805099999996,0.06943108200000003,-0.15327793950000057
251062.0,-1.0698074485,0.610562029,11.103285263,0.1467821900927231,-0.008506734774220362,-0.7792964923324761,11.171401774158678,0.7930450168979288,0.14249062449999994,0.04422799150000001,-0.196329132999999
251072.0,-0.8985833395,0.609385231,10.9082309945,0.12146793462179736,-0.004775220833456485,-0.7465209543092747,10.962130532298834,0.7563536190817914,0.17122410899999996,-0.0011767980000000344,-0.19505426849999985
251082.0,-0.7442266685,0.641747176,10.690327231499998,0.08416326718967056,0.016008159899291993,-0.7145465224127385,10.735399810373202,0.7196641226430142,0.15435667100000006,0.032361945,-0.21790376300000247
251092.0,-0.5969307855,0.6716574584999999,10.628055004,0.04152836422195308,0.053845152753277066,-0.6908309885366395,10.665974089237503,0.6941695471802876,0.14729588299999996,0.02991028249999994,-0.06227222749999761
251102.0,-0.4676791385,0.6811699089999999,10.624524609999998,-0.002436479635784084,0.09674709109654966,-0.6748437725883715,10.656605435597715,0.6817477931537185,0.12925164700000003,0.009512450499999936,-0.0035303940000019907
251112.0,-0.3311705705,0.699214145,10.663947343,-0.034412656861572195,0.1287215229930858,-0.6681818508335091,10.691975837122442,0.6813372492512247,0.136508568,0.018044236000000158,0.0394227330000021
251122.0,-0.1205237285,0.773352419,10.698662883999999,-0.053864351375049,0.16336281798666924,-0.6665831292386823,10.727254422198808,0.688419818740886,0.210646842,0.07413827399999995,0.03471554099999885
251132.0,0.0075511204999999994,0.920648302,10.744165739999998,-0.06292435552215156,0.1902740497231698,-0.6567237642941663,10.78354059499875,0.6866220147247197,0.128074849,0.14729588300000007,0.045502855999998815
251142.0,0.0722750105,1.1025616594999998,10.723865974499999,-0.06665412413366345,0.21212382662888682,-0.6303448579795241,10.78063853995583,0.6684114975589022,0.06472389,0.18191335749999982,-0.020299765499999012
251152.0,0.15121854299999998,1.2510343404999997,10.655611690499999,-0.07438244206149433,0.2142566189748239,-0.5874429196362515,10.729865538187212,0.6297045579415143,0.07894353249999998,0.14847268099999988,-0.068254284
251162.0,0.344017282,1.2833962854999998,10.626878205999999,-0.08610581864714026,0.2081270226418198,-0.5317529538636163,10.70962157693294,0.5774878990085628,0.192798739,0.032361945000000114,-0.028733484500000017
251172.0,0.4696404685,1.334881198,10.656788488499998,-0.09729861514017987,0.2073276618444064,-0.4731308349476308,10.750330733100862,0.5256468080872437,0.12562318650000004,0.05148491250000009,0.029910282499999497
251182.0,0.5295591,1.3360579959999999,10.7466174025,-0.10635687395803045,0.22118383077598938,-0.423835755554303,10.84229078215412,0.4897660863321926,0.05991863149999993,0.0011767979999999234,0.0898289140000017
251192.0,0.55701772,1.2737857685,10.786040135499999,-0.12207879985999538,0.2251806347630564,-0.3833336449325226,10.875268306071533,0.46103604521208874,0.0274586200000001,-0.06227222749999983,0.039422732999998544
251202.0,0.6096794305,1.2307345749999998,10.831542991500001,-0.13913241198123197,0.2057289402495796,-0.3518915384578447,10.918275513046373,0.43070857869115997,0.0526617104999999,-0.043051193500000196,0.04550285600000237
