timestamp,ax,ay,az,gx,gy,gz,acc_mag,gyro_mag,dax,day,daz
85342.0,-0.6043838395,1.6593832464999998,8.9153235815,0.05428148506627564,0.08328187591741343,-0.036205110003370365,9.088554733678155,0.105797733754934,0.0,0.0,0.0
85352.0,-0.063350959,1.7947150164999999,8.715365987999999,0.07666533272310291,0.034252086570388716,0.017086773377024488,8.898461644534072,0.08568976893659634,0.5410328805,0.13533177000000007,-0.19995759350000064
85362.0,0.30773267699999995,1.9910441494999997,8.775284619499999,0.12116424733195034,0.052105059489038714,0.07757464926339197,9.003586860745278,0.15301483021005702,0.37108363599999994,0.19632913299999988,0.05991863150000043
85372.0,0.42747187349999993,2.089208716,8.701048279,0.1643314757215261,0.07848571113293301,0.12713676403227495,8.958558277710361,0.22210042218207304,0.11973919649999998,0.09816456650000016,-0.07423634049999883
85382.0,0.6800911774999999,2.186098418,8.656722220999999,0.19737230379103077,0.10459932740127216,0.18255969442935485,8.954350334583218,0.2884872399720946,0.252619304,0.09688970199999991,-0.04432605800000111
85392.0,0.8955432779999999,2.1299063135,8.722622909,0.2234859200593699,0.12218526494436703,0.22785971516486772,9.023449954406006,0.3417531934442206,0.21545210049999997,-0.056192104500000006,0.06590068800000104
85402.0,1.150516178,2.1035264249999996,8.854228152,0.26958355626304414,0.11019485298316599,0.258235425466577,9.173105638996114,0.38923480625107965,0.25497290000000006,-0.02637988850000017,0.1316052429999992
85412.0,1.4199048534999998,2.125101055,9.0410448345,0.33593224777760855,0.07821867575737788,0.2803522377478491,9.39535395748314,0.4444839857007009,0.2693886754999999,0.021574630000000372,0.18681668249999994
85422.0,1.7610782069999997,2.285537849,9.209817281,0.4001498922754879,0.02918888641035317,0.30726521481360175,9.651207906774577,0.5053551618539281,0.3411733534999999,0.16043679399999977,0.16877244650000023
85432.0,2.165700586,2.5943492575,9.384571784,0.45397584640699307,-0.01957212223186441,0.35522860798765793,9.974522277640192,0.576770752571985,0.4046223790000001,0.3088114085,0.17475450300000084
85442.0,2.5655177065,2.878055642,9.578547321,0.49607667862360033,-0.051015974035794255,0.4338347468389785,10.325388814056803,0.660989627941229,0.3998171205000003,0.2837063845000003,0.19397553700000003
85452.0,2.918655173,3.0432976944999997,9.811945590999999,0.5245883772841796,-0.05341405642803446,0.5422842705701502,10.67962944848617,0.7563849926548952,0.3531374664999998,0.16524205249999957,0.23339826999999858
85462.0,3.0623225954999995,3.1869651169999997,10.1782239685,0.5544317621640307,-0.03529404813382934,0.6659233947814285,11.09643228649788,0.8672336573537766,0.14366742249999964,0.14366742250000009,0.3662783775000005
85472.0,3.0096608849999997,3.2456088839999997,10.631977663999999,0.5842751470438817,-0.028899161754522108,0.8119446213202821,11.516552640369147,1.0007330698513965,-0.05266171049999979,0.05864376699999996,0.45375369549999967
85482.0,2.7834214695,3.2168753994999997,11.129959351,0.5994647475239884,-0.03369532653900253,0.9691568990229232,11.915188524219587,1.140069495021377,-0.22623941549999982,-0.028733484500000017,0.4979816870000011
85492.0,2.365560113,3.0695795164999997,11.741698177999998,0.5989306767728781,-0.05900958200992828,1.1263709220548164,12.364694462847897,1.2770714703567776,-0.4178613565,-0.14729588299999996,0.6117388269999982
85502.0,1.8137399175,2.8828609005,12.3976649965,0.5834757862464683,-0.12455891272707932,1.2694599954503196,12.857007304400426,1.4026715923281587,-0.5518201954999999,-0.18671861599999984,0.6559668185000014
85512.0,1.1876833814999999,2.563262177,13.0441193645,0.5517666443962354,-0.23061035406601074,1.3768448683377748,13.346533437490573,1.501109375341716,-0.6260565360000001,-0.31959872349999996,0.6464543680000006
85522.0,0.6094832975,2.2088498459999997,13.5313137365,0.4838192312868441,-0.3598450038591829,1.4413295482112092,13.723954931713354,1.562370104012534,-0.5782000839999999,-0.35441233100000025,0.4871943719999994
85532.0,0.10542148749999998,1.8653228964999997,13.861699774999998,0.3759020329775307,-0.47469115929891376,1.4511889131557252,13.987039138090264,1.5724450059634143,-0.5040618099999999,-0.34352694949999996,0.3303860384999986
85542.0,-0.355392996,1.5875985685,14.1106906185,0.23867377521022456,-0.5434379332057184,1.4074876140150392,14.204167104316008,1.527518033224404,-0.4608144835,-0.2777243279999997,0.24899084350000145
85552.0,-0.7408924075,1.3637127489999998,14.223270960499999,0.08465894069723695,-0.5578264275591597,1.3171580985780726,14.307692715356968,1.4329141342638771,-0.38549941149999994,-0.2238858195000002,0.11258034199999933
85562.0,-0.9563445079999999,1.269176643,14.2375886695,-0.07708421174358156,-0.5231868778948282,1.190853856598999,14.32600206934905,1.3029963133785822,-0.21545210049999997,-0.09453610599999984,0.014317709000000178
85572.0,-1.0749069064999999,1.302715386,14.183750160999999,-0.2297673600372975,-0.44591242526277924,1.053892634207248,14.283951164304295,1.167184910448441,-0.11856239849999994,0.03353874300000004,-0.05383850850000016
85582.0,-1.0701016479999998,1.4055871445,14.190909015499999,-0.3720588179646392,-0.33399842296639887,0.9294541491985563,14.30044374989934,1.055399320651524,0.00480525850000002,0.10287175850000008,0.007158854500000089
85592.0,-1.0425449615,1.4977696544999999,14.235235073499998,-0.516481322908666,-0.19330568663388395,0.8335273628504438,14.351729217501791,0.999443800330413,0.027556686499999872,0.09218250999999977,0.044326057999999335
85602.0,-1.0808889629999998,1.5756344555,14.376450833499998,-0.6688974358268268,-0.06433807221626697,0.7666463459140213,14.502871558961584,1.0194654417367617,-0.038344001499999836,0.07786480100000004,0.1412157599999997
85612.0,-1.269961175,1.627119368,14.563267515999998,-0.8194477917746056,0.013201670462085108,0.7258771999166856,14.708809590388642,1.0947907000455177,-0.18907221200000013,0.05148491250000009,0.18681668249999994
85622.0,-1.5489603674999999,1.627119368,14.669767734999999,-0.9540126771033685,0.028124235566636624,0.6989642228509331,14.84078438144876,1.1829971029236515,-0.27899919249999994,0.0,0.10650021900000084
85632.0,-1.7428378379999998,1.627119368,14.5847440795,-1.0659266793997488,-0.024370032345596825,0.6672550810007001,14.778354476456286,1.2577849289341765,-0.19387747049999993,0.0,-0.0850236554999988
85642.0,-1.8290382915,1.6701705614999998,14.4196000935,-1.157322591009684,-0.1104374537491932,0.6286187273493017,14.630779802619534,1.3216480300088331,-0.08620045350000027,0.04305119349999975,-0.16514398600000035
85652.0,-1.8134457179999999,1.695373652,14.1310884505,-1.2271357610894573,-0.18877655722495867,0.5835857419893439,14.347492393721032,1.3718859584366196,0.015592573500000206,0.025203090500000247,-0.28851164299999965
85662.0,-1.7033170385,1.7659815319999999,13.7468639035,-1.2908210801654783,-0.23167675023897932,0.5398861881779099,13.964105660097275,1.4182278638449253,0.11012867949999983,0.07060787999999985,-0.3842245470000005
85672.0,-1.5680833349999999,1.870128155,13.325472152999998,-1.367828497421972,-0.21489017349329784,0.5028485561213383,13.547120460157089,1.4730883393119858,0.1352337035000002,0.1041466230000001,-0.42139175050000155
85682.0,-1.473547229,1.9837872284999998,12.790323262499998,-1.4602908052048755,-0.1400138032534891,0.47486918288261715,13.026861569975397,1.5419318537857032,0.09453610599999984,0.11365907349999982,-0.5351488905000004
85692.0,-1.4471673405,1.9874156889999999,12.2827310585,-1.5567499169748462,-0.024370032345596825,0.45115539433577023,12.52635608178746,1.6209890167166403,0.02637988849999995,0.003628460500000097,-0.507592203999998
85702.0,-1.5034575115,1.8186432424999999,11.841039542499999,-1.63375733423134,0.09340653090823253,0.4290385820544981,12.073858752669972,1.691733404547637,-0.05629017099999989,-0.1687724465,-0.44169151600000056
85712.0,-1.5501371654999998,1.6055447379999999,11.46397385,-1.6750588056505338,0.1919984350241402,0.40319200116171405,11.67918642590603,1.7335654562894067,-0.04667965399999985,-0.2130985045,-0.37706569249999866
85722.0,-1.6602658449999999,1.4607005174999999,11.151533981,-1.689182009957672,0.26740713068580724,0.37254751015519766,11.368677970955815,1.750323993902013,-0.11012867950000005,-0.1448442205,-0.3124398690000003
85732.0,-1.8637538324999998,1.2967333294999999,10.863022338,-1.691047766928054,0.3031130765231072,0.3352428427230708,11.097763287792796,1.7504021968646823,-0.20348798749999997,-0.16396718799999999,-0.28851164299999965
85742.0,-2.0134033115,1.133844873,10.543423614499998,-1.6929117785691838,0.3076422059320325,0.2896775319412549,10.793663817517375,1.7448515952368502,-0.14964947900000003,-0.16288845649999995,-0.3195987235000022
85752.0,-2.1032322254999998,0.9411442004999999,10.174693574500001,-1.7001077710751566,0.30098202950642217,0.23292116999565124,10.432340462978,1.7421850897043303,-0.08982891399999993,-0.1927006725,-0.3687300399999973
85762.0,-2.2396427269999997,0.781982271,9.767619533,-1.6945105001640106,0.27966457802256334,0.17776352964487446,10.051561428862952,1.7266088103095119,-0.1364105014999999,-0.15916192949999997,-0.40707404150000137
85772.0,-2.3162326635,0.677835648,9.316317499999998,-1.6707967116171638,0.2548826479734959,0.12340525009151106,9.623833263204954,1.6946255254594915,-0.07658993650000046,-0.104146623,-0.45130203300000105
85782.0,-2.3929206665,0.48866536949999995,8.905713064499999,-1.6286958794005566,0.24662374995305872,0.06878168049184454,9.23453238376028,1.6486978077223684,-0.07668800299999967,-0.1891702785,-0.4106044354999998
85792.0,-2.4791211200000003,0.3019467535,8.562186115,-1.5748699252690515,0.247156075374917,0.011224212419575533,8.91898225345684,1.5941854942434144,-0.0862004535000005,-0.18671861599999995,-0.3435269494999993
85802.0,-2.562869911,0.07560927149999999,8.2353304705,-1.52237740268607,0.253018636332366,-0.051127675107921884,8.625235469307006,1.5441066756227095,-0.08374879099999966,-0.226337482,-0.32685564450000015
85812.0,-2.6083727669999996,-0.1481784815,7.942111635499999,-1.4781437781235256,0.2679394561076655,-0.12094084518769507,8.360783610688136,1.5070923226462525,-0.0455028559999997,-0.22378775299999998,-0.29321883500000023
85822.0,-2.657406017,-0.279881791,7.653599992499999,-1.439507424472127,0.2844607428070438,-0.20034634483642907,8.106647482240557,1.4809585399996954,-0.04903325000000036,-0.1317033095,-0.28851164299999965
85832.0,-2.6741753884999997,-0.32303105099999996,7.405785946999999,-1.3982059530529334,0.300714994130867,-0.27575504049809607,7.880433272425569,1.456519906217521,-0.016769371499999686,-0.04314925999999997,-0.2478140455000002
85842.0,-2.6442651059999998,-0.3637286485,7.093346077999999,-1.3510419206762907,0.32309709645844226,-0.3463675713752827,7.578917802881016,1.4316691306530878,0.02991028249999994,-0.040697597500000016,-0.3124398690000003
85852.0,-2.6467167685,-0.41511549449999996,6.8563193475,-1.3006804451099943,0.3723939211810221,-0.4143149844846739,7.361151100292392,1.4149571580767546,-0.0024516625000003955,-0.051386845999999986,-0.23702673049999845
85862.0,-2.725660301,-0.4594415525,6.551038332999999,-1.2607106599100721,0.43128133014331077,-0.48599391153482907,7.1103033590027955,1.4183035767387728,-0.07894353249999986,-0.04432605800000006,-0.3052810145000011
85872.0,-2.784304068,-0.61389629,6.2673319485,-1.2321989612494928,0.48723833129150096,-0.5696632505461852,6.8853952356161745,1.442300832214591,-0.05864376699999996,-0.1544547375,-0.2837063844999994
85882.0,-2.8095071585,-0.789827591,6.018341105,-1.1932955722225391,0.5397325992037344,-0.6714525978517465,6.688616280913432,1.4717724662769702,-0.025203090500000247,-0.17593130099999998,-0.24899084349999967
85892.0,-2.7807736739999998,-0.8951510119999999,5.850745456499999,-1.1280115315516912,0.570642380256554,-0.7825672393507135,6.539512210941384,1.4867596394721827,0.02873348450000046,-0.10532342099999992,-0.16759564850000075
85902.0,-2.6789806469999995,-0.950264385,5.624506041,-1.0358162591443427,0.5730404626487942,-0.8848889120781331,6.3019844425105855,1.4779442077627105,0.10179302700000026,-0.05511337300000008,-0.22623941549999937
85912.0,-2.4922620309999997,-0.9550696435,5.486820675,-0.9286984216324428,0.5687766232861722,-0.9666924941191073,6.101534985125212,1.4561874823406602,0.18671861599999984,-0.00480525850000002,-0.13768536600000036
85922.0,-2.2564120985,-0.8964258765,5.3863025124999995,-0.8109218583786134,0.5727734272732391,-1.0250475776595376,5.908234056507898,1.4270200404522153,0.23584993249999986,0.05864376699999996,-0.10051816250000023
85932.0,-2.0612597635,-0.8796565049999999,5.394638165,-0.701138903098918,0.5946232041789561,-1.055425033290499,5.841635756420239,1.3996765759571221,0.19515233499999995,0.01676937150000013,0.008335652500000457
85942.0,-1.9056282279999999,-0.856905077,5.4353357625,-0.5969532187303686,0.6191380988524684,-1.0692812022220821,5.823107426919948,1.3722417499218924,0.15563153549999997,0.022751427999999962,0.04069759750000035
85952.0,-1.7548019509999997,-0.8257199299999999,5.533500329,-0.5162142875331108,0.6375233971929767,-1.0746096924284207,5.8635116765532,1.3519242817861126,0.15082627700000018,0.03118514700000008,0.0981645664999995
85962.0,-1.6506553279999998,-0.7730582195,5.623329243,-0.4456017566559242,0.654044683892355,-1.0770077748206608,5.911354649974086,1.33651828310983,0.10414662299999988,0.0526617104999999,0.08982891399999993
85972.0,-1.5968168194999999,-0.7180429129999999,5.6891318645,-0.37339050418391084,0.6633699780857607,-1.0727439354580388,5.952447475754563,1.3153933812750536,0.05383850849999994,0.05501530650000008,0.06580262150000049
85982.0,-1.6338859565,-0.7479531955,5.7944552855,-0.29504965537889344,0.6604395702716623,-1.0644832921083496,6.066690148438888,1.2869962720605106,-0.03706913700000003,-0.02991028250000005,0.10532342099999958
85992.0,-1.6542837885,-0.8532766165,5.889089458,-0.21138031636753724,0.6258000206073308,-1.065549688281318,6.176253757860531,1.2536759717471615,-0.020397832000000005,-0.10532342100000003,0.09463417250000017
86002.0,-1.639868013,-0.9538928454999999,6.008730588,-0.12051673017946045,0.5663785408939318,-1.0866001043896216,6.301104818991942,1.2312630590973745,0.014415775499999839,-0.10061622899999989,0.11964112999999976
86012.0,-1.614762989,-0.9801746674999999,6.151221212499999,-0.025124014582458373,0.49789705703343035,-1.1257705287921305,6.434727989166513,1.2312156508947583,0.025105024000000142,-0.026281822000000066,0.14249062449999972
86022.0,-1.5069879055,-0.8951510119999999,6.2530142395,0.05934468522631119,0.433679412535551,-1.1649409531946393,6.49403533721504,1.2444625542585945,0.10777508349999998,0.08502365550000002,0.10179302700000026
86032.0,-1.3227209519999998,-0.812579019,6.3379398285,0.11103784701187924,0.3835849723448097,-1.1955836988719037,6.525285943823872,1.260510696299728,0.1842669535000001,0.08257199299999995,0.08492558900000002
86042.0,-1.0856942215,-0.7491299935,6.4038405165,0.12596041211643075,0.3630668816583644,-1.213968997212412,6.538279670565246,1.2733437525548938,0.23702673049999978,0.06344902549999998,0.06590068800000015
86052.0,-0.852197885,-0.716866115,6.3499039415,0.11663337259377306,0.3590700776712974,-1.2200985935454158,6.446814587710034,1.277174710935419,0.2334963365,0.03226387850000001,-0.05393657499999982
86062.0,-0.5888893325,-0.7024503394999999,6.3631429189999995,0.12063192191009207,0.3566719952790572,-1.2171664404020655,6.4288268706674465,1.274072649593068,0.26330855250000007,0.014415775500000061,0.013238977499999471
86072.0,-0.30989014000000004,-0.716866115,6.269685544499999,0.1440804204106359,0.3393513477822655,-1.2035773068460378,6.318139421745666,1.258775928567951,0.27899919249999994,-0.014415775500000061,-0.09345737450000069
86082.0,-0.029812216,-0.7575637125,6.184759955499999,0.1797863662479359,0.3055111589153474,-1.1873230555222145,6.2310550674725995,1.2391110700357104,0.28007792400000003,-0.040697597500000016,-0.08492558900000002
86092.0,0.23477120099999998,-0.8173842774999999,6.0159875089999995,0.24133889297801991,0.2666077698883938,-1.1740009573417416,6.075799559100613,1.227844620490738,0.264583417,-0.05982056499999988,-0.16877244649999934
86102.0,0.5747677565,-0.8976026745,5.891443053999999,0.3391296909672622,0.22450693767178662,-1.1660056040383557,5.98708190972083,1.234901364889992,0.3399965555,-0.08021839700000011,-0.12454445500000055
86112.0,0.9374176734999999,-0.940653868,5.853099052499999,0.47502626251529667,0.18693523486410465,-1.1622758354268439,6.0018622203737655,1.269440762591984,0.36264991699999993,-0.04305119349999997,-0.038344001499999614
86122.0,1.2810426894999998,-0.9083899894999999,5.970484653,0.6301074932012528,0.15975696775204895,-1.15668030984495,6.173567018916514,1.3268259422082105,0.34362501599999984,0.03226387850000001,0.11738560050000046
86132.0,1.6317284935,-0.878479707,6.269685544499999,0.7854557592627641,0.13151055913777274,-1.1420247801159535,6.537830014540209,1.3922845884813444,0.35068580400000027,0.02991028249999994,0.29920089149999907
86142.0,2.00644059,-0.8102254229999999,6.656361754,0.9112259304907275,0.11072717840502425,-1.1079175558734804,6.999244307594145,1.4387753525303721,0.3747120964999999,0.06825428400000011,0.3866762095000009
86152.0,2.3572244605,-0.6976450809999999,7.1089386515,0.9898320693420481,0.10166717425792168,-1.057556080307184,7.521982755032988,1.4520773405071257,0.35078387049999993,0.112580342,0.4525768975000002
86162.0,2.6912389594999997,-0.5635881755,7.508755772,1.0199424895974543,0.1048646174475753,-0.9864112240081393,7.996362423767283,1.4227741819866973,0.3340144989999998,0.13405690549999993,0.39981712049999985
86172.0,2.9342477464999996,-0.37569276149999997,7.784028437499999,1.0039535283199343,0.10886142143464232,-0.8942142062715387,8.327187616758284,1.3488485989171113,0.24300878699999995,0.18789541399999998,0.2752726654999993
86182.0,3.1281252169999996,-0.2295736765,7.975552312,0.965849500090394,0.11525630781394954,-0.7846982863673986,8.570140379691663,1.2497602465848,0.19387747049999993,0.14611908499999998,0.19152387450000052
86192.0,3.209520412,-0.16612465099999998,8.2006149295,0.9378718721809249,0.11685677473802834,-0.6685204447083961,8.807877377475961,1.1576608913768485,0.08139519500000025,0.0634490255,0.22506261750000078
86202.0,3.1903974445,-0.09669356900000001,8.2773029325,0.9346744289912713,0.11685677473802834,-0.5563394070364606,8.871399513973609,1.0939768415437385,-0.019122967499999977,0.06943108199999998,0.07668800299999923
86212.0,3.125771621,-0.164947853,8.4628447505,0.9557248450995749,0.10220124500903195,-0.45561645590386773,9.023158941962825,1.0636923563288418,-0.06462582349999968,-0.068254284,0.1855418180000008
86222.0,3.0538888765,-0.2858638475,8.736940618,1.0148792894374188,0.0659612284206217,-0.3663515913106178,9.259702304705922,1.080992296105564,-0.07188274450000032,-0.12091599449999998,0.2740958674999998
86232.0,3.0156429415,-0.36490544649999995,9.118811569,1.104676479452527,0.002542944720155738,-0.29227632719747443,9.611450606772756,1.1426907027991102,-0.03824593499999995,-0.07904159899999996,0.3818709509999998
86242.0,2.9952451094999994,-0.362453784,9.497152126,1.178221163473064,-0.08458912752715717,-0.22379484333697292,9.96487654293348,1.2022664274011174,-0.02039783200000045,0.0024516624999999515,0.3783405569999996
86252.0,3.000050368,-0.28831551,9.741337711,1.203800708990293,-0.17678614526375763,-0.1569120810712982,10.196915633837234,1.2267888527814703,0.0048052585000006864,0.074138274,0.24418558500000032
86262.0,3.0491816844999997,-0.196133,9.789194163,1.192077332404647,-0.23967035821311333,-0.09589362509232445,10.25496462498494,1.219707274050757,0.04913131649999958,0.09218251,0.04785645199999955
86272.0,3.129302015,-0.05599597149999999,9.7820353085,1.1768877319245403,-0.25326123709839315,-0.034339353032988434,10.270534622240849,1.2043193841078128,0.08012033050000023,0.1401370285,-0.007158854500000089
86282.0,3.2143256705,0.060114764499999994,9.77723005,1.1798198850678907,-0.22714762083005402,0.02614677752412705,10.292216998857397,1.2017714661387418,0.08502365550000013,0.11611073599999999,-0.004805258499999354
86292.0,3.2885620110000002,0.14268675749999998,9.930507989499999,1.2011355912224975,-0.19170696503905715,0.08849866505162447,10.461834855343566,1.2195533127591531,0.07423634050000016,0.08257199299999998,0.1532779394999988
86302.0,3.2945440675,0.2121178395,10.260894028,1.233378803823841,-0.16692678031924166,0.15751247433398427,10.778912785823051,1.2545509169740745,0.005982056499999722,0.069431082,0.33038603850000037
86312.0,3.2765978979999995,0.321069721,10.620013551,1.2600247455140383,-0.15919846239141078,0.2339875661686198,11.118627045384006,1.2914165442865524,-0.017946169500000497,0.10895188149999999,0.3591195230000004
86322.0,3.185592186,0.365395779,11.001884502,1.265353235720377,-0.16825846653851334,0.31286074039549555,11.459623652029897,1.3142722570269592,-0.0910057119999994,0.044326058,0.3818709509999998
86332.0,3.0910560799999995,0.39883645549999996,11.387285847000001,1.2568273023243848,-0.19277336121202568,0.38986815765198934,11.806099151253445,1.3299524867497818,-0.09453610600000051,0.03344067649999999,0.3854013450000018
86342.0,3.0083860204999997,0.4982758865,11.6770723545,1.2387072940301795,-0.23061035406601074,0.4618123747484476,12.068665381045054,1.3419566182097025,-0.08267005949999984,0.09943943100000002,0.2897865074999988
86352.0,2.9269908255,0.646650501,11.837411082,1.2131277485129506,-0.2759103748015236,0.5257647292000238,12.211049639046642,1.3506420767938456,-0.08139519499999981,0.1483746145,0.16033872749999922
86362.0,2.88511643,0.9088803219999999,11.9679375935,1.1854154106497847,-0.3078848066980597,0.5923804560901433,12.344289793110228,1.3604842353952749,-0.04187439549999983,0.2622298209999999,0.13052651150000116
86372.0,2.8839396319999997,1.1446321879999999,12.112781814,1.15663667661365,-0.32547248957040653,0.6576627514317394,12.503870357629078,1.3697667822574007,-0.0011767980000003675,0.23575186599999998,0.14484422049999957
86382.0,2.861188204,1.364889547,12.196530605,1.1078739226421805,-0.32067632478592617,0.7290746431063393,12.601772899593147,1.364466111330515,-0.02275142799999985,0.2202573590000001,0.08374879099999966
86392.0,2.8420652365,1.5289548014999998,12.214574841000001,1.029534819166415,-0.2889671829356932,0.8151420645099356,12.63371980613556,1.3445819283417926,-0.019122967499999977,0.16406525449999987,0.01804423600000149
86402.0,2.685256903,1.573182793,12.189371750499998,0.9277454718608539,-0.23860570736939676,0.9137339686258433,12.580393173791819,1.3238406662315154,-0.1568083334999999,0.04422799150000012,-0.025203090500003356
86412.0,2.4266555425,1.5145390259999998,12.155833007499998,0.8390146780187141,-0.19437208280685248,1.014456919758436,12.487864576838165,1.3307324969922747,-0.25860136050000015,-0.05864376700000018,-0.03353874299999937
86422.0,2.042332929,1.3397845229999998,12.129551185499999,0.7883861670768626,-0.18051591387526952,1.0978592233942372,12.373041595445013,1.3636105081701917,-0.38432261349999974,-0.17475450299999995,-0.02628182199999962
86432.0,1.705964834,1.2524072714999999,12.098366038499998,0.7857210493090673,-0.20955993795770717,1.1503517459772188,12.282072332879368,1.4087519563063668,-0.3363680950000001,-0.08737725149999997,-0.031185147000000413
86442.0,1.4450098775,1.198568763,12.149850951,0.8078378615903393,-0.2473986761409442,1.1682047188958686,12.294043222521529,1.4417039851598246,-0.2609549565,-0.05383850849999994,0.0514849125000012
86452.0,1.233088171,1.1817993915,12.157107871999997,0.8142327479696466,-0.280706539586004,1.1658066365036284,12.276499014403667,1.449439975627985,-0.21192170650000008,-0.016769371499999908,0.007256920999997973
86462.0,1.0355822399999999,1.270353441,12.228892550000001,0.7835900022923822,-0.2836369474001025,1.153016863745014,12.338234940229883,1.4226422943605368,-0.19750593100000002,0.0885540494999999,0.07178467800000377
86472.0,0.757857912,1.454718461,12.252820776,0.7161749146048492,-0.2596561234777004,1.1506187813527737,12.362126491196102,1.3799461550257937,-0.2777243279999999,0.18436502,0.023928225999998887
86482.0,0.5327952945,1.5720059949999998,12.233697808499999,0.6319732501716347,-0.22021866369963652,1.1679376835203135,12.345786153334059,1.346092449039422,-0.2250626175,0.11728753399999992,-0.01912296750000131
86492.0,0.2970434285,1.5432725105,12.11513541,0.5435077463757981,-0.15706741537472568,1.1881904841604556,12.216645646113989,1.3160043578926528,-0.23575186599999998,-0.028733484499999795,-0.11856239849999817
86502.0,0.004903325,1.499044519,12.031386619,0.4707624231526745,-0.09711361023946848,1.1991144999486882,12.124414315272809,1.2918683742291681,-0.29214010349999997,-0.04422799150000012,-0.08374879100000143
86512.0,-0.25124637299999997,1.3936230314999998,12.0373686755,0.42279902997861835,-0.054478707271751005,1.196716417556448,12.120377655988344,1.2703767682644391,-0.256149698,-0.10542148750000013,0.00598205650000061
86522.0,-0.4967068225,1.2775122954999998,12.1283743875,0.39295564509876735,-0.04275533068610509,1.169271115068837,12.205581535348395,1.2342759407245156,-0.2454604495,-0.11611073599999999,0.0910057119999994
86532.0,-0.7552101164999999,1.283494352,12.309110946999999,0.3737709859608457,-0.062474060575137026,1.1261038866792614,12.398867382839251,1.188157279902382,-0.25850329399999994,0.005982056500000166,0.18073655949999967
86542.0,-0.898877539,1.3733232659999999,12.4767065955,0.3473903343169514,-0.10430785741618911,1.077608168083347,12.58420458722953,1.1370134288633298,-0.14366742250000009,0.08982891399999993,0.16759564850000075
86552.0,-0.943203597,1.521795947,12.567712307499999,0.29063397237134775,-0.13814804628310717,1.032575182723389,12.694600764647399,1.0815565156589966,-0.044326058,0.1484726810000001,0.0910057119999994
86562.0,-0.9635033625,1.6498707959999999,12.621550816,0.2024355039510663,-0.14960613282244994,0.9942058644475459,12.765342039049042,1.0255766325048083,-0.02029976550000001,0.12807484899999988,0.05383850850000016
86572.0,-1.0401913655,1.744406902,12.596445791999999,0.09771574883140653,-0.14827444660317826,0.9680922481792067,12.759130068597955,0.9842440144953039,-0.0766880029999999,0.09453610600000006,-0.025105024000000142
86582.0,-1.164637754,1.78873296,12.494652765,-0.012067206448288795,-0.13708339543939063,0.9529026476991,12.6756575536796,0.9627881027352868,-0.1244463885,0.044326058,-0.10179302699999937
86592.0,-1.408823339,1.776768847,12.3833472875,-0.10799399279640114,-0.1314878698574968,0.9382471179701036,12.589240675235914,0.9535509513282322,-0.2441855850000001,-0.011964112999999887,-0.1113054775000002
86602.0,-1.7345021854999998,1.776768847,12.1858413565,-0.16714843713424496,-0.14747508580576488,0.9118682116554614,12.436242798086555,0.9387178151060986,-0.3256788464999998,0.0,-0.19750593100000025
86612.0,-2.0278190869999997,1.698904046,12.0026531345,-0.18633309627216663,-0.19010824344423036,0.8649712146543738,12.290728516822725,0.9050062812889677,-0.2933169014999999,-0.07786480100000004,-0.18318822200000007
86622.0,-2.1522654754999997,1.5289548014999998,11.8422163405,-0.16901419410462687,-0.2473986761409442,0.7932922876042187,12.132931934090141,0.8479885354988371,-0.1244463885,-0.16994924450000015,-0.16043679399999888
86632.0,-2.191786275,1.3924462335,11.624312577499998,-0.13810441305180732,-0.2940286377664767,0.6984318974290749,11.910813426793794,0.7702809773566863,-0.039520799500000425,-0.13650856799999977,-0.21790376300000247
86642.0,-2.214537703,1.455895259,11.374144935999999,-0.12531289496394088,-0.3230744071781663,0.5891812675712377,11.678826193942678,0.6835312430859454,-0.02275142799999985,0.06344902549999998,-0.25016764149999915
86652.0,-2.166681251,1.6163320529999998,11.107207922999999,-0.16235227234976451,-0.3363965053586391,0.49538727356906254,11.431408696820531,0.6204268046827331,0.047856451999999994,0.16043679399999977,-0.2669370129999997
