timestamp,ax,ay,az,gx,gy,gz,acc_mag,gyro_mag,dax,day,daz
197932.0,1.201118492,0.07786480099999998,10.897443679499998,-0.4516929557453845,-0.08125031266809203,-0.37613939775580196,10.963714120084196,0.5933877198954846,0.0,0.0,0.0
197942.0,1.5949535559999999,0.19162194099999996,10.902248938,-0.4218495708655335,-0.1465343533389399,-0.370276836798353,11.019964960025588,0.5801157755287217,0.3938350639999999,0.11375713999999998,0.0048052585000011305
197952.0,1.5889714995,0.329307307,10.8160484845,-0.35763192636765406,-0.18277262459809818,-0.35375555009897464,10.937101012047096,0.5352096937516589,-0.005982056499999944,0.13768536600000003,-0.08620045350000005
197962.0,1.5470971040000001,0.6811699089999999,10.582552148,-0.30540469383097574,-0.23686386877590646,-0.3153862318231313,10.716711802566666,0.49884365744096193,-0.04187439549999983,0.35186260199999986,-0.2334963365
197972.0,1.5913250954999998,0.9194715039999999,10.3204203935,-0.24545088869571854,-0.2800310971654822,-0.23331561440660198,10.482786867279463,0.4394311437155449,0.044227991499999675,0.23830159500000003,-0.26213175450000037
197982.0,1.6499688625,0.9482049884999999,10.219902231,-0.18016859335412266,-0.27656836392952544,-0.13445667491513916,10.39557076637135,0.35641181151456397,0.05864376700000018,0.028733484500000017,-0.10051816249999845
197992.0,1.5984839499999999,0.7650167665,10.1348785755,-0.1401988081542005,-0.24672323372042243,-0.05371948904713347,10.288642540761275,0.2888145484022673,-0.05148491250000009,-0.18318822199999996,-0.08502365550000057
198002.0,1.5183636194999999,0.565059173,10.197150803,-0.14312921596829897,-0.22833793537991415,-0.01934522942910515,10.325047430841959,0.2701822035200071,-0.0801203305,-0.19995759349999997,0.06227222749999939
198012.0,1.4369684244999998,0.34244821799999997,10.155178341,-0.17990155797856752,-0.25258579467787134,-0.0345330845799598,10.262056137662514,0.3120203329380544,-0.08139519500000003,-0.222610955,-0.04197246200000038
198022.0,1.477666022,0.30175062049999996,10.181558229499998,-0.19109260914235515,-0.31333896061054195,-0.06730862260316132,10.292651664670508,0.37313287202022616,0.04069759750000013,-0.040697597500000016,0.026379888499999282
198032.0,1.5482739019999998,0.2705654735,10.207938118,-0.15485433788319689,-0.3732927657457992,-0.11420561960424895,10.328231134709466,0.41996461573397087,0.07060787999999985,-0.03118514699999997,0.02637988850000106
198042.0,1.7349925179999999,0.42864867149999997,10.234219940000001,-0.0834424462085969,-0.4167270295109301,-0.14618179683003707,10.389090263415191,0.44943651017550457,0.18671861600000006,0.15808319799999998,0.026281822000001398
198052.0,1.8379623429999998,0.9194715039999999,10.1792046335,-0.04773650037129691,-0.41566063333796155,-0.1347237102906943,10.384591488913848,0.43954864769340957,0.10296982499999996,0.4908228324999999,-0.055015306500001415
198062.0,1.9301448529999998,1.270157308,10.011608984999999,-0.06052627312991136,-0.38182044447104346,-0.06943966961984639,10.274778499274857,0.3927749346279307,0.09218251,0.35068580400000005,-0.16759564850000075
198072.0,2.0893067824999996,1.3970553589999999,9.920603273,-0.10369350151948711,-0.3178698353487192,0.029682814588667564,10.234028327485195,0.3356704395145616,0.15916192949999974,0.12689805099999996,-0.0910057119999994
198082.0,2.1575610665,1.2857498815,9.871471956499999,-0.1641796320766026,-0.22274240979802032,0.1240108793419531,10.185979633860446,0.30322900736341546,0.06825428400000044,-0.11130547749999997,-0.049131316500000466
198092.0,2.176684034,1.0116540139999999,9.9050106995,-0.2510464142776124,-0.12042073707060078,0.17437235490824948,10.191694372631192,0.3285288026863426,0.019122967499999977,-0.27409586750000003,0.03353874300000115
198102.0,2.1240223234999998,0.6955856845,9.9528671515,-0.34457511823348447,-0.028757790085110566,0.18503108065017884,10.20072913132269,0.39216772356068785,-0.052661710500000236,-0.31606832949999986,0.04785645199999955
198112.0,2.0067347895,0.4645410105,10.060642235,-0.3933378722049541,0.026933921016776493,0.15199025258067417,10.269338101673922,0.4225413053082454,-0.11728753399999992,-0.231044674,0.10777508349999998
198122.0,1.9276931904999999,0.19397553699999998,10.219902231,-0.37042169912626854,0.022403046278599216,0.08563981573685775,10.401924300669242,0.3808520837616565,-0.07904159899999996,-0.27056547350000004,0.15925999600000118
198132.0,1.8786599404999997,0.21074490849999997,10.2988457635,-0.3032736468142907,-0.043413319814106954,0.019558159597848457,10.47091212115067,0.30698883171245167,-0.04903325000000014,0.01676937149999999,0.07894353249999853
198142.0,1.9696656524999998,0.5723160939999999,10.252166109500001,-0.24651728486868707,-0.1438692355711446,-0.007621852843459237,10.455335404991562,0.2855297205609641,0.09100571200000007,0.3615711855,-0.046679653999998294
198152.0,2.1671715834999996,1.1935673715,10.047501323999999,-0.25904002225174644,-0.2094185662882956,0.0494015444776995,10.347633478164031,0.3367467618719038,0.1975059309999998,0.6212512775,-0.2046647855000021
198162.0,2.4090035725,1.6508514609999998,9.840384876,-0.3501706438153783,-0.19396367576188583,0.1884955592153876,10.26458880162343,0.44246125609940157,0.24183198900000047,0.4572840894999999,-0.20711644799999895
198172.0,2.5178573874999994,1.753821286,9.799687278499999,-0.48659954078527107,-0.1073639289364312,0.37075505701339945,10.268854156302432,0.6211001840525511,0.10885381499999935,0.10296982500000018,-0.04069759750000124
198182.0,2.3694827729999997,1.510812499,9.815279852,-0.6118373865913762,-0.0018448130193580064,0.5335646056271866,10.209638661174818,0.8118125272155737,-0.14837461449999978,-0.24300878699999995,0.015592573500001095
198192.0,2.1587378645,1.166010685,9.884710934,-0.6992364942142442,0.0565102705210724,0.6294913919752988,10.184657104384975,0.9425415100070611,-0.21074490849999972,-0.344801814,0.06943108199999948
198202.0,1.975647709,0.9038789305,9.924133667,-0.7250830751070282,0.05810899211589921,0.6590677414795948,10.159163845098751,0.9815764914821482,-0.18309015549999996,-0.26213175450000004,0.03942273300000032
198212.0,1.9110218854999999,0.726672765,9.836756415499998,-0.7061654513446617,0.032262411223115184,0.667595420204839,10.046981374130892,0.972313814017478,-0.06462582350000012,-0.1772061655,-0.08737725150000131
198222.0,1.8690494235,0.6668522,9.726627736,-0.671258866304775,0.003750712562535814,0.6771877497737998,9.926999784368638,0.9535123396585915,-0.04197246199999993,-0.05982056499999999,-0.11012867949999894
198232.0,1.8726778839999998,0.5997747139999999,9.555501693499998,-0.6416807714712273,-0.027691393912142034,0.7011685736962019,9.755729843494942,0.950872438611969,0.003628460499999875,-0.06707748600000007,-0.17112604250000096
198242.0,1.8283518259999998,0.5590771164999999,9.446549811999999,-0.6089052334480257,-0.07139094772357606,0.7376738803309153,9.638088035104717,0.9591793390496559,-0.044326058,-0.040697597500000016,-0.10895188149999946
198252.0,1.7529386875,0.573492892,9.344756785,-0.5814599309604148,-0.1292137058421482,0.7835062264882864,9.525028478178545,0.9842122941905702,-0.07541313849999987,0.014415775500000061,-0.10179302699999937
198262.0,1.6835076054999998,0.5519182619999999,9.2585563315,-0.5593431186791428,-0.20035856214119305,0.8415942746531617,9.426541092535702,1.0301889151830248,-0.06943108200000014,-0.02157463000000004,-0.08620045350000005
198272.0,1.5542559584999998,0.4429663805,9.068209255,-0.5316325261452287,-0.26511027739018267,0.8994170327717339,9.211099277027344,1.0778996246744716,-0.12925164700000003,-0.10895188149999996,-0.19034707650000016
198282.0,1.4153937945000001,0.39030467,8.867172929999999,-0.49459314875940513,-0.31547175295647906,0.9428512965368647,8.987904822563358,1.1104563823466564,-0.13886216399999962,-0.05266171049999996,-0.20103632500000046
198292.0,1.3028134525,0.3496070725,8.6109251655,-0.44982719877500255,-0.3485125810259837,0.9662997950374085,8.715938285864476,1.1214012759848708,-0.11258034200000022,-0.040697597500000016,-0.2562477644999994
198302.0,1.235834033,0.30410421649999997,8.348793410999999,-0.4063946803391237,-0.3567732243756729,0.9822870109856766,8.445242243486632,1.1213079602814418,-0.06697941949999997,-0.045502856000000036,-0.26213175450000037
198312.0,1.1807206599999998,0.24546044949999998,8.097350904999999,-0.35816425178951233,-0.33438937671884555,0.9996076584824684,8.186662554907455,1.1132445182524648,-0.05511337300000019,-0.058643766999999986,-0.25144250600000007
198322.0,1.134041006,0.2346731345,7.8664042975,-0.31499702339993657,-0.28189685413586413,1.0265188902189688,7.951190920552217,1.1101486355884513,-0.04667965399999985,-0.010787314999999992,-0.23094660749999907
198332.0,1.0813792955000001,0.2311427405,7.722736874999999,-0.28675236011491234,-0.20648815847419713,1.062224836056269,7.801504533595214,1.1194578500132575,-0.05266171049999979,-0.0035303939999999923,-0.14366742250000097
198342.0,0.9999841005,0.1424906245,7.6820392774999995,-0.2766277051240933,-0.13134475285883326,1.0950003740794705,7.748161023131613,1.1370136985014518,-0.08139519500000014,-0.088652116,-0.04069759749999946
198352.0,0.8407241044999999,0.07904159899999999,7.713126357999999,-0.27822642671892006,-0.08817926979850951,1.1232450373644947,7.759212769909982,1.160545105590878,-0.15925999600000007,-0.0634490255,0.031087080499999864
198362.0,0.6647928035,0.1077750835,7.691551727999999,-0.2747619481537113,-0.09164200303446626,1.1466935358650385,7.720980049495569,1.1827081001109514,-0.17593130099999987,0.028733484500000003,-0.021574629999999928
198372.0,0.522302179,0.11022674599999999,7.574264194,-0.25424385746726597,-0.12335114488469924,1.165879940332212,7.593051269564323,1.1996380617808204,-0.14249062450000005,0.002451662499999993,-0.11728753399999903
198382.0,0.38706847549999995,0.046777720499999995,7.4102970059999995,-0.20947790748286343,-0.14973179652859353,1.1882620426597876,7.420546602305899,1.215840156698688,-0.13523370350000002,-0.06344902549999999,-0.16396718800000087
198392.0,0.2817450545,-0.0789435325,7.2319140425,-0.15591898872691343,-0.1558596475323456,1.2026505370132288,7.237830688484463,1.2226901794619673,-0.10532342099999997,-0.12572125299999998,-0.17838296349999982
198402.0,0.147688149,-0.201036325,7.1169801045,-0.11914839204589689,-0.15079644737231007,1.1983884429798586,7.121350518067017,1.2137012680783201,-0.1340569055,-0.12209279249999999,-0.11493393800000007
198412.0,0.021966895999999996,-0.292042037,7.133749475999999,-0.09783094056203814,-0.1499970865748967,1.185596924891992,7.1397585871109985,1.1990454900568026,-0.125721253,-0.09100571199999999,0.016769371499999686
198422.0,-0.11209000949999999,-0.39373699749999996,7.173270275499999,-0.0818437246137701,-0.16864942029096008,1.1757393052767282,7.184942549443375,1.1905897430247478,-0.1340569055,-0.10169496049999999,0.03952079949999998
198432.0,-0.16720338249999997,-0.5159278565,7.1840575905,-0.06025923775435622,-0.21048496246126416,1.1589509832017948,7.20450012060884,1.1794500738146836,-0.05511337299999998,-0.12219085899999999,0.010787315000000852
198442.0,-0.2234935535,-0.6343921884999999,7.160031298,-0.02028945255443408,-0.2709710930183796,1.1277759121026718,7.191554143968148,1.1600497847314775,-0.05629017100000003,-0.11846433199999995,-0.024026292500000324
198452.0,-0.1803442935,-0.653515156,7.1206085649999995,0.024474752100716486,-0.33412408667254245,1.0808789151015843,7.152808711217648,1.131608213073911,0.043149259999999995,-0.019122967500000088,-0.03942273300000032
198462.0,-0.210254576,-0.6247816715,7.031956449,0.06231349028395355,-0.3722281149020827,1.024387843202284,7.062787737459194,1.091699223181712,-0.029910282499999996,0.028733484500000017,-0.08865211599999956
198472.0,-0.21152944049999997,-0.5074941374999999,6.9075100605,0.0884271065522927,-0.3674319501176022,0.9937450975250194,6.929357130333508,1.0631815037873096,-0.0012748644999999725,0.11728753400000003,-0.1244463885
198482.0,-0.20790097999999999,-0.3913834015,6.763842638,0.10388199707870249,-0.32000088236540436,0.9977419015120864,6.778345743327163,1.0529391891579736,0.003628460499999986,0.11611073599999994,-0.14366742250000009
198492.0,-0.24742177949999997,-0.351862602,6.772178290499999,0.12359898163848243,-0.24938835148821775,1.016926560650008,6.785825198601615,1.054329591672137,-0.03952079949999998,0.03952079949999998,0.008335652499999568
198502.0,-0.35637366099999995,-0.3709855695,6.853573485499999,0.1497125979068216,-0.19582943273226777,1.0409091299016622,6.872852537351604,1.0696984834096415,-0.10895188149999999,-0.019122967499999977,0.08139519499999981
198512.0,-0.39461959599999996,-0.4392398535,6.912315319,0.1854185437441216,-0.17477901662396414,1.058495067444757,6.937489412152784,1.0887330016221202,-0.03824593500000001,-0.068254284,0.05874183350000095
198522.0,-0.380301887,-0.6463563014999999,7.028426055,0.23578001931041798,-0.18170622842512965,1.050501459470623,7.0683222057534545,1.0918620275952522,0.014317708999999956,-0.2071164479999999,0.11611073599999955
198532.0,-0.4125657655,-0.788846926,7.200728895499999,0.31038935417467156,-0.22913729617732756,1.0206580745907718,7.25554867739242,1.0911408510874145,-0.03226387850000001,-0.14249062450000005,0.17230284049999955
198542.0,-0.4532633629999999,-0.812775152,7.308503979,0.4041850935060988,-0.30427895646343944,0.9748257284334009,7.367515289092077,1.0982879740645093,-0.040697597499999905,-0.023928225999999997,0.10777508350000087
198552.0,-0.497589421,-0.7601134414999999,7.3528300369999995,0.503841648465723,-0.3738268364969095,0.9289951276052817,7.408743296190623,1.1209972602679714,-0.04432605800000006,0.052661710500000014,0.044326057999999335
198562.0,-0.5610384464999999,-0.5829072759999999,7.308503979,0.5781839479544215,-0.39221213483741774,0.8986176719743205,7.353147315396565,1.1382621652196094,-0.06344902549999992,0.1772061655,-0.044326057999999335
198572.0,-0.6640082715,-0.47993745099999996,7.2905578095,0.6066956466150009,-0.3599706675653265,0.8855608638401509,7.3364487400345295,1.1321998642882514,-0.10296982500000007,0.10296982499999996,-0.017946169500000053
198582.0,-0.7741369509999999,-0.5099457999999999,7.2917346075,0.6005677956112487,-0.29761878003782904,0.8815640598530838,7.350423547255926,1.1074356897721926,-0.11012867949999994,-0.030008348999999934,0.0011767979999994793
198592.0,-0.8470984269999999,-0.6260565359999999,7.3276269465,0.5909754660422879,-0.24059538271667033,0.8613130045421937,7.402948007271638,1.0719133507154304,-0.07296147600000003,-0.11611073599999999,0.035892339000000106
198602.0,-0.8985833395,-0.7780596109999999,7.4641355145,0.59710331704604,-0.1992939112974765,0.8157476937603777,7.558184157264006,1.0303857210690592,-0.05148491250000009,-0.152003075,0.136508568
198612.0,-0.8674962589999999,-0.8893650885000001,7.5539644285,0.6216182117195524,-0.1750460519995193,0.747000919853573,7.655448948759631,0.9874516169028824,0.031087080500000086,-0.1113054775000002,0.08982891399999993
198622.0,-0.8160113465000001,-0.81395195,7.6807644129999995,0.6322769374614817,-0.15372860051566054,0.6769207143982447,7.766758285316517,0.9389506173615331,0.05148491249999987,0.07541313850000009,0.12679998449999985
198632.0,-0.857885742,-0.6440027055,7.816096182999999,0.6208188509221391,-0.1324111490318018,0.618033305435956,7.889364167848089,0.8859536808864789,-0.04187439549999994,0.16994924449999993,0.13533176999999963
198642.0,-0.9644840275000001,-0.490724766,7.963293999499999,0.6074950074124142,-0.11882201547577395,0.5767318340167622,8.036485025043042,0.8460428261979842,-0.10659828550000006,0.15327793950000007,0.1471978165000003
198652.0,-1.062648594,-0.42374534649999995,8.065087026499999,0.6098930898046545,-0.11269241914276988,0.5474207745587695,8.145821683417159,0.8272476453530958,-0.09816456649999983,0.06697941950000003,0.10179302699999937
198662.0,-1.1512026434999998,-0.457186023,8.1908082795,0.6495958396290215,-0.11855498010021882,0.5290337308890092,8.283937883491987,0.8461127150612034,-0.0885540494999999,-0.033440676500000044,0.1257212530000018
198672.0,-1.146397385,-0.4608144834999999,8.351147007,0.7236728490714168,-0.13054539206141988,0.5138458757381545,8.442051485572879,0.8970964696646189,0.004805258499999798,-0.0036284604999999304,0.16033872749999922
198682.0,-1.0973641349999999,-0.41776328999999995,8.5414940835,0.7828272934092606,-0.13667498839442394,0.4941271458491226,8.62182436551113,0.9357672039690665,0.04903325000000014,0.04305119349999997,0.19034707650000016
198692.0,-1.0243045925,-0.32793437599999997,8.7797956785,0.7822949679874024,-0.13054539206141988,0.46321736479630304,8.845425541452846,0.9184758262337186,0.0730595424999998,0.08982891399999998,0.23830159499999937
198702.0,-0.9668376234999999,-0.2764494635,8.9078705275,0.7258038960881019,-0.11802265467836055,0.419517810984869,8.964449599991497,0.8465907135845113,0.057466969000000145,0.05148491249999998,0.12807484900000077
198712.0,-0.9226096319999999,-0.1113054775,9.0502630855,0.6581235183542659,-0.0996356110086003,0.3728878493593365,9.097849161155874,0.7629542375476304,0.04422799150000001,0.165143986,0.14239255799999917
198722.0,-0.877106776,0.045600922499999995,9.077819772,0.6077620427879694,-0.07405606549137139,0.3387806251168633,9.120208745064561,0.6997366029045791,0.045502855999999925,0.1569064,0.027556686500000538
198732.0,-0.830427122,0.1077750835,9.104199660499999,0.5733877831699411,-0.02076418211097654,0.3230586992148984,9.142629607056437,0.65846155870005,0.04667965399999996,0.062174161,0.026379888499999282
198742.0,-0.8375859765,-0.013140911,9.144897258,0.5608650457868818,0.05677730589662753,0.3110682872536974,9.183184023580672,0.6438608090149214,-0.007158854499999978,-0.1209159945,0.04069759750000124
198752.0,-0.8902476869999999,-0.1352337035,9.220310396499999,0.5683245830099056,0.14177833112725538,0.2828236239686731,9.264175781286598,0.6504484061825244,-0.0526617104999999,-0.12209279249999999,0.07541313849999831
198762.0,-1.0051816249999999,-0.0669794195,9.517157692,0.5963039562486266,0.22384894854378473,0.24311912881505413,9.570327417401609,0.6817577801519488,-0.11493393799999996,0.068254284,0.296847295500001
198772.0,-1.0949124725,0.13170330949999998,9.814004987499999,0.5859122658822524,0.29179636165317596,0.22153638728489222,9.87577201938381,0.6910258105718976,-0.08973084750000004,0.19868272899999997,0.2968472954999992
198782.0,-1.236226299,0.329307307,10.085747258999998,0.5224939821817864,0.32590358589564916,0.2234021442552742,10.166562670696955,0.6550737567432221,-0.14131382650000002,0.19760399750000002,0.2717422714999991
198792.0,-1.3834241155,0.33881975749999993,10.3215971915,0.4489492981612494,0.3144454993563064,0.22713191286678608,10.419406398399095,0.5933130288704611,-0.14719781650000008,0.009512450499999936,0.23584993250000252
198802.0,-1.4840403444999999,0.07305954249999999,10.449672040499998,0.40072061494089006,0.256090415815876,0.20501510058551392,10.554778974230649,0.517871126613023,-0.10061622899999989,-0.2657602149999999,0.12807484899999722
198812.0,-1.5677891355,-0.1699492445,10.420938556,0.38793084218227564,0.18894236350389815,0.1442619346528433,10.539582814657576,0.4549736924619599,-0.0837487910000001,-0.243008787,-0.02873348449999824
198822.0,-1.5749479899999999,-0.313616667,10.2641302225,0.394591018607886,0.13911321335946003,0.060327305595184004,10.388993493571123,0.42272206223188585,-0.007158854499999867,-0.1436674225,-0.156808333499999
198832.0,-1.5689659335,-0.25487483349999995,10.0785884045,0.4129780622776463,0.11939622879968009,-0.016147786239451536,10.203164191002566,0.43019424725886335,0.005982056499999944,0.05874183350000006,-0.1855418180000008
198842.0,-1.5342503925,-0.08492558899999998,10.00082167,0.44308848253305244,0.15803258245107857,-0.08436223472439791,10.118180206820544,0.477931676202043,0.03471554099999996,0.16994924449999999,-0.07776673449999905
198852.0,-1.5259147399999997,0.07305954249999999,10.059465436999998,0.454012498321285,0.23983616449205278,-0.12912818470880047,10.174802129215935,0.5294552129466513,0.008335652500000235,0.1579851315,0.05864376699999774
198862.0,-1.6312381609999997,0.24663724749999996,10.248635715499999,0.4489492981612494,0.30725125217958577,-0.14751348304930875,10.38057329335809,0.563665709411829,-0.10532342100000003,0.17357770499999997,0.18917027850000068
198872.0,-1.7186154124999997,0.33401449899999996,10.493998098499999,0.4628054670928324,0.32963509983641304,-0.15604116177455304,10.639041343699457,0.5892342858177289,-0.08737725149999997,0.0873772515,0.2453623829999998
198882.0,-1.7737287855,0.25987622499999996,10.801632709,0.5043739738875813,0.29606020101579816,-0.17709157788285662,10.949379828874795,0.6110696974304202,-0.05511337300000019,-0.074138274,0.30763461050000096
198892.0,-1.7521541554999998,0.16887051299999997,11.078180239,0.5600656849894683,0.2187857483837492,-0.20960008053050302,11.217158233820493,0.6367675941479378,0.02157463000000015,-0.09100571199999999,0.2765475300000002
198902.0,-1.663600106,0.137685366,11.1428060625,0.6109594859776231,0.13298536235570796,-0.25596475210973235,11.267149130067487,0.6756290065039519,0.08855404949999968,-0.03118514699999997,0.06462582350000012
198912.0,-1.539055651,0.18201142399999998,11.1177010385,0.6256150157066195,0.08555429460351005,-0.3057921569249185,11.225199189181701,0.7015857242272622,0.12454445500000011,0.044326057999999974,-0.025105024000000142
198922.0,-1.4408910845,0.29331690149999995,10.9931565835,0.5877780228526344,0.08209156136755329,-0.34149810276221854,11.091063681696472,0.6847210985405002,0.09816456649999994,0.11130547749999997,-0.12454445500000055
198932.0,-1.420591319,0.41070250199999997,10.902248938,0.511568221064302,0.10607238528995537,-0.34736066371966745,11.002081082544763,0.6273857078574258,0.020299765500000122,0.11738560050000002,-0.09090764549999975
198942.0,-1.4648193105,0.49445129299999996,10.867533396999999,0.45614529066722204,0.14710856666284605,-0.33989938116739166,10.976951299357824,0.5875721622928177,-0.04422799150000012,0.08374879099999999,-0.03471554100000063
198952.0,-1.5139506269999998,0.42864867149999997,10.890186758499999,0.4497486589586628,0.18761067728462646,-0.34443025590556897,11.003270142079632,0.5967443536804412,-0.0491313164999998,-0.06580262149999999,0.022653361499999747
198962.0,-1.5270915379999999,0.29812215999999997,10.9129381865,0.4678686672528679,0.22225022694895794,-0.37587236238024685,11.023298292710951,0.6399814731514857,-0.013140911000000033,-0.1305265115,0.022751428000001184
198972.0,-1.515127425,0.228691078,10.981192470499998,0.48225716160630916,0.25342704337733263,-0.4291642457606417,11.087583090886389,0.6935266296796762,0.011964112999999887,-0.06943108199999998,0.06825428399999822
198982.0,-1.50434011,0.23231953849999998,11.023066865999999,0.48279123235741944,0.295793165640243,-0.4861876430818004,11.127668878378378,0.746297122576597,0.010787314999999964,0.003628460499999986,0.041874395500000716
198992.0,-1.4827654799999999,0.2801759905,11.1547701755,0.48545635012521476,0.325638295849346,-0.5338840008803015,11.256375514460975,0.7916693084846218,0.02157463000000015,0.04785645200000005,0.13170330950000064
199002.0,-1.4792350859999999,0.36873004,11.335604801499999,0.5033093230438648,0.3338971938697832,-0.5711886683124283,11.437658610827729,0.8313026558032365,0.0035303939999999923,0.08855404949999995,0.18083462599999933
199012.0,-1.4516783994999998,0.45620535799999995,11.482802618,0.5184971781947194,0.3264376566467594,-0.5959705983614957,11.583188225535768,0.8547407920441573,0.027556686500000094,0.08747531799999997,0.1471978165000003
199022.0,-1.4325554319999998,0.505238608,11.5952848935,0.5166314212243375,0.31311381313703474,-0.6138235712801458,11.694362440004834,0.8612361244354564,0.019122967499999977,0.04903325000000003,0.11248227550000145
199032.0,-1.4073523415,0.5686876335,11.627646838499999,0.5006442052760695,0.3043208443654873,-0.6335423011691778,11.726304500502295,0.8629204157757351,0.025203090499999803,0.06344902549999998,0.032361944999998116
199042.0,-1.376265261,0.6189957479999999,11.6862906055,0.4566776160890803,0.30352148356807385,-0.6527269603070993,11.783320835862657,0.8524859064734828,0.031087080500000086,0.050308114499999945,0.05864376700000129
199052.0,-1.376265261,0.6344902549999999,11.712670494000001,0.3852657244144803,0.2955278755939399,-0.6708469686013045,11.810306264163668,0.8281316676370015,0.0,0.01549450699999999,0.02637988850000106
199062.0,-1.3451781804999998,0.6010495785,11.7449343725,0.3130544719424669,0.2909970008557625,-0.6881658707688443,11.836986455489432,0.8100954404274024,0.031087080500000086,-0.03344067649999993,0.032263878499998455
199072.0,-1.351160237,0.5447594075,11.817993915,0.2509678744612726,0.2843368244301522,-0.7046871574682225,11.907450481655873,0.8002601412286355,-0.005982056500000166,-0.056290171,0.07305954250000113
199082.0,-1.4265733754999999,0.436984324,11.861045108499999,0.2213915249569767,0.25422640417474607,-0.7310660637828649,11.95451621609921,0.8050483597383258,-0.07541313849999987,-0.10777508349999998,0.04305119349999842
199092.0,-1.460014052,0.19044514299999998,11.8814429405,0.23258257612076436,0.20786173259551666,-0.7782300961595076,11.972326287438337,0.8384171021401088,-0.033440676500000155,-0.246539181,0.02039783200000045
199102.0,-1.4480499390000001,-0.007158854499999999,11.882619738499999,0.26668980036323753,0.16496153958149604,-0.8581696665593519,11.970528464726419,0.9136689421018261,0.011964112999999887,-0.1976039975,0.0011767979999994793
199112.0,-1.3702832044999997,0.039618866,11.954502482999999,0.29573382444567514,0.13325239773126307,-0.9586255823163894,12.032845687165237,1.0120166517868334,0.07776673450000038,0.0467777205,0.07188274449999987
199122.0,-1.214651669,0.2346731345,12.058649106,0.2936027774289901,0.11433302863964453,-1.0505555646774347,12.12194161092583,1.0967869559885615,0.15563153549999975,0.1950542685,0.10414662300000188
199132.0,-1.041073964,0.548387868,12.128080188,0.2499032236175561,0.12019558959709349,-1.1070448912474833,12.185027422982945,1.1412479976631684,0.17357770500000003,0.31371473349999995,0.06943108199999948
199142.0,-0.9440861954999998,0.733929686,12.245367722,0.15104428412609325,0.16416217878408262,-1.1320921113428537,12.303616629898917,1.1538614064414414,0.09698776850000013,0.18554181800000003,0.11728753399999903
199152.0,-0.8638677985,0.877499042,12.3554964015,0.021012018864759733,0.19906876382396924,-1.1360906606591727,12.416705016608697,1.153590857671892,0.08021839699999989,0.14356935599999998,0.11012867950000071
199162.0,-0.7801190075,0.979292069,12.489553306999998,-0.08317541083304177,0.2187857483837492,-1.1195693739597947,12.552152820558856,1.143774862362261,0.08374879099999999,0.10179302700000004,0.13405690549999782
199172.0,-0.7250056344999999,0.9864509235,12.61527456,-0.1324704902263696,0.20466428940586306,-1.094787443910727,12.674536315728238,1.1216039628511505,0.05511337300000008,0.007158854499999978,0.1257212530000018
199182.0,-0.6304695284999999,0.9385944715,12.710987463999999,-0.13886537660567685,0.13085431533902286,-1.0702742945664667,12.761177599197595,1.0871492585070501,0.09453610599999995,-0.047856451999999994,0.0957129039999991
199192.0,-0.49396096049999993,0.8595528725,12.621256616499998,-0.1239445568303773,0.012543681334083246,-1.054819404040057,12.66013219325399,1.0621504470877514,0.136508568,-0.07904159899999996,-0.08973084750000027
199202.0,-0.35392199849999995,0.8296425899999998,12.396193999,-0.1090219917258258,-0.1073639289364312,-1.0537530078670885,12.4289658970088,1.0648043057320293,0.140038962,-0.029910282500000163,-0.225062617499999
199212.0,-0.185149552,0.7961038469999999,12.0322692175,-0.10795559555285725,-0.18117390300327138,-1.0665427806257028,12.059998516343692,1.0871945072733842,0.16877244649999995,-0.033538742999999926,-0.36392478149999974
199222.0,-0.015200307499999998,0.8080679599999999,11.677954952999999,-0.14232985517088556,-0.18810286013368888,-1.0835963927469394,11.705888977844607,1.1089732260237932,0.16994924449999999,0.011964112999999998,-0.35431426450000103
199232.0,0.13209557549999998,0.8500404219999999,11.383461253499998,-0.21267535067251703,-0.13134475285883326,-1.1009170402437312,11.415919063747621,1.1289378097956695,0.147295883,0.04197246199999993,-0.29449369950000026
199242.0,0.275762998,0.9397712694999999,11.237440235,-0.3115342901639798,-0.04954117081785904,-1.114506173799759,11.280038931902693,1.1582883721214496,0.1436674225,0.08973084750000004,-0.14602101849999904
199252.0,0.42060721849999994,1.1312951439999999,11.182326861999998,-0.39626828001905257,0.025335199421949686,-1.1054461696526565,11.24727403345802,1.1745985084609711,0.14484422049999995,0.19152387449999997,-0.055113373000001076
199262.0,0.5797691479999999,1.2618216555,11.1284883535,-0.44742911638276234,0.07782772200493114,-1.0641446982334626,11.214792873220912,1.1570021206886025,0.15916192949999997,0.13052651150000005,-0.05383850849999838
199272.0,0.7330470874999999,1.2809446230000001,11.0973032065,-0.46661552084993596,0.09701238114285281,-1.001260485284107,11.195012979745938,1.1089021624040727,0.15327793950000002,0.0191229675000002,-0.031185147000000413
199282.0,0.834742048,1.259369993,11.020713269999998,-0.46341807766028237,0.08795237699575024,-0.9383745270054993,11.123800072166082,1.0502564868899162,0.10169496050000004,-0.02157463000000015,-0.07658993650000134
199292.0,0.960463301,1.2845730834999998,10.867533396999999,-0.44689679096090407,0.0573096313184858,-0.8808188042624823,10.98525829893548,0.9893648980812912,0.12572125300000003,0.025203090499999803,-0.15317987299999913
199302.0,1.1017771275,1.3192886245,10.6687526015,-0.4250470140551871,0.032262411223115184,-0.8277922109283906,10.806327654917292,0.9310992276921257,0.1413138264999999,0.03471554100000018,-0.19878079549999939
199312.0,1.2501517420000001,1.338411592,10.4592825575,-0.4082604373095056,0.01547583447743372,-0.7742332921724406,10.61841874222567,0.8754160592730165,0.14837461450000022,0.019122967499999977,-0.2094700439999997
199322.0,1.3818550515,1.4437350129999997,10.2258842875,-0.3984010723649896,0.010679669692953302,-0.707617565282321,10.41933796517118,0.8121330485224721,0.13170330949999998,0.1053234209999998,-0.23339827000000035
199332.0,1.468055505,1.5766151204999999,9.969636523,-0.39067275443715876,0.03252944659867031,-0.6287443910554452,10.199733065364288,0.7409472823617176,0.08620045349999983,0.13288010750000012,-0.2562477644999994
199342.0,1.515911957,1.624569639,9.7314329945,-0.3800140286952293,0.0690347532333837,-0.5466755189681679,9.981883775108754,0.669350866286351,0.047856451999999994,0.0479545185000001,-0.2382035284999997
199352.0,1.4871784725,1.6269232349999998,9.569819402499999,-0.377350656256686,0.12205960123822344,-0.46913403096056383,9.820388099159612,0.6143116497650789,-0.028733484500000017,0.002353595999999847,-0.16161359200000192
199362.0,1.411765334,1.5179713535000001,9.484795747,-0.3853442642308201,0.17561851999417344,-0.39772213928596384,9.708690372580643,0.5809603830027824,-0.07541313849999987,-0.10895188149999968,-0.0850236554999988
199372.0,1.3087955089999999,1.5144409595000001,9.4884242075,-0.39387019762681236,0.21079214040961516,-0.33110641239584426,9.697250695205412,0.5560562160130017,-0.10296982500000018,-0.0035303939999999923,0.003628460499999875
199382.0,1.2130826049999999,1.47492016,9.4525318685,-0.39733467619202106,0.22491534471675326,-0.2647577208812798,9.643511684543972,0.527786327939559,-0.09571290399999999,-0.0395207995000002,-0.035892339000000106
199392.0,1.1652261529999999,1.4653096429999999,9.4656727795,-0.39466955842422574,0.21558830519409555,-0.2040045549486092,9.649033397500043,0.49382206929522293,-0.047856451999999994,-0.00961051700000004,0.013140911000000699
199402.0,1.0813792955000001,1.3839144479999999,9.428603642499999,-0.38720827587195,0.1924068420691069,-0.14831284384672214,9.590785527134026,0.45710758189799977,-0.08384685749999976,-0.08139519500000003,-0.03706913700000136
199412.0,0.9999841005,1.3228190185,9.3040591875,-0.36615785976364634,0.16229642181370071,-0.10434625465973299,9.450679114299737,0.4138838576965024,-0.08139519500000014,-0.06109542949999991,-0.12454445499999878
199422.0,0.8719092515,1.162480291,9.2010893625,-0.3437757574360711,0.14630920586543264,-0.09022479568184687,9.31512917927204,0.38435487362273546,-0.128074849,-0.1603387274999999,-0.10296982500000063
