timestamp,ax,ay,az,gx,gy,gz,acc_mag,gyro_mag,dax,day,daz
180362.0,0.1419022255,-0.5704528305,10.014943245999998,0.12603197061576252,-0.1856855791196767,-0.08225387698798876,10.0321802662247,0.239016510287171,0.0,0.0,0.0
180372.0,0.26752541199999996,-0.5847705395,9.965909996,0.08179834605321824,-0.21526192862397264,-0.12941616403537953,9.986635493413466,0.26415376364077536,0.12562318649999996,-0.014317709000000067,-0.04903324999999725
180382.0,0.441103117,-0.4950396919999999,9.9934666825,0.054353043565607405,-0.21472960320211437,-0.1835091535424398,10.015438711844835,0.2876432951939695,0.17357770500000003,0.0897308475000001,0.02755668649999876
180392.0,0.5512317965,-0.24124358999999998,9.945512163999998,0.035700709849544016,-0.20833471682280713,-0.21415189921970423,9.96369746466946,0.30089687744608934,0.11012867949999999,0.2537961019999999,-0.04795451850000099
180402.0,0.647042767,0.016180972499999998,9.843817203499999,0.0007941248096574199,-0.20087343427053136,-0.21255317762487744,9.8650728989765,0.2924544760270964,0.09581097049999998,0.25742456249999995,-0.10169496049999971
180412.0,0.4950396919999999,0.0436395925,9.6953445225,-0.0421060682043632,-0.17289580636106228,-0.19470020470622743,9.708072626461947,0.26376893401141704,-0.15200307500000004,0.02745862,-0.14847268099999944
180422.0,0.36814164099999996,0.036480738,9.593649562,-0.07621329244683639,-0.13425770738041182,-0.17764659258499083,9.600779709510368,0.23535485929482952,-0.12689805099999996,-0.007158854499999999,-0.10169496049999971
180432.0,0.1909354755,-0.024516625,9.597179956,-0.08554033196949408,-0.12333369159217929,-0.16139234126116764,9.599110402977661,0.2203992642750135,-0.17720616549999996,-0.060997363,0.0035303940000002143
180442.0,-0.0760015375,-0.06286062649999999,9.6139493275,-0.06688799825343068,-0.1550428334424123,-0.14886785854885634,9.614455229694714,0.22510869334862402,-0.266937013,-0.03834400149999999,0.016769371500000574
180452.0,-0.2519328385,-0.20407638649999998,9.623559844499999,-0.037576938795437914,-0.20700303060353548,-0.14913489392441148,9.629019753189542,0.2578827206195285,-0.17593130099999998,-0.14121576,0.009610516999998708
180462.0,-0.40158231749999995,-0.3609827865,9.652293328999999,-0.004002039974822998,-0.2565634000431664,-0.15979361966634084,9.667385553443902,0.3022826416646201,-0.14964947899999997,-0.1569064,0.028733484500000017
180472.0,-0.556037055,-0.528578435,9.617577788,0.023975587934646103,-0.2778808515270252,-0.17924531417981765,9.648128050389417,0.3315440832191371,-0.15445473750000005,-0.16759564850000003,-0.03471554099999885
180482.0,-0.6733245889999999,-0.611150428,9.651116531,0.03676536069326055,-0.26269299637617055,-0.20855637363781043,9.693859971277595,0.33742415900013784,-0.11728753399999992,-0.08257199299999995,0.03353874299999937
180492.0,-0.8864230934999999,-0.6697941949999999,9.822242573499999,0.037032396068815684,-0.24803746664717413,-0.23866679389321657,9.884878316753408,0.34620199555550335,-0.2130985045,-0.05864376699999996,0.1711260424999992
180502.0,-1.1259014864999999,-0.6661657345,9.987484625999999,0.028506462672823384,-0.255764039245753,-0.2661120963808274,10.072799020019767,0.37019388166961775,-0.23947839299999996,0.003628460499999875,0.16524205250000001
180512.0,-1.341353587,-0.6829351059999998,10.1119310145,0.02184454091796103,-0.29226934588046644,-0.2911593164761981,10.22334478761095,0.4131250441212673,-0.21545210050000008,-0.016769371499999797,0.12444638850000089
180522.0,-1.656147052,-0.704509736,9.921583938,0.024242623310201238,-0.3556876295809324,-0.3164735719471238,10.083500625514269,0.4767147117121877,-0.31479346499999994,-0.02157463000000015,-0.19034707650000016
180532.0,-1.795009216,-0.8589644734999999,9.7743861215,0.05621880053598935,-0.4047174189279571,-0.3473833529999434,9.974893588626992,0.5363132821951142,-0.13886216400000007,-0.15445473749999994,-0.1471978165000003
180542.0,-1.876404411,-1.0325421785,9.6822036115,0.09432282876552955,-0.40498445430351226,-0.38015889102314493,9.916254516628012,0.5634092532766856,-0.08139519500000003,-0.17357770500000003,-0.09218250999999889
180552.0,-1.9171020085,-1.121096228,9.793509088999999,0.11857068806348676,-0.40258637191127206,-0.4238584448345789,10.042158987974457,0.5964819998743612,-0.040697597499999905,-0.08855404950000012,0.11130547749999842
180562.0,-1.9878079549999998,-1.1617938255,9.953945883,0.12363214289427032,-0.39778846179753957,-0.47315352422790674,10.21675995610271,0.6303925955983066,-0.07070594649999995,-0.040697597499999905,0.16043679400000066
180572.0,-2.0775388025,-1.2443658185,10.129877184,0.12043469970461672,-0.39592445015640965,-0.5365718079283728,10.415326472514824,0.6776208321680489,-0.08973084750000004,-0.08257199299999995,0.17593130100000032
180582.0,-2.154128739,-1.2934971349999997,10.295119236499998,0.11510620949827803,-0.37647275564293287,-0.6207734723615872,10.597305580013781,0.735078825157076,-0.07658993650000001,-0.0491313164999998,0.16524205249999824
180592.0,-2.1565804015,-1.3581229584999999,10.465068481,0.10151707594225017,-0.3391680882108061,-0.7233621804645618,10.770932889520681,0.805353061020372,-0.0024516624999999515,-0.06462582350000012,0.16994924450000148
180602.0,-2.1218648605,-1.3928384994999998,10.711705728499998,0.07540345967391102,-0.2744163729618164,-0.8320787395712886,11.008312731108877,0.87940039591011,0.03471554099999974,-0.03471554099999996,0.24663724749999894
180612.0,-1.9841794945,-1.3353715305,10.9762891455,0.05355368276819401,-0.20806768144725202,-0.9272061651219876,11.23383767002556,0.9517727825700281,0.13768536600000014,0.05746696899999981,0.26458341700000076
180622.0,-1.840512072,-1.2061198835,11.295887869,0.04049687463402443,-0.15850556667836901,-1.0012814292351309,11.508227170575541,1.0145582842076157,0.14366742249999986,0.12925164700000003,0.3195987235000004
180632.0,-1.6501649955,-1.0707881135,11.568806938499998,0.034101988254717205,-0.10921048728504118,-1.0559067441640495,11.73485942296166,1.0620870625834233,0.19034707650000016,0.13533177000000007,0.27291906949999856
180642.0,-1.5460183725,-0.880441037,11.865752300499999,0.03596599989584715,-0.057782615545776274,-1.088947572233554,11.998392679211754,1.0910724993698495,0.10414662299999988,0.19034707649999993,0.29694536200000066
180652.0,-1.5819107115,-0.8350362474999999,12.240366330499999,0.02770710187540998,-0.014083061734342244,-1.1366456753613072,12.370379741084562,1.1370705375831835,-0.035892338999999884,0.04540478950000004,0.37461403000000004
180662.0,-1.4885514035,-0.7548178504999999,12.6569528225,0.008520697408236317,0.02775073510670984,-1.197665876669533,12.766518320171947,1.1980176366489295,0.09335930799999992,0.080218397,0.4165864920000004
180672.0,-1.3832279825,-0.75118939,13.035293379499999,-0.036777577998024516,0.08051029306524643,-1.2688107329685778,13.129983954325919,1.2718943248670906,0.10532342100000003,0.003628460499999986,0.3783405569999996
180682.0,-1.180916793,-0.7008812755,13.3345923375,-0.13403605056540854,0.1503234631450196,-1.3602066445785128,13.405116629169983,1.3750363349303252,0.20231118950000004,0.050308114499999945,0.2992989580000014
180692.0,-0.981057266,-0.579965281,13.5093468405,-0.269932622113443,0.22972896279375363,-1.4609295957111055,13.55733326075833,1.5033144383168633,0.19985952699999998,0.12091599450000001,0.17475450299999906
180702.0,-0.6865635664999999,-0.4950396919999999,13.503364783999999,-0.4116900092896745,0.30780277622321595,-1.5560570212618046,13.529866751645116,1.6387631513485441,0.29449369950000004,0.08492558900000008,-0.00598205650000061
180712.0,-0.40403397999999996,-0.402857182,13.344104788,-0.5382595413150513,0.399200433162403,-1.636528917083507,13.356297015236226,1.7684205427737643,0.2825295865,0.09218250999999994,-0.1592599959999994
180722.0,-0.20289958849999998,-0.37530049549999994,13.151404115499998,-0.6387154570720889,0.49512721951051536,-1.6887561496201853,13.158322420207156,1.872166053394574,0.20113439149999998,0.02755668650000004,-0.1927006725000009
180732.0,-0.09277090899999998,-0.3274440435,13.074814178999999,-0.7237182276319687,0.5958484253138562,-1.7215299423141348,13.079242786130997,1.9602216102369314,0.11012867949999999,0.04785645199999994,-0.07658993649999957
180742.0,-0.07482473949999999,-0.3729468995,13.06638046,-0.8004586095129074,0.6717911917266334,-1.749509315552856,13.071915944380827,2.0378469608955063,0.017946169499999998,-0.04550285599999998,-0.008433718999999229
180752.0,-0.0281450855,-0.413644497,13.046080694499999,-0.8708058503437909,0.7011022511846262,-1.7817507828249473,13.052666984304079,2.10344551812174,0.04667965399999999,-0.040697597500000016,-0.020299765500000788
180762.0,0.12150439349999999,-0.44953683599999994,13.030488121,-0.9203662197834218,0.6683267131614246,-1.8123935285022117,13.03880620900866,2.1397441146548988,0.14964947899999997,-0.03589233899999994,-0.015592573499999318
180772.0,0.43639592499999996,-0.4447315775,12.995772579999999,-0.9350217495124182,0.5811928955848598,-1.8246509758389677,13.010700693293273,2.1310565542870217,0.3148915315,0.004805258499999965,-0.03471554100000063
180782.0,0.8350362474999999,-0.3633363825,12.974197949999999,-0.9155700549989414,0.45675615590542007,-1.805466316701046,13.006118225945482,2.0752357293354176,0.3986403225,0.08139519499999998,-0.021574629999999928
180792.0,1.2503478749999999,-0.266348614,12.831805392,-0.8841279485242635,0.3403112788708624,-1.7545707703836395,12.895330201699256,1.9939941284199116,0.41531162749999995,0.09698776850000002,-0.14239255799999917
180802.0,1.620254713,-0.16700724949999998,12.6881379695,-0.8734692227823342,0.28595299931749896,-1.6815601571142127,12.792261797252737,1.9163408264086597,0.3699068380000001,0.0993413645,-0.14366742250000009
180812.0,1.747152764,-0.0784532,12.6701918,-0.8982511528314017,0.3307189493019015,-1.6093489046421994,12.790326732891943,1.8724940731183484,0.12689805099999996,0.08855404949999998,-0.017946169500000053
180822.0,1.781868305,-0.286746446,12.7599226475,-0.9701953699278598,0.42264893166294687,-1.5600538252488716,12.886927645906942,1.8851204505120949,0.03471554099999996,-0.208293246,0.08973084750000027
180832.0,1.8070713954999997,-0.5273035705,12.9072185305,-1.0685202386682124,0.51031507466137,-1.5496621348824973,13.043766567904338,1.9502845197967378,0.025203090499999803,-0.2405571245,0.14729588299999996
180842.0,1.8178587105,-0.5812401455,13.04480583,-1.1644470250163248,0.5486861382664654,-1.557123417434773,13.18367966618135,2.020303613202452,0.010787315000000186,-0.05393657500000004,0.13758729949999982
180852.0,1.974667044,-0.48660597299999997,13.010090288999999,-1.2409221168509603,0.542024216511603,-1.5581880682784897,13.168088116182663,2.0643710924880576,0.15680833350000012,0.09463417250000006,-0.03471554100000063
180862.0,2.196101201,-0.459147353,12.867697731,-1.3051380160195876,0.5292344437529886,-1.5379370129675993,13.061826888807824,2.0853595836617203,0.2214341569999998,0.02745861999999999,-0.14239255799999917
180872.0,2.4032176489999997,-0.44708517349999993,12.6090963705,-1.3547001307884707,0.52816804758002,-1.4934380983587519,12.843856566521788,2.084353924954252,0.20711644799999984,0.012062179500000048,-0.25860136050000015
180882.0,2.5384513525,-0.48425237699999996,12.419926091999999,-1.3909401473768808,0.5305661299722603,-1.4270894068441875,12.68592920382191,2.062231579378382,0.1352337035000004,-0.03716720350000002,-0.18917027850000068
180892.0,2.7108522594999998,-0.6997044775,12.2870459845,-1.4151880066748381,0.5207067650277443,-1.3583426329373827,12.60197624794966,2.0295288462688137,0.17240090699999966,-0.21545210050000002,-0.13288010749999835
180902.0,2.83412185,-0.863769732,12.241641195,-1.4202512068348736,0.49752530190275557,-1.2903934744987395,12.595083324761603,1.9823622866616162,0.12326959050000008,-0.16406525449999998,-0.04540478950000093
180912.0,2.911986651,-0.910449386,12.203297193500001,-1.41891777528635,0.4247799786796319,-1.2232454221867617,12.578912780242774,1.9209620106112204,0.07786480100000004,-0.04667965400000007,-0.038344001499998726
180922.0,3.0747770409999995,-0.910449386,12.078752738499999,-1.4303758618256928,0.3245910982981494,-1.1494354481199216,12.497177267453228,1.8634742650711968,0.16279038999999962,0.0,-0.12454445500000233
180932.0,3.2890523435,-0.852982417,11.843000872499998,-1.4554230819210634,0.22573215880668662,-1.0636350620918804,12.320800054705446,1.8167363320579384,0.21427530250000038,0.057466969000000034,-0.2357518660000011
180942.0,3.4985223875,-0.7081381964999999,11.547232308499998,-1.4908637377120602,0.17137387925332323,-0.9669089149463546,12.086343226453863,1.7852049016059317,0.20947004400000013,0.14484422050000012,-0.2957685639999994
180952.0,3.5799175825,-0.6817583079999999,11.273136441,-1.5361620131183211,0.1588511418702639,-0.8715144540201005,11.847540230166844,1.7732920964655468,0.08139519499999981,0.02637988849999995,-0.27409586749999804
180962.0,3.631402495,-0.8169920114999999,11.067196791,-1.5889215710768576,0.17856812643004383,-0.791042558198398,11.676360941589111,1.7839020891548816,0.05148491250000031,-0.13523370349999997,-0.20593964999999947
180972.0,3.6122795274999997,-0.9367312079999999,10.946378863,-1.6366179288753586,0.20707982509062323,-0.7225628196671484,11.565000603249873,1.8009712178269734,-0.01912296750000042,-0.11973919649999998,-0.12081792800000102
180982.0,3.5918816954999997,-1.0348957745,10.836152117,-1.6808515534379032,0.22626622955779688,-0.6628743045781944,11.462757786907542,1.820950492188884,-0.020397832000000005,-0.09816456650000016,-0.11022674600000038
180992.0,3.551184098,-1.121096228,10.633840927499998,-1.7312130290041994,0.22786495115262367,-0.5994560208777284,11.267046557181608,1.846176727381277,-0.040697597499999905,-0.08620045350000005,-0.20231118950000138
181002.0,3.4590015879999996,-1.2516227395,10.404071118000001,-1.7831732261653226,0.20974494285841855,-0.5280441292031284,11.03521396694336,1.8715048217820376,-0.09218251000000022,-0.13052651149999983,-0.22976980949999692
181012.0,3.38721691,-1.4802157509999998,10.0640745625,-1.8143482972644451,0.168975796861083,-0.4499720611029181,10.72146789690936,1.8769356460689957,-0.07178467799999977,-0.2285930114999999,-0.33999655550000085
181022.0,3.342890852,-1.779514709,9.617577788,-1.8207431836437524,0.11754967045107009,-0.3708318515004872,10.336314350684368,1.8618377823794483,-0.04432605799999978,-0.2992989580000003,-0.4464967744999999
181032.0,3.2926808039999997,-1.9686849875,9.191380779,-1.811417889450347,0.07065092812073046,-0.2935573988684383,9.959866870676967,1.8364101585145605,-0.050210048000000285,-0.1891702785,-0.4261970090000009
181042.0,3.2794418265,-2.2020832575,8.773617489,-1.7855713085575629,0.03494498228343047,-0.2069576520429836,9.621864331284563,1.7978647111142432,-0.013238977499999915,-0.2333982699999999,-0.4177632899999999
181052.0,3.317785828,-2.391253536,8.3773307625,-1.7474672803280227,0.01362927612882372,-0.1096991794755996,9.322310173891394,1.750960183145931,0.03834400150000006,-0.1891702784999998,-0.39628672649999963
181062.0,3.2890523435,-2.5935647255,8.0421394655,-1.7130930207099944,-0.0023596851486963333,-0.011641346110802179,9.067549309829715,1.713134199839162,-0.028733484500000017,-0.20231118950000004,-0.3351912969999997
181072.0,3.2064803504999997,-2.7731244869999996,7.653109659999999,-1.6795181218893793,-0.012751375515070572,0.0845524756128653,8.748818384589253,1.6816934442592737,-0.08257199300000018,-0.17955976149999975,-0.38902980550000077
181082.0,3.031627781,-3.0005407005,7.363421218999999,-1.6278249601038113,-0.03247010540410251,0.16902117542163486,8.509640623804712,1.636898459350133,-0.1748525694999996,-0.22741621350000063,-0.289688441
181092.0,2.7970527129999994,-3.2770882305,7.150322714499999,-1.5534826606151129,-0.05538453315353606,0.24149946326920338,8.348049237473202,1.5731172283411552,-0.23457506800000072,-0.27654752999999976,-0.21309850450000045
181102.0,2.5839542085,-3.587076437,7.0138141465,-1.4796709412190205,-0.08016646320260355,0.2897281464895627,8.290809707027957,1.5098990545657924,-0.21309850449999956,-0.3099882064999999,-0.1365085679999991
181112.0,2.495400159,-3.8828450009999997,6.9312421534999995,-1.428244814809008,-0.10094984393535202,0.3107785625978663,8.32740205861247,1.4651475819827111,-0.0885540494999999,-0.29576856399999985,-0.08257199300000018
181122.0,2.3960587944999996,-4.0204323005,6.7780622804999995,-1.4015988731188103,-0.10761176569021438,0.3238353707320359,8.236935225430717,1.442542561098299,-0.0993413645000003,-0.13758729949999982,-0.15317987300000002
181132.0,2.4127300995,-4.1079076185,6.622430745,-1.3858769472168453,-0.1022832754838757,0.3395572966340008,8.1579875280295,1.4305299503918762,0.01667130500000047,-0.08747531800000008,-0.15563153549999953
181142.0,2.43793319,-4.103102359999999,6.428455208,-1.3709543821122938,-0.0767019846373948,0.3675349245434699,8.006497584887132,1.4214362571143986,0.025203090499999803,0.004805258500000242,-0.19397553700000003
181152.0,2.4474456405,-4.0898633825,6.221338759999999,-1.3600303663240614,-0.04046371337823654,0.413367270700841,7.837220720216774,1.422038118304351,0.009512450499999936,0.013238977499999471,-0.20711644800000073
181162.0,2.4654898765,-4.1461535535,6.0764945395,-1.339779311013171,0.004035201230610889,0.47811724062057864,7.758415786028612,1.4225403266152195,0.018044236000000158,-0.05629017099999967,-0.14484422049999957
181172.0,2.436756392,-4.267069547999999,5.9580302075,-1.3062044121925562,0.051199233607253654,0.5580568110204229,7.722939090456707,1.4213439880196332,-0.028733484500000017,-0.12091599449999979,-0.1184643319999994
181182.0,2.3876250755,-4.511255133,5.8801654065,-1.262237823005567,0.08370773625490004,0.6379946360910153,7.7864318904087595,1.4167880796419978,-0.04913131650000002,-0.24418558500000032,-0.07786480100000048
181192.0,2.314565533,-4.7829974045,5.814362784999999,-1.1921593628794909,0.10369350151948711,0.7152690887230642,7.8766168101284615,1.3941327619855033,-0.0730595424999998,-0.27174227149999997,-0.06580262150000049
181202.0,2.1816854255,-4.909895455499999,5.785629300499999,-1.0983636235480636,0.12154647443813711,0.786413945022109,7.895589343588151,1.3563270578688644,-0.13288010750000012,-0.1268980509999995,-0.028733484500000017
181212.0,1.8585563079999998,-4.821341406,5.802398672,-1.002171547153648,0.147126019955366,0.8474341463303348,7.769645735298618,1.3206583615904859,-0.3231291175000002,0.08855404949999901,0.016769371500000574
181222.0,1.455110727,-4.7100359285,5.937632375499999,-0.932623667120178,0.15352090633467322,0.8951322494580878,7.717335285069392,1.3017746798791272,-0.4034455809999997,0.1113054775000002,0.13523370349999908
181232.0,1.072062978,-4.627365869,6.114838540999999,-0.8926556272495079,0.11568391348068814,0.9327022069365177,7.742937704572042,1.2962060960829764,-0.38304774900000016,0.08267005949999984,0.17720616550000035
181242.0,0.6913688249999999,-4.5519527305,6.230949276999999,-0.8689400933734088,0.020823523305544347,0.9614809409726522,7.747450768184016,1.296123491357325,-0.3806941530000001,0.07541313850000009,0.11611073599999955
181252.0,0.43992631899999995,-4.607066103499999,6.2920447065,-0.84762264188955,-0.11507304824249014,0.9833307178783692,7.810788682121815,1.3033208546627448,-0.2514425059999999,-0.0551133729999993,0.0610954295000008
181262.0,0.298710559,-4.7268053,6.184269623,-0.8305690297683135,-0.2592285178109618,0.9897256042576764,7.789551149593071,1.3178016198882017,-0.14121575999999997,-0.11973919650000031,-0.10777508349999998
181272.0,0.29508209849999995,-4.812907687,5.978329973,-0.8119166960522501,-0.390594214620819,0.980932635486129,7.6805978357487925,1.331916437763803,-0.0036284605000000414,-0.08610238700000039,-0.20593964999999947
181282.0,0.3729468995,-4.8477212944999994,5.7305159275,-0.7959294801039821,-0.4782603576192422,0.968942223524928,7.515204849791295,1.3420453567216393,0.07786480100000004,-0.0348136074999994,-0.2478140455000002
181292.0,0.5249499745,-4.866844262,5.412094002,-0.7932643623361867,-0.5009094953223726,0.9646783841623058,7.29743153669661,1.345653393681578,0.15200307500000004,-0.01912296750000042,-0.31842192550000004
181302.0,0.587222202,-4.7351409525,5.08769002,-0.7993922133399388,-0.4769286713999705,0.9700068743686445,6.9750254117223065,1.3443965950099304,0.062272227499999944,0.13170330949999975,-0.32440398199999976
181312.0,0.5776116849999999,-4.5472455384999995,4.794471185,-0.7935313977117419,-0.4468182511445643,0.9961204906369837,6.63310117440191,1.3496646474502851,-0.00961051700000004,0.18789541400000065,-0.29321883500000023
181322.0,0.49023443349999996,-4.4478061075,4.589708333,-0.7572913811233316,-0.44308848253305244,1.0432845230136263,6.410049262814835,1.3631801917710276,-0.08737725149999997,0.09943943099999952,-0.204762852
181332.0,0.3513722695,-4.403578115999999,4.4903669685,-0.6818826854616646,-0.477995067572939,1.10004088495923,6.299075980434239,1.37968591713417,-0.13886216399999995,0.04422799150000056,-0.09934136449999986
181342.0,0.151414676,-4.426329544,4.4352535955,-0.5840918874724224,-0.535550790315956,1.1599946900944873,6.267917843478096,1.4048365253888253,-0.1999575935,-0.022751428000000296,-0.05511337300000019
181352.0,-0.08316039199999999,-4.4238778815,4.391025603999999,-0.4889644619217234,-0.6011001210331071,1.2119548872556103,6.233676043572211,1.438486096307912,-0.234575068,0.0024516624999995074,-0.04422799150000056
181362.0,-0.22202255599999998,-4.5029194805,4.3287533765,-0.4138210563063595,-0.6719796872858489,1.2476608330929104,6.250094691906621,1.4763001460412424,-0.138862164,-0.07904159899999996,-0.06227222749999939
181372.0,-0.345390213,-4.625012272999999,4.2616758905,-0.3560000435170394,-0.7226064528984483,1.2729750885638362,6.298564465043267,1.5064400727737954,-0.12336765700000002,-0.12209279249999927,-0.06707748599999963
181382.0,-0.488959569,-4.702779007499999,4.1671397845,-0.3085689757648415,-0.7668400774609926,1.2894963752632145,6.302401592810636,1.531685156623878,-0.14356935599999998,-0.07776673449999993,-0.09453610600000051
181392.0,-0.522498312,-4.7482818635,4.057011105,-0.2643370965315492,-0.7932189837756348,1.2950919008451083,6.267258112394861,1.5415360808165912,-0.03353874299999998,-0.04550285600000059,-0.11012867949999983
181402.0,-0.603893507,-4.7123895245,3.9372719085,-0.21877178574973324,-0.8177338784491472,1.2980223086592069,6.170365668246682,1.5496488970023465,-0.08139519500000003,0.035892339000000106,-0.11973919649999987
181412.0,-0.6613604759999999,-4.6094196995,3.792427688,-0.15348774507888532,-0.8561049420542426,1.3062829520088959,6.005552049067816,1.5693467782514399,-0.05746696899999992,0.10296982499999974,-0.1448442205
181422.0,-0.704509736,-4.5495991345,3.6619992429999995,-0.07195119841346623,-0.8982057742708498,1.320671446362337,5.882637563924409,1.5987881839453961,-0.04314926000000008,0.05982056499999988,-0.13042844500000061
181432.0,-0.7463841314999999,-4.510078334999999,3.6751401539999997,0.023443262512787832,-0.9256510767584606,1.347851458803645,5.86553927709418,1.6352623818398242,-0.04187439549999994,0.03952079950000087,0.013140911000000255
181442.0,-0.856512811,-4.325713315,3.7541817529999997,0.1257649352402074,-0.942439398833394,1.3766284475105275,5.79131164016698,1.6730555047291968,-0.11012867950000005,0.18436501999999955,0.07904159899999996
181452.0,-0.9546773775,-4.222743489999999,3.915795345,0.22329044318314653,-0.9701499913673081,1.4040737499981384,5.837501576990906,1.721183523974346,-0.09816456650000005,0.10296982500000063,0.16161359200000014
181462.0,-1.015772807,-4.184497555,4.143211558499999,0.2997655350177821,-0.9880029642859581,1.4296550408446191,5.975618478595302,1.7634973119442985,-0.06109542950000002,0.038245934999999065,0.2274162134999993
181472.0,-1.039701033,-4.067210021,4.4113253695,0.3575865478071022,-1.005855937204608,1.4379156841943084,6.089578565757929,1.7908701294159628,-0.023928225999999997,0.11728753399999992,0.268113811000001
181482.0,-1.0360725725,-3.9247193965,4.6855193035,0.41221186273602073,-1.0484908401723256,1.4427118489787887,6.199270913601148,1.8304833080062117,0.003628460500000097,0.14249062450000016,0.2741939339999995
181492.0,-0.911626184,-3.8755880799999995,4.8614506045,0.45058292634111613,-1.0658114876691172,1.4539029001425763,6.283704898002921,1.8581745730152952,0.1244463885,0.049131316500000466,0.17593130100000032
181502.0,-0.8613180695,-3.7750699174999998,5.0207106005,0.4657707814919707,-1.04342764001229,1.4741539554534666,6.340390889592986,1.8651577802460464,0.050308114499999945,0.10051816249999979,0.1592599960000003
181512.0,-0.905546061,-3.5991386165,5.03865677,0.4758971818120418,-1.001593843171238,1.4882771597606048,6.257944909891823,1.855973399216774,-0.04422799150000001,0.17593130099999987,0.017946169500000053
181522.0,-0.993021379,-3.6206151799999997,5.1152467065,0.47456375026351816,-0.938175559470772,1.5178535092649006,6.345131567521401,1.8464190773061906,-0.08747531799999997,-0.021476563499999823,0.07658993649999957
181532.0,-1.2312249075,-3.7032852395,5.3462913805,0.4753631110609316,-0.8643655854039318,1.5389039253732044,6.619144043088619,1.8279286758835167,-0.23820352849999993,-0.08267005950000028,0.2310446740000005
181542.0,-1.5089492355,-3.7415311744999995,5.6479439345,0.5004103311563022,-0.8097402704750132,1.5508960826636573,6.94083957546396,1.8197165890265399,-0.27772432800000013,-0.03824593499999951,0.30165255399999946
181552.0,-1.8106017894999997,-3.8660756295,6.001081401,0.531854182960232,-0.7886898543667096,1.54450119628435,7.364631531487679,1.8139417034836223,-0.3016525539999997,-0.12454445500000055,0.35313746650000066
181562.0,-2.0979366345,-3.9642401959999995,6.197410533999999,0.5622298932619414,-0.8017466625008792,1.5093275758689082,7.650126520580784,1.799158107278776,-0.28733484500000017,-0.0981645664999995,0.196329132999999
181572.0,-2.290637307,-3.8923574514999997,6.240559794,0.5782171092102094,-0.8318570827562854,1.4746880262045767,7.703379280871292,1.7891411364524488,-0.1927006725,0.07188274449999987,0.043149260000000744
181582.0,-2.357714793,-3.6481718665,6.196233735999999,0.5867447879354537,-0.8502423810967936,1.4269899230768237,7.567118971167139,1.7616701715546428,-0.06707748600000007,0.24418558499999987,-0.04432605800000111
181592.0,-2.4031195824999996,-3.2878755455,6.094440709,0.6141900904230645,-0.8422487731226596,1.3848890908602165,7.329892010528417,1.7333580867738074,-0.0454047894999996,0.36029632099999986,-0.10179302699999937
181602.0,-2.463038214,-2.981417733,6.1196437994999995,0.6522941186526048,-0.8126706782891118,1.3521152981662672,7.239160805993327,1.7070843646741414,-0.05991863150000043,0.30645781250000015,0.025203090499999803
181612.0,-2.466568608,-2.843732367,6.28606265,0.6864013428950779,-0.7505858261371694,1.33212953290168,7.327029282923571,1.6760354943601379,-0.0035303940000002143,0.13768536599999992,0.16641885050000038
181622.0,-2.542079813,-2.8473608274999997,6.627236003499999,0.7149130415556573,-0.6661171263283998,1.3244029603031011,7.647868363389255,1.6458602262142383,-0.07551120499999975,-0.003628460499999875,0.34117335349999944
181632.0,-2.7228163725,-2.800583107,6.889367758,0.7229066495297913,-0.6112265213531781,1.3230695287545773,7.919620119837679,1.6268696512808747,-0.18073655950000012,0.04677772049999973,0.26213175450000037
181642.0,-2.913163449,-2.7814601394999996,7.066573923499999,0.7207756025131064,-0.6104271605557647,1.3169416777508254,8.133849568593405,1.6206400495234787,-0.1903470764999997,0.01912296750000042,0.17720616549999946
181652.0,-3.0412382979999997,-2.800583107,7.2401516285,0.7338324106472758,-0.6647854401091281,1.3086810344011361,8.337397179462359,1.6410654277324555,-0.12807484899999988,-0.01912296750000042,0.17357770500000047
181662.0,-3.1968698334999996,-2.868837391,7.345475049499999,0.7663409132949222,-0.7423251827874803,1.2889623045121041,8.509183768797628,1.6732450193690451,-0.15563153549999997,-0.068254284,0.10532342099999958
181672.0,-3.2698313095,-2.9922050479999998,7.4855140115,0.8129708749204547,-0.8030783487201508,1.2633827589948754,8.699310769148667,1.7035235464699388,-0.07296147600000014,-0.12336765699999974,0.1400389620000011
181682.0,-3.3572085609999998,-2.961019901,7.6039783435,0.8510749031499949,-0.8062757919098045,1.2252787307653352,8.823773275905651,1.6957939472286916,-0.08737725149999997,0.03118514699999997,0.1184643319999994
181692.0,-3.4745941615,-2.6246518059999997,7.6124120625,0.8580038602804123,-0.7689711244776777,1.190904471147307,8.769858556394421,1.6570276623928761,-0.11738560050000002,0.3363680950000001,0.008433719000000117
181702.0,-3.5655998735,-2.567184837,7.6938072575,0.8452140875217979,-0.7367296572055865,1.1549332352637036,8.859944162396602,1.6096671144892822,-0.0910057120000003,0.05746696899999959,0.08139519499999981
181712.0,-3.5415735809999997,-2.6904544274999997,7.756079485,0.8438806559732743,-0.7148798802998695,1.1043047243218522,8.940808544741877,1.5629065003841405,0.024026292500000324,-0.12326959049999964,0.06227222750000028
181722.0,-3.505681242,-2.853342884,7.874543817,0.8803859626079876,-0.7058198761527669,1.040619405245831,9.079636937126784,1.534975533128684,0.03589233899999966,-0.16288845650000017,0.11846433200000028
181732.0,-3.4865582745,-2.8987476735,8.0218397,0.9392751168995284,-0.6980933035541879,0.9665441411326878,9.21459379726541,1.5178206687391456,0.019122967499999977,-0.04540478950000004,0.14729588299999907
181742.0,-3.4075166754999997,-2.9993639025,8.2361150025,0.9917676394825098,-0.7058198761527669,0.8751464841935007,9.404304548866767,1.4992218371852986,0.0790415990000004,-0.10061622899999989,0.21427530250000082
181752.0,-3.2076571484999996,-3.1094925819999997,8.486282644,1.0280059107416681,-0.7058198761527669,0.7837505725835656,9.59035982712285,1.4728349568492667,0.1998595270000001,-0.11012867949999983,0.25016764149999915
181762.0,-3.154995438,-2.9359148769999996,8.6993811485,1.0354671932939439,-0.7012907467438415,0.7006135589940679,9.708389400187238,1.433478419406064,0.05266171049999979,0.17357770500000003,0.21309850450000134
181772.0,-3.168136349,-2.615041289,8.8598179425,1.0306710285094633,-0.6980933035541879,0.6470546402381178,9.765853922892497,1.4029599912077446,-0.013140911000000255,0.32087358799999954,0.16043679399999888
181782.0,-3.2651241175,-2.370855704,8.938761475,1.0250755029275695,-0.6869005070611482,0.6225397455646055,9.807316094570098,1.3820882128542722,-0.09698776850000002,0.24418558500000032,0.0789435325000003
181792.0,-3.4889118704999995,-2.2559217659999997,9.0943930105,1.0423961504243613,-0.7018230721656998,0.595893803874408,9.99848354921183,1.390767696108714,-0.22378775299999942,0.11493393800000007,0.15563153549999953
181802.0,-3.6505254625,-2.3409454215,9.3230840885,1.077302735464248,-0.7593787949087168,0.5540600070333559,10.282327486519991,1.4297621583289888,-0.16161359200000058,-0.08502365550000013,0.22869107800000066
181812.0,-3.687692666,-2.439109988,9.633072295,1.1146074028963746,-0.8425158084982147,0.4895753271599214,10.599264907205976,1.480495373557292,-0.03716720349999969,-0.09816456649999994,0.3099882064999999
181822.0,-3.7666361984999996,-2.533646094,9.956299479,1.1465818347929109,-0.9411059672848704,0.4056389527730101,10.942340247727067,1.5378144574502652,-0.07894353249999986,-0.09453610600000006,0.3232271840000003
181832.0,-3.6206151799999997,-2.6892776294999994,10.261580493499999,1.1673669608549113,-1.0343676358651874,0.3137107157412168,11.208974202609053,1.5909357122749603,0.14602101849999993,-0.15563153549999953,0.30528101449999845
181842.0,-3.4086934735,-2.731152025,10.4579096265,1.1540431173451864,-1.0562174127709045,0.21751689401754928,11.333413269442902,1.57946963849113,0.21192170649999964,-0.041874395500000716,0.19632913300000077
181852.0,-3.2854238829999995,-2.615041289,10.61471796,1.1063467595466856,-0.9864042426911312,0.12212417842054724,11.415107901570977,1.4872494065601134,0.12326959050000053,0.11611073599999999,0.15680833350000078
181862.0,-3.1585258319999996,-2.4989305529999997,10.788295665,1.0328038208554005,-0.8478442987045534,0.03499036084398232,11.515566103999662,1.3366929387751407,0.12689805099999996,0.11611073600000044,0.17357770499999958
181872.0,-3.1035105254999995,-2.3876250755,10.96187337,0.9390080815239733,-0.6746430597243922,-0.05507386454668107,11.640240498501772,1.1575459238223462,0.05501530650000008,0.11130547749999975,0.17357770499999958
181882.0,-3.1166514364999998,-2.172172975,11.1630077615,0.8377528049695222,-0.5240927037766133,-0.14700384690772642,11.79171717322236,0.9990560822055253,-0.013140911000000255,0.21545210049999985,0.20113439150000012
181892.0,-3.054379209,-1.9614280665,11.3234445555,0.7476885795788588,-0.4305639998207411,-0.22454358958607845,11.89103986259856,0.8915399001718812,0.06227222749999983,0.21074490850000016,0.16043679400000066
181902.0,-2.9813196664999997,-1.748329562,11.446714146,0.6869354136461882,-0.412443991526536,-0.2703759357434496,11.957097806385095,0.8456319857341885,0.07305954250000024,0.2130985045,0.12326959049999964
181912.0,-2.9083581905,-1.5508236309999999,11.5437019145,0.6709464523686681,-0.4801261145896241,-0.287162512489131,12.005026246932882,0.8735860212000307,0.07296147599999969,0.19750593100000002,0.09698776850000002
181922.0,-2.8401039064999996,-1.55925735,11.580771051499998,0.6954613470421805,-0.6029658780034891,-0.27650378674720166,12.025461813606409,0.9610872381588389,0.06825428400000044,-0.008433719000000117,0.03706913699999781
181932.0,-2.7515498569999997,-1.7603917414999999,11.608327738,0.7482209050007171,-0.7452573359308307,-0.2645133747860006,12.059157456966814,1.088673663169772,0.0885540494999999,-0.2011343914999999,0.027556686500002314
181942.0,-2.6090592325,-2.0404696655,11.5915583665,0.7975159843940449,-0.8531745342401441,-0.26957657494603615,12.05549384714269,1.1985866931513653,0.14249062449999972,-0.280077924,-0.016769371500000574
181952.0,-2.5456102069999997,-2.1505983449999997,11.604699277499998,0.8222979144431124,-0.8974064134734364,-0.30448315998592274,12.073700753650817,1.2546800890090515,0.0634490255000002,-0.11012867949999983,0.013140910999998923
181962.0,-2.4713738665,-2.349281074,11.6717767635,0.8089740709333877,-0.8816844875714716,-0.3649692905430383,12.159653908300692,1.251003263827155,0.07423634049999972,-0.19868272900000017,0.0670774860000023
181972.0,-2.2655322829999998,-2.4510741009999997,11.722084877999999,0.7503519520174021,-0.8028130586738477,-0.44624054716215417,12.188013565013144,1.1860301366344632,0.20584158350000026,-0.10179302699999981,0.05030811449999817
181982.0,-2.1434394904999996,-2.3625200514999998,11.638238020500001,0.6565579580152269,-0.6759764912729158,-0.5413679727128532,12.067494274495688,1.0867804980151197,0.12209279250000016,0.0885540494999999,-0.08384685749999754
181992.0,-2.0296823505,-2.264355485,11.4766244285,0.5534369244903939,-0.5374165472863379,-0.6332979550738984,11.872650271915859,0.9980858052228456,0.1137571399999997,0.09816456649999994,-0.16161359200000192
182002.0,-1.8416888699999998,-2.2595502265,11.329426612,0.48442311520803416,-0.40338573270868544,-0.7228281097134516,11.698431197244009,0.9590965958091505,0.1879934805000001,0.004805258499999798,-0.14719781649999852
182012.0,-1.640652545,-2.3337865669999998,11.286277351999999,0.4708339816520063,-0.30719191098501797,-0.7955734329365752,11.641235199925854,0.9741604568280302,0.2010363249999998,-0.07423634049999972,-0.04314926000000163
182022.0,-1.4155899275,-2.370855704,11.494570598,0.5137341746660269,-0.2853421340793009,-0.8475336300976984,11.82159062243465,1.0313370883698965,0.22506261750000012,-0.03706913700000003,0.2082932460000002
182032.0,-1.2455426165,-2.243957653,11.822603040499999,0.5800828661805913,-0.3671457161202752,-0.8755112580071676,12.097961192333804,1.1125700298853338,0.1700473109999998,0.12689805099999996,0.32803244249999963
182042.0,-1.067159653,-2.1505983449999997,12.109937885499999,0.6293779455739191,-0.5182301428191642,-0.8811067835890614,12.345626697627626,1.2004283582904394,0.17838296350000005,0.09335930800000014,0.28733484500000017
182052.0,-0.777471212,-2.186490684,12.293028041,0.6461662676488527,-0.6738436989269788,-0.8752459679608644,12.510145539262115,1.2797076542955395,0.289688441,-0.035892339000000106,0.1830901555000004
182062.0,-0.558390651,-2.0823440609999997,12.290674445,0.6184539297856867,-0.7540503047023781,-0.8667182892356201,12.478326619402228,1.3047136537128092,0.21908056100000006,0.1041466230000001,-0.0023535959999989586
182072.0,-0.4829775125,-2.0057541244999997,12.149458684999999,0.5347845907743305,-0.7473883829475159,-0.868584046206002,12.323378725984663,1.2645244951435939,0.07541313849999998,0.07658993650000001,-0.14121576000000147
182082.0,-0.38128255199999994,-2.0991134325,11.967447260999998,0.4260680316676037,-0.6799732952599828,-0.8877687053439237,12.156127982699834,1.1966749450305427,0.10169496050000004,-0.09335930800000014,-0.1820114240000006
182092.0,-0.2723306705,-2.243957653,11.811815725499999,0.3357367709013852,-0.5883103482744927,-0.9258727335734639,12.026159015900351,1.1472003155495305,0.10895188149999996,-0.1448442205,-0.15563153549999953
182102.0,-0.09992976349999999,-2.2703375415,11.7053155065,0.27365191874944295,-0.5062397308579633,-0.9639767618030041,11.923876450915062,1.1226821611794677,0.172400907,-0.02637988850000017,-0.10650021899999906
182112.0,0.14660941749999998,-2.173349773,11.573612197,0.23661254136361928,-0.43216272141556794,-0.9844948524894495,11.776818027109275,1.1008997352575225,0.24653918099999997,0.09698776850000002,-0.13170330950000064
182122.0,0.45306722999999993,-2.0381160694999996,11.384441918499999,0.21316404286307544,-0.36448234368173177,-0.9828961308946227,11.57431228295461,1.0697528182496545,0.3064578124999999,0.1352337035000004,-0.18917027850000068
182132.0,0.7404020749999999,-1.8716972189999999,11.268331182499999,0.18758449734584653,-0.29759958141605714,-0.9613133893644608,11.446690934535555,1.0236585793490394,0.28733484499999995,0.16641885049999972,-0.11611073599999955
182142.0,1.002631896,-1.664580771,11.226456786999998,0.15001279453816463,-0.24350833723824886,-0.9189455217722984,11.393394220004758,0.9624245533105689,0.26222982100000014,0.20711644799999984,-0.041874395500000716
182152.0,1.118742632,-1.583185576,11.203705358999999,0.1334915078387863,-0.24004385867304012,-0.8675176500330335,11.37018361399648,0.9099603891766674,0.11611073599999999,0.08139519500000003,-0.022751427999999407
182162.0,1.224066053,-1.5664162045,11.0804357685,0.15480895932264502,-0.28960597344192307,-0.8238180962215995,11.257355561928447,0.8868560702853563,0.10532342100000003,0.016769371499999908,-0.12326959049999964
182172.0,1.3330179345,-1.5783803175,10.919998974499999,0.1787915285742991,-0.3447636137926999,-0.7969051191558469,11.113712199056222,0.8865021878270415,0.1089518814999999,-0.011964112999999887,-0.16043679400000066
182182.0,1.5220901464999999,-1.5687698005,10.726023437499999,0.1862510657973229,-0.36181722591393645,-0.7819842993805474,10.946477784330103,0.881533101452453,0.1890722119999999,0.00961051700000004,-0.19397553700000003
182192.0,1.941128301,-1.492179864,10.8038882385,0.16386896346974758,-0.291469985083053,-0.7707915028875078,11.077841888087628,0.8401948168826963,0.41903815450000015,0.07658993650000001,0.07786480100000226
182202.0,2.3085834765,-1.2875150784999998,11.135451074999999,0.10577916997562033,-0.14704748013902627,-0.7460113181676922,11.444890711101278,0.7676881404908286,0.36745517549999995,0.2046647855000001,0.33156283649999807
182212.0,2.1602088619999997,-0.7978690439999999,11.700510247999999,0.010119419003063122,-0.10414728712500564,-0.6964492033988092,11.924975362758188,0.7042659674947341,-0.14837461450000022,0.4896460344999999,0.5650591729999999
182222.0,2.4007659864999997,-0.75118939,12.130237650999998,-0.09593202233586832,-0.3199816837436324,-0.6213057977834454,12.388326290961254,0.7054162779523755,0.2405571245,0.04667965399999996,0.42972740299999934
182232.0,2.6246518059999997,-1.0252852575,10.492625167499998,-0.14123029774212917,-0.35195786096942056,-0.552826059252196,10.864400115406292,0.6704006150704316,0.22388581949999997,-0.27409586750000003,-1.6376124834999999
182242.0,2.6186697494999995,-1.0983448,9.7061318375,-0.14416245088547963,-0.29307045200713183,-0.4822135283750093,10.11300092967288,0.5824113572320244,-0.005982056500000166,-0.07305954250000002,-0.786493329999999
182252.0,2.727621631,-1.118742632,9.296704199999999,-0.11938052083641214,-0.17555917879960561,-0.4131997190926496,9.752959234040251,0.4645500423788695,0.10895188150000035,-0.020397832000000005,-0.40942763750000033
182262.0,2.5995467819999996,-1.0935395415,9.2201142635,-0.08021009643390341,-0.05911604709429994,-0.35271184320628207,9.641782990330508,0.36651604457644754,-0.12807484900000032,0.025203090500000025,-0.07658993649999957
182272.0,2.4582329554999998,-1.0696113155,9.31827883,-0.039175660390264724,0.018158405537749004,-0.29835356365291865,9.696251749174941,0.3014619528283509,-0.1413138264999998,0.023928225999999997,0.09816456650000127
182282.0,2.300247824,-1.064806057,9.3709405405,-0.016526522687134306,0.1004960583298335,-0.2546540098414847,9.707702024909244,0.2742649237877651,-0.15798513149999982,0.00480525850000002,0.052661710499998904
182292.0,1.978197438,-1.085203889,9.7983143475,-0.011463322527098757,0.14446264751682267,-0.2232119033668068,10.054744981193448,0.2661285743687865,-0.3220503859999999,-0.020397832000000005,0.4273738070000004
