timestamp,ax,ay,az,gx,gy,gz,acc_mag,gyro_mag,dax,day,daz
126202.0,-0.16632078399999997,3.268360312,10.2427517255,0.1595004043520058,-0.0988327595526829,-0.4482022972413958,10.752851000663979,0.4858946311719407,0.0,0.0,0.0
126212.0,0.07433440699999999,3.4442916129999994,9.785467635999998,0.10967299953681968,-0.048471283986386525,-0.43488019906092307,10.374201037894416,0.45110799121048634,0.24065519099999996,0.17593130099999943,-0.45728408950000166
126222.0,0.2993970245,3.3414198545,9.870491291499999,0.0990142737948903,0.030667180286792366,-0.3797225587101463,10.425033503922354,0.3936159599854313,0.2250626175,-0.10287175849999963,0.08502365550000057
126232.0,0.2909633055,3.4263454434999994,9.978168308499999,0.12645957628250112,0.06450736915371043,-0.3088429924574046,10.55406772463084,0.33990766260666627,-0.008433719000000006,0.08492558899999958,0.10767701700000032
126242.0,0.1126784085,3.40486888,10.1170304725,0.17602169105138413,0.027469737097138753,-0.2502208735414191,10.67521119675054,0.30716234751773486,-0.178284897,-0.02147656349999938,0.13886216400000073
126252.0,-0.05491724,3.3102347075,10.285802918999998,0.2450355003337439,-0.06392617451279631,-0.21105219446816229,10.805480619134704,0.329654335632759,-0.1675956485,-0.09463417250000017,0.16877244649999845
126262.0,-0.22133609049999997,3.1881419149999997,10.4737963995,0.3500222908289588,-0.19715762829303546,-0.2046555627596031,10.95050910018876,0.4508554467229344,-0.16641885049999997,-0.12209279250000016,0.1879934805000012
126272.0,-0.30518294799999995,3.0301567835,10.5671557075,0.48245438381178457,-0.3597001415312674,-0.22597301424346183,10.997261773318431,0.6428143024568591,-0.08384685749999998,-0.15798513149999982,0.09335930800000014
126282.0,-0.47395539449999996,3.060067066,10.574314561999998,0.6106226374319882,-0.4873360697296127,-0.2694072780085927,11.018383394151735,0.8263998618392324,-0.1687724465,0.02991028249999994,0.007158854499998313
126292.0,-0.756484981,3.1905935774999996,10.586278674999999,0.7022855844174783,-0.523841376364326,-0.3277623615490231,11.082484066671269,0.9354373283764461,-0.2825295865,0.13052651149999983,0.01196411300000122
126302.0,-1.0737301085,3.2851296835,10.676107588999999,0.7465174636507707,-0.47960775180178183,-0.40157233561586336,11.221597329935502,0.9739467438499494,-0.3172451275,0.09453610600000051,0.08982891399999993
126312.0,-1.3526312345,3.3114115055,10.847233631499998,0.7507813030133927,-0.38554672242405136,-0.4964327257910071,11.421800859393732,0.9791650991343113,-0.27890112600000005,0.026281822000000066,0.1711260424999992
126322.0,-1.6698763619999997,3.3306325395,11.016104144499998,0.713476635581266,-0.27176696315728904,-0.6054163202732891,11.629107906456651,0.9743896102880755,-0.31724512749999967,0.019221033999999637,0.1688705129999999
126332.0,-1.997810738,3.4683179054999997,11.205176356499999,0.6495260264589418,-0.1462638273048808,-0.7133335185826025,11.898590421505675,0.9757673262406618,-0.3279343760000004,0.13768536599999992,0.18907221200000102
126342.0,-2.379681689,3.5580487529999996,11.403957151999998,0.5834426249906804,-0.017828538309122077,-0.8044641401462344,12.180838829667628,0.9939243966295805,-0.3818709509999998,0.08973084749999982,0.19878079549999939
126352.0,-2.8657973295,3.5975695525,11.648142737,0.5213577728387382,0.09595122095764026,-0.8806721966053147,12.523359383183502,1.0279124875086698,-0.4861156405,0.039520799500000425,0.2441855850000021
126362.0,-3.311117306,3.5364741229999996,11.855259185,0.4518098928052681,0.170825845868197,-0.9651408964140843,12.80692458712349,1.0792639152608945,-0.4453199765,-0.06109542950000035,0.20711644799999895
126372.0,-3.6606263119999998,3.4982281879999997,12.109055286999999,0.3772005579410145,0.20253498771842998,-1.0829157143386616,13.12505258637264,1.1644771902114404,-0.3495090059999999,-0.03824593499999995,0.253796101999999
126382.0,-3.998171205,3.5389257855,12.353240871999999,0.31404930961610367,0.18734713256757532,-1.2241425214222867,13.457783203091779,1.277595722326025,-0.337544893,0.04069759750000035,0.24418558500000032
126392.0,-4.2112697095,3.6131621259999998,12.5555520615,0.27701167755953204,0.12312948806969597,-1.3744258419945106,13.727039764055101,1.407459674548074,-0.2130985045,0.07423634049999972,0.20231118950000138
126402.0,-4.3358141645,3.809491259,12.671662797499998,0.25302910830787795,0.02986781948937896,-1.5289747472586086,13.924171292217778,1.550057932480801,-0.12454445500000055,0.19632913300000032,0.11611073599999777
126412.0,-4.3346373665,3.9088326235,12.7650221055,0.21918891944095986,-0.06126280207425296,-1.6624732364144028,14.036161972971799,1.6779791938870587,0.0011767980000003675,0.09934136449999986,0.09335930800000192
126422.0,-4.2064644509999995,4.076428271999999,12.763845307499999,0.16616232610686815,-0.14120062714484524,-1.8026319019958073,14.043765793692138,1.8157723727979684,0.12817291550000043,0.16759564849999942,-0.0011767980000012557
126432.0,-3.975419777,4.2810930575,12.7877735335,0.09288467746188622,-0.18863169489704315,-1.9217401514689085,14.05912060245663,1.933208392645416,0.23104467399999962,0.20466478550000033,0.023928226000000663
126442.0,-3.4990127199999996,4.5707814985,12.77218096,0.004153883619746504,-0.21554467196279573,-1.9899545999538548,14.009416119051437,2.001598378855804,0.4764070570000003,0.289688441,-0.015592573499999318
126452.0,-3.396042895,4.899990739,12.762668509500001,-0.08990714575798389,-0.2317989232866189,-2.0152688554247806,14.08647308840466,2.0305473634811597,0.10296982499999974,0.3292092405,-0.009512450499999048
126462.0,-3.290719474,4.931175885999999,12.862009874,-0.18716736365461992,-0.2504512570026823,-2.0317901421241586,14.162507838448112,2.055706359328723,0.10532342100000003,0.031185146999999525,0.09934136449999897
126472.0,-3.2260936504999997,5.026888789999999,12.9948899815,-0.24525541181949517,-0.28695656363739575,-2.067761378007762,14.301903956470731,2.101935156664423,0.06462582350000012,0.09571290399999999,0.13288010750000012
126482.0,-3.047710687,5.040029700999999,13.1696444845,-0.24525541181949517,-0.36369694551833437,-2.139173269682362,14.426710493620414,2.183686782239991,0.17838296349999982,0.01314091099999981,0.17475450299999906
126492.0,-2.6849627034999997,5.1346638735,13.361168358999999,-0.22233923874080966,-0.4580250102716199,-2.22231028327186,14.563468602312938,2.2798869801492385,0.36274798350000026,0.09463417250000106,0.19152387449999964
126502.0,-2.179822162,5.383654717,13.4593329255,-0.23113220751235708,-0.5270388195539797,-2.29372217494646,14.659092931326654,2.364815728657839,0.5051405414999999,0.24899084349999967,0.09816456650000127
126512.0,-1.601622078,5.6110709304999995,13.598195089499999,-0.31160410333405963,-0.5249060272080426,-2.325963642218551,14.797304482909752,2.4047308205985427,0.5782000839999999,0.22741621349999974,0.13886216399999896
126522.0,-1.1790535295,5.839762008499999,13.750296230999998,-0.4693504517878111,-0.4393726765555565,-2.2947885711194282,14.985447406787664,2.383147662575142,0.4225685484999999,0.22869107799999977,0.15210114149999931
126532.0,-0.8594548059999999,5.852902919499999,13.804134739499998,-0.6963758995702255,-0.30534186197790397,-2.218845804706651,15.018297874756605,2.3455169475496613,0.31959872350000007,0.01314091099999981,0.05383850850000016
126542.0,-0.49307836199999994,5.546445106999999,13.8149220545,-0.9708324151048379,-0.1462638273048808,-2.1386409442605037,14.894906880136826,2.353230497393662,0.36637644399999997,-0.3064578124999997,0.01078731500000174
126552.0,-0.193779404,5.1154428395,13.7694191985,-1.2444895698420368,0.017877407528177916,-2.0864137117238255,14.690207995996067,2.4294435716053866,0.29929895799999995,-0.43100226749999937,-0.04550285600000059
126562.0,-0.0693330155,4.773092687999999,13.674883092499998,-1.4539290800813562,0.10927331913811299,-2.0624328878014233,14.48411711043582,2.525763220269588,0.12444638849999999,-0.3423501515000007,-0.0945361060000014
126572.0,0.142588691,4.4631044815,13.539551322499998,-1.56424436078291,0.10261314271250262,-2.0645639348181084,14.25689598623059,2.5922604263943274,0.21192170649999997,-0.30998820649999903,-0.13533177000000052
126582.0,0.4370823905,4.261970089999999,13.385096585,-1.5916896632705209,0.022406536937103205,-2.0768213821548644,14.054047127212803,2.6167088279813213,0.2944936995,-0.201134391500001,-0.15445473749999827
126592.0,0.8488636239999999,4.1410540954999995,13.1827853955,-1.550655227226882,-0.08391193977738338,-2.075489695935593,13.843941969605904,2.5921478208809923,0.41178123349999995,-0.12091599449999979,-0.2023111894999996
126602.0,1.369596739,4.0141560445,13.018818207499999,-1.4603239664606635,-0.16464912564538906,-2.0373856677060527,13.692292412047328,2.5120899228668616,0.520733115,-0.1268980509999995,-0.16396718800000087
126612.0,1.8615963695,3.848913992,13.022446667999999,-1.3577370036869407,-0.2179427543550359,-1.9633086582636574,13.70634149514936,2.3969834590521675,0.49199963050000006,-0.16524205250000001,0.003628460499999875
126622.0,2.3535959999999996,3.8884347914999995,13.161308831999998,-1.2892555198264393,-0.23712741349295757,-1.857257216924726,13.924057936903479,2.2732825551285485,0.4919996304999996,0.03952079949999954,0.13886216399999896
126632.0,2.783323403,4.018961303,13.450997273,-1.2935193591890615,-0.24698677843747358,-1.722160006174105,14.311822621837948,2.167955232052866,0.42972740300000023,0.13052651150000072,0.2896884410000027
126642.0,3.1628407579999998,4.182928490999999,13.644874743499999,-1.379852070638961,-0.273632720127671,-1.5612162145306996,14.617902010449027,2.1014905831063495,0.37951735499999995,0.1639671879999991,0.1938774704999986
126652.0,3.429777771,4.4415298514999995,13.670077834,-1.5375984190927123,-0.30827226979200245,-1.3936122464616842,14.777063002093126,2.097950376964885,0.26693701300000017,0.25860136050000015,0.02520309050000158
126662.0,3.5830557104999996,4.515766192,13.661644115,-1.709733261899905,-0.3418471686126174,-1.2148154818996293,14.828046144056572,2.125046815625101,0.15327793949999968,0.07423634050000061,-0.008433719000001005
126672.0,3.6106123969999997,4.5337123615,13.577895324,-1.8413659940853175,-0.4036667307182565,-1.0448116861091215,14.763140285443644,2.1552742315289626,0.027556686500000094,0.017946169500000053,-0.08374879099999966
126682.0,3.6847506709999998,4.40318585,13.370778876,-1.9298314978811542,-0.4926645599359514,-0.8993245303213783,14.551397214287121,2.185349534895704,0.07413827400000006,-0.13052651150000028,-0.20711644800000073
126692.0,3.8368518124999995,4.344542083,13.0535337485,-2.0143001976899235,-0.56754093017576,-0.7698228451526509,14.282549529592782,2.2298285151009605,0.15210114149999976,-0.058643766999999514,-0.31724512749999967
126702.0,4.006801057,4.2452007185,12.650088167499998,-2.115555474244375,-0.609109436970509,-0.6440526739246875,13.93201042550043,2.293772682198786,0.16994924450000015,-0.09934136450000075,-0.4034455810000015
126712.0,4.096629971,3.9339376474999996,12.1879988195,-2.2242720333511015,-0.6354883432851514,-0.5113552908955586,13.446395716244806,2.3691170815993945,0.08982891399999993,-0.31126307099999995,-0.46208934799999746
126722.0,4.121734995,3.6095336655,11.695999189,-2.3140709686954617,-0.6757251638606286,-0.3911806452494891,12.915642828774502,2.4422430760371565,0.025105024000000142,-0.32440398199999976,-0.4919996305000005
126732.0,4.1157529385,3.3509323049999997,11.048368022999998,-2.373490703079609,-0.7522002556952642,-0.30164874528068397,12.25702270272487,2.5080381392241167,-0.005982056499999722,-0.25860136050000015,-0.6476311660000018
126742.0,4.1277170514999995,3.0097589515,10.4342756,-2.382285417180408,-0.8177495864124152,-0.22783877121384377,11.617693587805352,2.5290133848313934,0.011964112999999443,-0.3411733534999999,-0.6140924229999989
126752.0,4.0486754524999995,2.7225221729999998,9.955416880499998,-2.3178007373069733,-0.8595833832534673,-0.14949792240882628,11.086668803869674,2.4765769682024383,-0.07904159899999996,-0.28723677850000007,-0.4788587195000016
126762.0,3.994836944,2.5381571529999998,9.5939437615,-2.198957777880176,-0.8774363561721173,-0.08634667408391547,10.69788394222414,2.3691276065585147,-0.053838508499999715,-0.18436502,-0.36147311899999757
126772.0,4.101337162999999,2.2687684774999997,9.567563873,-2.0446759079916332,-0.8832989171295662,-0.04424584186730825,10.653945531728482,2.227750937660272,0.10650021899999951,-0.2693886755000001,-0.02637988850000106
126782.0,4.319240926,2.333394301,9.729177465,-1.8991887522038897,-0.9120776511657007,-0.013336060814488673,10.897589884292602,2.106889035704481,0.2179037630000007,0.06462582350000012,0.16161359200000014
126792.0,4.549108802,2.7476271969999995,10.008078591,-1.8029949304802222,-0.946184875408174,0.04342030113111493,11.331614324082889,2.0366496655877957,0.22986787600000014,0.4142328959999997,0.27890112600000094
126802.0,4.6675731339999995,3.3533839674999997,10.204407724,-1.8024626050583639,-0.9864199506543991,0.1590658173682592,11.71159083952114,2.0608730421687413,0.1184643319999994,0.6057567705000002,0.196329132999999
126812.0,5.0075696895,3.4957765254999997,10.281095727,-1.8973229952335078,-1.0162633355342503,0.3189432128386958,11.958141036932691,2.175856265567402,0.33999655550000085,0.14239255800000006,0.076688003000001
126822.0,5.234985902999999,3.465866243,10.124189327,-2.025491248853711,-1.0181290925046322,0.5105297501593653,11.912871851401592,2.32375607024168,0.22741621349999885,-0.02991028249999994,-0.15690640000000045
126832.0,5.245773217999999,3.2372732315,9.775857119,-2.126481235361859,-1.0229252572891125,0.7117086170489958,11.557052264361163,2.4647165520456684,0.010787314999999964,-0.22859301149999967,-0.3483322080000004
126842.0,5.024339061,2.9044355305,9.335342401,-2.1616531104480488,-1.0525033521226606,0.9126204485630709,10.992194798793808,2.571649968264465,-0.22143415699999913,-0.3328377010000003,-0.4405147179999993
126852.0,4.665219538,2.6338700569999998,8.7715580925,-2.1528601416765016,-1.0858112155677204,1.0818248835561652,10.278218531681468,2.642751949039737,-0.3591195230000004,-0.27056547350000004,-0.5637843085000007
126862.0,4.340815556,2.285537849,8.1405982315,-2.13127740014634,-1.0975345921533661,1.2086614509570972,9.50450958845979,2.684732396418219,-0.32440398199999976,-0.348332208,-0.6309598609999991
126872.0,4.051127115,1.9096489544999997,7.653403859499999,-2.095836744355343,-1.0818126662514012,1.2968599193773784,8.867523931059935,2.6915972868056373,-0.289688441,-0.37588889450000007,-0.48719437200000115
126882.0,3.7925257544999997,1.566122005,7.2272068505,-2.034818288376369,-1.0668918464761017,1.3576130853100492,8.31074657254119,2.6686807542666457,-0.25860136050000015,-0.34352694949999973,-0.4261970089999991
126892.0,3.60100188,1.4259849765000001,6.8190540775,-1.9522136002087294,-1.0445079988192745,1.3981151959318296,7.842202892353437,2.6185608645843756,-0.19152387449999964,-0.14013702849999987,-0.4081527730000003
126902.0,3.4596880535,1.3757749284999998,6.4826859825,-1.8688112965729284,-1.0029412373537776,1.4367532949124802,7.4757886292431905,2.561758540187811,-0.14131382650000024,-0.050210048000000285,-0.3363680950000001
126912.0,3.2143256705,1.3972514919999999,6.257623365,-1.802195569682809,-0.9333933573203075,1.4673960405897444,7.17231144235423,2.504472633272817,-0.2453623829999998,0.021476563500000045,-0.2250626174999999
126922.0,2.8899216885,1.3900926374999998,6.110327482,-1.7539668864624496,-0.849191692887093,1.5012362294566626,6.9007323411199515,2.459926134400886,-0.3244039820000002,-0.007158854500000089,-0.14729588299999996
126932.0,2.4505837685,1.3518467024999998,6.080417199499999,-1.7105326226973185,-0.7958998095066981,1.5486672972088604,6.693603187631546,2.4408500071755252,-0.4393379199999998,-0.03824593499999995,-0.029910282500000385
126942.0,1.8053061984999998,1.1518891089999999,6.2396771955,-1.6321917738923013,-0.8238774374161674,1.5926338863958496,6.596934931755661,2.424728173371497,-0.6452775700000002,-0.19995759349999997,0.1592599960000003
126952.0,1.243875486,0.7771770124999999,6.4167852944999995,-1.5064216026643378,-0.9901497192659111,1.6160823848963934,6.582276494431209,2.4210379563956796,-0.5614307124999998,-0.3747120964999999,0.1771080989999998
126962.0,0.8500404219999999,0.5233809105,6.202509992,-1.3649312508636615,-1.1985245786615142,1.6203444789297636,6.282326519480629,2.4341353116945177,-0.39383506400000023,-0.2537961019999999,-0.21427530249999904
126972.0,0.6465524345,0.3223445855,5.765623734499999,-1.2474199776561352,-1.3480102837655763,1.6118185455337712,5.810710208760093,2.443593122743634,-0.20348798749999986,-0.20103632500000002,-0.4368862575000012
126982.0,0.663321806,-0.002157463,5.396893694499999,-1.1352406853134516,-1.382916868805463,1.6062230199518774,5.43750512852131,2.4044090478620705,0.01676937150000002,-0.32450204850000003,-0.36873004
126992.0,0.7123550559999999,-0.163771055,5.1801667295,-1.0678255976259188,-1.3221619575435404,1.6003604589944285,5.231481437383039,2.3344201309176067,0.04903324999999992,-0.161613592,-0.21672696499999944
127002.0,0.8332710504999999,-0.3252865805,5.167025818499999,-1.0561004757110208,-1.2211737163646446,1.5865042900628457,5.243882894583015,2.263539114467584,0.12091599450000001,-0.16151552549999998,-0.013140911000000699
127012.0,0.9709564165,-0.388735606,5.171831076999999,-1.0659598406555368,-1.1572231072423202,1.5769119604938846,5.276524274855341,2.227574248588499,0.13768536600000003,-0.06344902550000003,0.004805258500000242
127022.0,1.1421805255,-0.4617951485,5.208900213999999,-1.06436111906071,-1.1476290323441074,1.5920998156447395,5.352613618730463,2.232643905915866,0.17122410899999996,-0.07305954249999996,0.037069136999999586
127032.0,1.2271061144999997,-0.5647649735,5.103576792999999,-1.0262570908311697,-1.1873317821684743,1.6307379146253898,5.279322397200601,2.2632424800770656,0.0849255889999998,-0.10296982500000001,-0.10532342099999958
127042.0,1.2594680594999998,-0.5898699975,4.92882229,-0.9564439207513965,-1.2592777445941847,1.6744374684368237,5.121278704899021,2.3031079538913586,0.032361945000000114,-0.02510502400000003,-0.17475450299999906
127052.0,1.415099595,-0.6712651924999999,4.684636705,-0.8701094639722451,-1.3402819658377456,1.7181370222482577,4.939526787078341,2.3463676298619682,0.1556315355000002,-0.08139519499999992,-0.24418558500000032
127062.0,1.658108382,-0.8436660994999999,4.4320174009999995,-0.7709852344344791,-1.3935738492181404,1.7650340192493457,4.8066489508462125,2.377353863868009,0.24300878699999995,-0.172400907,-0.25261930400000043
127072.0,1.807757861,-0.8675943254999999,4.1961674685,-0.657739545918827,-1.3975706532052075,1.8113986908285749,4.650648322690589,2.380544109673545,0.14964947900000003,-0.023928225999999997,-0.23584993249999986
127082.0,1.7898116915,-0.7790402759999999,3.9926794809999997,-0.5362332140534858,-1.3709247115150098,1.861227840973013,4.44430186650937,2.3730043616710246,-0.017946169500000053,0.08855404950000001,-0.20348798749999997
127092.0,1.7622550049999999,-0.823366334,3.7975271459999993,-0.42271874483302657,-1.3237606791383671,1.9235797285005103,4.266695120021941,2.37301336801211,-0.027556686500000094,-0.04432605800000011,-0.1951523350000004
127102.0,1.5826952435,-0.9190792379999999,3.7018142419999998,-0.31453625647741007,-1.261675826986425,1.9648811999197044,4.129535029733277,2.3561657579293103,-0.17955976149999997,-0.09571290399999988,-0.09571290399999954
127112.0,1.2606448575,-0.9466359245,3.691026927,-0.18823201449833646,-1.2360945361399438,1.9912618515635987,4.013604963886484,2.3512730073408354,-0.3220503859999999,-0.027556686500000094,-0.010787314999999964
127122.0,1.0403874985,-1.023225861,3.716131951,-0.03368485456349056,-1.2504847758226372,2.0155097108615556,3.9923719750165243,2.372156453223182,-0.2202573590000001,-0.07658993650000001,0.025105024000000142
127132.0,0.8847559629999999,-1.0986389994999999,3.8885328579999996,0.140048709838529,-1.2883217686766222,2.0328286130290953,4.136482630572992,2.410763113771922,-0.15563153549999997,-0.07541313849999987,0.17240090699999966
127142.0,0.7375581465,-1.0843212905,4.013077312999999,0.2943305797270718,-1.3312219616906429,2.053879029137399,4.2219112023603,2.465198058530053,-0.14719781649999997,0.014317708999999956,0.12454445499999967
127152.0,0.5890854655,-1.0256775235,4.0225897635,0.4307594766969645,-1.3634651742919863,2.0786609591864664,4.192882597127117,2.5229788725863957,-0.148472681,0.05864376699999996,0.009512450500000824
127162.0,0.4370823905,-1.0854980884999998,4.020236167499999,0.5248205060746949,-1.3544051701448836,2.0946481751347346,4.187080839761448,2.548999981582378,-0.152003075,-0.05982056499999988,-0.002353596000000735
127172.0,0.19642719949999998,-1.0735339755,4.038182336999999,0.5885058251507159,-1.3003121806378233,2.1037081792818375,4.183058143047384,2.5421917663560945,-0.240655191,0.011964112999999887,0.017946169500000053
127182.0,-0.12317152399999999,-1.0663751209999999,3.968751255,0.6324724143377052,-1.2198402848161207,2.111701787255971,4.111363964316018,2.5193880434856606,-0.31959872349999996,0.007158854500000089,-0.06943108199999948
127192.0,-0.46199128149999996,-1.0903033469999999,3.9496282875,0.6812351683091747,-1.1550903148963831,2.104774575454806,4.123319165682132,2.4956744586563393,-0.3388197575,-0.023928225999999997,-0.019122967499999977
127202.0,-0.7301050925,-1.0735339755,3.9411945685,0.7499819422159794,-1.12338117304615,2.0746641551993994,4.149523258088954,2.4756190196542427,-0.26811381100000004,0.016769371499999908,-0.008433719000000117
127212.0,-0.849844289,-1.1118779769999998,3.8549941149999998,0.8315202342106505,-1.11911907901278,2.026700762025343,4.1011568584934865,2.4599531279490376,-0.11973919649999998,-0.038344001499999836,-0.08620045350000005
127222.0,-0.864161998,-1.0974622015,3.748493896,0.9146555024708964,-1.1148552396501579,1.9688780039067713,4.000300705054288,2.4404871415034357,-0.014317709000000067,0.014415775499999839,-0.10650021899999995
127232.0,-0.886913426,-1.044800491,3.645524071,0.9836693117532562,-1.0687576034464836,1.8995971592488563,3.8946205519220114,2.3913003778773008,-0.022751427999999962,0.052661710500000014,-0.10296982499999974
127242.0,-1.0784373004999999,-1.000474433,3.608454934,1.0438901522640684,-1.023724618086526,1.82951869912278,3.896783688236408,2.3419772445756624,-0.19152387449999986,0.044326058,-0.03706913700000003
127252.0,-1.4483441384999998,-0.9190792379999999,3.6922037249999997,1.1219639656935307,-1.031985261436215,1.7655680900004558,4.071213054625592,2.3326009947190247,-0.3699068379999999,0.08139519500000003,0.08374879099999966
127262.0,-1.8482593255,-0.941830666,3.8669582279999997,1.2352096542091828,-1.1137888434771894,1.7216015008134666,4.388219852606819,2.3937794813451396,-0.39991518700000017,-0.022751428000000073,0.17475450299999995
127272.0,-2.1858042185,-0.9119203834999999,4.0118024485,1.3814979161235916,-1.2664719917709053,1.6909587551362022,4.658744224922182,2.524248266269735,-0.337544893,0.02991028250000005,0.14484422050000045
127282.0,-2.3545766649999997,-0.8687711235,4.118400734,1.5634921238753003,-1.4450017209574053,1.672571711466442,4.8228642052417054,2.7074035024332344,-0.16877244649999978,0.04314925999999997,0.10659828549999961
127292.0,-2.3605587215,-0.9071151249999999,4.2428471225,1.7745303557094467,-1.5800989317080263,1.6680425820575167,4.939316453980248,2.90310810561306,-0.005982056500000166,-0.03834400149999995,0.1244463885
127302.0,-2.4156720944999996,-0.9358486094999999,4.30511935,1.999691791850731,-1.63871930529476,1.6632464172730361,5.024473793920466,3.0741758031239073,-0.055113372999999743,-0.028733484500000017,0.06227222750000028
127312.0,-2.5808160805,-0.7707046234999999,4.41887649,2.1875468152306365,-1.6384540152484566,1.63313599701763,5.175042675372482,3.183869628873685,-0.16514398600000035,0.16514398600000002,0.1137571399999997
127322.0,-2.7196782445,-0.6544958209999999,4.767208697999999,2.2912001741773285,-1.5936880652640542,1.577711321291298,5.527322435284549,3.2060275889090595,-0.13886216399999984,0.11620880249999999,0.34833220799999953
127332.0,-2.7555705835,-0.7838455344999999,5.074843308499999,2.3460925244818016,-1.4934974395533198,1.533479442058006,5.827659707672827,3.1758847483175847,-0.035892339000000106,-0.12934971350000002,0.30763461050000007
127342.0,-2.9352284115000002,-0.91790244,5.274800902,2.3615474150082116,-1.3357528364288203,1.481784534943186,6.1058689203728225,3.0914118524318948,-0.1796578280000003,-0.13405690550000005,0.19995759350000064
127352.0,-3.312294104,-1.1549291705,5.4412197524999995,2.408711447384854,-1.1897298645607146,1.3464220341462616,6.473949800180809,3.005029164821042,-0.37706569249999955,-0.2370267305,0.1664188504999995
127362.0,-3.4008481534999997,-1.253093737,5.8960521795,2.4918467156451003,-1.0967352313559526,1.1473742142733163,6.920942376603036,2.9544197077510805,-0.0885540494999999,-0.09816456649999994,0.45483242700000037
127372.0,-3.3541684994999996,-1.057941402,6.488668039,2.5539333131262945,-1.0114671707497698,0.9203487664909019,7.380548709509606,2.897012781708448,0.04667965400000007,0.19515233499999995,0.5926158595000004
127382.0,-3.3074888455,-0.8041453,7.163757825,2.585375419600972,-0.9123429412120039,0.7167718172090313,7.93130243414458,2.8337779624736674,0.046679653999999626,0.253796102,0.675089786
127392.0,-3.2751269004999997,-0.595852054,7.9754542455,2.6229471224086547,-0.8025599859323085,0.5718152415138942,8.642300984500524,2.8019505363940853,0.032361945000000336,0.208293246,0.8116964204999997
127402.0,-3.2631627874999998,-0.338525558,8.9104202565,2.667713072393057,-0.719957043093921,0.46416507858013595,9.495178780759714,2.8018708750923285,0.011964112999999887,0.25732649599999996,0.9349660110000002
127412.0,-3.1782371984999997,-0.15896579649999998,9.6884798675,2.683700288341325,-0.6858498188514478,0.35171700553264534,10.197700915271971,2.792193056298709,0.08492558900000002,0.17955976150000003,0.7780596109999998
127422.0,-2.977102807,-0.014121576,10.395931598499999,2.642664106968434,-0.702371105550826,0.2094272929345556,10.813821449563829,2.74241837493805,0.20113439149999968,0.14484422049999998,0.707451730999999
127432.0,-2.688591164,0.14513842,10.745538670999998,2.5856424549765276,-0.7620578753105282,0.036493089329949435,11.07773392612656,2.6958506738817496,0.2885116430000001,0.159259996,0.34960707249999956
127442.0,-2.249253244,0.41325223099999997,11.0435627645,2.552601626907023,-0.809488943062726,-0.1660192091082046,11.277863099697651,2.683022510606667,0.4393379199999998,0.268113811,0.29802409350000225
127452.0,-1.706945499,0.8238566665,11.280589495000001,2.5227564966979195,-0.7860404445621823,-0.3536089424418072,11.438710683385485,2.6659330836114186,0.5423077450000002,0.41060443550000003,0.23702673050000023
127462.0,-1.2029817555,1.2105328759999998,11.4470083455,2.493445437239927,-0.6746587676876601,-0.47698103127753033,11.573528200591614,2.626774734443176,0.5039637435,0.3866762094999998,0.1664188504999995
127472.0,-0.9121165164999999,1.5816165119999999,11.578711655,2.452411001196288,-0.5046549718971524,-0.5164167457263422,11.721775928601263,2.556498115531416,0.29086523900000005,0.37108363600000005,0.13170330949999887
127482.0,-0.840233772,1.878561874,11.719927414999999,2.3831301565383733,-0.29521546165783286,-0.5025605767947592,11.899230484318064,2.453370873951336,0.07188274449999987,0.2969453620000002,0.1412157599999997
127492.0,-1.037739703,2.0377238035,12.0467830595,2.300794249075541,-0.07032106089210352,-0.4756493450582587,12.261900508207901,2.3504981445724273,-0.1975059309999999,0.15916192949999997,0.32685564450000015
127502.0,-1.2747664335,2.028211353,12.4417949215,2.2173902001104877,0.11939971945818408,-0.474315913509735,12.670316950300792,2.2706939860671005,-0.2370267305,-0.009512450499999936,0.3950118620000005
127512.0,-1.5944632235,2.062926894,12.993713183499999,2.141981504448821,0.2478350084539428,-0.5182825026967242,13.252719065767002,2.21768431238934,-0.31969679000000006,0.03471554099999974,0.5519182619999992
127522.0,-2.0218370305,2.2101247104999997,13.4928716685,2.0804289777187366,0.28567200130792786,-0.5992867239402849,13.821362526049077,2.1837897795241608,-0.42737380699999994,0.14719781649999986,0.4991584850000006
127532.0,-2.306720213,2.331040705,13.866406967,2.0138132508286173,0.21319371346035934,-0.7218594519785947,14.24892806788973,2.149878237734123,-0.2848831825000002,0.12091599450000023,0.3735352985000002
127542.0,-2.249253244,2.3501636725,14.029197357,1.925880072454639,0.061044635917753665,-0.8883987692038936,14.401416177752763,2.1217900165132293,0.057466969000000034,0.019122967499999977,0.16279038999999962
127552.0,-1.8625770344999997,2.2807325905,13.957314612499998,1.836882243236944,-0.08497659062109993,-1.0514736078639837,14.264556268987887,2.1182431740730987,0.3866762095000005,-0.06943108199999992,-0.07188274450000165
127562.0,-1.3765594604999998,2.3046608164999998,13.619769719499999,1.6975229384529529,-0.11642044242502976,-1.1695172064933683,13.881804804837575,2.064681172063241,0.4860175739999999,0.023928225999999775,-0.3375448929999987
127572.0,-1.0533322765,2.4232232149999997,13.1206112345,1.5229900132535201,0.012014846570728965,-1.2411943882142715,13.38401878365834,1.9647408089472451,0.32322718399999983,0.11856239849999994,-0.4991584849999988
127582.0,-0.8342517155,2.5022648139999997,12.592621198499998,1.3172802716257122,0.28007647572603406,-1.2904912129368513,12.865901203301256,1.8652178738519132,0.21908056099999995,0.07904159899999996,-0.527990036000002
127592.0,-0.860631604,2.5956241220000003,12.2693940145,1.1467441504133462,0.601697023637289,-1.327528844993423,12.57044075693292,1.8545604031820508,-0.02637988850000006,0.09335930800000058,-0.3232271839999985
127602.0,-1.0197935335,2.641126978,12.215555506,1.0670716153890571,0.8364507893475345,-1.356839904451416,12.53935113492938,1.9181517879669618,-0.15916192949999985,0.0455028559999997,-0.05383850850000016
127612.0,-1.194646103,2.6745676544999997,12.320878926999999,1.0841252275102937,0.8950711629342679,-1.363768861581833,12.66430215146904,1.9586590830108639,-0.17485256950000005,0.03344067649999971,0.10532342099999958
127622.0,-1.3430207174999997,2.6207291459999995,12.551923601,1.17019264891389,0.7807590782456474,-1.345381817912073,12.892738731148976,1.9465322524436872,-0.14837461449999978,-0.05383850850000016,0.2310446740000014
127632.0,-1.3514544364999999,2.4602923519999997,12.742270677499999,1.309286663651578,0.5449406616916855,-1.3267294841960096,13.047794049950417,1.9420100454466918,-0.008433719000000117,-0.16043679399999977,0.19034707649999838
127642.0,-1.3179156935,2.2579811625,12.842886906499999,1.4787563886909756,0.2635551890266557,-1.3320597197316002,13.106300957880052,2.0076266813550476,0.033538742999999815,-0.2023111894999996,0.10061622899999989
127652.0,-1.2687843769999998,2.2352297345,12.9158483825,1.6087903992815613,0.007751007208106817,-1.3677656655689001,13.169100394523541,2.1116461689502817,0.049131316500000244,-0.022751428000000296,0.07296147600000147
127662.0,-1.0832425589999999,2.3094660749999996,12.957722777999999,1.6474267529329598,-0.13613742698480968,-1.4578298909595637,13.20642372426028,2.2040454387966806,0.18554181799999991,0.07423634049999972,0.04187439549999894
127672.0,-0.886913426,2.6326932589999994,12.893096954499999,1.5685553240353358,-0.09243787317337566,-1.5881291915964522,13.188996864786201,2.2340691337013756,0.19632913299999988,0.32322718399999983,-0.06462582350000012
127682.0,-0.744520868,3.081641696,12.7758094205,1.3945547242577612,0.10127971116397895,-1.7237587277689317,13.163287325525861,2.2195460370090694,0.14239255800000006,0.44894843700000076,-0.11728753399999903
127692.0,-0.469150136,3.579623383,12.7734558245,1.1931088219925756,0.3576162184043861,-1.8410029656009028,13.273845679179871,2.2227662810411903,0.27537073199999995,0.4979816869999998,-0.002353596000000735
127702.0,-0.3099882065,4.075251474,12.8799560435,1.0220403753583513,0.601429988261734,-1.9190750337011129,13.512847033360528,2.2559108015650966,0.15916192950000002,0.49562809099999994,0.10650021900000084
127712.0,-0.12562318649999998,4.273934203,13.1361057415,0.8925386901896242,0.7490499363954144,-1.9521176070998698,13.814469544952818,2.2734256690397214,0.18436502,0.19868272899999972,0.25614969799999976
127722.0,0.1389602305,4.394850197499999,13.312135109,0.818728716122784,0.7490499363954144,-1.9193420690766683,14.019520653873899,2.217040030298403,0.264583417,0.12091599449999979,0.17602936749999998
127732.0,0.41668455849999997,4.272757404999999,13.454527666999999,0.7864872488506927,0.633139130111967,-1.8346063338923435,14.122832456888494,2.094088763887905,0.27772432799999996,-0.12209279250000016,0.14239255799999917
127742.0,0.650180895,4.0500483835,13.619769719499999,0.7771619546572871,0.45407707550360876,-1.716297445216656,14.224055480668058,1.9379999005990338,0.2334963365,-0.22270902149999916,0.16524205250000001
127752.0,0.7136299205,3.906380961,13.677236688499999,0.7614400287553221,0.2707494362033764,-1.6150421686622047,14.242046317476522,1.8059505478147706,0.06344902549999998,-0.14366742250000009,0.057466969000000034
127762.0,0.537600553,3.8968685104999996,13.608982404499999,0.7182728003657465,0.14124949636390108,-1.5676111009100069,14.16612158033041,1.7301074532134098,-0.17602936749999998,-0.00951245050000038,-0.068254284
127772.0,0.501708214,3.8286142264999996,13.477279095,0.6327377043840082,0.1156682055174202,-1.6065144899369606,14.019523880356182,1.7304984665391,-0.035892338999999995,-0.068254284,-0.13170330949999887
127782.0,0.559175183,3.929132389,13.4330511035,0.4837860700310562,0.228383313940466,-1.7067051156476951,14.007056084874312,1.7885888995016535,0.057466969000000034,0.10051816250000023,-0.044227991499999675
127792.0,0.6130136915,4.217644032,13.416281731999998,0.26875103420984287,0.46633277751111296,-1.8204848749144573,14.076964249405073,1.8983831429831008,0.05383850849999994,0.2885116430000001,-0.01676937150000235
127802.0,0.6896036279999999,4.5599941835,13.568284807,0.0076166168557032544,0.7485176109735561,-1.9094827041321523,14.33064732387102,2.050965827157957,0.0765899364999999,0.3423501514999998,0.15200307500000143
127812.0,0.7495222595,4.854487883,13.859150046,-0.25804518457810965,0.9536932818502536,-1.948920163910216,14.703872830694014,2.1850418756687664,0.0599186315000001,0.29449369950000026,0.2908652390000004
127822.0,0.7794325419999999,5.092789477999999,14.0004638725,-0.4856047031116343,1.0011243496024513,-1.9278697478019124,14.918344693696206,2.225925348150939,0.02991028249999994,0.23830159499999937,0.14131382649999935
127832.0,0.8189533415,5.256756665999999,13.883176338499998,-0.6406859337975904,0.8748201076233778,-1.8492618636213398,14.867641388834198,2.1437252918022263,0.03952079950000009,0.16396718799999999,-0.1172875340000008
127842.0,0.858474141,5.2710743749999995,13.520428355,-0.705168868341773,0.6139544709740453,-1.7146987236218292,14.536959304484391,1.9530476026194976,0.03952079949999998,0.014317709000000178,-0.3627479834999985
127852.0,0.8297406565,5.236358834,12.925458899499999,-0.6907803739883317,0.2816751973208608,-1.542298590768333,13.970519358925873,1.7132435276279876,-0.028733484500000017,-0.03471554099999974,-0.5949694555000011
127862.0,0.814148083,5.1585920995,12.110232085,-0.6433510515653857,-0.058864719682012755,-1.3581715906706873,13.188314172123738,1.503993251473714,-0.015592573499999984,-0.07776673449999993,-0.815226814499999
127872.0,0.862004535,4.8353649155,11.333349272,-0.594054226842806,-0.30054569719342356,-1.202825069938428,12.351866717446065,1.3747786328728233,0.047856451999999994,-0.3232271840000003,-0.7768828130000003
127882.0,1.1900369775,4.135072039,10.577943022500001,-0.51278297022369,-0.43564116261479263,-1.069860651533744,11.419627286509547,1.2638557713663396,0.32803244249999997,-0.7002928764999998,-0.7554062494999982
127892.0,1.3252706810000001,3.80105754,9.982973567,-0.4003366425054513,-0.4305797077840091,-1.0008468422513843,10.764020719031052,1.1607595417365595,0.1352337035000002,-0.3340144989999998,-0.5949694555000011
127902.0,1.4402046189999997,3.579623383,9.7435932405,-0.29082072260131114,-0.32159611330172716,-0.9832591593790374,10.47976632110786,1.0746158975596338,0.11493393799999962,-0.22143415700000002,-0.23938032650000096
127912.0,1.5539617589999999,3.4849892104999998,9.695638722,-0.22153987794339625,-0.13880254475260503,-0.9896540457583447,10.419470100407294,1.0236020683033196,0.11375714000000015,-0.09463417250000017,-0.04795451849999921
