timestamp,ax,ay,az,gx,gy,gz,acc_mag,gyro_mag,dax,day,daz
161122.0,0.7942405835,-0.6542016215,9.792332291,0.026640705702441446,0.010697122985473246,-0.012705996954518718,9.846246470783319,0.03139423512523717,0.0,0.0,0.0
161132.0,0.8421951019999999,-0.8038511005,9.0704647845,0.023975587934646103,-0.027406905244066956,-0.011374310735247044,9.144878380189782,0.03814894777803405,0.047954518499999876,-0.14964947899999992,-0.7218675064999989
161142.0,0.876910643,-0.7344200184999999,9.160293698499999,0.017580701555338883,0.008299040593233036,-0.015104079346758927,9.231431399417914,0.024618861770179676,0.03471554100000007,0.06943108200000003,0.08982891399999815
161152.0,0.7667819634999999,-0.6242913389999999,9.211778611,0.007988371986378046,0.08903797179049072,-0.0257628050886883,9.264694243933603,0.09303384670965033,-0.11012867950000005,0.11012867950000005,0.0514849125000012
161162.0,0.6769530494999999,-0.475818658,9.3015094585,-0.026918213053508545,0.19802156627277265,-0.03908664859841301,9.338241110246257,0.20362931272724952,-0.08982891400000004,0.14847268099999988,0.08973084750000027
161172.0,0.5297552329999999,-0.4651294095,9.352994371,-0.05889439027929666,0.3091362077717396,-0.05107706055961405,9.379525024137969,0.31881438216817126,-0.14719781649999997,0.010689248500000026,0.051484912499999425
161182.0,0.36931843899999994,-0.463854545,9.4750871635,-0.05596223713594618,0.3880093819986154,-0.06333450789637023,9.493620695194485,0.39710743180489927,-0.160436794,0.0012748644999999725,0.12209279250000016
161192.0,0.1550431365,-0.5093574009999999,10.096436507499998,-0.0498343861321941,0.38694298582564685,-0.07532491985757128,10.110465542501393,0.3973439113317189,-0.21427530249999993,-0.045502855999999925,0.6213493439999986
161202.0,-0.070019481,-0.498570086,10.454281166000001,-0.053564154743705975,0.2792910775626366,-0.08651597102135891,10.46639716216406,0.29725012686502755,-0.2250626175,0.010787314999999909,0.357844658500003
161212.0,-0.30704621149999994,-0.378928956,10.4482991095,-0.03251373863540236,0.08584052860083712,-0.08598364559950064,10.459675846376419,0.125773315377718,-0.23702673049999995,0.11964113000000004,-0.00598205650000061
161222.0,-0.46503134299999993,-0.2807643895,10.1586106685,0.03383495287916207,-0.13878858211858908,-0.07825532767166975,10.17312407800798,0.16288330446004545,-0.1579851315,0.0981645665,-0.2896884410000009
161232.0,-0.5859473374999999,-0.3190103245,9.883338002999999,0.11457388407641976,-0.32211447608956945,-0.07052875507309087,9.905830199988536,0.34908339392038507,-0.12091599450000001,-0.03824593500000001,-0.27527266550000107
161242.0,-0.741578873,-0.3525490675,9.7732093235,0.17186257144388162,-0.45108209050718645,-0.0670642765078821,9.807642456310404,0.48734937470275114,-0.15563153550000008,-0.03353874299999998,-0.11012867949999894
161252.0,-0.8840694974999999,-0.36568997849999996,9.675044757,0.1881168227677048,-0.5219616567599281,-0.06520026486675216,9.722232206995388,0.558643880011658,-0.14249062449999983,-0.013140910999999977,-0.0981645664999995
161262.0,-1.0696113155,-0.4698366015,9.533730930499999,0.1675987320812595,-0.5310199155777787,-0.0630674725208151,9.60504243892379,0.5604007421708512,-0.18554181800000014,-0.10414662300000005,-0.14131382650000113
161272.0,-1.3234074174999997,-0.68058151,9.402027621,0.1358895902310265,-0.48945315411228185,-0.06893003347826404,9.519071476278283,0.5126223954519856,-0.2537961019999997,-0.2107449085,-0.13170330949999887
161282.0,-1.698119514,-0.8122848195,9.372117338499999,0.12016940965831358,-0.41670783088915814,-0.08838172799174086,9.55928867219889,0.4426030198550173,-0.37471209650000037,-0.13170330949999998,-0.029910282500001273
161292.0,-2.0356644069999996,-1.064806057,9.422425452999999,0.12150109587758526,-0.35062617475014884,-0.14593745073475783,9.698445387498595,0.39874674951193767,-0.33754489299999957,-0.2525212375,0.050308114499999945
161302.0,-2.327706444,-1.352140902,9.5768801905,0.13402557858989655,-0.30479382859277776,-0.23227190751390936,9.948021737586414,0.40597090127834307,-0.2920420370000003,-0.28733484499999995,0.15445473750000183
161312.0,-2.5467870049999997,-1.4646231775,9.7516346935,0.15347727310337336,-0.28933893806636796,-0.3420531174643527,10.184577767211556,0.473574312656106,-0.21908056099999973,-0.11248227550000012,0.17475450299999906
161322.0,-2.6414211775,-1.5268954049999999,9.906089431,0.17266193224129503,-0.29919830301088396,-0.4579656690770521,10.365284522372047,0.5736412828790152,-0.09463417250000017,-0.06227222749999983,0.15445473750000005
161332.0,-2.6341642565,-1.5041439769999998,10.125071925499999,0.18731746197029142,-0.32131511529215606,-0.5696126359978774,10.56969024760498,0.6802865498910393,0.00725692099999975,0.022751428000000073,0.21898249449999874
161342.0,-2.5300176335,-1.4838442115,10.265208953999998,0.19371234834959866,-0.3285093624688767,-0.6711349479278835,10.676015068325107,0.7719229193792518,0.1041466230000001,0.0202997654999999,0.14013702849999987
161352.0,-2.3289813085,-1.2910454724999998,10.395637399,0.18571874037546462,-0.3005299892301556,-0.7444125965728654,10.731273422986323,0.8239901934426661,0.20103632500000002,0.1927987390000001,0.1304284450000015
161362.0,-2.3074066785,-1.2576047959999999,10.601577048999998,0.1675987320812595,-0.2642917179709973,-0.820887688407501,10.922414171271482,0.8785192338032888,0.021574629999999928,0.03344067649999993,0.2059396499999977
161372.0,-2.23199354,-1.2875150784999998,10.7823136085,0.13242685699506976,-0.21872640718918138,-0.8938983016769277,11.085926979373935,0.9297485076064257,0.07541313850000009,-0.02991028249999994,0.18073655950000322
161382.0,-2.1361825695,-1.2934971349999997,11.007376226,0.08819323243252546,-0.16410109226026284,-0.977567640688284,11.28710512882727,0.995161146171195,0.09581097050000009,-0.005982056499999944,0.225062617499999
161392.0,-2.0524337784999998,-1.21210194,11.216846269999998,0.047958157186300185,-0.10254856553017884,-1.0604376189022267,11.467315107421284,1.0664633780472854,0.0837487910000001,0.08139519499999981,0.2094700439999979
161402.0,-1.9482871555,-1.1270782845,11.379636660000001,0.0005270894341022875,-0.017015214877692718,-1.1294514281845864,11.600097362233376,1.1295797112151085,0.10414662299999966,0.0850236554999999,0.16279039000000317
161412.0,-1.8165838459999997,-1.106778519,11.542525116499998,-0.0623571235152534,0.09569989354535308,-1.1915362803365288,11.736900000626285,1.1969985747008638,0.13170330950000042,0.020299765500000122,0.1628884564999975
161422.0,-1.72204774,-1.2132787379999999,11.714827956999999,-0.13989861152285746,0.21773855083255259,-1.2490920030795458,11.902717663501505,1.2756224089368906,0.09453610599999962,-0.10650021899999995,0.17230284050000044
161432.0,-1.5077724375,-1.401174152,11.933908517999999,-0.2155743425600796,0.32618981989297624,-1.3039843533840194,12.110113097882717,1.3613402549114466,0.21427530250000015,-0.1878954140000002,0.21908056100000017
161442.0,-1.3114433044999998,-1.5424879785,12.193686676499999,-0.26779982976750594,0.3826791464630247,-1.3535464681529024,12.36062892693525,1.4318687507625727,0.1963291330000001,-0.14131382650000002,0.25977815849999963
161452.0,-0.981057266,-1.6215295774999998,12.407961979,-0.27872559088499044,0.3610964049328628,-1.392449857179856,12.551866474839043,1.4652628342484588,0.3303860384999998,-0.07904159899999974,0.21427530250000082
161462.0,-0.6445911044999999,-1.6489881974999998,12.6701918,-0.2555423824307498,0.29927684282722367,-1.4039061983899468,12.793295901224283,1.4580195992334009,0.3364661615000001,-0.02745861999999999,0.26222982100000003
161472.0,-0.39805192349999996,-1.546116439,13.006559894999999,-0.22303387978310338,0.21214302525065876,-1.3927151472261592,13.104179550012677,1.426325438322821,0.24653918099999994,0.10287175849999985,0.3363680949999992
161482.0,-0.125132854,-1.457464323,13.338122731499999,-0.2094447462270755,0.1386000865593737,-1.3713976957423004,13.418098914694474,1.394205410118495,0.2729190695,0.088652116,0.33156283649999985
161492.0,0.1874050815,-1.4503054684999999,13.6015293505,-0.23689004871468639,0.11301879571289282,-1.3508813503851071,13.679916201828357,1.3761433668708831,0.3125379355,0.007158854500000089,0.2634066190000013
161502.0,0.5237731765,-1.4132363314999998,13.876802016,-0.3037728109803611,0.15538666330505516,-1.3402226246431779,13.958409990409155,1.3829749164136844,0.336368095,0.03706913700000003,0.2752726654999993
161512.0,0.7787460764999999,-1.2420122225,14.1030414315,-0.3986332011555049,0.2667683401795773,-1.336758146077969,14.179027379588105,1.4202098850139935,0.25497289999999995,0.17122410899999974,0.22623941550000026
161522.0,0.9546773775,-1.0672577195,14.38439422,-0.5102819134055822,0.4085257273558087,-1.3354264598586973,14.455491863347715,1.4868237053367113,0.1759313010000001,0.17475450300000017,0.28135278850000134
161532.0,0.9583058379999999,-0.876910643,14.680064717499999,-0.619263762558612,0.5268346160314964,-1.334892389107587,14.737422517690801,1.5630035223135823,0.003628460499999875,0.19034707649999993,0.29567049749999796
161542.0,0.8817159015,-0.7320664224999999,14.986522529999998,-0.7231841568808585,0.6003793000520334,-1.3356917499050005,15.030276169123024,1.633255362599104,-0.0765899364999999,0.14484422050000012,0.3064578124999997
161552.0,0.8302309889999999,-0.6817583079999999,15.131366750499998,-0.8308360651438687,0.6131690728106478,-1.3383568676727957,15.169454097750512,1.6904034974650737,-0.05148491250000009,0.050308114499999945,0.14484422049999957
161562.0,0.8134616174999999,-0.5357372895,15.103908130499999,-0.9408843104698672,0.5750650445811076,-1.3540787935747607,15.135282457261592,1.7462796083091356,-0.01676937150000002,0.14602101849999993,-0.0274586199999991
161572.0,0.9762520075,-0.43992631899999995,14.903950536999998,-1.051733661922531,0.49486018413496025,-1.3769949666534462,14.942367441528106,1.8019837501076388,0.16279039000000006,0.09581097050000004,-0.19995759350000064
161582.0,1.191704108,-0.2807643895,14.500504955999999,-1.1559193462910804,0.41811805692476955,-1.3889853786146473,14.55210058041161,1.8547918014326616,0.21545210049999997,0.15916192949999997,-0.4034455809999997
161592.0,1.5065956394999998,-0.207704847,13.9402510415,-1.2371906029101964,0.36056233418175254,-1.3892524139902023,14.022965835530997,1.8949058167986856,0.3148915314999998,0.07305954249999999,-0.5602539144999987
161602.0,1.8285479589999998,-0.1203275955,13.32135336,-1.289683125493178,0.3219259805303541,-1.3724640919152689,13.446803401202278,1.9106482106131117,0.32195231950000003,0.0873772515,-0.6188976815
161612.0,2.1398110299999997,-0.06286062649999999,12.756392253499998,-1.307803133787383,0.2958123642620149,-1.3295638989012484,12.934770428099155,1.8882780920340816,0.31126307099999995,0.05746696900000001,-0.564961106500002
161622.0,2.356537995,-0.0497197155,12.206925654,-1.2923482432609732,0.272096830385916,-1.2584190426022033,12.432408346505973,1.824231113030811,0.21672696500000033,0.013140910999999991,-0.549466599499997
161632.0,2.4199870205,-0.080806796,11.781905443,-1.2566422974236733,0.256376649813203,-1.1806122645482962,12.02814045417916,1.7431936695174022,0.06344902549999976,-0.031087080500000003,-0.4250202110000014
161642.0,2.3612451869999997,-0.22565101649999997,11.568806938499998,-1.2185382691941329,0.24225344550606495,-1.1158605492993066,11.80947463669167,1.6699302413073258,-0.05874183350000006,-0.14484422049999995,-0.21309850450000134
161652.0,2.3733073664999997,-0.463854545,11.520950486499999,-1.2001529708536247,0.19802156627277265,-1.0758925094286365,11.772002761093157,1.623922530788508,0.012062179499999992,-0.23820352850000004,-0.04785645199999955
161662.0,2.48696644,-0.7523661879999999,11.4048397505,-1.2097453004225855,0.12154647443813711,-1.0604376189022267,11.697069149539846,1.6133149664358464,0.11365907350000004,-0.2885116429999999,-0.11611073599999777
161672.0,2.738408946,-0.9211386344999999,11.259995530000001,-1.233993159720543,0.0469371395738835,-1.0425846459835768,11.624752869421412,1.6161450916762294,0.25144250600000007,-0.1687724465,-0.14484422049999957
161682.0,3.063989726,-0.9271206909999999,10.96187337,-1.2800907959242172,0.0005724679946541401,-1.0004820684377176,11.419730889851522,1.624683705462363,0.3255807800000001,-0.005982056500000055,-0.2981221600000019
161692.0,3.3608370215,-0.8888747559999999,10.5512689345,-1.3469735581898918,0.009897762188059843,-0.9256074435271607,11.10921239085309,1.6343759884653088,0.2968472955000001,0.038245935000000064,-0.4106044354999998
161702.0,3.5344147264999997,-0.8924051499999999,10.2005831305,-1.4085260849199759,0.05812819073767114,-0.8176902452178474,10.832376037273068,1.6297060948474278,0.17357770499999958,-0.0035303939999999923,-0.3506858039999994
161712.0,3.5607946149999994,-0.8960336105,9.999448739,-1.4357060973612836,0.10262710534651856,-0.6991143211666047,10.65228189662888,1.6001703518102113,0.026379888499999726,-0.003628460500000097,-0.20113439150000012
161722.0,3.468612105,-1.0348957745,9.940804971999999,-1.4261120224630706,0.08690517944455366,-0.5954592168906614,10.579313904520008,1.5478758638237238,-0.09218250999999933,-0.13886216400000007,-0.05864376700000129
161732.0,3.3728011345,-1.2790813595,9.8893200595,-1.3994660807728732,0.005101597403579425,-0.483545214594281,10.526656062412885,1.480657729553621,-0.09581097050000009,-0.24418558499999987,-0.051484912499999425
161742.0,3.250708342,-1.4275540405,9.783898572,-1.369355660517467,-0.11054217350431285,-0.38282226346168824,10.408154809113856,1.426151248120695,-0.12209279250000016,-0.1484726810000001,-0.10542148749999924
161752.0,3.2256033179999997,-1.5903444305,9.623559844499999,-1.3347161108531356,-0.25203427063424116,-0.2986205990284738,10.273588285180004,1.3907417561535924,-0.025105024000000142,-0.16279039000000006,-0.160338727500001
161762.0,3.2100107445,-1.6992963119999998,9.329066145,-1.3003418512351073,-0.3754063594699643,-0.2208138209745666,10.011156380437148,1.3713415359921926,-0.015592573499999762,-0.10895188149999968,-0.2944936994999985
161772.0,3.2483547459999995,-1.8250175649999998,9.0094674215,-1.2643706153515042,-0.4628054670928324,-0.14993425472182487,9.749512853855268,1.3547332704537618,0.038344001499999614,-0.12572125300000003,-0.3195987235000004
161782.0,3.384863314,-1.9399515029999999,8.689770631499998,-1.220404026164515,-0.5003771699005143,-0.0801210846420517,9.52537795137468,1.3214320593357893,0.13650856800000044,-0.11493393800000007,-0.31969679000000184
161792.0,3.4506659355,-1.917200075,8.328297512499999,-1.1761704016019707,-0.47666163602441536,-0.011374310735247044,9.216468465888317,1.2691384888209463,0.06580262150000005,0.02275142799999985,-0.36147311899999934
161802.0,3.4877350725,-1.9135716145,8.1188274685,-1.1401991657183674,-0.41617550546729987,0.06083694173676635,9.04109571473706,1.215301329850217,0.03706913700000003,0.003628460500000097,-0.2094700439999997
161812.0,3.4375250244999997,-1.9793742359999997,8.0074239245,-1.1170159572641267,-0.33170680565853033,0.13011778639468125,8.936069525628103,1.1724694844809955,-0.050210048000000285,-0.06580262149999982,-0.11140354399999985
161822.0,3.3488729084999997,-2.149421547,7.982318900499999,-1.1044932198810675,-0.2608272394057886,0.18660711296472973,8.919213966111176,1.150112314597285,-0.088652116,-0.17004731100000048,-0.025105024000000142
161832.0,3.2986628605,-2.383996615,7.920046673,-1.1079559531170244,-0.22085745420586644,0.22897498055689208,8.904591839611284,1.152724577185192,-0.05021004799999984,-0.23457506799999983,-0.06227222749999939
161842.0,3.2136392049999998,-2.57914895,7.791971824,-1.1207474712048908,-0.20593663443056692,0.2601517969852668,8.814437653770604,1.1688300770802442,-0.08502365550000013,-0.19515233499999995,-0.12807484899999988
161852.0,3.1585258319999996,-2.728798429,7.607606804,-1.1202134004537805,-0.20620366980612206,0.29852111526111014,8.677459742447168,1.1775028119942945,-0.05511337300000019,-0.1496494789999998,-0.18436502000000043
161862.0,3.0508488149999997,-2.8880584249999997,7.450798470499999,-1.0903700155739293,-0.2157959993750829,0.35474515178485544,8.553534813526248,1.1667556757624287,-0.10767701699999987,-0.15925999599999985,-0.15680833350000078
161872.0,2.9227739660000003,-3.0125048135,7.280849225999999,-1.0376104576153928,-0.2499032236175561,0.42322663564535695,8.404079863937088,1.1481323390824592,-0.12807484899999944,-0.12444638850000045,-0.1699492444999997
161882.0,2.771947689,-3.178923664,7.089227285,-0.9816534564672027,-0.30532615401463603,0.5002340529018507,8.249023769542678,1.143285474674627,-0.15082627700000018,-0.16641885049999994,-0.1916219409999993
161892.0,2.634262323,-3.3106269735,6.9432062665,-0.9086428431977759,-0.37647275564293287,0.5737769915931359,8.130664314999605,1.13867624385406,-0.13768536599999992,-0.13170330949999975,-0.14602101849999993
161902.0,2.4894181025,-3.4123219339999995,6.9084907255,-0.8033907626562579,-0.4630725024683875,0.6385287068421255,8.097430924350743,1.1258737804590777,-0.1448442205,-0.10169496049999971,-0.03471554099999974
161912.0,2.4701970685,-3.5069561064999997,6.830723991,-0.6893439680139404,-0.553403763234606,0.6862250646406265,8.065941044377066,1.1190869808645172,-0.01922103400000008,-0.09463417250000017,-0.07776673449999993
161922.0,2.5276640374999997,-3.5152917589999997,6.722948907499999,-0.5910190992735879,-0.608828438960938,0.7272595006842651,7.996524473183306,1.117533903346696,0.05746696899999959,-0.008335652500000013,-0.10777508350000087
161932.0,2.552867128,-3.4159503944999994,6.6392001165,-0.5108142388274404,-0.6253479803310643,0.7733571368879394,7.890806413658954,1.118066431062354,0.025203090500000247,0.0993413645000003,-0.08374879099999966
161942.0,2.612687693,-3.3417140539999997,6.6666587365,-0.4410010687476672,-0.6128252429480049,0.8295811734116848,7.901742118596793,1.1217137087109053,0.05982056499999988,0.07423634049999972,0.02745861999999999
161952.0,2.6437747734999997,-3.3141573674999996,6.758841246499999,-0.38371238138020536,-0.5763199363132916,0.8937988179095642,7.978415826775336,1.1305999237188895,0.031087080499999864,0.027556686500000094,0.09218250999999977
161962.0,2.5708132975,-3.3453425144999995,6.925260097,-0.35280260032738575,-0.5350167195648458,0.9545519838422347,8.109230848916834,1.1497312968119289,-0.07296147599999969,-0.03118514699999997,0.16641885050000038
161972.0,2.4235174144999996,-3.454294396,7.076086373999999,-0.3560000435170394,-0.5067720562798216,1.0041140986111177,8.238724707436837,1.1797453416054797,-0.1472958830000004,-0.10895188150000035,0.1508262769999993
161982.0,2.2811248565,-3.5523608959999997,7.1431638600000005,-0.37891447126647293,-0.5089048486257586,1.0347585896176341,8.297444695638662,1.2137897924589054,-0.1423925579999996,-0.09806649999999983,0.06707748600000141
161992.0,2.115882804,-3.6111027294999998,7.068927519499999,-0.3954357579658513,-0.5363501511133694,1.0520774917851738,8.215032516016578,1.2453545567421127,-0.16524205250000001,-0.05874183350000006,-0.0742363405000015
162002.0,1.9770206399999999,-3.6721000925,6.9073139275,-0.3895731970084023,-0.5736548185454963,1.0664659861386152,8.068699733746447,1.2720836553695762,-0.13886216400000007,-0.06099736300000025,-0.16161359199999925
162012.0,1.8908201865,-3.6757285529999995,6.7133383905,-0.35200323952997237,-0.6125582075724498,1.0816555866187219,7.883850183658774,1.2919414252850083,-0.08620045349999983,-0.0036284604999994308,-0.19397553700000003
162022.0,1.893271849,-3.679258947,6.4955326939999996,-0.30164176396367604,-0.6322769374614817,1.104037688946297,7.701517361670901,1.3075400942329336,0.0024516624999999515,-0.0035303940000006584,-0.21780569650000015
162032.0,1.8740508149999997,-3.6888694639999997,6.2955751005,-0.2683339005186162,-0.6176214077324853,1.127486187446841,7.533531059580851,1.313272396854668,-0.019221034000000303,-0.009610516999999597,-0.19995759349999975
162042.0,1.8381584759999998,-3.7546720854999998,6.106404822,-0.24834813525402913,-0.5835141834900122,1.141876427129534,7.400308703200726,1.3061574841696078,-0.035892338999999884,-0.06580262150000005,-0.1891702784999998
162052.0,1.7735326525,-3.8074318624999997,5.9831352315,-0.2278317898968358,-0.533685033345574,1.147204917335873,7.3102573590456075,1.2856150907889459,-0.0646258234999999,-0.0527597769999999,-0.12326959049999964
162062.0,1.6227063755,-3.781051974,5.849078325999999,-0.20225049905035491,-0.48039314996517923,1.1466725919140146,7.151310878074074,1.2595796425579404,-0.15082627699999995,0.026379888499999726,-0.13405690550000138
162072.0,1.4742336944999999,-3.793016087,5.7844525025,-0.16681158858861006,-0.436159525402635,1.1413423563784237,7.072497916289437,1.233176229153952,-0.1484726810000001,-0.011964112999999887,-0.06462582349999924
162082.0,1.3820511844999999,-3.8001749415,5.792788154999999,-0.12497604641830595,-0.3961897402027128,1.1352145053746718,7.064544548043467,1.2088413029150287,-0.09218251,-0.007158854500000089,0.008335652499999568
162092.0,1.245640683,-3.7272134654999998,5.8083807284999995,-0.07834608479277345,-0.38686444600930714,1.1349474699991167,7.012918623209556,1.201627216838001,-0.1364105014999999,0.07296147600000014,0.015592573500000206
162102.0,1.1953325684999998,-3.733195522,5.908898890999999,-0.020790362049756456,-0.3993889287216184,1.1453391603654908,7.090885336744536,1.2131552035111952,-0.05030811450000017,-0.005982056500000166,0.10051816249999934
162112.0,1.1270782845,-3.702010375,6.05854837,0.04769112181074505,-0.43083103519629623,1.169321729617145,7.188963390338607,1.2470778369222633,-0.06825428399999978,0.03118514699999997,0.1496494790000007
162122.0,1.002631896,-3.5644230755,6.2836109875,0.12096877045572699,-0.4769286713999705,1.2074257578466852,7.2934319508900725,1.303829498723109,-0.1244463885,0.13758729949999982,0.22506261750000078
162132.0,0.8601412714999999,-3.413498732,6.487098974999999,0.17692577160391718,-0.5283565431392354,1.2580525234592848,7.380668649367027,1.375921333913374,-0.14249062450000016,0.15092434350000028,0.20348798749999908
162142.0,0.706863332,-3.342890852,6.6858797705,0.21023363504897696,-0.5808490657222168,1.3145435953585853,7.508366222028102,1.4524492013680048,-0.1532779394999999,0.07060787999999985,0.19878079550000027
162152.0,0.5980095169999999,-3.3692707404999998,6.8845624995,0.2254214901998316,-0.622682862563269,1.3667690825660115,7.688094790956579,1.518751632306032,-0.10885381500000002,-0.026379888499999726,0.1986827290000006
162162.0,0.451890432,-3.4123219339999995,7.072555979999999,0.23261573737655225,-0.6589228791516792,1.401410377559595,7.865697301194878,1.565963118427922,-0.14611908499999993,-0.04305119349999975,0.18799348049999853
162172.0,0.30704621149999994,-3.433896564,7.2448588205,0.2315510865328357,-0.6911643464237704,1.411269742504111,8.023334862588259,1.5883974142353525,-0.14484422050000006,-0.021574630000000372,0.17230284050000133
162182.0,0.114345539,-3.4111451359999996,7.3574391624999995,0.21423043903604397,-0.7020901075412549,1.4070059031414888,8.110542341362528,1.586975365779779,-0.19270067249999995,0.022751428000000296,0.11258034199999933
162192.0,-0.067665885,-3.3680939424999994,7.3669516129999995,0.1838529834050827,-0.7020901075412549,1.3966142127751144,8.100655007206598,1.57393255825645,-0.18201142399999998,0.043051193500000196,0.009512450499999936
162202.0,-0.2376151295,-3.3895705059999997,7.273592305,0.14868110831889295,-0.6895656248289437,1.379825890700181,8.028125197346364,1.549685875125412,-0.16994924449999999,-0.021476563500000267,-0.09335930799999925
162212.0,-0.3321512355,-3.4494891375,7.141987062,0.1273636568350342,-0.660521600746506,1.347851458803645,7.938342329904277,1.5063909987563764,-0.09453610599999998,-0.05991863150000043,-0.1316052430000001
162222.0,-0.42796220599999996,-3.4890099369999996,7.048529687499999,0.1241662136453806,-0.6317428667103715,1.3017538225999705,7.8764276639741935,1.452266956487031,-0.09581097049999998,-0.03952079949999954,-0.09345737450000069
162232.0,-0.41001603649999996,-3.492540331,6.927711759499999,0.13056110002468782,-0.6146892545891349,1.2423323428865718,7.7691145786739,1.3922207909412363,0.017946169499999998,-0.0035303940000002143,-0.12081792800000013
162242.0,-0.310674672,-3.47939942,6.764823302999999,0.13482493938730997,-0.5843135442874257,1.1770483022157237,7.6135125531209615,1.321000676785384,0.09934136449999997,0.01314091099999981,-0.16288845650000017
162252.0,-0.21966896,-3.4398786205,6.6619515445,0.13189278624395948,-0.5163643858487824,1.1170944970804666,7.500841136634371,1.2377107907114833,0.09100571199999999,0.03952079949999998,-0.10287175849999919
162262.0,-0.19211227349999999,-3.2770882305,6.622430745,0.12629726066206567,-0.41617550546729987,1.070462790125682,7.391400636444503,1.1554408831460674,0.02755668650000001,0.16279039000000006,-0.03952079949999998
162272.0,-0.243597186,-3.097528469,6.75285919,0.13162749619765635,-0.3349042488481839,1.0430174876380713,7.433379409478575,1.103345881023111,-0.05148491250000001,0.1795597615000002,0.13042844499999973
162282.0,-0.29508209849999995,-2.9214991015,7.00783209,0.1460159905510976,-0.3029280716223958,1.0310270756768702,7.598153791978301,1.0844827877160064,-0.05148491249999995,0.17602936749999998,0.2549729000000003
162292.0,-0.34774380899999996,-2.749196261,7.1730741425,0.15560832012005843,-0.3359706450211525,1.0264979462679449,7.68973331735219,1.0912324487930263,-0.052661710500000014,0.1723028405,0.16524205250000001
162302.0,-0.34411534850000003,-2.5612027805,7.250840877,0.15480895932264502,-0.4156431800454416,1.0350238796639373,7.697588484680662,1.1260548381315345,0.0036284604999999304,0.18799348049999987,0.07776673449999993
162312.0,-0.345390213,-2.4881432379999997,7.141987062,0.15694000633933014,-0.5158320604269241,1.0515451663633155,7.570873817850664,1.1817191362824448,-0.0012748644999999725,0.07305954250000024,-0.1088538149999998
162322.0,-0.35372586549999996,-2.4618614159999996,6.9707629529999995,0.1715955360683265,-0.5925741876371148,1.0672653469360285,7.401176917655091,1.2327386246170937,-0.008335652499999957,0.026281822000000066,-0.17122410900000062
162332.0,-0.405210778,-2.5456102069999997,6.7564876504999996,0.19611043074183884,-0.6218835017658556,1.0808562258213084,7.231490335466746,1.2623187282580401,-0.051484912500000035,-0.0837487910000001,-0.21427530249999993
162342.0,-0.43394426249999996,-2.6629958074999998,6.657146286,0.23661254136361928,-0.6114918113994813,1.0827202374624383,7.18313656886202,1.2657767744550728,-0.02873348449999996,-0.11738560050000002,-0.09934136449999986
162352.0,-0.5117109969999999,-2.7587087114999997,6.743346739499999,0.28697401692991564,-0.5779186579081184,1.0691311039064104,7.30376937946989,1.2487535300816377,-0.07776673449999993,-0.09571290399999999,0.08620045349999916
162362.0,-0.6206628784999999,-2.7706728245,6.891721354,0.3328063630872867,-0.5480735276990154,1.0448832446084533,7.453702001713666,1.2259386860440122,-0.10895188150000001,-0.011964113000000332,0.14837461450000156
162372.0,-0.7128453885,-2.765867566,7.119235634,0.36558015578123626,-0.5179631074436092,1.0177049774963975,7.6708335891851975,1.1990237913380266,-0.0921825100000001,0.004805258500000242,0.2275142799999994
162382.0,-0.7847281329999999,-2.7563551155,7.3287056779999995,0.37650591689872076,-0.4870550717200416,0.9867951964435779,7.869130744892609,1.1630752804836326,-0.07188274449999987,0.009512450499999936,0.2094700439999997
162392.0,-0.811009955,-2.727621631,7.516601092,0.3573212577607991,-0.4497486589586628,0.9516215760281362,8.037222709696664,1.1115466528424027,-0.026281822000000066,0.028733484500000017,0.18789541400000065
162402.0,-0.8601412714999999,-2.6677029995,7.548963037,0.301629546658912,-0.3881961322285788,0.9145821986423126,8.052535329600932,1.03833386661916,-0.04913131649999991,0.059918631499999986,0.03236194499999989
162412.0,-0.9822340639999999,-2.60072358,7.6231993775,0.23741190216103267,-0.3261112800766365,0.8663535154219533,8.114290828234243,0.9556575704534124,-0.12209279250000005,0.06697941949999997,0.07423634049999972
162422.0,-1.1139373735,-2.554043926,7.595642690999999,0.1902478697843899,-0.29520149902381687,0.8053333141137275,8.090598540117986,0.8785783538221316,-0.1317033095000001,0.04667965400000007,-0.027556686500000538
162432.0,-1.1450244539999999,-2.471471933,7.5418041825,0.1715955360683265,-0.2882725418933994,0.7555041639692894,8.018607412951406,0.8266393579930688,-0.031087080499999864,0.08257199299999973,-0.05383850849999927
162442.0,-1.1270782845,-2.4510741009999997,7.523858013,0.1849193795780512,-0.2920040558341633,0.7299246184520605,7.992903671868486,0.8076208851865574,0.01794616949999983,0.02039783200000045,-0.017946169500000053
162452.0,-1.101875194,-2.4690202704999997,7.5717144649999994,0.21049892509528012,-0.30532615401463603,0.7235297320727533,8.039965794627653,0.8130369800844902,0.025203090500000025,-0.017946169500000053,0.04785645199999955
162462.0,-1.0875574849999998,-2.5264872395,7.741663709499999,0.236080215941761,-0.32584424470108136,0.7152690887230642,8.21579430399308,0.8206815517889076,0.014317709000000178,-0.05746696900000048,0.1699492444999997
162472.0,-1.1701294779999998,-2.5875826689999997,7.911711020499999,0.23874533370955633,-0.3471616961849401,0.6934193118173471,8.405947795227785,0.8113882669026804,-0.08257199299999995,-0.061095429499999465,0.17004731100000026
162482.0,-1.2682940445,-2.580325748,8.009875587,0.19611043074183884,-0.36501466910359004,0.6435901616729091,8.51027365413854,0.7654432088069723,-0.09816456650000016,0.00725692099999975,0.09816456650000038
162492.0,-1.270745707,-2.4498973029999997,7.952408617999999,0.11697196646865997,-0.36155019053838133,0.5886995566976873,8.417695306599441,0.7006911939463337,-0.0024516624999999515,0.13042844500000017,-0.05746696900000092
162502.0,-1.328212676,-2.415181762,7.85904931,0.04076391000957956,-0.337035295864869,0.5465987244810802,8.328379669131083,0.6434474746413515,-0.057466969000000034,0.03471554099999974,-0.09335930799999925
162512.0,-1.4227487819999998,-2.427145875,7.758433080999999,0.018912387774610552,-0.333038491877802,0.5242148768242528,8.252789532489432,0.6213481733838481,-0.09453610599999984,-0.011964112999999887,-0.10061622900000078
162522.0,-1.413138265,-2.646226436,7.700966112,0.07700218126873783,-0.3783367672840628,0.5122244648630518,8.26464476942384,0.641437407549122,0.009610516999999819,-0.21908056100000017,-0.057466968999999146
162532.0,-1.2443658185,-2.9418969335,7.781184509,0.20810084270303988,-0.43216272141556794,0.5042308568889178,8.411304073726585,0.6959305536861832,0.1687724465,-0.29567049749999974,0.08021839700000033
162542.0,-1.063629259,-3.0795822994999997,7.9128878185,0.36318207338899605,-0.48225716160630916,0.48930829178436624,8.557390254520374,0.7771073238367004,0.1807365594999999,-0.13768536599999992,0.13170330949999975
162552.0,-0.8409202375,-3.1058641215,8.0972528385,0.48282439361320734,-0.517697817397306,0.4661268286593776,8.71315340836223,0.847587544506138,0.22270902150000005,-0.026281822000000066,0.18436501999999955
162562.0,-0.5776116849999999,-3.0508488149999997,8.242097058999999,0.5473090734866418,-0.5099694994694751,0.4429453655343889,8.807580693959713,0.8693771961343054,0.26330855250000007,0.05501530650000008,0.14484422049999957
162572.0,-0.406387576,-2.9418969335,8.3414384235,0.5686247796412486,-0.44228912173563906,0.4304208828220776,8.854349405930739,0.8391757525078272,0.17122410899999996,0.1089518814999999,0.09934136450000075
162582.0,-0.43394426249999996,-2.8352986479999998,8.4695132725,0.5598318108697011,-0.35382361793980244,0.4384144907962116,8.94202891514901,0.7942355285516769,-0.027556686499999983,0.10659828550000006,0.12807484900000077
162592.0,-0.553683459,-2.8856067625,8.678983316499998,0.5728886190038708,-0.28667382029857263,0.45120426355482607,9.162862171212728,0.7835614439715582,-0.11973919650000009,-0.05030811450000039,0.2094700439999979
162602.0,-0.7404020749999999,-3.0376098375000002,9.0094674215,0.6245817807894387,-0.26322532179802877,0.4477415303188693,9.536549269867532,0.8123191792036337,-0.18671861599999984,-0.1520030750000001,0.3304841050000018
162612.0,-0.9762520075,-3.165782753,9.424779049,0.6922639038525269,-0.28054596929482056,0.4221602394723884,9.99008050737377,0.8579945345141164,-0.23584993250000008,-0.12817291549999954,0.4153116274999995
162622.0,-1.136590735,-3.2423726895,9.7084854335,0.7479538696251619,-0.3418314606493494,0.3813910934750529,10.298519727076556,0.906500361146656,-0.1603387275,-0.07658993650000001,0.2837063845000003
162632.0,-1.1151141715,-3.165782753,9.8234193715,0.7714041134549577,-0.4071155013201973,0.3278321747191029,10.381003236828022,0.9318161151490574,0.021476563500000045,0.07658993650000001,0.11493393800000007
162642.0,-1.0241084594999998,-2.9897533854999994,9.8689222275,0.750086661971099,-0.4465512157690092,0.2889287856921493,10.362579281982443,0.919520435864949,0.09100571200000007,0.17602936750000042,0.04550285600000059
162652.0,-0.891228352,-2.8269629955,9.771934458999999,0.7007915825777712,-0.4755969851806988,0.26734604416198743,10.211596879250893,0.8881301942023423,0.1328801074999999,0.16279038999999917,-0.09698776850000179
162662.0,-0.8134616174999999,-2.776654881,9.678575151,0.6765419779505619,-0.4873203617663447,0.2548215614496761,10.1017992993764,0.871851025749807,0.07776673450000005,0.05030811450000039,-0.09335930799999836
162672.0,-0.858866407,-2.7946010505,9.6474880705,0.6967930332614521,-0.47639634597811226,0.24043306709623485,10.080747621430099,0.8776571479890624,-0.04540478950000015,-0.017946169500000053,-0.031087080500000752
162682.0,-0.9438900625,-2.8161756805,9.653470127,0.7290362458627954,-0.44495249417418237,0.2127207292330689,10.100062346659415,0.8801855932125864,-0.0850236554999999,-0.021574629999999928,0.00598205650000061
162692.0,-1.063629259,-2.820980939,9.710937096,0.7535511405363078,-0.3788708380351731,0.16955350084349313,10.168163056386888,0.8603085626479194,-0.11973919650000009,-0.004805258500000242,0.057466969000000034
162702.0,-1.1521833085,-2.8246093995,9.9036377685,0.7727357996742295,-0.2818776555140922,0.1258539470320591,10.362817458866552,0.8321146824565954,-0.0885540494999999,-0.003628460499999875,0.19270067249999911
162712.0,-1.1953325684999998,-2.64975683,10.0880027885,0.7732681250960877,-0.17875662198925923,0.08188735784506995,10.49846805339866,0.797874089421054,-0.043149259999999856,0.17485256950000005,0.18436502000000132
162722.0,-1.306638046,-2.3170171955,10.301101292999999,0.7426253794188233,-0.11613769908620668,0.04298396881811635,10.639011209513017,0.7528798316340706,-0.1113054775000002,0.33273963449999977,0.2130985044999978
162732.0,-1.4406949515,-2.068026352,10.4208404895,0.6922639038525269,-0.136655789772652,0.0035482543693044722,10.72129896250667,0.7056321333135256,-0.13405690550000005,0.24899084350000011,0.1197391965000012
162742.0,-1.3832279825,-2.106272287,10.427999344,0.6480320246192346,-0.24510705883307565,-0.03722089162803107,10.728134642938615,0.6938359820559111,0.057466969000000034,-0.03824593499999995,0.007158854500000089
162752.0,-1.316248563,-2.1769782335,10.279526662999999,0.6333764948902382,-0.3823353166003818,-0.08358556320726045,10.58963705346223,0.7445351737668496,0.06697941949999997,-0.07070594649999995,-0.14847268100000122
162762.0,-1.2335785035,-2.1254933209999995,10.107125756,0.646698593070711,-0.5187624682410226,-0.14167361137213572,10.401607031103968,0.8410737071710053,0.08267005950000006,0.05148491250000031,-0.17240090699999833
162772.0,-1.0121443465,-2.0871493195,9.9599279395,0.6832038997054243,-0.5992343640627251,-0.20322788343147172,10.226475102403269,0.9312094094511685,0.22143415700000002,0.038344001499999614,-0.1471978165000003
162782.0,-0.8493539565,-2.010559383,9.9263891965,0.7095845513493185,-0.5672599321661891,-0.25945017462596504,10.163510892225357,0.9447795823726541,0.16279038999999995,0.07658993650000001,-0.03353874299999937
162792.0,-0.766683897,-2.0333108109999998,9.9503174225,0.6933303000254953,-0.4542795336968401,-0.3156742111497104,10.184840394456637,0.8869763284633101,0.08267005950000006,-0.02275142799999985,0.023928225999998887
162802.0,-0.684111904,-2.1769782335,10.095161642999999,0.6496307462140614,-0.29493446364826176,-0.3748286554875542,10.349856613723,0.8059174680131543,0.08257199299999995,-0.14366742250000009,0.14484422049999957
162812.0,-0.6865635664999999,-2.3337865669999998,10.2962960345,0.5995345606940682,-0.11560537366434841,-0.4454411863647408,10.57977510636286,0.7557937168280315,-0.0024516624999999515,-0.1568083334999999,0.20113439150000012
162822.0,-0.6889171625,-2.3816430189999998,10.589612935999998,0.5523705283174254,0.056262433767289205,-0.5293775607516521,10.875970414681946,0.7671500921165684,-0.002353596000000069,-0.047856451999999994,0.293316901499999
162832.0,-0.7475609295,-2.3074066785,10.975014281,0.5140012100415821,0.1897609229230835,-0.6170437037500752,11.239835914792318,0.825196573023932,-0.05864376699999996,0.07423634049999972,0.3854013450000018
162842.0,-0.8134616174999999,-2.1027418929999997,11.491040203999999,0.4836237544106207,0.2699657833692309,-0.6908536778169154,11.71013442457717,0.8854672575389477,-0.06590068799999993,0.20466478550000033,0.516025922999999
162852.0,-0.9523237815,-1.8776792754999998,11.949501091499998,0.44099059677215524,0.23985536311382472,-0.7308234630168376,12.133555801256792,0.886626322501114,-0.13886216400000007,0.2250626174999999,0.45846088749999936
162862.0,-0.9367312079999999,-1.8561046454999999,12.2607641625,0.404750580183745,0.09729861514017987,-0.7286906706709005,12.435792200721759,0.839214005001157,0.015592573500000095,0.021574629999999928,0.31126307100000083
162872.0,-0.8421951019999999,-1.9554460099999997,12.424731350499998,0.39142848200327224,-0.08629431420635564,-0.6935187955847109,12.605832412814125,0.8010189042819147,0.09453610599999995,-0.09934136449999986,0.1639671879999991
162882.0,-0.773940818,-2.0381160694999996,12.437872261499999,0.40288656854261506,-0.2709536397258597,-0.644489006237686,12.627492541906795,0.8069073931709724,0.06825428399999989,-0.08267005949999984,0.013140911000000699
162892.0,-0.775117616,-2.0392928675,12.335000502999998,0.4178073883179146,-0.4132433523239494,-0.6077166642274175,12.526442436984258,0.8453712947295243,-0.0011767979999999234,-0.0011767980000003675,-0.10287175850000096
162902.0,-0.7978690439999999,-2.0547873745,12.166129989999998,0.41381058433084755,-0.49904548368124263,-0.6069173034300042,12.364200948680647,0.8880507911654776,-0.022751427999999962,-0.015494507000000102,-0.1688705129999999
162912.0,-0.7404020749999999,-2.1422626925,11.979411374,0.3802356855102327,-0.5352837549404009,-0.6538143004310918,12.191955607853163,0.9265964678794808,0.057466969000000034,-0.08747531800000008,-0.1867186159999985
162922.0,-0.6338037895,-2.186490684,11.7782769825,0.3136199586201131,-0.5009094953223726,-0.7425468396024836,11.996260143531927,0.9490224496568203,0.10659828549999983,-0.044227991499999675,-0.20113439150000012
162932.0,-0.450713634,-2.2511165075,11.449067742,0.21476276445790224,-0.4156431800454416,-0.8576582850885175,11.676978225170991,0.9769647036085104,0.18309015550000007,-0.06462582350000012,-0.3292092404999991
162942.0,-0.09277090899999998,-2.2619038225,11.0492506215,0.09325643259256103,-0.2664227649876824,-0.9749025229204885,11.27877451855985,1.014944718258244,0.357942725,-0.010787314999999964,-0.39981712049999985
162952.0,0.301064155,-2.114706006,10.7032720095,-0.01519309113861064,-0.05911604709429994,-1.072960356285286,10.914332449883707,1.0746950559122572,0.393835064,0.14719781649999986,-0.34597861200000146
162962.0,0.5573119194999999,-1.7735326525,10.485466313,-0.07967777101204514,0.13566793341602323,-1.1267863104167912,10.648991428588825,1.1377177702284111,0.2562477644999999,0.3411733535000001,-0.21780569649999926
162972.0,0.852982417,-1.6250599714999998,10.453104368,-0.06315648431266681,0.24998176343389583,-1.1369109654076102,10.613000981955265,1.1657813546391622,0.2956704975000001,0.1484726810000001,-0.03236194499999989
162982.0,1.0792218324999998,-1.6334936905,10.603930644999998,0.020245819323134222,0.2688993871962624,-1.0977422863343536,10.783151975402092,1.13037821141473,0.22623941549999982,-0.008433719000000117,0.1508262769999984
162992.0,1.227596447,-1.710083627,10.9068580635,0.12549789986465226,0.19269133073718195,-1.0292608024738519,11.108147094153708,1.0546361795997812,0.14837461450000022,-0.07658993650000001,0.30292741850000127
163002.0,1.389210039,-1.8525742514999999,11.179777133,0.20943427425156358,0.050399872809840256,-0.9514540244199448,11.417064098678296,0.9755345319338706,0.16161359199999992,-0.14249062449999994,0.27291906950000033
163012.0,1.5029671789999999,-1.9806491005,11.300693127499999,0.25766295747192286,-0.10468135787611589,-0.8757782933827227,11.570978625958496,0.9188775791694559,0.11375713999999992,-0.1280748490000001,0.1209159944999989
163022.0,1.650263062,-2.0428232614999997,11.208510617499998,0.26832168321385225,-0.22405664272477205,-0.8112936135092882,11.512046095900473,0.8833998144400809,0.14729588300000018,-0.06217416099999973,-0.09218251000000066
163032.0,1.791478822,-1.9351462444999998,10.966678628499999,0.2323504473302491,-0.25709747079427675,-0.7627978949133738,11.279283110999367,0.8378224563400383,0.1412157599999999,0.10767701699999987,-0.24183198899999958
163042.0,1.8765024774999999,-1.8225659024999998,10.635115792,0.1777251324013306,-0.19660959490790925,-0.7228281097134516,10.952109199887804,0.7698844274882071,0.0850236554999999,0.112580342,-0.33156283649999807
163052.0,1.872874017,-1.7723558545,10.3070833495,0.14175215118847545,-0.05458517235612265,-0.6929847248336005,10.624729150998357,0.7094371305904484,-0.003628460499999875,0.05021004799999984,-0.3280324425000014
163062.0,1.8525742514999999,-1.8369816779999997,10.188520951,0.11457388407641976,0.1276743254418892,-0.6815266382942577,10.517247368565332,0.7027847942251385,-0.020299765500000122,-0.06462582349999968,-0.11856239849999994
163072.0,1.8512993869999999,-1.931517784,10.2125472435,0.09192474637328933,0.29687876043498346,-0.6844587914376082,10.557186726156466,0.7517120423203536,-0.001274864500000028,-0.09453610600000029,0.024026292500000324
163082.0,1.7615685395,-1.8680687584999998,10.333463237999998,0.09698620120407289,0.4325082966074628,-0.6876562346272619,10.647688345220164,0.8181325362556056,-0.08973084749999982,0.0634490255000002,0.1209159944999989
163092.0,1.6753680859999998,-1.7089068289999998,10.427999344,0.10098300519113991,0.5217731612007128,-0.6820607090453681,10.699083656662124,0.8646684971191497,-0.08620045350000027,0.15916192949999997,0.0945361060000014
163102.0,1.74362237,-1.5760267215,10.625505274999998,0.09805259737704144,0.5731992876107258,-0.6610102929370645,10.882345406441539,0.8804012395144453,0.06825428400000022,0.1328801074999999,0.19750593099999847
163112.0,2.000948866,-1.3353715305,11.216846269999998,0.09645387578221462,0.6022450570224154,-0.6098494565733547,11.47190715328665,0.862507286081781,0.2573264959999999,0.24065519099999988,0.5913409949999995
163122.0,2.0392928675,-0.9391828704999999,12.033347949,0.05834984755267442,0.5625423071980483,-0.5136556348496871,12.24100660588742,0.7640030518983277,0.03834400150000006,0.3961886600000001,0.8165016790000017
163132.0,1.7388171115,-0.8433718999999998,12.360105527,-0.005867796945204936,0.3528357615831737,-0.39401331462547584,12.510274567231958,0.5289366670926895,-0.300475756,0.09581097050000009,0.3267575780000005
163142.0,1.5783803175,-1.2360301660000002,12.3074438165,-0.04237310357991833,0.05999394770805308,-0.2994199598258872,12.46965229243532,0.30829704184556656,-0.160436794,-0.3926582660000003,-0.05266171050000068
163152.0,1.6275116339999998,-1.6011317454999998,12.035701545,-0.046102872191430215,-0.20593663443056692,-0.2495908096814491,12.2503276962524,0.3268500336581437,0.0491313164999998,-0.36510157949999966,-0.2717422714999991
163162.0,1.6310420279999998,-1.5783803175,11.4874117435,-0.05489758629222964,-0.38926252840154735,-0.22720870735387383,11.709492349733845,0.45405160245912196,0.0035303939999999923,0.02275142799999985,-0.5482898015000011
163172.0,1.713614021,-1.5006135829999998,10.881654973,-0.0786113748390766,-0.4377582469974618,-0.21734934240935785,11.117496529788868,0.4950280474015193,0.08257199300000018,0.07776673450000016,-0.6057567704999993
163182.0,1.755586483,-1.46707484,10.292667574,-0.12177860322865236,-0.376738045689236,-0.21015509523263723,10.543879659514536,0.44824853298845857,0.041972462000000155,0.033538742999999815,-0.5889873990000005
163192.0,1.7615685395,-1.5293470675,9.8426404055,-0.1593503060363343,-0.24484002345752054,-0.21495126001711762,10.115314939447423,0.36268884915792365,0.005982056499999944,-0.062272227500000055,-0.45002716850000013
163202.0,1.7089068289999998,-1.6179011169999997,9.514607963,-0.1718730434193936,-0.09961815771608035,-0.22720870735387383,9.801312731679143,0.30180774857251247,-0.052661710500000236,-0.08855404949999968,-0.32803244249999963
163212.0,1.7148888855,-1.6394757469999999,9.3840814515,-0.17747031433053942,0.028017770482264972,-0.24293063325583875,9.679344466594781,0.3021522803247729,0.005982056500000166,-0.02157463000000015,-0.1305265114999994
163222.0,1.7986376764999998,-1.6478113995,9.332596538999999,-0.18866136549432705,0.13913241198123197,-0.251456566651831,9.646125546529147,0.3437751355264456,0.08374879099999988,-0.008335652500000235,-0.0514849125000012
163232.0,1.8298228235,-1.5508236309999999,9.364958484,-0.19425689107622088,0.2217353548196196,-0.24293063325583875,9.667251569443776,0.38199162278990384,0.03118514700000019,0.09698776850000024,0.03236194500000167
