timestamp,ax,ay,az,gx,gy,gz,acc_mag,gyro_mag,dax,day,daz
131892.0,-0.42129368399999995,3.117534035,10.2751136705,-0.11895291516967353,0.025603980126756815,-0.012004374595216999,10.74590469757003,0.12226800413483978,0.0,0.0,0.0
131902.0,-0.4727785965,2.779989142,9.587961705,-0.11841884441856328,-0.048471283986386525,0.038891171722189644,9.994041669289402,0.1337348545542323,-0.051484912500000035,-0.337544893,-0.6871519655
131912.0,-0.23692866399999998,2.4986363535,9.4539047995,-0.06805736885226689,-0.05966408047942615,0.08019264314138345,9.781392271904124,0.12092339710970008,0.2358499325,-0.2813527885,-0.1340569054999996
131922.0,-0.44159344949999996,2.540510749,9.241983093,0.017743017175774353,-0.03861366437112255,0.09697921988706491,9.594970095405388,0.10588105980093517,-0.20466478549999997,0.04187439550000027,-0.21192170650000008
131932.0,-0.6691077295,2.517759321,9.010938419,0.09288467746188622,-0.012500048102783387,0.09271538052444277,9.379969527837991,0.13183306222478014,-0.22751428,-0.02275142799999985,-0.23104467399999962
131942.0,-0.81395195,2.4519566994999997,8.942684135,0.14138214138705266,0.025603980126756815,0.05860815628196959,9.308394543180496,0.1551753514070185,-0.1448442205,-0.06580262150000049,-0.068254284
131952.0,-0.9790959359999999,2.4328337319999997,8.851678423,0.17895209886548258,0.07010464006485624,0.0018517943363659836,9.231983520547061,0.19220287039804762,-0.1651439859999999,-0.019122967499999977,-0.09100571200000118
131962.0,-1.1383559319999998,2.5584569185,8.814609286,0.21359339385906603,0.12526228041563303,-0.06422986180264333,9.248723852325655,0.2558090145838208,-0.15925999599999996,0.12562318650000037,-0.037069136999999586
131972.0,-1.3789130565,2.6290647985,8.8529532875,0.2602233554845986,0.16256694784775982,-0.12578413386197934,9.337460299393786,0.33161100042611424,-0.24055712450000022,0.07060787999999985,0.0383440015000005
131982.0,-1.6506553279999998,2.8230403355,8.989363789,0.3361661218973758,0.14897606896248,-0.16948368767341335,9.565713830065125,0.404878069327562,-0.27174227149999974,0.19397553700000003,0.13641050150000034
131992.0,-1.821879437,2.874525248,9.075564242499999,0.4267626727098975,0.08236034207236041,-0.20652131972998503,9.692677978974514,0.4812075022979027,-0.17122410900000018,0.05148491249999987,0.08620045349999828
132002.0,-1.960741601,2.8230403355,9.158136235499999,0.5178932942735295,-0.0034400439556808234,-0.2390298223776314,9.781897754001013,0.5704038517943122,-0.13886216400000007,-0.05148491249999987,0.08257199300000018
132012.0,-2.194139871,2.8805073044999996,9.2467883515,0.6092892058834645,-0.08471130057479678,-0.28512745858130567,9.930491776454266,0.6780169676993419,-0.2333982699999999,0.05746696899999959,0.08865211600000045
132022.0,-2.4802979179999998,2.9690613539999995,9.325731884,0.6921591840974073,-0.15159231751121952,-0.33975277351022415,10.09635965376163,0.7858094641620834,-0.2861580469999998,0.0885540494999999,0.0789435325000003
132032.0,-2.736447616,3.094782607,9.4119323375,0.7585096209412237,-0.20595059706458288,-0.406900825822202,10.278632947302867,0.8850541088241143,-0.2561496980000002,0.12572125300000048,0.08620045350000005
132042.0,-2.9279714905,3.1929471735,9.475381362999999,0.8155312729331304,-0.23739444886851271,-0.47857975287235716,10.418770593320026,0.974928695518233,-0.19152387450000008,0.09816456649999994,0.06344902549999887
132052.0,-3.0405518325,3.1594084305,9.6214023815,0.8741533918491159,-0.23392997030330398,-0.5659788604952252,10.573466832764334,1.0673328693593636,-0.11258034199999978,-0.033538742999999815,0.14602101850000082
132062.0,-3.150680512,3.1605852285,9.878826944,0.921849749647617,-0.19023041649186995,-0.6738960588045386,10.840078803440932,1.1576400435179903,-0.11012867950000027,0.0011767979999999234,0.2574245625000007
132072.0,-3.2870910134999995,3.208539747,10.196072071499998,0.9122574200786562,-0.13320701917071123,-0.7868764572738874,11.18300408326553,1.2120776664293489,-0.13641050149999945,0.0479545185000001,0.3172451274999979
132082.0,-3.3577969599999995,3.1989292299999996,10.5192992555,0.8301868026621269,-0.0817791474314463,-0.902787263557335,11.496243102418132,1.2291959971909772,-0.07070594649999995,-0.009610517000000485,0.32322718400000205
132092.0,-3.4259531775,3.222857456,10.805359236,0.7052159922315768,-0.039413025168535946,-1.0184327797944792,11.784725434863878,1.2393902973688367,-0.06815621750000034,0.02392822600000022,0.28605998049999926
132102.0,-3.4798897524999997,3.3449502485,11.069942652999998,0.5765154131895149,-0.017029177511708675,-1.1308791075127178,12.07650426221112,1.2694674357148998,-0.05393657499999982,0.12209279250000016,0.264583416999999
132112.0,-3.4714560335,3.5293152684999995,11.266271786,0.48112095226326085,-0.01303237352464166,-1.2281393254093538,12.30593162718737,1.3190805191811967,0.008433718999999673,0.18436501999999955,0.19632913300000254
132122.0,-3.397219693,3.6897520624999993,11.3308976095,0.42036778633059024,-0.013831734322055061,-1.3051467426658476,12.39131197905221,1.3712433819530758,0.07423634050000016,0.16043679399999977,0.06462582349999835
132132.0,-3.2069706829999998,3.7352549185,11.382382521999999,0.37453544017321916,-0.0066374871453344355,-1.371228398804857,12.401428230043948,1.421473944140477,0.19024901000000005,0.04550285600000059,0.051484912499999425
132142.0,-3.0201540005,3.767518797,11.417098063,0.33589908652182066,0.020008454544862997,-1.4351807532564331,12.396195232918963,1.4741005152625006,0.18681668249999994,0.03226387850000023,0.03471554100000063
132152.0,-2.920812636,3.7507494254999996,11.4589724585,0.2969956974948671,0.05624847113327325,-1.4914030444509265,12.405938800113733,1.5217271029434896,0.09934136449999986,-0.016769371500000574,0.041874395500000716
132162.0,-2.9016896684999995,3.73044966,11.612250398,0.26955039500725625,0.08715825218609283,-1.5438973123631599,12.537161437260226,1.5696728600236711,0.01912296750000042,-0.020299765499999456,0.15327793950000057
132172.0,-2.899238006,3.719662345,11.812109924999998,0.2543625398564016,0.10048035036656555,-1.5961227995705862,12.71878177564696,1.6193840167795386,0.0024516624999995074,-0.010787314999999964,0.19985952699999743
132182.0,-2.8681509254999997,3.7699704594999996,12.101798365999999,0.24157102176853515,0.07410144405192326,-1.6486170674828198,12.995864368647027,1.6678686452369464,0.031087080500000308,0.0503081144999995,0.2896884410000009
132192.0,-2.7436064705,3.860878105,12.433459268999998,0.23517613538922794,0.016278685933351113,-1.6891191781046,13.305061653390407,1.7054900785736304,0.12454445499999967,0.09090764550000019,0.3316609029999995
132202.0,-2.4743158614999996,3.918345074,12.706378338499999,0.22238636263061348,-0.05460088031939061,-1.7120353511832858,13.525077359575898,1.7272816776996749,0.26929060900000046,0.057466969000000034,0.27291906950000033
132212.0,-2.063711426,4.009350786,12.9134947865,0.19733914253524285,-0.11935085023912824,-1.7029753470361833,13.67816311410141,1.7185204087360606,0.4106044354999998,0.09100571199999985,0.20711644800000073
132222.0,-1.9667236575,4.100356498,13.103841863,0.15816871813273412,-0.1673142434131844,-1.6757953345948755,13.870529799765123,1.6915381765998159,0.0969877684999998,0.0910057120000003,0.19034707650000016
132232.0,-1.8422772689999998,4.0596589005,13.3408685935,0.09022130502334287,-0.16624784724021588,-1.6472836359342962,14.066043891347617,1.6581078396199191,0.12444638850000023,-0.04069759750000035,0.23702673050000023
132242.0,-1.6782120145,4.1326203765,13.575443661499998,-0.0006422811647339132,-0.1182844540661597,-1.6326281062052996,14.289423268573005,1.6369074982326666,0.16406525449999987,0.07296147600000058,0.23457506799999805
132252.0,-1.5369962545,4.143407691499999,13.871114159,-0.11362267963408286,-0.011965977351673124,-1.6217040904170672,14.55809028672163,1.6257236711128547,0.1412157599999999,0.010787314999999076,0.2956704975000015
132262.0,-1.4723704309999999,4.2810930575,14.282993459,-0.254847741388456,0.11433651929814853,-1.6201053688222402,14.983308533261091,1.6440077910468247,0.06462582350000012,0.13768536600000036,0.4118793000000007
132272.0,-1.3933288320000001,4.358957858499999,14.7163493225,-0.42085473319189665,0.1974735328876464,-1.6323628161589967,15.41145081516038,1.6972692379877983,0.07904159899999974,0.0778648009999996,0.4333558634999992
132282.0,-1.2987927259999998,4.472616931999999,15.107732723999998,-0.5815314894597466,0.22012267059077684,-1.6336945023782683,15.809324869372,1.7480247682576655,0.09453610600000029,0.11365907350000004,0.39138340149999884
132292.0,-1.2161226664999998,4.4893863035,15.395067569,-0.6969099703213358,0.17855416379602787,-1.6217040904170672,16.082339667352635,1.7741164710969883,0.08267005950000006,0.016769371500000574,0.28733484500000195
132302.0,-1.0234219939999998,4.465458077499999,15.573450532499999,-0.8072252510228893,0.0868912168105377,-1.5985208819628265,16.233301263388707,1.7928836268757087,0.1927006725,-0.023928226000000663,0.17838296349999894
132312.0,-0.8079698935,4.416424827499999,15.61414813,-0.9148754139566476,-0.015163420541326736,-1.5748070934159795,16.246822625711875,1.8213303747146332,0.21545210049999974,-0.04903324999999992,0.04069759750000124
132322.0,-0.561332646,4.447511907999999,15.5603096215,-1.024658369236343,-0.1182844540661597,-1.5529555711810106,16.193168066447424,1.8642926250409162,0.24663724750000005,0.031087080499999864,-0.05383850850000016
132332.0,-0.3709855695,4.518119788,15.401049625499999,-1.1227162026011404,-0.21714339355762252,-1.5249779432715413,16.05438775782521,1.9060956566797864,0.1903470765,0.07060788000000073,-0.15925999600000118
132342.0,-0.0716866115,4.491837965999999,15.166376491,-1.2114487417725321,-0.28269272427477354,-1.4858075188690327,15.817734450604005,1.9378202221640417,0.299298958,-0.02628182200000051,-0.2346731344999995
132352.0,0.30900754150000004,4.3122782045,14.961711705499999,-1.2975161631761285,-0.2906863322489076,-1.4402422080872168,15.573825674258888,1.960189877388302,0.38069415300000004,-0.1795597614999993,-0.20466478550000033
132362.0,0.6980373469999999,4.1086921505,14.9377834795,-1.393975274946099,-0.2613752727909148,-1.3920135248668575,15.508255305024168,1.9872558350146643,0.3890298054999998,-0.20358605400000052,-0.023928225999998887
132372.0,0.8500404219999999,4.0272969555,15.026337529,-1.496829273095377,-0.23206421333292204,-1.3395192569546241,15.579875128583263,2.022044389141181,0.152003075,-0.08139519499999981,0.08855404949999901
132382.0,0.9505585845,3.860878105,15.140094669,-1.5964858280550012,-0.2589771903986746,-1.2785008009756502,15.653511042271548,2.0616499417754297,0.10051816250000012,-0.16641885049999994,0.11375714000000059
132392.0,1.1206058955,3.6718058929999997,15.229825516499998,-1.6809545278637708,-0.3263922780862076,-1.2180129250892828,15.706224923638821,2.101355640919587,0.17004731100000003,-0.18907221200000013,0.08973084749999849
132402.0,1.205629551,3.5975695525,15.301708261,-1.7497030470998274,-0.41059394251942205,-1.150864872777305,15.765098318883874,2.134136381316055,0.0850236554999999,-0.07423634049999972,0.07188274450000165
132412.0,1.26309652,3.580800181,15.2478697525,-1.816851099411805,-0.5179788154068772,-1.0709253023774605,15.713531580911088,2.17166548388937,0.057466969000000034,-0.01676937150000013,-0.05383850850000016
132422.0,1.381560852,3.5592255509999995,15.152058782,-1.8970559598579524,-0.6245643274969188,-0.9877900341172148,15.625673817274363,2.2281452074574366,0.11846433200000006,-0.021574630000000372,-0.09581097050000054
132432.0,1.4845306769999997,3.5269616725,14.930624624999998,-1.991116989235683,-0.7183583214990942,-0.9131806992529611,15.413203484768973,2.3053165796432586,0.10296982499999974,-0.03226387849999934,-0.2214341570000009
132442.0,1.6521263255,3.4886176709999996,14.6839873775,-2.0947720935116263,-0.7961650995530013,-0.8516264271936251,15.182867316564513,2.3973353042484273,0.1675956485000003,-0.0383440015000005,-0.24663724749999894
132452.0,1.853260717,3.5424561795,14.379883160999999,-2.209084178200247,-0.8316057553439982,-0.7951371006235767,14.925301028550962,2.490755718147404,0.2011343914999999,0.05383850850000016,-0.30410421650000075
132462.0,2.063907559,3.5616772135,14.006445929,-2.350042204579065,-0.8137527824253482,-0.7391800994753864,14.598828259393393,2.5944708851070715,0.21064684200000006,0.01922103400000008,-0.3734372319999988
132472.0,2.259059894,3.4371327585,13.653308462499998,-2.484872379954131,-0.7804449189802884,-0.6797586197619875,14.259385161233537,2.6917943452949333,0.19515233499999995,-0.12454445499999967,-0.35313746650000155
132482.0,2.443424914,3.3832942499999996,13.2378987685,-2.5866617272596923,-0.7807102090265915,-0.6222028970189705,13.88016459187328,2.772627592520719,0.18436502,-0.053838508500000604,-0.41540969399999916
132492.0,2.5810122134999998,3.2863064815,12.6728395955,-2.6631368190943276,-0.8089566176408678,-0.5601180448670282,13.343998566766173,2.8390915361478695,0.13758729949999982,-0.09698776849999957,-0.5650591729999999
132502.0,2.782146605,3.0648723244999996,12.0934627135,-2.7087003845468915,-0.849191692887093,-0.48497463925166434,12.782238555903024,2.879823728152507,0.20113439150000012,-0.22143415700000046,-0.579376882
132512.0,2.9809274005,2.8026425034999995,11.395523433,-2.7382784793804396,-0.8934253174496374,-0.41276338677965096,12.10779449286816,2.9097682797714057,0.19878079550000027,-0.26222982100000003,-0.6979392805
132522.0,3.104196991,2.5561033225,10.674930791,-2.774516750639598,-0.9427203968429652,-0.34108445972949586,11.40718416380085,2.9500853470488666,0.12326959049999964,-0.24653918099999972,-0.7205926419999997
132532.0,3.2754211,2.380073955,9.866862831,-2.7992986806886653,-0.989884429219608,-0.26567576406782883,10.665276252369832,2.981027993583716,0.17122410900000018,-0.17602936749999998,-0.8080679599999989
132542.0,3.4956784589999996,2.262786421,8.905614997999999,-2.7915703627608344,-0.999743794164124,-0.19000003303060672,9.831070580988682,2.9712712358123694,0.22025735899999965,-0.11728753399999992,-0.9612478330000016
132552.0,3.7207410765,2.1503041455,8.168154917999999,-2.7412088871945377,-0.9379242320584847,-0.1153906981663531,9.229652043330585,2.89952462337193,0.22506261750000034,-0.11248227550000012,-0.73746008
132562.0,3.8655852969999995,2.098819233,7.74921483,-2.641819367610469,-0.8369342455503369,-0.043179445694339715,8.910562403276531,2.7715578592169354,0.14484422049999957,-0.05148491249999987,-0.4189400879999994
132572.0,4.043870194,2.169427113,7.557690955499999,-2.5136511139902655,-0.7545983380875044,0.0346273323595675,8.84183197778535,2.6247018167508602,0.1782848970000006,0.07060787999999985,-0.19152387450000052
132582.0,4.227058415999999,2.251999106,7.5157184935,-2.391610711373814,-0.6919794151844518,0.12895539711285303,8.912101171959344,2.4930436819762125,0.18318822199999918,0.08257199300000018,-0.04197246199999949
132592.0,4.375531097,2.3381995595,7.623493576999999,-2.2746335089173977,-0.6597362025831086,0.24326748180147365,9.095609043896964,2.380837777882123,0.14847268100000033,0.08620045350000005,0.10777508349999909
132602.0,4.4640851464999995,2.377720359,7.7826555065,-2.152060780879088,-0.678655571674727,0.37303445701650406,9.281774455009117,2.2871584325718803,0.0885540494999999,0.03952079949999998,0.15916192950000152
132612.0,4.498800687499999,2.3585973915,7.879643274999999,-2.040413813958263,-0.7418068199996379,0.5334441779087988,9.375018262504547,2.235649476401539,0.03471554099999974,-0.019122967499999977,0.09698776849999913
132622.0,4.432998066,2.3178997939999997,7.860520307499999,-1.947684470799804,-0.8348031985336518,0.7146390248630942,9.317290958900278,2.2363094852756857,-0.0658026214999996,-0.04069759750000035,-0.01912296750000042
132632.0,4.274914868,2.2209120255,7.7324454585,-1.8789376968929994,-0.9238010277513466,0.8897060208136374,9.110327113904047,2.2749487930834946,-0.15808319799999992,-0.09698776849999957,-0.128074848999999
132642.0,4.0031725965,2.0353702075,7.5265058085,-1.8315066291408015,-1.0202601395213173,1.0525138240981724,8.764497270484563,2.345875664821245,-0.27174227149999997,-0.18554181799999991,-0.20593965000000036
132652.0,3.6679812994999996,1.6498707959999999,7.275161368999999,-1.780612828152647,-1.1193843690590832,1.1998667368562976,8.3128895939959,2.42142181283843,-0.33519129700000017,-0.38549941150000033,-0.2513444395000004
132662.0,3.3975138924999997,1.2883976769999999,6.8825031029999995,-1.7281185602404137,-1.2075845828086165,1.3059199235244812,7.78279629610297,2.4799357107680526,-0.27046740699999994,-0.361473119,-0.39265826599999976
132672.0,3.1389125319999995,0.9244728955,6.384521415999999,-1.6806892378174676,-1.252083497417464,1.3661407640352936,7.174227186911733,2.5017533822860205,-0.25860136050000015,-0.36392478149999985,-0.49798168700000023
132682.0,2.9162035105,0.6047761054999999,5.960678003,-1.6289943307026475,-1.2451545402870465,1.399181592104798,6.663308435595964,2.482285536827649,-0.2227090214999996,-0.31969679000000006,-0.4238434129999993
132692.0,2.8193138085,0.28635417999999996,5.5261453414999995,-1.5687752355210873,-1.2097156298253018,1.4098403178467276,6.210379328397291,2.431484601319538,-0.09688970199999991,-0.3184219255,-0.43453266150000047
132702.0,2.7797930089999996,0.12954584649999998,5.201741359499999,-1.5109524774025151,-1.1433669383107372,1.4133030510826843,5.899334239587004,2.36382970173202,-0.039520799500000425,-0.15680833349999998,-0.32440398200000065
132712.0,2.7271312985,0.0230456275,4.9706966855,-1.4493999506724309,-1.0620956816916214,1.4220977651834836,5.669709142402796,2.29154304079524,-0.05266171049999979,-0.10650021899999998,-0.23104467399999873
132722.0,2.676823184,-0.036873003999999994,4.8630196685,-1.3790527098415477,-1.0165303709098052,1.4490107422492362,5.551189266548361,2.2438254171519283,-0.050308114499999945,-0.05991863149999999,-0.10767701700000032
132732.0,2.6373023845,-0.15896579649999998,4.707388132999999,-1.3095065751373296,-1.0205271748968723,1.49031221366843,5.398160522479438,2.2309893946946917,-0.03952079949999998,-0.12209279249999999,-0.15563153550000042
132742.0,2.6241614734999996,-0.30263321899999995,4.514589394,-1.2375623580408712,-1.0522363167471054,1.5521300304448171,5.230614466834779,2.2467464226587355,-0.013140911000000255,-0.14366742249999997,-0.19279873899999966
132752.0,2.6037636415,-0.3911872685,4.179398097,-1.169613199602228,-1.0631603325353378,1.6158153495208385,4.939633694216713,2.26034602950689,-0.02039783199999956,-0.08855404950000006,-0.3351912969999997
132762.0,2.466176342,-0.43551332649999996,3.9112842859999994,-1.1043309042606322,-1.0375807870181089,1.674969793858682,4.644334438141823,2.2586820152542986,-0.13758729950000026,-0.044326057999999946,-0.26811381100000053
132772.0,2.0938178415,-0.5396599495,3.786739831,-1.0033409177524841,-1.0170626963316636,1.7234672577838486,4.360585346276342,2.2386265687154725,-0.37235850049999986,-0.104146623,-0.12454445499999967
132782.0,1.6533031234999997,-0.5049444085,3.693380523,-0.8682454523311152,-1.045574394992243,1.7498461640984908,4.077921009721256,2.215634802707174,-0.4405147180000002,0.03471554099999996,-0.0933593079999997
132792.0,1.3612610864999999,-0.42953126999999997,3.5988444169999996,-0.7041042174980564,-1.1220494868268787,1.7378557521372897,3.871590111995204,2.18515455179346,-0.29204203699999987,0.07541313850000003,-0.09453610600000051
132802.0,1.231911373,-0.338525558,3.530590133,-0.5351668178805173,-1.202521382648581,1.716271265277876,3.7546333871075768,2.16287962094656,-0.1293497134999999,0.09100571199999996,-0.06825428399999955
132812.0,1.3875429085,-0.281058589,3.5006798505,-0.3750223870345256,-1.251816462041909,1.698685327734781,3.7761129047045205,2.143179434409918,0.15563153549999997,0.05746696899999998,-0.02991028249999994
132822.0,1.5826952435,-0.15896579649999998,3.5497131005,-0.2391275608157431,-1.2606094308134563,1.7002840493296079,3.8898145783720497,2.130090133257793,0.19515233499999995,0.12209279250000005,0.04903324999999992
132832.0,1.7431320375,0.05295591,3.5964908209999997,-0.1498626962224931,-1.235562210718086,1.7530436072881443,3.997006361528598,2.1499382998885035,0.160436794,0.21192170649999997,0.04677772049999973
132842.0,1.8424734019999998,0.2301620755,3.717308749,-0.10349802464326374,-1.180671605742864,1.858829758580773,4.155245739239482,2.20452837430094,0.09934136449999986,0.1772061655,0.12081792800000013
132852.0,1.6891954624999999,0.364218981,3.656311386,-0.08670970256833029,-1.1057952355030554,2.00804842830928,4.044088244344392,2.294027063008655,-0.1532779394999999,0.1340569055,-0.060997362999999805
132862.0,1.334881198,0.3258749795,3.5497131005,-0.07418696518527097,-1.0162633355342503,2.178584549521646,3.806384821704101,2.405104054374578,-0.3543142644999999,-0.0383440015,-0.10659828550000006
132872.0,0.7590347099999999,0.1067944185,3.5402006499999996,-0.019561650256352446,-0.9379242320584847,2.323007054465673,3.6222312710631765,2.5052836762212243,-0.575846488,-0.219080561,-0.00951245050000038
132882.0,0.056388237499999994,-0.0811009955,3.5701109324999996,0.08355938326848053,-0.9027506116430429,2.4101408720422377,3.5714771559055873,2.5750184194375416,-0.7026464724999999,-0.18789541399999998,0.02991028249999994
132892.0,-0.5684915005,-0.248696644,3.6418956104999998,0.20986187991830219,-0.9136763727605276,2.449044261069191,3.694379006633831,2.622339473725631,-0.624879738,-0.1675956485,0.07178467800000021
132902.0,-1.0664731875,-0.3900104705,3.6754343535,0.32950420014251347,-0.9376571966829296,2.446911468723254,3.8468546779991577,2.64105088405586,-0.497981687,-0.1413138265,0.03353874300000026
132912.0,-1.4352032275,-0.537208287,3.6873984665,0.42303290409838556,-0.9246003885487601,2.4136036052781944,3.9931577102081057,2.6190313247203307,-0.36873004,-0.14719781650000002,0.011964112999999887
132922.0,-1.7452895004999998,-0.48572337449999997,3.669452297,0.48645118779885155,-0.8779704269232276,2.367773004450075,4.092290654028594,2.571734012153124,-0.3100862729999998,0.051484912500000035,-0.017946169500000053
132932.0,-1.9200440034999997,-0.467777205,3.6275779015,0.5272185884669351,-0.823345111994309,2.31154896792633,4.13094491858038,2.509803825917729,-0.17475450299999995,0.017946169499999998,-0.04187439549999983
132942.0,-2.087639652,-0.40913343799999996,3.4922461314999995,0.5589277303171681,-0.7705855540357724,2.2609204569844783,4.089182379115548,2.4531538102241,-0.1675956485000003,0.05864376700000001,-0.13533177000000052
132952.0,-2.2468015814999998,-0.30498681499999997,3.3367126624999996,0.6047600764745391,-0.716227274482409,2.2270802681175605,4.03420198999041,2.4163200904368147,-0.15916192949999974,0.104146623,-0.15553346899999987
132962.0,-2.4503876355,-0.32057938849999995,3.2468837484999997,0.6846979015451314,-0.6482798613730179,2.2236157895523516,4.080370667576136,2.415273312606392,-0.20358605400000007,-0.015592573499999984,-0.08982891399999993
132972.0,-2.837063845,-0.3133224675,3.2648299179999998,0.8016751040015474,-0.5845945422969967,2.2377389938594896,4.3366134970405605,2.4478377307122723,-0.38667620950000003,0.007256920999999972,0.017946169500000053
132982.0,-3.2691448439999995,-0.39481572899999995,3.3498535735,0.985268033348083,-0.6005817582452648,2.2358732368891077,4.697308424492509,2.5160645216908786,-0.43208099899999963,-0.08149326149999997,0.08502365550000013
132992.0,-3.5744258584999997,-0.5061212065,3.4898925355,1.2149585988982925,-0.7207564038913343,2.2041640950388746,5.021158113714514,2.618005643356372,-0.3052810145000002,-0.11130547750000008,0.1400389620000002
133002.0,-3.6474854009999995,-0.568393434,3.7292728619999997,1.4334581132847148,-0.8793021131424992,2.1415451721358223,5.247351420056799,2.7229010435594034,-0.0730595424999998,-0.062272227499999944,0.23938032649999963
133012.0,-3.5648153414999997,-0.71196279,3.786739831,1.6093227247034196,-1.0112001353742146,2.0530814136692377,5.249209271978042,2.7977828073640283,0.08267005949999984,-0.14356935599999998,0.057466969000000034
133022.0,-3.408007008,-0.7024503394999999,3.8621529695,1.73962377066956,-1.0527686421689637,1.972075447096425,5.198478027832612,2.832612618494352,0.1568083334999999,0.009512450500000047,0.07541313850000009
133032.0,-3.4679256394999998,-0.550349198,4.2177420985,1.7926503640036517,-0.9978780371937419,1.8924029120721357,5.4880543811354405,2.7911547227438254,-0.059918631499999986,0.15210114149999987,0.3555891289999997
133042.0,-3.6725904249999997,-0.5061212065,4.6331517925,1.8083705445763647,-0.8854299641462513,1.839111028691741,5.933816195149345,2.7269982808493007,-0.2046647854999999,0.04422799150000001,0.41540969400000005
133052.0,-4.0473025215,-0.4629719465,5.030615317,1.8238254351027745,-0.7998966134937652,1.801806361259614,6.473182462392147,2.6856433071951735,-0.37471209650000015,0.04314926000000002,0.3974635245
133062.0,-4.505763408999999,-0.3480380085,5.4016989529999995,1.9096258211308157,-0.7852410837647688,1.7567733758996562,7.042825138542432,2.7110011122519824,-0.45846088749999936,0.11493393800000001,0.37108363599999983
133072.0,-4.8361494474999995,-0.338525558,5.8458421314999995,2.036729423907303,-0.8321380807658564,1.7040138179411197,7.594525084453551,2.7828732675788035,-0.33038603850000037,0.009512450499999991,0.44414317850000007
133082.0,-5.100732864499999,-0.3480380085,6.2647822195,2.152374940144447,-0.9011518900482162,1.615548314145283,8.086167353457036,2.8380960109265065,-0.2645834169999999,-0.009512450499999991,0.41894008800000027
133092.0,-5.294708401499999,-0.40315138149999996,6.654988823,2.2173902001104877,-0.952312726411926,1.4649979581975043,8.513832528748434,2.823107834631012,-0.19397553700000003,-0.055113372999999966,0.39020660350000025
133102.0,-5.384439249,-0.5180853195,6.955464579,2.2363095692021067,-0.9659018599679539,1.2635520559323188,8.81130443998939,2.744195818531406,-0.08973084750000027,-0.11493393800000007,0.300475756
133112.0,-5.427588509,-0.465423609,7.1303171485,2.209663627511909,-0.9158074197772126,1.0429214945292116,8.973113105106643,2.6094064115463365,-0.043149259999999856,0.052661710500000014,0.1748525694999996
133122.0,-5.469462904499999,-0.4174690904999999,7.366069014499999,2.1726242501260855,-0.8414651202885142,0.8246890155183446,9.184131838753267,2.4715322480628723,-0.04187439549999983,0.0479545185000001,0.2357518659999993
133132.0,-5.4766217589999995,-0.24389138549999997,7.600742148999999,2.1750240778475773,-0.7953657387555879,0.6368322468091869,9.371454002163084,2.4018517248529236,-0.007158854500000089,0.17357770499999994,0.23467313450000038
133142.0,-5.3880677095,-0.12778064949999998,7.9095535575,2.2267172396331456,-0.7841746875918003,0.46736252176978954,9.57124020258107,2.4065800075406116,0.0885540494999999,0.11611073599999999,0.30881140850000044
133152.0,-5.2264541175,0.007453054,8.1729601765,2.2943993626962333,-0.7623249106860832,0.3130806518812468,9.701193547033352,2.437914518512865,0.16161359199999925,0.13523370349999997,0.2634066190000004
133162.0,-5.106714920999999,0.353431666,8.354873534,2.3383642065539707,-0.7026381409263812,0.16812407618610978,9.79833470524605,2.447429922300268,0.1197391965000012,0.34597861199999996,0.18191335749999915
133172.0,-5.0205144675,0.677835648,8.478241190999999,2.350356363844424,-0.609109436970509,0.03675837937625258,9.876517623982933,2.4282793335456447,0.08620045349999916,0.324403982,0.1233676569999993
133182.0,-5.011002017,0.803556901,8.608669635999998,2.357550611021144,-0.5083864858379162,-0.08394859169167525,9.993249612078703,2.413203072382391,0.009512450499999936,0.12572125300000003,0.13042844499999973
133192.0,-5.0696457839999995,0.8358207795,8.797839914499999,2.3479565361229313,-0.3882118401918467,-0.18653729979464995,10.188321349066406,2.387133111622017,-0.058643766999999514,0.03226387850000001,0.18917027850000068
133202.0,-5.151040978999999,0.6730303894999999,9.0994924685,2.32930594773612,-0.2563120726308793,-0.2872602509272427,10.47792709732302,2.36090671744946,-0.08139519499999981,-0.16279039000000006,0.30165255400000035
133212.0,-5.2970619975,0.412075433,9.456258395499999,2.3738048623449672,-0.15452447065456995,-0.3935787276417293,10.846635183793408,2.4111680885777678,-0.14602101850000082,-0.26095495649999995,0.35676592699999965
133222.0,-5.497019591,0.2995931575,9.838129346499999,2.5046364884037144,-0.12068253645839991,-0.5342697186449922,11.27367595251536,2.5638276747687865,-0.19995759349999975,-0.1124822755,0.3818709509999998
133232.0,-5.566450672999999,0.29478789899999996,10.320518459999999,2.631740091180202,-0.1377361485796365,-0.7165309617722561,11.729679206335515,2.7310151543572587,-0.06943108199999948,-0.00480525850000002,0.4823891135
133242.0,-5.4766217589999995,0.5820246775,10.919116376,2.679968774400561,-0.14679615272673907,-0.9470208881198792,12.229441567340784,2.8461606252551497,0.08982891399999993,0.2872367785,0.598597916000001
133252.0,-5.200074228999999,1.0764759705,11.448185143499998,2.6629169076085764,-0.13960190555001845,-1.1956308227617074,12.619846099775858,2.922353197886706,0.2765475300000002,0.494451293,0.5290687674999983
133262.0,-4.627856201499999,1.8354126139999998,11.8635948375,2.6192156084678904,-0.1252134111965772,-1.4154620233674011,12.865872490964186,2.9798492481299523,0.5722180275,0.7589366434999998,0.4154096940000027
133272.0,-3.9311917855,2.692513824,12.104250028500001,2.539010748021743,-0.08018042583661951,-1.5516238849617388,13.008334570545763,2.9766661149079234,0.6966644159999995,0.8571012100000004,0.2406551910000001
133282.0,-3.185396053,3.3557375635,12.271845676999998,2.438022506842847,-0.011965977351673124,-1.5846647130312437,13.115102703740313,2.9077928367083947,0.7457957325,0.6632237394999998,0.1675956484999972
133292.0,-2.5209955155,3.728096064,12.425025549999999,2.370073348404204,0.09754994255246707,-1.52604433944451,13.214967974601231,2.8205628860315337,0.6644005374999997,0.37235850049999986,0.1531798730000009
133302.0,-2.0793039995,3.8297910244999995,12.559180522,2.3319693201746636,0.24836733387580107,-1.4021381798576766,13.293751156007911,2.73235406164484,0.4416915160000001,0.10169496049999971,0.13415497200000104
133312.0,-2.020562166,3.5856054395,12.724324507999999,2.3133169864586,0.4159713019448166,-1.2438595059820667,13.373394184698663,2.659258181241813,0.05874183350000006,-0.24418558499999943,0.16514398599999858
133322.0,-2.178645364,3.1103751804999997,13.061967467499999,2.329038912360565,0.5582627598721582,-1.118888695551517,13.602791019036403,2.643480939477858,-0.15808319799999992,-0.4752302590000004,0.3376429595000001
133332.0,-2.5808160805,2.6398521134999995,13.668802969499998,2.3732707915938573,0.6448642520268649,-1.0743897809426695,14.158587692334633,2.683761829069178,-0.40217071650000014,-0.47052306700000024,0.6068355019999991
133342.0,-2.998677437,2.3825256175,14.352424541,2.4444173932221545,0.6419320988835144,-1.1348776568290369,14.854648595450373,2.770415223000652,-0.4178613565,-0.2573264959999997,0.6836215715000016
133352.0,-3.2511986745,2.493831095,14.991621988,2.503571837559998,0.5492027557250556,-1.2982177855354302,15.541499804798265,2.8731280917146833,-0.2525212374999999,0.1113054775000002,0.6391974470000008
133362.0,-3.2176599315,2.8673663934999998,15.456162998499998,2.4806556644813127,0.43595706720940364,-1.4764822246756268,16.045812541144628,2.919539492789254,0.033538742999999815,0.3735352984999998,0.46454101049999785
133372.0,-2.747234931,3.429973904,15.808025600499999,2.3375648457565577,0.3845291954701387,-1.6059821645151025,16.407488964929733,2.8620361323761103,0.47042500050000013,0.5626075105000004,0.35186260200000063
133382.0,-2.1834506224999997,4.018961303,15.866767434,2.0655064126141855,0.45167899311136855,-1.6544778831110167,16.512837896029563,2.6847025382846295,0.5637843085000003,0.5889873990000001,0.05874183350000095
133392.0,-1.8255078975,4.2942339684999995,15.6081660735,1.6788706047368895,0.6339384909093805,-1.5987879173383817,16.290726584103318,2.4034573685283607,0.3579427249999996,0.2752726654999993,-0.25860136050000015
133402.0,-1.69262779,3.9578658735,15.4908785395,1.3066215458837829,0.8209958988211247,-1.504194562538793,16.077842175915208,2.154969932973568,0.13288010750000012,-0.33636809499999965,-0.11728753399999903
133412.0,-1.819525841,3.452725332,15.584237847499999,1.1211646048961175,0.9142575674014416,-1.4450383728716971,16.06550515208758,2.0447525204518886,-0.12689805099999996,-0.5051405414999999,0.09335930799999836
133422.0,-2.155893936,3.175001004,15.814007656999998,1.1017129103826406,0.8809497039563818,-1.4378441256949765,16.27302517094892,2.014259031902346,-0.3363680950000001,-0.27772432800000013,0.2297698094999987
133432.0,-2.389292206,3.154603172,16.082219534500002,1.15233967599524,0.728531845708969,-1.508456656572163,16.561945042002108,2.033245401775644,-0.2333982699999999,-0.020397832000000005,0.2682118775000042
133442.0,-2.3653639799999997,3.2359983669999997,16.465267283499998,1.1821848062043432,0.5257542572245119,-1.6158415294596182,16.94613994118435,2.070005387272337,0.02392822600000022,0.08139519499999981,0.3830477489999957
133452.0,-2.008598053,3.605905205,16.678365788,1.1272924558998696,0.3293715551193619,-1.6957810998594627,17.181527983398052,2.062752394518323,0.35676592699999965,0.36990683800000035,0.21309850450000312
133462.0,-1.6219218435,3.9603175359999994,16.789671265499997,0.9506284836837514,0.19081161113278408,-1.776251250351913,17.326505898649266,2.0236531543994123,0.38667620950000003,0.35441233099999936,0.11130547749999664
133472.0,-1.234068836,4.205679919,16.5574497935,0.6561879482138041,0.13538693540645214,-1.8013002157765359,17.127749797837993,1.921872709889078,0.38785300749999996,0.24536238300000024,-0.2322214719999991
133482.0,-0.977919138,4.5719582965,15.979249709499998,0.2762123167621186,0.13325588838976707,-1.7911738154564647,16.649190664532544,1.817238017679168,0.2561496980000001,0.3662783775000005,-0.5782000840000006
133492.0,-0.8342517155,4.75034126,15.290920945999998,-0.09710313826395651,0.13538693540645214,-1.750404669459129,16.033526791947384,1.7583159979377379,0.14366742249999997,0.17838296349999982,-0.6883287634999995
133502.0,-0.640374245,4.563622644,14.5331611005,-0.3571694141158756,0.09488482478467172,-1.6861870249612498,15.246294709980363,1.726209663830546,0.19387747050000004,-0.18671861600000028,-0.757759845499999
133512.0,-0.410506369,4.214113638,13.832868224,-0.4504310826961926,0.03519805502496964,-1.61530920403776,14.466357956843044,1.6773046497239275,0.22986787599999997,-0.3495090059999999,-0.7002928764999989
133522.0,-0.4176652235,4.2475543145,13.119336370000001,-0.4107283328718256,-0.06739065307800506,-1.5486934771476404,13.796128032268825,1.6036491978314953,-0.007158854500000034,0.0334406765000006,-0.7135318539999993
