timestamp,ax,ay,az,gx,gy,gz,acc_mag,gyro_mag,dax,day,daz
89072.0,-1.159342163,0.6371380504999999,10.1087928865,0.2135811765543021,0.19212584405953578,-0.1191763173139288,10.194984687014369,0.31101809198569025,0.0,0.0,0.0
89082.0,-1.2442677519999998,0.9507547174999998,9.9687539245,0.21571396890023917,0.14202965853954255,-0.13836097645185047,10.090995569256275,0.29299948820477817,-0.0849255889999998,0.3136166669999999,-0.1400389620000002
89092.0,-1.1353158705,0.714904785,9.8549967845,0.20292245081237273,0.11191923828413637,-0.15701331016791387,9.94590330738895,0.27992251876490154,0.1089518814999999,-0.23584993249999986,-0.11375713999999881
89102.0,-1.2251447844999999,0.7663896975,9.772424791499999,0.2053222785338649,0.1135179598789632,-0.15941139256015407,9.878695218344651,0.2836468884993936,-0.08982891399999993,0.05148491249999998,-0.08257199300000195
89112.0,-1.2922222705,0.7220636395,9.7341788565,0.21811205129247938,0.13776756450617242,-0.16154418490609115,9.84608817278191,0.3043834627997206,-0.06707748600000007,-0.044326058,-0.038245934999999065
89122.0,-1.3149736984999998,0.6251739374999999,9.725745137499999,0.2370296750548459,0.18146711831760642,-0.1876560558451783,9.83413019842024,0.35260200961207055,-0.02275142799999985,-0.09688970200000002,-0.008433719000001005
89132.0,-1.35920169,0.6215454770000001,9.8179276475,0.25141991473753916,0.24062156265545023,-0.24388009236892366,9.93103475503046,0.4249567147313441,-0.04422799150000012,-0.003628460499999875,0.09218251000000066
89142.0,-1.4442253455,0.7436382694999999,9.960418271999998,0.255149683349051,0.3210934584771528,-0.3163583802164922,10.09201252861098,0.5179623487505078,-0.08502365550000013,0.12209279249999982,0.14249062449999883
89152.0,-1.5686717339999998,0.887305692,10.1986218005,0.2415605497930232,0.4047627974885089,-0.38910195811036385,10.356636955582639,0.6112158008857025,-0.12444638849999978,0.14366742250000009,0.23820352850000148
89162.0,-1.704003504,1.0297963165,10.485956645499998,0.21891141208989276,0.45938636708817554,-0.45491832420307005,10.673302917392855,0.6825750671577393,-0.13533177000000007,0.14249062449999994,0.2873348449999984
89172.0,-1.8141321834999997,1.1243324225,10.843801304,0.2013237292175459,0.47643997920941206,-0.5002165996093308,11.051842638045805,0.7195435666169535,-0.11012867949999983,0.09453610600000006,0.35784465850000124
89182.0,-1.9422070324999998,1.245248417,11.1000490685,0.19066674880486853,0.44073403337211203,-0.5260631805021149,11.337279263572949,0.7122799780649948,-0.1280748490000001,0.12091599450000001,0.2562477645000012
89192.0,-1.973294113,1.2763354974999999,11.3573755645,0.18560354864483297,0.3714549340434492,-0.5393870240118396,11.59796972196775,0.6807097817477922,-0.031087080500000086,0.031087080499999864,0.25732649599999924
89202.0,-1.9637816625,1.233284304,11.489078873999999,0.1746777875273485,0.2995089716177389,-0.5508451105511823,11.720766270404726,0.6508827001488896,0.009512450499999936,-0.04305119349999975,0.13170330949999887
89212.0,-1.8955273784999997,1.2284790454999999,11.613623329000001,0.1506969636049464,0.2387558056850683,-0.5764246560684112,11.831248101352989,0.6418561316304946,0.06825428400000022,-0.004805258500000242,0.12454445500000233
89222.0,-1.8380604095,1.2380895625,11.733264459,0.1133922961728196,0.21157753857301262,-0.6198589198335421,11.940721364246606,0.6647164419187814,0.05746696899999981,0.00961051700000004,0.11964112999999976
89232.0,-1.7566652145,1.2033740215,11.9081170285,0.05636889885166086,0.2201034719690049,-0.6803450503906576,12.096992720337857,0.717281241021697,0.08139519500000003,-0.03471554099999996,0.17485256949999872
89242.0,-1.6764468174999998,1.198568763,12.067278958,-0.01957212223186441,0.23395964090058788,-0.75655485217899,12.241987684266586,0.7921460887327315,0.08021839700000011,-0.00480525850000002,0.15916192949999974
89252.0,-1.482569347,1.2021972235,12.1642667265,-0.09498256322278341,0.23022987228907602,-0.8274326731024797,12.313109884439841,0.8641020251846013,0.1938774704999997,0.003628460500000097,0.09698776850000002
89262.0,-1.3699890049999999,1.4128440654999999,12.3521621405,-0.15973253314252103,0.20171817362849664,-0.8668701328805436,12.50795378039274,0.9042502590524784,0.11258034200000022,0.21064684199999983,0.18789541400000154
89272.0,-1.2023933564999998,1.1841529874999999,12.449149908999999,-0.18264870622120657,0.14522710172919617,-0.9220277732313203,12.5630132348221,0.9510976162155229,0.16759564850000008,-0.228691078,0.09698776849999824
89282.0,-0.9689950864999999,1.2416199565,12.501811619499998,-0.1879771964275453,0.07834608479277345,-0.9614634876801323,12.600629562188763,0.9827947769097882,0.2333982699999999,0.057466969000000034,0.052661710499998904
89292.0,-0.607423901,1.3721464679999997,12.5688891055,-0.21435610274218758,0.02292140906644153,-0.9958377472981605,12.658148485126391,1.018904680880545,0.3615711854999999,0.13052651149999983,0.0670774860000023
89302.0,-0.25310963649999996,1.4859036079999999,12.653912760999999,-0.26951548842221634,0.009065240134858547,-1.0062294376645349,12.743370126593483,1.0417381908622023,0.35431426450000003,0.11375714000000015,0.0850236554999988
89312.0,0.0797280645,1.6606581109999998,12.690981897999999,-0.35957971381287973,0.025586526834236872,-0.9945043157496369,12.799420434584631,1.0578237447636754,0.332837701,0.17475450299999995,0.037069136999999586
89322.0,0.375398562,1.7384248455,12.747272069,-0.47415708854780353,0.06022607649856833,-0.9675930840131364,12.870741634611072,1.0792073485390068,0.29567049749999996,0.07776673450000016,0.056290171000000555
89332.0,0.639981979,1.7037093044999998,12.820233544999999,-0.5866051615952942,0.07887841021463173,-0.9356169067873483,12.948767913435928,1.1071162610469392,0.264583417,-0.03471554100000018,0.07296147599999969
89342.0,0.8027723689999999,1.6390834810000001,12.838179714499999,-0.6825319479434065,0.05809502948188325,-0.8985792747307766,12.967262491209015,1.1298980508831804,0.16279038999999995,-0.06462582349999968,0.017946169500000053
89352.0,0.9846857265,1.6223141094999998,12.736484754,-0.7614051221702823,-0.0005270894341022875,-0.8580771641089961,12.87709411857854,1.1471854503330101,0.18191335750000004,-0.016769371500000352,-0.10169496049999971
89362.0,1.1918021744999998,1.6342782224999999,12.607135040500001,-0.8301518960770868,-0.05381897281449715,-0.8122448179516252,12.768363703352268,1.1626651696358925,0.20711644799999984,0.01196411300000011,-0.12934971349999813
89372.0,1.453933929,1.6882147975,12.431203739499999,-0.8959682621697931,-0.07220601648425741,-0.7581535737738168,12.629284203206216,1.1759122743887378,0.26213175450000015,0.05393657500000004,-0.1759313010000021
89382.0,1.7041996369999999,1.6774274825,12.300677228,-0.9687118400636647,-0.054885368987465676,-0.6915378468836972,12.530950467910843,1.1914863098168444,0.2502657079999999,-0.010787314999999964,-0.1305265114999994
89392.0,1.880130938,1.6390834810000001,12.134356444,-1.0513165282313044,-0.02530901948316977,-0.6134640334542348,12.388062532605982,1.21747489064106,0.1759313010000001,-0.038344001499999836,-0.16632078399999983
89402.0,1.937597907,1.4965928565,11.993042617499999,-1.1328530748967236,-0.010653489754173389,-0.5332591730080875,12.240389987762189,1.2521321542649455,0.057466969000000034,-0.14249062450000016,-0.14131382650000113
89412.0,1.9771187065,1.3075206445,11.7847493715,-1.181882864243748,-0.03303559208174867,-0.45758344197086537,12.020770622736947,1.2678016648920687,0.03952079949999998,-0.1890722119999999,-0.20829324599999843
89422.0,2.0010469325,1.0093984845,11.602836014,-1.1744215816914725,-0.07007322413832033,-0.39150004050260406,11.817312625734921,1.2399389460765315,0.023928225999999997,-0.29812216000000014,-0.18191335750000093
89432.0,2.0334088775,0.749620326,11.39336597,-1.1195292313869987,-0.11697196646865997,-0.33421135313514216,11.597649349010437,1.174191368318611,0.03236194499999989,-0.25977815849999997,-0.2094700439999997
89442.0,2.1231397249999997,0.574865823,11.223318659,-1.050782457480194,-0.17745809702577545,-0.2777202812358417,11.43682974988192,1.1012555124755745,0.08973084749999982,-0.17475450299999995,-0.17004731099999937
89452.0,2.2284631459999997,0.4396321195,11.07366918,-1.0097480214365555,-0.24007701992882802,-0.22362903705803344,11.30422370185844,1.061714645518488,0.10532342100000003,-0.13523370350000002,-0.1496494790000007
89462.0,2.287106913,0.3617673185,10.8258551345,-1.0094809860610003,-0.31282059782269966,-0.16793907128539837,11.070721431659596,1.0700991165798817,0.0586437670000004,-0.07786480099999998,-0.2478140455000002
89472.0,2.4236154809999997,0.309105608,10.636782922499998,-1.0297320413718904,-0.3805027208857878,-0.10238799523899535,10.913780702260217,1.1025487287183589,0.13650856799999955,-0.052661710500000014,-0.18907221200000102
89482.0,2.5289389019999997,0.238497728,10.426038014000001,-1.0571773438595014,-0.4412558868184584,-0.024581217185088138,10.731014947603196,1.1458337271437227,0.10532342100000003,-0.07060787999999998,-0.21074490849999705
89492.0,2.5935647255,0.16788984799999998,10.229708880999999,-1.0766290383729782,-0.519862025669779,0.048429396084338654,10.554700790473863,1.1965500484336222,0.06462582350000012,-0.07060788000000001,-0.19632913300000254
89502.0,2.6031752425,0.08051259649999999,9.935215181499998,-1.0814252031574585,-0.6144571257986198,0.12170704472932058,10.27090572072727,1.2497402266893693,0.00961051700000004,-0.08737725149999999,-0.29449369950000026
89512.0,2.653483357,0.09120184499999999,9.452826068,-1.0779624699215018,-0.7396949716047247,0.19897975203211754,9.818615603753297,1.3224011037863446,0.050308114499999945,0.010689248499999998,-0.48238911349999825
89522.0,2.8473608274999997,0.027752819499999998,8.993090316,-1.0435882103034735,-0.8404179227373175,0.27865228705640666,9.433128183837251,1.3685853041094225,0.19387747049999993,-0.06344902549999999,-0.4597357520000003
89532.0,2.9981871045,0.0385401345,8.503542348,-0.9799028912274523,-0.8841174765487515,0.3727133164341371,9.016698049717908,1.3714184645184655,0.15082627700000018,0.010787315000000006,-0.4895479680000001
89542.0,3.1346956725,0.042168594999999996,8.018701572,-0.9146205958858564,-0.8979736454803345,0.4840949933086592,8.609742740081714,1.3701224269905048,0.136508568,0.003628460499999993,-0.4848407760000004
89552.0,3.3202374905,-0.085906254,7.664387307499999,-0.8557314415943158,-0.8649310720815779,0.6029379527354571,8.353094616797128,1.3579087725006043,0.18554181799999991,-0.128074849,-0.35431426450000014
89562.0,3.2280549805,-0.032067745499999994,7.384211316999999,-0.8035059543868895,-0.8012474983348088,0.7263100415711803,8.059028730035847,1.3472734127897372,-0.09218250999999977,0.05383850850000001,-0.2801759905000001
89572.0,3.1250851555,-0.085906254,7.149636249,-0.7600716906217586,-0.7447564264355083,0.8574087030054823,7.803258012305986,1.3665726448276179,-0.10296982500000018,-0.05383850850000001,-0.23457506799999894
89582.0,3.0772287035,-0.1936813375,7.0083224225,-0.7187702192025647,-0.7058530374085548,0.987442713596068,7.656594029453067,1.4106389513498312,-0.047856451999999994,-0.1077750835,-0.14131382650000024
89592.0,2.9503306525,-0.29665116249999995,6.8933884845,-0.6705415359822054,-0.6898658214602867,1.11667736338924,7.504082733387931,1.4739433968108804,-0.12689805099999996,-0.10296982499999996,-0.11493393800000007
89602.0,2.771947689,-0.41511549449999996,6.6515564955,-0.6257755859978029,-0.6933303000254953,1.2453779424313018,7.217978849868893,1.5566850061777944,-0.17838296349999982,-0.118464332,-0.24183198899999958
89612.0,2.5516903299999996,-0.5886931995,6.3344094344999995,-0.5754141104315066,-0.6975923940588655,1.3719474744566789,6.854372772707628,1.6431604971519127,-0.22025735900000054,-0.17357770500000003,-0.3171470610000009
89622.0,2.3026994865,-0.8209146715,6.102089896,-0.5056009403517334,-0.6981264648099758,1.4883923514912363,6.573570332922331,1.719978099782158,-0.24899084349999967,-0.23222147199999998,-0.23231953849999964
89632.0,2.007028989,-1.0592162664999998,5.867514827999999,-0.4123392717714163,-0.7141136807582439,1.5899146634212424,6.291091695302527,1.7910361975831064,-0.29567049749999974,-0.2383015949999998,-0.23457506800000072
89642.0,1.717340548,-1.266234648,5.66039838,-0.2892324729819963,-0.7540834659581661,1.6424071860042238,6.049191562672425,1.8302455195129081,-0.28968844100000024,-0.20701838150000018,-0.20711644799999895
89652.0,1.440793018,-1.4338302965,5.5286950704999995,-0.13788275623680404,-0.8047119769000175,1.6794465633900477,5.890519758259862,1.867381530249358,-0.27654753,-0.16759564850000008,-0.13170330950000064
89662.0,1.2241641195,-1.5020845804999998,5.350312106999999,0.031054643380735106,-0.8529406601203768,1.6871731359886266,5.690402052646002,1.8907737440962589,-0.2166288985,-0.06825428399999978,-0.1783829635000007
89672.0,1.0457811559999999,-1.4542281285,5.233024573,0.19706163518417577,-0.8686625860223417,1.6693201630699763,5.531092465109143,1.8920987773497597,-0.17838296350000005,0.04785645199999977,-0.11728753399999903
89682.0,0.8697517885,-1.285455682,5.178009266499999,0.3457479794908247,-0.8268270438520376,1.6429412567553343,5.405612310177719,1.8714808572133153,-0.17602936749999987,0.1687724465,-0.05501530650000053
89692.0,0.721377174,-1.0603930645,5.175557604,0.45979302880389017,-0.7173111239478975,1.6216238052714755,5.332092927803316,1.831832045712486,-0.1483746145,0.22506261750000012,-0.0024516624999995074
89702.0,0.5825150099999999,-0.8221895359999999,5.292845138,0.526941081115868,-0.5366503477447125,1.5955101890031362,5.3879058106868785,1.763891510812075,-0.13886216400000007,0.23820352850000004,0.11728753399999992
89712.0,0.3143031325,-0.6341960555,5.5179077555,0.5530546973842072,-0.3122882724008414,1.586717220231589,5.563119367236165,1.7091123428134558,-0.2682118774999999,0.18799348049999987,0.2250626174999999
89722.0,-0.0232417605,-0.629390797,5.833976085,0.5495902188189984,-0.09858492279889972,1.5744597728948329,5.867874394968876,1.6705364324338539,-0.337544893,0.00480525850000002,0.3160683295000002
89732.0,-0.35960985549999996,-0.7479531955,6.1404338974999995,0.5357357952166674,0.05516287633853278,1.5310255091297018,6.1962635257385905,1.6229894931293418,-0.336368095,-0.11856239849999994,0.3064578124999997
89742.0,-0.6481214984999999,-0.8652407295,6.455325428999999,0.5314719558540453,0.14576117248030643,1.4548174526706215,6.545221874856313,1.5557000288799876,-0.28851164299999993,-0.11728753400000003,0.3148915314999998
89752.0,-1.022833595,-0.9334950134999999,6.791693523999999,0.5333359674951752,0.18120008294205128,1.341039438733111,6.931428599302853,1.4545334305267232,-0.37471209650000015,-0.06825428399999989,0.3363680950000001
89762.0,-1.2047469524999999,-0.91790244,7.0777535044999995,0.5581178975442427,0.17320647496791725,1.2251268871204115,7.237993836649629,1.3573621329900754,-0.18191335749999982,0.015592573499999873,0.28605998050000014
89772.0,-1.486099741,-0.6976450809999999,7.2478008155,0.5850308746099953,0.13670116833320387,1.1180090496085116,7.4314075221593265,1.2692094266420835,-0.28135278850000023,0.2202573590000001,0.17004731100000026
89782.0,-1.6153513879999999,-0.47738772199999996,7.377052462499999,0.6186040281013582,0.09833010472810853,1.0319416282049154,7.566912327912037,1.2071633183216257,-0.1292516469999998,0.22025735899999993,0.12925164699999936
89792.0,-1.717144415,-0.151806942,7.4069627449999995,0.6476497975130477,0.10259394409073068,0.9794491056219338,7.604914686926015,1.1786841511136008,-0.10179302700000004,0.32558077999999996,0.029910282500000385
89802.0,-1.8823864675,0.055309505999999994,7.448837140499999,0.6694995744187648,0.15162198810850339,0.9634618896736658,7.683203283798581,1.1829952325679225,-0.16524205250000001,0.207116448,0.04187439549999983
89812.0,-2.05351251,0.0230456275,7.5494533695,0.6993429592986159,0.19852073043884302,0.9575993287162168,7.823790060317843,1.2022842964508296,-0.17112604250000008,-0.032263878499999996,0.10061622900000078
89822.0,-2.2247366189999997,-0.1481784815,7.740977243999999,0.7555669958223612,0.22436731133162705,0.9253578614441256,8.055689826354104,1.2155284230764234,-0.17122410899999974,-0.17122410899999999,0.19152387449999875
89832.0,-2.3611471205,-0.330091839,7.9911448855,0.8400356956311308,0.23928813110692657,0.8515478873772854,8.3392069723609,1.21985760813295,-0.13641050150000034,-0.1819133575,0.2501676415000009
89842.0,-2.4856915754999998,-0.5204389155,8.252099842,0.9287664894732705,0.23689004871468639,0.7428295829413066,8.634041410348628,1.212649939777059,-0.12454445499999967,-0.1903470765,0.2609549565
89852.0,-2.4833379795,-0.6090910315,8.505895943999999,1.001244777320839,0.2326279546813162,0.6090658037392093,8.881904368728392,1.1948087808080246,0.002353595999999847,-0.088652116,0.253796101999999
89862.0,-2.3672272435,-0.4881750369999999,8.6938894245,1.0278907190110365,0.26700046897009255,0.4761013853345252,9.023624161862655,1.1638389535398481,0.11611073599999999,0.12091599450000007,0.1879934805000012
89872.0,-2.2762215315,-0.33617196199999994,8.9249340985,0.999379020350457,0.3575987651118662,0.3719139556367237,9.216758904900743,1.124702313291622,0.09100571199999985,0.152003075,0.23104467399999962
89882.0,-2.2881856445,-0.1373911665,9.139209400999999,0.9300999210217942,0.48976382271913677,0.2975716561480252,9.422304301584346,1.092475791801305,-0.011964112999999887,0.19878079549999994,0.21427530249999904
89892.0,-2.3348652985,0.045797055499999996,9.4109516725,0.8554905861575406,0.6227282411238207,0.23548505866683092,9.696375854646028,1.084023901098431,-0.04667965400000007,0.18318822199999998,0.27174227150000085
89902.0,-2.49285043,0.08649465299999999,9.722214743499999,0.8088588792027561,0.7314448002305476,0.18885509704129844,10.037093409452636,1.1067657520577345,-0.15798513149999982,0.040697597499999995,0.31126307099999906
89912.0,-2.5826793439999998,-0.05119071299999999,10.0813342665,0.8213833619150673,0.7807398796238755,0.13849362147500205,10.407024246917503,1.141668020947974,-0.08982891399999993,-0.13768536599999998,0.35911952300000216
89922.0,-2.56345831,-0.2978279605,10.4894870395,0.8967920575767343,0.7554273694822017,0.07614173394750462,10.802284867239992,1.1750336457923425,0.019221033999999637,-0.2466372475,0.4081527729999994
89932.0,-2.513248262,-0.4366901245,10.864199135999998,1.0241609503995246,0.6531056967547821,0.0028640853025226946,11.159656713266092,1.2146855175070734,0.050210048000000285,-0.138862164,0.3747120964999979
89942.0,-2.3611471205,-0.3241097825,11.2412648285,1.1509975178004566,0.5321316903112991,-0.06614972397983708,11.491131268079256,1.2697776213963534,0.15210114149999976,0.112580342,0.3770656925000022
89952.0,-2.200808393,-0.16612465099999998,11.498689391,1.2109513229357138,0.4324733900224229,-0.11997567811134222,11.708587134794064,1.2914451219217635,0.1603387275000001,0.15798513150000001,0.2574245624999989
89962.0,-2.0343895425,-0.002157463,11.7608211455,1.1861693928866464,0.3762510988279296,-0.17140180452135514,11.935479021879258,1.2561613338196158,0.16641885049999994,0.16396718799999999,0.26213175450000037
89972.0,-1.8847400634999998,0.113953273,12.0397222715,1.1009013322804633,0.3829130205827919,-0.23322136662699428,12.186884049265526,1.1886960631717847,0.14964947900000025,0.11611073599999999,0.27890112600000094
89982.0,-1.7207728754999998,0.2336924695,12.214574841000001,0.9769969180228818,0.4140880916819147,-0.30756541144494476,12.337402887388729,1.104802429313168,0.16396718799999999,0.1197391965,0.1748525695000005
89992.0,-1.6525185914999998,0.43718045699999997,12.457583627999998,0.8624177979587061,0.4452649081102894,-0.3696502635968871,12.574312478058172,1.0385887607747621,0.068254284,0.20348798749999997,0.24300878699999728
90002.0,-1.5495487665,0.5545660575,12.798756981499999,0.757165717417188,0.4572553200714904,-0.41441621358128955,12.904139845932688,0.9767922754836972,0.10296982499999974,0.11738560050000002,0.34117335350000033
90012.0,-1.3161504965,0.6526325574999999,13.115904042499999,0.6785595785658673,0.41808489566898166,-0.4325362218754947,13.19792105737165,0.9068217382067757,0.23339827000000013,0.09806649999999995,0.317147061
90022.0,-1.0731417095,0.7615844390000001,13.211715013,0.6074129769375706,0.32828770565387344,-0.42320918235283705,13.277087691625942,0.8098329174980496,0.24300878699999995,0.10895188150000013,0.09581097050000054
90032.0,-0.7881604604999999,0.8717131184999999,13.154248044000001,0.5399978892500376,0.24621708823734406,-0.39256643667557256,13.206639325564185,0.7115679743627648,0.2849812490000001,0.11012867949999983,-0.05746696899999826
90042.0,-0.7607018405,1.0537245425,12.892116289499999,0.4928338568733948,0.16414647082081468,-0.3379411217466541,12.957455966492732,0.6197043457415974,0.027458619999999878,0.18201142400000003,-0.26213175450000215
90052.0,-0.43747465649999995,1.0093984845,12.6167455575,0.4771136763006819,0.059959041123013194,-0.2689273124642943,12.664617555942488,0.5509577534755375,0.32322718400000006,-0.044326058,-0.27537073199999895
90062.0,0.019809433,0.8429796339999999,12.444344650499998,0.5024279317716076,0.025052456083126607,-0.19005413823741854,12.472879413247066,0.5377564761499949,0.45728408949999994,-0.16641885050000005,-0.17240090700000188
