timestamp,ax,ay,az,gx,gy,gz,acc_mag,gyro_mag,dax,day,daz
116282.0,0.14660941749999998,-0.2160404995,9.575605326,-0.06555456670490702,0.1004960583298335,-0.05960299395560636,9.579164116875932,0.13397528072063686,0.0,0.0,0.0
116292.0,0.1083634825,-0.0784532,9.585215842999999,-0.09060353212952964,0.08557349322528197,-0.03375641306282233,9.586149399306686,0.12911745892787688,-0.03824593499999998,0.1375872995,0.009610516999998708
116302.0,0.20289958849999998,-0.21486370149999998,9.504997445999999,-0.0927345791462147,0.039475857021607746,-0.015638150097869192,9.509590480231116,0.10199312327553982,0.09453610599999998,-0.13641050149999998,-0.08021839699999944
116312.0,0.17897136249999998,-0.22329742049999998,9.539712987,-0.07381521005459618,0.016559683942922197,-0.00764279679448317,9.54400421002283,0.07603499661692235,-0.023928225999999997,-0.008433719000000006,0.03471554100000063
116322.0,0.2017227905,-0.2017227905,9.5433414475,-0.03597821720061111,-0.02820626604148036,-0.0009826203688728075,9.547604419538212,0.04572735614188121,0.022751428000000018,0.021574629999999984,0.003628460499999875
116332.0,0.30704621149999994,-0.17063570999999997,9.586392641,-0.0024033183799961914,-0.0697747728362293,0.004080579791162743,9.592826371249645,0.06993529863391645,0.10532342099999994,0.03108708050000003,0.043051193500000196
116342.0,0.371672035,-0.07482473949999999,9.628365103,0.01997878394757909,-0.09482199293159993,0.009410815326753426,9.635826555096894,0.09735977401708926,0.06462582350000007,0.09581097049999998,0.04197246200000038
116352.0,0.3286208415,0.0089240515,9.685832072,0.027173031124299717,-0.10334792632759224,0.014739305533092113,9.691409300155843,0.10787221432923973,-0.04305119350000003,0.08374879099999999,0.057466969000000034
116362.0,0.036480738,-0.1179739995,10.072410214999998,0.011718140597889929,-0.13079322881520306,-0.005778785153353225,10.073167140876764,0.13144420063596032,-0.29214010349999997,-0.12689805099999998,0.3865781429999977
116372.0,0.0736479415,-0.1813249585,10.204113524499999,-0.010930997105240486,-0.16596684923064478,-0.04175002103695636,10.205990181297746,0.17148628515962624,0.037167203499999996,-0.063350959,0.13170330950000064
116382.0,0.3082230095,-0.0640374245,10.08319753,-0.01226268332451216,-0.19208046549898394,-0.06253514709895683,10.088110558688378,0.20237569827257373,0.234575068,0.117287534,-0.1209159944999989
116392.0,0.587222202,0.10954028049999999,9.918053544,-0.00426907535037813,-0.19660959490790925,-0.04921130358923211,9.936026121605392,0.20271978249581601,0.2789991925,0.17357770499999997,-0.16514398600000035
116402.0,0.808656359,0.230456275,9.770757661,0.0029251718263424964,-0.1800900535377829,-0.008176867545593434,9.80687210437804,0.18029932106448246,0.22143415700000002,0.1209159945,-0.14729588299999996
116412.0,0.9642878945,0.171812508,9.8342066865,0.007189011188964643,-0.16223708061913292,0.04378332961552975,9.882863544245959,0.1681949231157594,0.15563153549999997,-0.058643766999999986,0.06344902550000064
116422.0,1.1390423975,0.151414676,9.872550688,0.010119419003063122,-0.15584219423982568,0.09361247975996786,9.939195192496223,0.18207824832542052,0.17475450299999995,-0.020397832000000005,0.0383440015000005
116432.0,1.2779045615,0.0879656505,9.9048145665,0.010386454378618255,-0.15983899822689268,0.13811139436881528,9.987298414522368,0.21149737833655088,0.13886216400000007,-0.06344902549999999,0.03226387850000023
116442.0,1.4155899275,0.125132854,9.953945883,0.016514305382370347,-0.17236173560995202,0.18074455200728076,10.05487900054905,0.2502995870253281,0.13768536599999992,0.03716720349999998,0.04913131649999869
116452.0,1.481392549,0.15984839499999998,10.004253997499998,0.028506462672823384,-0.18595086916597986,0.22497817656982505,10.11460199118638,0.29326698431699366,0.06580262150000005,0.03471554099999999,0.05030811449999817
116462.0,1.5089492355,0.090417313,10.025730561,0.037032396068815684,-0.20940111299577566,0.2609511577826802,10.13905204482034,0.33662402057872887,0.027556686500000094,-0.06943108199999998,0.021476563500002044
116472.0,1.4526590645,0.0316754795,10.151451814,0.03729943144437082,-0.2405761840948984,0.2857313425024957,10.25491080534782,0.3753805376255065,-0.05629017100000011,-0.0587418335,0.12572125300000003
116482.0,1.4850210095,0.0077472535,10.241280727999998,0.02770710187540998,-0.2858744595011592,0.30198559382631884,10.348390134136679,0.4167579500957944,0.032361945000000114,-0.023928226,0.08982891399999815
116492.0,1.6682092315000001,-0.0042168595,10.2185293,0.010653489754173389,-0.32184744071401433,0.3246347315294493,10.35380513999198,0.4572602987941342,0.18318822200000007,-0.011964112999999998,-0.02275142799999763
116502.0,1.8609099040000001,0.0173577705,10.134682442499999,-0.007733553915586874,-0.33943337825710923,0.3686013207164384,10.304129035164484,0.5011404591181017,0.1927006725,0.02157463,-0.08384685750000109
116512.0,2.071556746,0.01372931,10.047305191,-0.011196287151543624,-0.3447636137926999,0.43868152617176676,10.258648909429873,0.5580580504264517,0.21064684200000006,-0.0036284605000000015,-0.08737725149999953
116522.0,2.1924727405,-0.04726805299999999,10.030535819499999,0.0074560465645197764,-0.3447636137926999,0.5282116808113199,10.267464137407178,0.6308130640461513,0.12091599449999979,-0.06099736299999999,-0.016769371500000574
116532.0,2.2487629115,-0.1874050815,10.0640745625,0.042095596228851236,-0.34236553140045967,0.6262712595053693,10.313954241524904,0.7149838367371834,0.05629017100000011,-0.14013702849999998,0.03353874300000115
116542.0,2.1434394904999996,-0.402857182,10.231670210999999,0.07433706350094248,-0.34822809235790864,0.7155361240986192,10.461534403001725,0.7992376043500743,-0.10532342100000047,-0.2154521005,0.16759564849999897
116552.0,2.0620442955,-0.6937224209999999,10.4830146505,0.09112538557587593,-0.3492927432016252,0.7810854548157703,10.706394053863319,0.8604671661803414,-0.08139519499999981,-0.29086523899999994,0.2513444395000004
116562.0,1.962702931,-0.91397978,10.699741615499999,0.09565451498480122,-0.3426308214467628,0.8213205300619956,10.916594362348881,0.8950492048728821,-0.09934136449999986,-0.2202573590000001,0.21672696499999944
116572.0,1.9471103575,-1.134237139,11.0492506215,0.10204940136410845,-0.3303751194392586,0.851965021068512,11.276687098988285,0.9194597310309721,-0.015592573499999984,-0.22025735899999987,0.3495090060000017
116582.0,1.9112180185,-1.2755509655,11.5101631715,0.10444748375634866,-0.3199816837436324,0.8706173547845755,11.737275698149974,0.9334195912056561,-0.035892338999999884,-0.14131382650000002,0.46091254999999975
116592.0,1.8680687584999998,-1.2779045615,12.057276175,0.09645387578221462,-0.3378346566622824,0.8959298649262492,12.267869811626175,0.9623543673004763,-0.0431492600000003,-0.002353596000000069,0.5471130034999998
116602.0,1.9303409859999998,-1.2312249075,12.516913860499999,0.06554409472939506,-0.3887302029796891,0.9343009285313445,12.724592869174904,1.014063816589991,0.062272227500000055,0.04667965400000007,0.45963768549999884
116612.0,1.988984753,-1.1139373735,12.8389642465,-0.0032026791774095948,-0.4270995212555324,0.9814649609079873,13.039782196902365,1.0703727050428442,0.05864376700000018,0.11728753399999992,0.3220503860000008
116622.0,1.9374998405,-1.0325421785,13.073539314499998,-0.09220225372435643,-0.44495249417418237,1.0358232404613508,13.256601343862465,1.1311117376915198,-0.05148491250000009,0.08139519500000003,0.23457506799999805
116632.0,1.8752276129999998,-0.922413499,13.200437365500001,-0.18919369091618532,-0.42656719583367414,1.0867170414495053,13.364837144693672,1.1826697567033069,-0.062272227500000055,0.11012867949999994,0.12689805100000306
116642.0,1.7232245379999998,-0.868476924,13.314194505499998,-0.287785595032093,-0.36501466910359004,1.1277532228223959,13.453309269699115,1.2197883377681062,-0.1520030750000001,0.05393657500000004,0.11375713999999704
116652.0,1.477862155,-0.7895333914999999,13.376466732999999,-0.38690982456985895,-0.29333574205343493,1.1597276547189321,13.480997803743254,1.2572642136936028,-0.2453623829999998,0.07894353250000008,0.062272227500001165
116662.0,1.2192607944999998,-0.7595250425,13.3465564505,-0.4900308580946919,-0.2157959993750829,1.1754495806208969,13.42363751974749,1.2916577998112166,-0.25860136050000015,0.030008348999999934,-0.029910282499999497
116672.0,0.9391828704999999,-0.8661233279999999,13.248391883999998,-0.5883539815057924,-0.15557515886427056,1.1802457454053774,13.309850547454824,1.327909657001129,-0.28007792399999987,-0.10659828549999995,-0.09816456650000127
116682.0,0.660183678,-0.969093153,13.068832122499998,-0.6669618656863652,-0.11853752680769887,1.1829108631731728,13.121332137933896,1.3631461351427527,-0.27899919249999994,-0.10296982500000007,-0.1795597615000002
116692.0,0.392069867,-1.100698396,12.859264011999999,-0.7069299055570353,-0.10867816186318291,1.185308945565413,12.912239413435792,1.3843836645504852,-0.268113811,-0.1316052430000001,-0.20956811049999935
116702.0,0.138273765,-1.2180839964999999,12.604291111999999,-0.6930737366254522,-0.12093560919993909,1.1903721457254486,12.663767318324307,1.3827373110217052,-0.253796102,-0.1173856004999998,-0.2549729000000003
116712.0,-0.0089240515,-1.258781594,12.404431584999998,-0.6459097042488094,-0.13692282514820717,1.1829108631731728,12.468140747001291,1.3547048816264198,-0.1471978165,-0.04069759750000013,-0.19985952700000098
116722.0,-0.10591182,-1.1665990839999998,12.258312499999999,-0.6019448603910723,-0.12759578562554943,1.163726204035251,12.314154298369887,1.316387852199694,-0.0969877685,0.09218251000000022,-0.1461190849999987
116732.0,-0.20407638649999998,-0.9618362319999999,12.120725200499999,-0.5886210168813476,-0.079100067029635,1.1408100309565656,12.160540921141239,1.2861489217231592,-0.09816456649999998,0.20476285199999988,-0.13758729949999982
116742.0,-0.348920607,-0.7093149945,12.072770681999998,-0.6096714329896513,0.01123119373658351,1.117626822502325,12.098622454294972,1.2731516446570874,-0.1448442205,0.2525212374999999,-0.04795451850000099
116752.0,-0.4698366015,-0.528578435,12.0752223445,-0.6776188460990424,0.12420984687668045,1.0984421633644033,12.095914031736841,1.29659961935302,-0.12091599450000001,0.1807365595,0.002451662500002172
116762.0,-0.6410607104999999,-0.473465062,12.082381198999999,-0.7932643623361867,0.2334604767345175,1.0869840768250605,12.108635903248148,1.365762250913743,-0.1712241089999999,0.05511337300000002,0.007158854499998313
116772.0,-0.91397978,-0.4998449505,12.034524746999999,-0.9185022081422919,0.3123336509613932,1.0800568650238949,12.079527718373123,1.45179938268701,-0.2729190695000001,-0.026379888500000004,-0.04785645199999955
116782.0,-1.112662509,-0.635078654,11.9483242935,-1.011763876722609,0.3440427928116262,1.0651342999193436,12.016813062469721,1.5088216138401043,-0.19868272899999995,-0.13523370349999997,-0.08620045349999828
116792.0,-1.3245842154999998,-0.8038511005,11.759154015,-1.0472027871843537,0.3299195885044881,1.0371566720098744,11.860792683637019,1.510355777510798,-0.21192170649999986,-0.1687724465,-0.18917027850000068
116802.0,-1.5376827199999998,-0.8828926994999999,11.492217002,-1.0237542886838098,0.2792910775626366,0.9910572904769481,11.628199314050086,1.4519886027831286,-0.2130985045,-0.07904159899999996,-0.2669370129999997
116812.0,-1.7411707075,-0.9307491514999999,11.189387649999999,-0.9704624053034151,0.23079535896672215,0.9319028461391043,11.362234172804506,1.3651031801552698,-0.2034879875000002,-0.047856451999999994,-0.3028293520000016
116822.0,-1.9554460099999997,-1.0300905159999998,10.8864602315,-0.9019809214429134,0.20361709185466645,0.869817993987162,11.1085494976261,1.269493145080433,-0.2142753024999997,-0.09934136449999986,-0.3029274184999995
116832.0,-2.115882804,-1.106778519,10.645903106999999,-0.8284379827516285,0.22306878636814328,0.7994707531562786,10.91041574340845,1.1726988785999632,-0.16043679400000022,-0.07668800300000012,-0.24055712450000044
116842.0,-2.2858320484999997,-1.1857220515,10.566861508,-0.7748790639956785,0.2976781212323969,0.7048773983566898,10.876098890071528,1.0889912646083826,-0.1699492444999997,-0.07894353250000008,-0.07904159899999819
116852.0,-2.2942657674999998,-1.2994791915,10.650610299,-0.7596894635155719,0.40372956257132836,0.5950944430769947,10.972137500151405,1.0460702829407458,-0.008433719000000117,-0.11375713999999992,0.08374879099999966
116862.0,-2.2726911375,-1.3137969005,10.850567892499999,-0.7953954093528718,0.5199074042303309,0.4874442801432363,11.163602057220883,1.0679697994032888,0.021574629999999928,-0.014317709000000178,0.19995759349999886
116872.0,-2.327706444,-1.2898686745,11.172618278499998,-0.8625452069941016,0.6288909987126128,0.3837891758672931,11.485180785863486,1.1343642509719447,-0.05501530650000008,0.023928225999999997,0.322050385999999
116882.0,-2.346927478,-1.224066053,11.419157459500001,-0.9467468714273161,0.7120262669728588,0.2817345385154286,11.72192660674656,1.2176556958390237,-0.01922103400000008,0.06580262150000005,0.24653918100000283
116892.0,-2.4258710105,-1.121096228,11.5699837365,-1.0538647089392161,0.7666515819017772,0.1794128657880091,11.874604438670561,1.3155129984877771,-0.07894353249999986,0.10296982499999996,0.1508262769999984
116902.0,-2.5180535204999996,-1.0684345175,11.5903815685,-1.154587660071809,0.7663845465262221,0.09521120135479466,11.90878208523913,1.389058353996592,-0.09218250999999977,0.052661710500000014,0.02039783200000045
116912.0,-2.601900378,-1.1498297124999999,11.566453342500001,-1.2052161710136602,0.7090958591587602,0.029127799886533367,11.911122401730822,1.3986462687453032,-0.0838468575000002,-0.08139519499999981,-0.023928225999998887
116922.0,-2.7251699685,-1.2169071985,11.458678259,-1.20228401787031,0.6003793000520334,-0.03029367982686558,11.840976392606088,1.3441948782058344,-0.12326959050000008,-0.06707748600000007,-0.10777508350000176
116932.0,-2.819804141,-1.2815330219999999,11.3234445555,-1.1639129542652145,0.47913825823299533,-0.08811469261618574,11.73942157355122,1.2617571218993664,-0.09463417250000017,-0.0646258234999999,-0.13523370349999908
116942.0,-2.8748194475,-1.3724406674999998,11.224103190999998,-1.1148849102474419,0.3717551306747922,-0.15073361551923828,11.667419281218464,1.184859005590108,-0.05501530650000008,-0.09090764549999997,-0.09934136450000253
116952.0,-2.8389271085,-1.4981619204999999,10.995412113,-1.0783796036127284,0.2862200346930541,-0.22401126416422018,11.454391463631735,1.137983094874476,0.035892339000000106,-0.12572125300000003,-0.2286910779999971
116962.0,-2.7395857439999998,-1.5652394065,10.6985648175,-1.069319599465626,0.23159471976413554,-0.3047484500322259,11.154128993455172,1.1357605988151724,0.0993413645000003,-0.06707748600000007,-0.296847295500001
116972.0,-2.5444334090000003,-1.572398261,10.438786659,-1.0770479173934566,0.2201366332247928,-0.38042418106944803,10.858860187706053,1.1632776586832094,0.1951523349999995,-0.007158854500000089,-0.25977815849999963
116982.0,-2.46539181,-1.4993387185,10.2723678085,-1.1047585099273707,0.25850769682988817,-0.451836072744048,10.669944412353582,1.2212589533796683,0.0790415990000004,0.07305954250000002,-0.1664188504999995
116992.0,-2.418712156,-1.39646696,10.1311520485,-1.1479257383169463,0.3123336509613932,-0.5277788391568253,10.509068954659092,1.3014746687028165,0.04667965400000007,0.10287175850000008,-0.1412157599999997
117002.0,-2.3744841645,-1.328212676,10.03416428,-1.2057484964355185,0.36802361673402834,-0.5989236954558702,10.39647905582348,1.3957006885822707,0.044227991499999675,0.068254284,-0.09698776850000002
117012.0,-2.312211937,-1.21210194,9.8881432615,-1.2534448542340195,0.4061276449635685,-0.6612755829833675,10.226968872276132,1.474228294145581,0.06227222750000028,0.11611073599999999,-0.14602101850000082
117022.0,-2.258275362,-1.099521598,9.7312368615,-1.2883514392739062,0.430909575012636,-0.7095060115329789,10.050160506663616,1.532622351826487,0.05393657499999982,0.112580342,-0.15690640000000045
117032.0,-2.18884428,-1.0360725725,9.5649160775,-1.3038063298003162,0.4381038221893567,-0.7449449219947237,9.86671704404223,1.56422148094508,0.06943108199999992,0.06344902549999998,-0.16632078399999983
117042.0,-2.0200718335,-0.996551773,9.278758030499999,-1.300076561188804,0.42318125708480514,-0.7662623734785824,9.548254093672712,1.567303246442568,0.16877244650000023,0.03952079949999998,-0.2861580470000007
117052.0,-1.929164188,-0.9893929184999999,8.966318161499998,-1.289683125493178,0.4122572412965726,-0.775322377625685,9.224718650706066,1.5602446559531804,0.09090764549999997,0.007158854500000089,-0.3124398690000003
117062.0,-1.9830026964999998,-1.0337189764999999,8.669470866,-1.2736959095449099,0.40799340193395045,-0.7681281304489644,8.953245205685214,1.5423296375289215,-0.05383850849999994,-0.044326058,-0.2968472954999992
117072.0,-2.162562458,-1.1953325684999998,8.39056974,-1.253711889609575,0.38187978566561126,-0.7619985341159603,8.746836965204706,1.5160037727008784,-0.1795597615000002,-0.16161359199999992,-0.27890112599999917
117082.0,-2.258275362,-1.457464323,8.052926780499998,-1.2236014693541688,0.3437757574360711,-0.7718578990604763,8.489619520068503,1.486992583555304,-0.09571290399999999,-0.26213175450000015,-0.3376429595000019
117092.0,-2.3756609624999996,-1.6909606595,7.6471276034999995,-1.1884278489387268,0.3171298157458737,-0.8078308802733314,8.184233228894124,1.4715715420227882,-0.11738560049999958,-0.2334963365,-0.4057991769999987
117102.0,-2.4738255289999995,-1.8620867019999998,7.1826846595,-1.154854695447364,0.3115342901639798,-0.8603234028563129,7.821645514309248,1.473397210207439,-0.09816456649999994,-0.17112604249999985,-0.46444294399999997
117112.0,-2.5049126095,-1.9830026964999998,6.7360898185,-1.1327378831660917,0.34430808285792935,-0.9336010515012948,7.45531977305184,1.5077314387002827,-0.031087080500000308,-0.12091599450000001,-0.4465948409999996
117122.0,-2.5049126095,-2.09077778,6.3387243605,-1.1103540355092645,0.40772636655839534,-1.0225988807189896,7.129191077883237,1.5635969253635509,0.0,-0.10777508349999998,-0.39736545800000034
117132.0,-2.46539181,-2.136280636,5.962835466,-1.0821093722242403,0.4858001799878576,-1.120656714083787,6.796856518064147,1.6318192237968165,0.03952079949999998,-0.04550285600000015,-0.37588889450000007
117142.0,-2.338493759,-2.159032064,5.6455903385,-1.0445376694165585,0.5827933625089385,-1.2165835004318994,6.480946133430411,1.7061015385192595,0.12689805099999996,-0.02275142799999985,-0.31724512749999967
117152.0,-2.1912959425,-2.115882804,5.3319736715,-0.9877813074709548,0.6840486390633896,-1.2986541178484288,6.140739465361566,1.7692193108255927,0.14719781649999986,0.043149259999999856,-0.3136166669999998
117162.0,-2.068026352,-2.0632210934999997,5.1320160779999995,-0.9121073217629847,0.7714477466862576,-1.350347279633997,5.9051844423421915,1.802916849967265,0.12326959050000008,0.052661710500000236,-0.19995759350000064
117172.0,-1.9793742359999997,-2.0200718335,5.005118026999999,-0.8167128608367304,0.8431266737364127,-1.3753962450586195,5.748897202319849,1.8082027861783905,0.08865211600000023,0.043149259999999856,-0.1268980510000004
117182.0,-1.883661332,-2.083520859,4.9620668335,-0.7053311839622085,0.8942875101001225,-1.3796583390919894,5.701872187596003,1.789049849058621,0.09571290399999977,-0.0634490255000002,-0.04305119349999931
117192.0,-1.8225659024999998,-2.1446162885,5.1128931105,-0.5880886914594894,0.9201340909929066,-1.3732634527126824,5.836334590584532,1.7545220332005622,0.06109542950000013,-0.06109542949999991,0.15082627700000018
117202.0,-1.8321764194999999,-2.264355485,5.339132526,-0.48363422638613274,0.9126728084406307,-1.3618053661733396,6.0819825982004065,1.7092067094232706,-0.00961051700000004,-0.11973919649999987,0.22623941550000026
117212.0,-1.8943505805,-2.41635856,5.531833198499999,-0.412756405462643,0.8540506895246452,-1.3516807111825204,6.3268105193970126,1.6513059000411912,-0.06217416100000017,-0.1520030750000001,0.19270067249999911
117222.0,-1.883661332,-2.612687693,5.591653763499999,-0.3741183064819925,0.7514637267509225,-1.3562098405914458,6.452976739899919,1.5949819345636533,0.010689248500000081,-0.19632913299999988,0.05982056499999988
117232.0,-1.8896433885,-2.7455678005,5.4109172039999995,-0.359197486706693,0.655004614980952,-1.370598334944887,6.355070390749999,1.5609592165897375,-0.005982056499999944,-0.13288010750000012,-0.18073655949999967
117242.0,-1.8991558389999998,-2.8126452865,5.1428033929999994,-0.34694003936993684,0.5809276055385566,-1.40230747679512,6.161671294992193,1.55701976007701,-0.009512450499999936,-0.06707748600000007,-0.2681138110000001
117252.0,-1.8309996214999997,-2.9035529319999998,4.821929805,-0.3240238662912513,0.5454886950768117,-1.4436106935435657,5.918968346528496,1.5768833872218542,0.06815621750000012,-0.09090764549999975,-0.32087358799999954
117262.0,-1.7567632809999998,-2.9227739660000003,4.575390624,-0.287785595032093,0.5577443970843159,-1.4843780942116493,5.7064020401636935,1.6116071753880754,0.07423634049999994,-0.019221034000000525,-0.24653918100000016
117272.0,-1.7351886509999999,-2.957489507,4.455651427499999,-0.23609068791727295,0.5886541781371356,-1.517685957656709,5.622317447632879,1.6448778740161591,0.021574629999999928,-0.03471554099999974,-0.11973919650000031
117282.0,-1.5772035194999998,-3.1046873234999994,4.4807564515,-0.15295541965702705,0.6041090686635453,-1.5533919034940091,5.674842085581205,1.6737292293213781,0.15798513150000004,-0.1471978164999994,0.025105024000000142
117292.0,-1.3209557549999997,-3.133420808,4.575390624,-0.0724835238353245,0.6219620415821954,-1.5795055197623482,5.7006534212195445,1.6990963272741204,0.2562477645000001,-0.02873348450000046,0.09463417250000017
117302.0,-1.1114857109999998,-3.0329026454999997,4.71307599,-0.015460126514165772,0.6424801322686406,-1.589097849331309,5.713753952556283,1.7141329325992065,0.2094700439999999,0.10051816250000023,0.13768536600000036
117312.0,-0.8636716654999999,-2.9562146425,4.809965692,0.016514305382370347,0.6414137360956721,-1.573110633383041,5.711471239228644,1.698929477052318,0.24781404549999997,0.07668800299999967,0.09688970199999947
117322.0,-0.715297051,-2.9263043599999996,4.8232046695,0.057018161333402755,0.6270252417422308,-1.5411344561572529,5.686669531668858,1.66478441140553,0.1483746144999999,0.029910282500000385,0.01323897750000036
117332.0,-0.6518480255,-2.9143402469999997,4.880573571999999,0.1273636568350342,0.591586331280486,-1.4963685061728504,5.7217377880620415,1.614098694227297,0.06344902549999998,0.011964112999999887,0.057368902499999486
117342.0,-0.603893507,-2.9681787555,4.9895254535,0.21742788222569762,0.5406907849630793,-1.4510702307665895,5.836962972601648,1.5637219137462217,0.04795451849999999,-0.05383850850000016,0.10895188150000035
117352.0,-0.5380908855,-2.9849481269999996,5.134369674,0.301629546658912,0.4703452894614479,-1.4113674809422225,5.963321982857361,1.517947048153337,0.06580262150000005,-0.016769371499999686,0.14484422050000045
117362.0,-0.41354643049999995,-2.9897533854999994,5.224198587999999,0.3509246260522399,0.4010644448035329,-1.3793930490456865,6.0333984488967065,1.4787582513078419,0.124544455,-0.004805258499999798,0.08982891399999904
117372.0,-0.257914895,-3.0723253785,5.2648961855,0.3677129481271733,0.3523016908320634,-1.3490155934147252,6.101215876243888,1.441933550778118,0.15563153549999997,-0.08257199300000062,0.04069759750000035
117382.0,-0.1226811915,-3.1849057204999998,5.220570127499999,0.3786369639154058,0.31659574499476345,-1.323169012521941,6.116618966338089,1.4122234426216533,0.13523370349999997,-0.11258034199999978,-0.044326058000000224
117392.0,0.0077472535,-3.2782650284999995,5.0828847615,0.3852988856702682,0.2848883484737824,-1.3141090083748386,6.048371608599442,1.3987491155624625,0.130428445,-0.0933593079999997,-0.13768536599999948
117402.0,0.17897136249999998,-3.3345551995,4.934510146999999,0.39782336838257953,0.27263090113702626,-1.3135766829529802,5.958244667513541,1.3993122391674429,0.17122410899999999,-0.056290171000000555,-0.14837461450000067
117412.0,0.41001603649999996,-3.36564228,4.7537735875,0.43193059262505273,0.2814238699085737,-1.3218373263026693,5.839008856674511,1.418808425618743,0.23104467399999998,-0.031087080499999864,-0.18073655949999967
117422.0,0.7128453885,-3.3033700524999996,4.681890843,0.4894863153680697,0.3181944665895902,-1.3234360478974962,5.774123666620486,1.4464880035366305,0.30282935200000005,0.06227222750000028,-0.07188274449999987
117432.0,0.8852462955,-3.2184444634999996,4.7118011255,0.549707155878882,0.39626828001905257,-1.3183728477374608,5.774349800158745,1.482333792580163,0.172400907,0.08492558900000002,0.029910282500000385
117442.0,1.0241084594999998,-3.1154746384999994,4.867432661,0.6037984000566904,0.47460912882407,-1.3005198748188107,5.869146536705801,1.5103570034508056,0.13886216399999984,0.10296982500000018,0.15563153549999953
117452.0,1.340176789,-3.0508488149999997,5.1379981345,0.6549592364204001,0.5236371728418427,-1.2805341095542238,6.123951105935345,1.5306649195320379,0.3160683295000002,0.06462582349999968,0.2705654735000005
117462.0,1.6921374574999999,-2.9538610464999997,5.455243262,0.6898658214602867,0.5713352759695958,-1.2480256069065774,6.430264637221476,1.5361988037623455,0.35196066849999985,0.09698776850000002,0.31724512749999967
117472.0,2.0273287545,-2.891588819,5.817991245499999,0.7031896649700113,0.6318214065267113,-1.2024620414540133,6.80590698655976,1.5295714941786087,0.33519129700000017,0.06227222749999983,0.36274798349999937
117482.0,2.206888516,-2.854519682,6.2488954465,0.6909322176332552,0.6973707372438623,-1.140108408597264,7.215769802194807,1.504513362480321,0.17955976149999975,0.03706913700000003,0.4309042010000006
117492.0,2.257098564,-2.7575319135,6.6188022845,0.6605547620022939,0.7368081970219261,-1.060969944324085,7.517115129016201,1.4508191257223144,0.050210048000000285,0.09698776850000002,0.36990683800000035
117502.0,2.163739256,-2.6665262014999995,6.9887091224999995,0.6333764948902382,0.7368081970219261,-0.9725044405282484,7.786795537970428,1.3747061469002408,-0.09335930800000014,0.0910057120000003,0.36990683799999946
117512.0,1.9614280665,-2.564831241,7.2197537965,0.6256481769624074,0.6827152075148659,-0.880307422791648,7.908881351805682,1.2776841763638318,-0.20231118950000004,0.10169496049999971,0.2310446740000005
117522.0,1.7938324179999998,-2.552867128,7.387349444999999,0.6554915618422583,0.573733358361836,-0.7913095935739531,8.019220482043906,1.1768644896612903,-0.16759564850000008,0.011964112999999887,0.16759564849999897
117532.0,1.710083627,-2.610334097,7.4831604154999996,0.7261040927194449,0.44689679096090407,-0.7076402545625969,8.107769108293626,1.108015624940596,-0.08374879099999988,-0.057466969000000034,0.09581097050000054
117542.0,1.696942716,-2.6186697494999995,7.558573554,0.8039108707733521,0.3283208669096613,-0.6372947590609654,8.177351650110202,1.077131324269448,-0.013140911000000033,-0.008335652499999568,0.07541313850000009
117552.0,1.8752276129999998,-2.7324268894999997,7.703417774499999,0.8702613076171686,0.26596897938216385,-0.5682809497786057,8.386016975626918,1.0728641476955076,0.17828489699999994,-0.11375714000000015,0.14484422049999957
117562.0,2.0811672629999998,-2.9777892724999995,7.940444504999999,0.8969072493073661,0.2806245091111603,-0.49953243054254903,8.73207564471264,1.0642957193081874,0.20593964999999992,-0.2453623829999998,0.23702673050000023
117572.0,2.103918691,-3.097528469,8.166683920499999,0.8705265976634717,0.33924662802714584,-0.4401126961584021,8.984201841675079,1.0327652284944273,0.022751428000000296,-0.11973919650000031,0.22623941549999937
117582.0,1.9686849875,-3.1405796624999995,8.360561391,0.8185664005023485,0.3904074643908556,-0.39987587558292487,9.145378503331415,0.9911456281277132,-0.13523370349999997,-0.04305119349999975,0.19387747050000037
117592.0,1.7388171115,-3.1118461779999995,8.5173697245,0.7780642898805681,0.39946572320870616,-0.38122354186686147,9.233236626806853,0.954090295558823,-0.22986787600000014,0.028733484500000017,0.15680833350000078
117602.0,1.501790381,-2.9981871045,8.606021840499999,0.7618100385567449,0.38214682104116643,-0.3761603417068259,9.236239071246326,0.9316047071321046,-0.2370267305,0.1136590734999996,0.08865211599999867
117612.0,1.3724406674999998,-2.902376134,8.6287732685,0.7746015566446114,0.3429763966386577,-0.3681667337326919,9.206688260617973,0.9236812892090495,-0.12934971350000013,0.09581097050000009,0.022751428000001184
117622.0,1.3845028469999998,-2.9000225379999995,8.7807763435,0.8105727925282145,0.29874277207611344,-0.3279316584864666,9.35034823142049,0.9240209242719523,0.012062179499999992,0.002353596000000291,0.15200307499999965
117632.0,1.48864947,-2.9179687074999996,8.924443766,0.8430812951758608,0.25850769682988817,-0.2642463394104455,9.506645841461475,0.920564189770339,0.1041466230000001,-0.017946169500000053,0.14366742250000009
117642.0,1.5161080899999997,-2.843732367,9.029767187,0.8468128091166247,0.22466750796297008,-0.18590723593468,9.58760100166401,0.8956165045325778,0.027458619999999767,0.07423634049999972,0.10532342099999958
117652.0,1.4718800985,-2.8126452865,9.0573238735,0.8337560009824552,0.18576411893601646,-0.10436894394000891,9.597526779410625,0.8605522956319871,-0.044227991499999675,0.031087080499999864,0.027556686500000538
117662.0,1.3748923299999998,-2.8485376254999997,9.076446841,0.8457464129436563,0.12261112528185365,-0.03642153083061767,9.611783537953862,0.8553636717548797,-0.09698776850000024,-0.03589233899999966,0.019122967499999532
117672.0,1.2551531335,-2.8365735125,9.0596774695,0.8945091669151258,0.04107457861643456,0.009143779951198293,9.57597590492569,0.895498397215487,-0.11973919649999987,0.011964112999999887,-0.016769371499998798
117682.0,1.2779045615,-2.680941977,9.1842219245,0.9456700032788355,-0.011684979342102036,0.028063149042816826,9.652482701917142,0.946158461452318,0.022751428000000073,0.15563153549999997,0.12454445499999878
117692.0,1.4192183879999998,-2.5241336435,9.376922597,0.9512655288607295,-0.028471556087783498,0.04191931797439981,9.813873285977108,0.9526142792989102,0.1413138264999998,0.1568083334999999,0.1927006725000009
117702.0,1.5687698005,-2.372032502,9.520590019499998,0.9088976612685671,-0.027672195290370093,0.06590014189680189,9.936257403917642,0.9117036457937843,0.14955141250000015,0.15210114149999976,0.1436674224999983
117712.0,1.674191288,-2.290637307,9.561287617,0.849210891508865,-0.033269466201515906,0.1056028917211689,9.973372380295086,0.8563982522042464,0.10542148750000013,0.08139519500000025,0.04069759750000124
117722.0,1.7843199674999999,-2.3816430189999998,9.534907728499999,0.8212315182701438,-0.05565156852909119,0.15889477510156375,9.98851773825224,0.8383113104537062,0.11012867949999983,-0.09100571199999985,-0.02637988850000106
117732.0,1.8285479589999998,-2.495400159,9.5325541325,0.8481444953358965,-0.0844303025652257,0.22497817656982505,10.021985725440997,0.8815286387250965,0.0442279914999999,-0.11375714000000015,-0.0023535959999989586
117742.0,1.779514709,-2.5708132975,9.596003157999998,0.9171583046182562,-0.10734473031465926,0.2993204760585235,10.092523481196173,0.9707188028695345,-0.049033249999999695,-0.07541313850000009,0.06344902549999887
117752.0,1.6717396255,-2.540903015,9.721724411,0.9994959574103407,-0.12706346020369116,0.36567091290233994,10.186404028435955,1.0718453752017496,-0.10777508349999998,0.02991028249999994,0.1257212530000018
117762.0,1.5185597524999999,-2.476179125,10.020925302499998,1.067443370519732,-0.1201362484025257,0.4221602394723884,10.433428520830692,1.1541608792703655,-0.15317987300000024,0.06472389000000023,0.2992008914999982
117772.0,1.328212676,-2.4726487309999996,10.347780946999999,1.0916912298176893,-0.10414728712500564,0.4639957816426925,10.721693485019015,1.1907680227729374,-0.19034707649999993,0.0035303940000002143,0.32685564450000015
117782.0,1.1510065105,-2.4235174144999996,10.673361726999998,1.0741052922745944,-0.11560537366434841,0.47971596221540547,11.00540336384753,1.1820296890165736,-0.1772061654999999,0.04913131650000002,0.32558077999999924
117792.0,1.11991943,-2.312211937,10.8517446905,1.039731032656566,-0.16756557082547158,0.4725217150386848,11.151722127056958,1.154294421704556,-0.031087080500000086,0.11130547749999975,0.1783829635000025
117802.0,1.2647636505,-2.2248346855,10.9211757725,0.9957644434695768,-0.23258257612076436,0.4605313030774838,11.217022631842683,1.1214858727186412,0.1448442205,0.08737725149999997,0.06943108199999948
117812.0,1.479038953,-2.0859725215,10.8733193205,0.9318138343472526,-0.2717530005232731,0.4653274678619642,11.169955713005447,1.0764090149757937,0.21427530250000015,0.13886216399999984,-0.04785645199999955
117822.0,1.6250599714999998,-1.9231821315,10.8038882385,0.879054276388716,-0.2832110870626159,0.5028991706696461,11.093396706685068,1.0515952246623677,0.1460210184999997,0.16279039000000006,-0.06943108199999948
117832.0,1.7160656834999999,-1.7280297965,10.8278164645,0.8510749031499949,-0.2981319068379154,0.5612542542100765,11.098314187144615,1.062175815256351,0.09100571200000007,0.19515233499999995,0.023928225999998887
117842.0,1.6489881974999998,-1.501790381,10.818205947500001,0.8409502481591757,-0.32664360549849475,0.6342648674795033,11.045728420818739,1.1028079102957267,-0.06707748600000007,0.22623941550000004,-0.009610516999998708
117852.0,1.481392549,-1.3234074174999997,10.8301700605,0.8521412993229635,-0.37700508106479114,0.7275265360598203,11.01083623601211,1.1821896995963461,-0.16759564849999986,0.17838296350000027,0.011964112999999443
117862.0,1.319778957,-1.2096502775,10.7954545195,0.8902453275525036,-0.4497486589586628,0.8255843694246178,10.942893062247698,1.2947587228910349,-0.16161359199999992,0.1137571399999997,-0.03471554100000063
117872.0,1.188173714,-1.1714043425,10.870867657999998,0.9520648896581428,-0.5368824765352277,0.9084543476385606,10.998168417787516,1.4212528450187087,-0.1316052430000001,0.03824593499999995,0.07541313849999831
117882.0,1.074416574,-1.1689526799999999,11.001394169500001,0.9986965966129273,-0.6104271605557647,0.9617462310189553,11.11537201425457,1.5149165070424122,-0.11375713999999992,0.0024516625000001735,0.13052651150000294
117892.0,1.0480366855,-1.0792218324999998,11.2192979325,1.0010946790051676,-0.6543920044135019,0.9795992039376054,11.319706124988283,1.545973496580058,-0.02637988849999995,0.08973084750000004,0.21790376299999892
117902.0,1.099521598,-0.946341725,11.328249814,0.9448706424814222,-0.6701139303154668,0.9657430350060223,11.420759793172058,1.5081421750911752,0.05148491249999987,0.1328801074999998,0.10895188149999946
117912.0,1.3018327875,-0.7583482444999999,11.318639296999999,0.8348206518261717,-0.6527932828186751,0.9385647678939666,11.418469958892869,1.4156159134244404,0.20231118950000004,0.1879934805000001,-0.009610517000000485
117922.0,1.5879908344999998,-0.587222202,11.203705358999999,0.6975923940588655,-0.5899090698693195,0.9241762735405255,11.330911639239934,1.2995113095075845,0.2861580469999998,0.17112604249999996,-0.11493393800000007
117932.0,1.7328350549999998,-0.32028518899999997,11.111522848999998,0.5736879798012842,-0.4865210009689313,0.9417622110836203,11.250388435693171,1.2052952521176705,0.1448442205,0.266937013,-0.09218251000000066
117942.0,1.74362237,-0.1454326195,11.093576679499998,0.48522247600544754,-0.3953903794052994,1.0022483416407357,11.230708488778669,1.1816412914538525,0.010787315000000186,0.17485256949999997,-0.017946169500000053
117952.0,1.6478113995,-0.0497197155,11.117504905499999,0.4308641964520841,-0.33943337825710923,1.088315763044332,11.239068901926355,1.218724814775715,-0.09581097049999987,0.095712904,0.023928226000000663
117962.0,1.4227487819999998,-0.054524974,11.1989001005,0.4154093059256744,-0.337035295864869,1.1847766201435548,11.289045598740891,1.2999435840632299,-0.22506261750000034,-0.0048052584999999995,0.0813951950000007
117972.0,1.1654222859999999,-0.14307902349999999,11.293534273,0.4340616396417378,-0.4028516619575752,1.2719086923908676,11.354408707066028,1.4030148574872259,-0.2573264959999999,-0.08855404949999998,0.09463417250000106
117982.0,0.9283955555,-0.277135929,11.4048397505,0.476162471858345,-0.5163643858487824,1.338259129234684,11.445920337185637,1.5113902128699968,-0.2370267304999999,-0.13405690550000002,0.1113054775000002
117992.0,0.7201023094999999,-0.32146198699999995,11.4503426065,0.5201290610453342,-0.6266814118795879,1.3899522910202522,11.477466225237276,1.610972129942583,-0.2082932460000001,-0.044326057999999946,0.045502855999998815
118002.0,0.5165162555,-0.39324666499999994,11.5460555105,0.5366503477447125,-0.6940947542378689,1.4269899230768237,11.564291151353672,1.6751302528931438,-0.20358605399999985,-0.07178467799999999,0.09571290400000088
118012.0,0.3178335265,-0.540542548,11.575965793,0.5017437627048259,-0.6967598720056642,1.4616312180704072,11.592937006534275,1.695165755992177,-0.198682729,-0.14729588300000007,0.029910282499999497
118022.0,0.0832584585,-0.7571714465,11.573612197,0.43193059262505273,-0.6450667102200962,1.4746880262045767,11.598652501771655,1.6665472906913736,-0.23457506800000003,-0.2166288985,-0.002353596000000735
118032.0,-0.18730701499999997,-1.0265601219999998,11.585576309999999,0.3415993318588341,-0.5605980104113267,1.4584337748807537,11.63247557645328,1.5993715354840052,-0.27056547349999993,-0.2693886754999998,0.011964112999999443
118042.0,-0.4327674645,-1.2132787379999999,11.7423846435,0.2859093660861991,-0.48945315411228185,1.4144671856937645,11.812829046859065,1.5238195349485162,-0.2454604495,-0.18671861600000006,0.15680833350000078
118052.0,-0.6434143065,-1.315071765,12.080027602999998,0.2688557539649625,-0.4670693064554545,1.3411895370487825,12.168420711257108,1.4454156937580191,-0.210646842,-0.10179302700000004,0.33764295949999834
118062.0,-0.6542016215,-1.2671172464999998,12.434341867499999,0.2547325496578244,-0.5081054878283452,1.2492595546877372,12.515846897266455,1.3724828937349494,-0.010787315000000075,0.0479545185000001,0.35431426450000103
118072.0,-0.6422375085,-0.9978266374999999,12.641458315499998,0.2339491689250759,-0.5891097090719061,1.166923647224905,12.697030966267384,1.3279658359371276,0.011964112999999998,0.2692906089999999,0.20711644799999895
118082.0,-0.6218396764999999,-0.5932042585,12.710889397499999,0.20996659967342185,-0.6376054276678205,1.1405429955810105,12.739909150031252,1.3234292497669788,0.020397832000000116,0.40462237899999987,0.06943108200000125
118092.0,-0.670970993,-0.207704847,12.6067427745,0.15827343788785378,-0.6034982034253473,1.1759819060427552,12.626294260760861,1.331237772157331,-0.04913131650000002,0.3854994115,-0.10414662299999833
118102.0,-0.8528843505,-0.116699135,12.5157370625,0.08979195402735228,-0.501975891495341,1.248994264641434,12.54530607921041,1.349084528025501,-0.18191335750000004,0.091005712,-0.09100571200000118
118112.0,-1.1151141715,-0.243597186,12.520542320999999,0.025041984107614643,-0.3674127514958303,1.318273363970097,12.572461939352184,1.368745371894575,-0.2622298209999999,-0.126898051,0.004805258499999354
118122.0,-1.4742336944999999,-0.49621648999999995,12.554081063999998,-0.03091501704057556,-0.26455875334655243,1.3515812274151566,12.65008091485704,1.3775771798893746,-0.35911952299999994,-0.252619304,0.03353874299999937
118132.0,-1.8225659024999998,-0.7475609295,12.5516294015,-0.08234288877984047,-0.2328496114963195,1.3387914546565423,12.705274276648646,1.3613823312971183,-0.348332208,-0.2513444395,-0.002451662499998619
118142.0,-2.16138566,-0.995374975,12.384033753,-0.11618307764675852,-0.28401044786002927,1.2854995712761474,12.610576961723565,1.3216162793247843,-0.33881975750000026,-0.24781404550000008,-0.16759564849999897
118152.0,-2.405571245,-1.1868988495,11.9698989235,-0.12124627780679409,-0.38926252840154735,1.197299357526614,12.266783691437693,1.2648129219110669,-0.24418558499999987,-0.19152387449999986,-0.4141348295
118162.0,-2.580325748,-1.33174307,11.435926831,-0.10366034026369922,-0.4835905931548328,1.0925796024069543,11.798815324187022,1.199306264274129,-0.17475450299999995,-0.1448442205,-0.5339720925000009
118172.0,-2.6952596859999995,-1.385679645,10.7703494955,-0.0786113748390766,-0.5280895077636802,0.9875945572409914,11.18860854211824,1.1226759487742692,-0.11493393799999962,-0.05393657500000004,-0.6655773355000001
118182.0,-2.6832955729999997,-1.3557693625,10.1658675895,-0.04716926836439875,-0.48199187156000606,0.8953975395043909,10.601087186870108,1.017977336623202,0.011964112999999887,0.02991028249999994,-0.6044819060000002
118192.0,-2.5755204894999997,-1.1737579384999999,9.7408473785,-0.006934193118173471,-0.327175930920353,0.8127945966660033,10.143723238597177,0.8762004503407029,0.10777508349999998,0.18201142400000014,-0.42502021099999965
118202.0,-2.5827774105,-0.8828926994999999,9.575605326,0.027972391921713118,-0.10494664792241903,0.7379182264261946,9.957030482545438,0.7458683278648817,-0.007256921000000194,0.29086523899999994,-0.16524205250000001
118212.0,-2.718011114,-0.5716296285,9.999448739,0.0503562395785404,0.13513560799416496,0.6697037779412482,10.378021002671717,0.6850551317968684,-0.13523370349999997,0.31126307099999995,0.42384341300000017
118222.0,-3.2770882305,-0.21731536399999998,10.8134987555,0.04902280803001673,0.31766214116773195,0.5929633960603095,11.301251637456451,0.6744761379810196,-0.5590771165000001,0.35431426450000003,0.8140500164999995
118232.0,-5.9513616855,-0.660183678,14.3425198245,-0.1556205374248224,0.07811221067300622,0.3901840622466003,15.542278575437726,0.4272737665196326,-2.6742734550000002,-0.44286831400000004,3.5290210690000006
118242.0,-4.875179914499999,-1.6215295774999998,14.128244522,-0.42794426061349766,-0.25256659605609943,0.10053969156113336,15.03343043496309,0.5069856065162066,1.0761817710000008,-0.9613458994999998,-0.21427530250000082
