timestamp,ax,ay,az,gx,gy,gz,acc_mag,gyro_mag,dax,day,daz
137502.0,2.2877933785,2.6984958805,9.6084576035,0.3385973655454039,0.15629248918684022,0.2028107497402451,10.239059335605047,0.42450879654102197,0.0,0.0,0.0
137512.0,2.5056971415,2.5453160075,9.069778319,0.3290050359764431,0.13497503770298147,0.3014026538561528,9.74771924599593,0.466161060420445,0.2179037629999998,-0.15317987300000002,-0.5386792845000006
137522.0,2.803721235,2.7547860514999996,9.390553840499999,0.3263399182086478,0.15975696775204895,0.41091857376029295,10.179990195695582,0.548519922357383,0.29802409350000003,0.2094700439999997,0.3207755214999999
137532.0,2.7163439835,2.8194118749999997,9.547362174,0.3300714321494116,0.20212309001495932,0.49858471675871613,10.31890170701871,0.6311795415123403,-0.08737725149999997,0.06462582350000012,0.15680833350000078
137542.0,2.677999982,2.8469685614999998,9.7916458255,0.31754694943710027,0.24529031840453508,0.577457890985592,10.542923781655302,0.7031792241394326,-0.03834400150000006,0.027556686500000094,0.24428365149999998
137552.0,2.5223684465,2.7188937125,10.044167062999998,0.2818410035998003,0.27886521722515,0.6448729786731249,10.707007872847804,0.7570081368855432,-0.15563153549999997,-0.12807484899999988,0.2525212374999981
137562.0,2.259059894,2.5931724595,10.37935836,0.24000546142949625,0.2767341702084649,0.6994982936020434,10.934302674367965,0.7896089444966562,-0.26330855249999985,-0.12572125300000003,0.3351912970000015
137572.0,2.0029101959999998,2.540510749,10.713372859,0.20909742570592865,0.2261056592666134,0.7469276160249892,11.191166254460843,0.8079272035090846,-0.2561496980000002,-0.05266171049999979,0.33401449900000024
137582.0,1.7790243764999998,2.448328239,10.949222791499999,0.20083678235623947,0.13737312009522168,0.791960601384947,11.359785149199306,0.8284976653062521,-0.22388581949999997,-0.09218251000000022,0.23584993249999897
137592.0,1.601818211,2.3262354464999997,11.2185134005,0.22615103782716525,0.036117843540770654,0.8375259121667629,11.568588325757052,0.8682732542714348,-0.17720616549999968,-0.12209279250000016,0.26929060900000046
137602.0,1.4342225624999998,2.278280928,11.428081511,0.2661190776978354,-0.06007597818289682,0.8825571521974687,11.740894572720286,0.923761664913783,-0.1675956485000003,-0.047954518499999654,0.20956811050000113
137612.0,1.2978120610000001,2.3094660749999996,11.674620692,0.29356612551469824,-0.14214485027017418,0.9243926943677727,11.971412531498842,0.9802489897513551,-0.13641050149999967,0.031185146999999525,0.24653918099999927
137622.0,1.2164168659999999,2.36928664,11.952345020000001,0.3042231059273756,-0.20742889094102207,0.9603639302513758,12.24547837577163,1.0285316336919303,-0.08139519500000025,0.059820565000000325,0.27772432800000146
137632.0,1.1732676059999998,2.4088074395,12.210946380500001,0.295164847109525,-0.2596561234777004,0.994471154493849,12.501444783037103,1.0693532936073957,-0.04314926000000008,0.03952079949999998,0.25860136050000015
137642.0,1.1589498969999998,2.415966294,12.462290819999998,0.2602582620696384,-0.2932292769690633,1.0243145393737,12.747107533858676,1.0967853242178542,-0.014317708999999956,0.007158854500000089,0.25134443949999685
137652.0,1.0727494435,2.3549689309999997,12.653912760999999,0.18511485645427456,-0.33453074838825714,1.049895830220181,12.915811170712566,1.1173448823040348,-0.08620045349999983,-0.06099736300000025,0.19162194100000107
137662.0,1.0272465874999999,2.343004818,12.742466810499998,0.09185318787395758,-0.38356053773528187,1.0693475247336577,12.996744497965464,1.1397630555884797,-0.04550285600000015,-0.011964112999999887,0.08855404949999901
137672.0,0.9793901355,2.3417299535,12.677840987,0.010049605832983349,-0.4221968913866803,1.0885321838715794,12.929445320828382,1.167584483023907,-0.04785645199999988,-0.001274864500000028,-0.06462582349999835
137682.0,0.938692538,2.358499325,12.571242701500001,-0.05576676025972281,-0.42992520931451117,1.1066521921657846,12.824968062608944,1.1885388893844948,-0.040697597500000016,0.01676937150000013,-0.10659828549999872
137692.0,0.839253107,2.2364065324999998,12.483865449999998,-0.11065911056419647,-0.405677350016554,1.1178432433295724,12.710340535560858,1.194316987957925,-0.09943943099999997,-0.12209279250000016,-0.08737725150000308
137702.0,0.711178258,2.0747929405,12.402470254999999,-0.16395099394459134,-0.3513190704631906,1.1141134747180603,12.594912015840377,1.1796414083249578,-0.128074849,-0.1616135919999997,-0.08139519499999892
137712.0,0.5723160939999999,1.9239666635,12.382170489499998,-0.22390479907984853,-0.28710142596531124,1.09146433701493,12.54381678217421,1.150588973881526,-0.13886216400000007,-0.15082627700000018,-0.020299765500000788
137722.0,0.40952570399999993,1.6940987874999998,12.362949455499999,-0.28545732580993255,-0.22901163247118395,1.047764783203496,12.485199287287864,1.1098392917837896,-0.16279039,-0.22986787600000014,-0.019221033999999193
137732.0,0.36647451049999996,1.731265991,12.353437005,-0.3254271110098547,-0.18318103164306485,1.0176543629480896,12.47954291370252,1.0840103769620104,-0.04305119349999997,0.037167203500000134,-0.009512450499999048
137742.0,0.32813050899999996,1.7252839345,12.3833472875,-0.34914264488595365,-0.16106421936179272,0.9960698760886758,12.507260464562734,1.06770663915136,-0.0383440015,-0.005982056499999944,0.029910282499999497
137752.0,0.247912112,1.722832272,12.536527160499999,-0.36699561780460366,-0.15440229760693036,0.9939388290719908,12.65678176704786,1.0707195005841081,-0.08021839699999997,-0.0024516624999999515,0.15317987299999913
137762.0,0.1389602305,1.7241071364999998,12.814251488499998,-0.3819164375799032,-0.17625207451264735,0.9902090604604789,12.930463896330838,1.0758433633581426,-0.10895188149999999,0.001274864499999806,0.2777243279999997
137772.0,-0.05138684599999999,1.7168502154999998,13.083640164,-0.409363485396766,-0.23700698577456997,0.9888756289119552,13.19590297067382,1.0961869292863105,-0.1903470765,-0.007256920999999972,0.2693886755000019
137782.0,-0.22731814699999997,1.7935382185,13.252412610499999,-0.461056647182334,-0.3118816106851267,0.9838124287519197,13.375159545968604,1.1303673146200377,-0.17593130099999998,0.07668800300000012,0.16877244649999845
137792.0,-0.343428883,1.8090327254999998,13.257217869,-0.5553847119356196,-0.3657075648166318,0.9712896913688603,13.384482374217596,1.177114211015795,-0.11611073600000005,0.01549450699999988,0.0048052585000011305
137802.0,-0.3721623675,1.7623530715,13.1459123915,-0.6800884869906144,-0.3569145960450844,0.9526373576527969,13.268737912152833,1.2236937174811808,-0.02873348449999996,-0.04667965399999985,-0.1113054775000002
137812.0,-0.4427702475,1.607898334,12.999793306499999,-0.8135869761464087,-0.30202224574061076,0.9243926943677727,13.106334672831812,1.267928648654083,-0.07060788000000001,-0.15445473750000005,-0.14611908500000048
137822.0,-0.45002716849999996,1.3708716035,12.854949086,-0.9364249942310215,-0.22048569907519164,0.8804261051807835,12.93566888140397,1.3040919599480125,-0.007256920999999972,-0.2370267305,-0.14484422049999957
137832.0,-0.505042475,1.233284304,12.584481679,-1.049939463451481,-0.13654932468828035,0.8210046254673846,12.654850343055566,1.339801175557198,-0.05501530650000003,-0.13758729949999982,-0.27046740699999994
137842.0,-0.5457400724999999,1.1745424705,12.2827310585,-1.1370715356987937,-0.06513743301368037,0.7495927337927847,12.350824446051409,1.3634749095714835,-0.040697597499999905,-0.05874183350000006,-0.3017506205
137852.0,-0.5146529919999999,1.1266860185,11.8553572515,-1.2026208664159448,0.005475097863506212,0.673117641958149,11.919890295097165,1.3781923976538804,0.031087080499999975,-0.047856451999999994,-0.4273738070000004
137862.0,-0.4392398535,1.1506142445,11.4160193315,-1.2513836203874142,0.09447292708120106,0.5937121423094152,11.482262066584733,1.3883011947163473,0.07541313849999992,0.023928225999999997,-0.4393379199999998
137872.0,-0.3266595115,1.1590479635,10.9839383325,-1.2918857310091947,0.21278181575688868,0.5151060034580944,11.049751124360665,1.4069751376270052,0.112580342,0.008433718999999895,-0.4320809990000001
137882.0,-0.3123418025,1.0572549365,10.7301422305,-1.316400625682707,0.3401507085796789,0.45088835896021506,10.786625871378968,1.432450147157281,0.014317709000000012,-0.10179302700000004,-0.253796101999999
137892.0,-0.342252085,0.955559976,10.588828404,-1.318266382653089,0.4451374990748938,0.3938649616390564,10.637364256561732,1.4460647484545244,-0.029910282499999996,-0.10169496049999993,-0.14131382650000113
137902.0,-0.4164884255,0.9507547174999998,10.573333896999998,-1.3126708570711951,0.5037596179908793,0.34350348607276,10.624160523960146,1.4473676715563606,-0.0742363405,-0.004805258500000131,-0.015494507000001434
137912.0,-0.46199128149999996,1.0093984845,10.5110616695,-1.3289251083950184,0.5146836337791119,0.3101956226277002,10.569519320419687,1.4584795202196599,-0.04550285599999998,0.05864376700000007,-0.06227222749999761
137922.0,-0.490724766,1.0632369929999999,10.262070826,-1.3691601836412437,0.5082887473998047,0.29500776747684554,10.328667936238912,1.4899619599417495,-0.028733484500000017,0.05383850849999994,-0.24899084349999967
137932.0,-0.5781020175,0.9962575735,9.928056327,-1.411795086608961,0.5042919434127375,0.29420840667943216,9.994650245380196,1.5277546652931713,-0.08737725150000003,-0.06697941949999986,-0.33401449900000024
137942.0,-0.6750897859999999,0.9088803219999999,9.5868829735,-1.4328455027172649,0.5090881081972181,0.29260968508460533,9.653503758038557,1.5484951935250642,-0.0969877684999999,-0.08737725150000009,-0.34117335350000033
137952.0,-0.861808402,0.7615844390000001,9.3199459605,-1.4309797457468827,0.5237436379262144,0.28648008875160125,9.390639876287718,1.550510003920363,-0.18671861600000006,-0.14729588299999985,-0.2669370129999997
137962.0,-1.119134898,0.6203686789999999,9.108024254,-1.4046008394322405,0.5250770694747381,0.27342328061743165,9.197468457638653,1.5242603902895109,-0.257326496,-0.14121576000000013,-0.21192170650000008
137972.0,-1.4149034619999998,0.43237519849999995,8.9141467835,-1.361965936464523,0.4986964178308438,0.25237286450912805,9.036089474813808,1.472189319342979,-0.29576856399999985,-0.18799348049999998,-0.19387747050000037
137982.0,-1.672229958,0.191818074,8.6842789075,-1.3153359748389906,0.46192407582057526,0.2172009894229383,8.845894378139224,1.4109071012418335,-0.2573264960000001,-0.24055712449999994,-0.22986787600000014
137992.0,-1.8865052605000001,-0.08119906199999999,8.414890232,-1.2812287505965174,0.4411406950878268,0.16897056087332704,8.624144769319035,1.3655413851874028,-0.21427530250000015,-0.273017136,-0.2693886755000001
138002.0,-1.9990856025,-0.257130363,8.158740534,-1.2591119383152454,0.45313110704902776,0.09675930840131364,8.404017275733903,1.3416605521314817,-0.11258034199999978,-0.17593130099999998,-0.25614969799999976
138012.0,-2.0959753045,-0.4378669225,7.978003974499999,-1.238860883004355,0.4997628140038123,0.0074944438080636515,8.260350315575682,1.3358874669624428,-0.09688970200000013,-0.1807365595,-0.18073655950000056
138022.0,-2.1426549584999997,-0.5396599495,7.831982956,-1.232998322046906,0.5690419133324753,-0.09882403290642293,8.137699930284569,1.3615651841830636,-0.046679653999999626,-0.10179302699999998,-0.14602101849999904
138032.0,-2.1331425079999997,-0.6653812024999999,7.724207872499999,-1.2535164127333516,0.6604395702716623,-0.2059418704183229,8.04092136273374,1.4317457445244617,0.009512450499999936,-0.12572125299999992,-0.10777508350000087
138042.0,-2.1295140475,-0.7396175429999999,7.6104507324999995,-1.2790959582505803,0.7584974036364597,-0.3103945901624276,7.93730587417563,1.5191279022315145,0.003628460499999875,-0.07423634050000005,-0.1137571399999997
138052.0,-2.157070734,-0.8293483905,7.5829921124999995,-1.2905540447899229,0.8352395308466504,-0.4036562587427446,7.9273288239192805,1.5893688029009352,-0.027556686500000094,-0.08973084750000004,-0.02745861999999999
138062.0,-2.2768099305,-0.9550696435,7.535037594,-1.2780313074068639,0.8688126843380133,-0.48306350372073054,7.9292378591231545,1.619120085665566,-0.11973919649999987,-0.12572125300000003,-0.04795451849999921
138072.0,-2.3509482045,-1.0939318075,7.400980688499999,-1.2489855379951742,0.8621507625831509,-0.5512779522056769,7.842076218148604,1.6146752590325673,-0.07413827400000006,-0.13886216399999995,-0.13405690550000138
138082.0,-2.377328093,-1.2459348824999998,7.277711097999999,-1.2076840665759803,0.8221827227124807,-0.6173596083446863,7.756875751173901,1.5860700237391503,-0.02637988850000017,-0.15200307499999988,-0.12326959049999964
138092.0,-2.3713460365,-1.4326534985,7.160325497499999,-1.1389372926691756,0.7489050740674988,-0.6885062099729832,7.677632402097482,1.5271141960469095,0.005982056500000166,-0.18671861600000006,-0.11738560050000046
138102.0,-2.3078970109999997,-1.5404285819999999,6.9640944309999995,-1.0472743456836855,0.650047879905288,-0.7628485094616815,7.496527200878449,1.4495805081762312,0.0634490255000002,-0.10777508349999998,-0.19623106649999933
138112.0,-2.1499118795,-1.597895551,6.745013869999999,-0.9524139555085417,0.5605159799364829,-0.8318623187440413,7.2574515766908965,1.3832083804538617,0.15798513149999982,-0.057466969000000034,-0.21908056100000017
138122.0,-1.9679004554999997,-1.6050544055,6.4744483965,-0.8647478125101185,0.517081716171352,-0.8952806024445072,6.954661306369526,1.347846295967439,0.18201142400000014,-0.007158854500000089,-0.2705654734999996
138132.0,-1.831489954,-1.5907366964999998,6.262526689999999,-0.7829424851398923,0.5346693990436989,-0.9509705682171424,6.715954082046496,1.3428385319635476,0.13641050149999967,0.014317709000000178,-0.21192170650000097
138142.0,-1.7248916684999998,-1.587108236,6.206236518999999,-0.7133963504356743,0.596221925773783,-1.0034648361293759,6.634119048570727,1.3679753707346096,0.10659828550000028,0.003628460499999875,-0.05629017099999967
138152.0,-1.696158184,-1.631434294,6.2434037225,-0.6561076630682123,0.6684331782457963,-1.061285848918696,6.6722275502950525,1.4154885490288096,0.028733484499999795,-0.044326058,0.03716720350000102
138162.0,-1.6686014974999999,-1.7176347475,6.2996938935,-0.6110746777082546,0.7230584931747148,-1.1297673327791975,6.739483899756703,1.473974244179103,0.027556686500000094,-0.08620045350000005,0.05629017099999967
138172.0,-1.5489603674999999,-1.8169761119999999,6.446891709999999,-0.5676421592723757,0.7659586861887355,-1.2089075423816282,6.87481586168903,1.5395998752788231,0.11964112999999998,-0.09934136449999986,0.1471978164999994
138182.0,-1.449619003,-1.794224684,6.6025232455,-0.5196787660983196,0.7779490981499365,-1.287246645857394,6.993850919050352,1.591312271842608,0.09934136449999986,0.02275142799999985,0.15563153550000042
138192.0,-1.3227209519999998,-1.7020421739999998,6.655184955999999,-0.4682508943590547,0.7334501835410892,-1.3458687647733794,6.995571819194135,1.6026761381505417,0.12689805100000018,0.09218251000000022,0.05266171049999979
138202.0,-1.1215865605,-1.6242754394999999,6.667149069,-0.4005687712959666,0.6401885149607721,-1.3738463926828484,6.953208167768652,1.5677214631154714,0.2011343914999999,0.07776673449999993,0.011964113000000332
138212.0,-0.8115002875,-1.4877668715,6.63125673,-0.324095424790583,0.5338700382462855,-1.3797089536402976,6.844380819308331,1.5144807225126649,0.3100862729999999,0.13650856799999977,-0.035892339000000106
138222.0,-0.5433864764999999,-1.2962429969999998,6.482784048999999,-0.24815265837780576,0.44966837381307107,-1.358925572907549,6.633400620804042,1.4527422692858405,0.2681138110000001,0.1915238745000003,-0.14847268100000033
138232.0,-0.3158721965,-1.1107011789999999,6.329604176,-0.1887311786644068,0.4054347492505268,-1.3122938659527645,6.434075021196937,1.3864025332915206,0.22751427999999996,0.18554181799999991,-0.15317987299999913
138242.0,-0.1530818065,-1.125018888,6.2541910375,-0.1373050522543939,0.4003715490904912,-1.2595343079942278,6.35641463966782,1.3287500621675243,0.16279038999999998,-0.014317709000000178,-0.07541313850000009
138252.0,-0.11964113,-1.261527456,6.268508746499999,-0.09493718466223156,0.4096985886131489,-1.2155677188072387,6.395308235509568,1.2862623688615908,0.0334406765,-0.136508568,0.01431770899999929
138262.0,-0.042953127,-1.3165427625,6.321170457,-0.044575709095935175,0.4057017846260819,-1.1713358395739464,6.456959482841734,1.2404066192021852,0.076688003,-0.05501530649999986,0.05266171050000068
138272.0,-0.11964113,-1.4302999025,6.3044010855,0.021240656996770992,0.36679839559912825,-1.1401590231455718,6.46572075316687,1.197895999903169,-0.076688003,-0.11375714000000015,-0.016769371499999686
138282.0,-0.10885381499999999,-1.5560211554999999,6.246934116499999,0.10464296063257202,0.30817627668314274,-1.1143124422527877,6.438729443399159,1.1608682034062296,0.010787315000000006,-0.1257212529999998,-0.05746696900000092
138292.0,0.043247326499999995,-1.6721318914999999,6.24095206,0.211760798144472,0.2636773620742953,-1.1092492420927522,6.4612210927222575,1.1596560990158196,0.15210114149999998,-0.11611073599999999,-0.005982056499999722
138302.0,0.23830159499999998,-1.7535270864999999,6.2924369725,0.3098186315092694,0.25195224015939743,-1.119108607037268,6.536544036886288,1.1882220289560825,0.1950542685,-0.08139519500000003,0.05148491250000031
138312.0,0.431100334,-1.727147198,6.394229999499999,0.3756349976019756,0.2716709700484294,-1.1444228625081938,6.637398754635729,1.2347511715410273,0.192798739,0.02637988849999995,0.10179302699999937
138322.0,0.6118368934999999,-1.7284220624999997,6.499553420499999,0.4014833238240116,0.30258075110124893,-1.1777307259532537,6.7532201116443495,1.2805442722140261,0.18073655949999995,-0.001274864499999806,0.10532342099999958
138332.0,0.8081660264999999,-1.7284220624999997,6.7018646099999994,0.4222667045567601,0.30471179811793403,-1.2073070754575495,6.96818228832283,1.3148189320736723,0.196329133,0.0,0.2023111895000005
138342.0,1.0415642964999998,-1.6530089239999999,6.864654999999999,0.47342754092046985,0.2711368992973191,-1.223828362156928,7.137281201941827,1.3399271303627958,0.2333982699999999,0.07541313849999987,0.16279038999999962
138352.0,1.3408632544999999,-1.4399104194999999,6.876619112999999,0.5357794284479673,0.23116885942664894,-1.2192992327480026,7.15256224780532,1.351735645936925,0.29929895800000006,0.2130985045,0.011964113000000332
138362.0,1.6940007209999999,-1.19444997,6.934086082,0.5664221741252318,0.22557333384475514,-1.1915868948848367,7.237257696542775,1.3385054113988029,0.3531374665,0.2454604494999999,0.05746696900000092
138372.0,1.9921228809999998,-1.0951086054999999,6.9724300835,0.5576292053536843,0.25701544031943296,-1.1329647759688513,7.3336619570402695,1.2886490797777814,0.2981221599999999,0.09934136450000008,0.038344001499999614
138382.0,2.214733836,-1.068728717,7.0107740849999995,0.5387115815913177,0.30151435492828044,-1.0503618331304634,7.429547786088418,1.2183517779630084,0.2226109550000004,0.02637988849999995,0.038344001499999614
138392.0,2.308093144,-1.101090662,7.069417851999999,0.5538994367421725,0.32283180641213916,-0.9573654545964496,7.517736585801586,1.152203790528953,0.0933593079999997,-0.032361945000000114,0.058643766999999514
138402.0,2.308093144,-1.180132261,7.2046515555,0.628241736230871,0.29192202535931955,-0.8622397743750027,7.6568276819451375,1.1060576732460754,0.0,-0.07904159899999996,0.13523370350000086
138412.0,2.2446441185,-1.284278884,7.420103655999999,0.7593421429944249,0.21331588650799893,-0.7812338078021899,7.8578456167316935,1.1101488278682135,-0.06344902549999976,-0.10414662299999988,0.2154521004999994
138422.0,2.249449377,-1.369204473,7.6787050164999995,0.9077614519255187,0.11285822542170934,-0.7175502340554207,8.117712369811532,1.162603187265652,0.004805258499999798,-0.08492558900000002,0.25860136050000015
138432.0,2.297305829,-1.3489047075,7.924165465999999,1.0162109756566904,0.03691720433818406,-0.6706532370543331,8.35999738722567,1.218122896670416,0.047856451999999994,0.0202997654999999,0.24546044949999946
138442.0,2.3739938319999996,-1.263881052,8.125201791,1.0537826784643722,-0.0014538592669112766,-0.6280183340866156,8.558746764126642,1.2267302372923081,0.07668800299999967,0.08502365550000013,0.20103632500000135
138452.0,2.4984402205,-1.098737066,8.304761552499999,1.0375284271405492,-0.014243632025525725,-0.5787232546932878,8.741767047885489,1.1881029937260543,0.12444638850000045,0.1651439859999999,0.17955976149999842
138462.0,2.6158258209999996,-0.9227076984999999,8.493931831,0.9962269557213553,-0.006517059426946826,-0.5161043317902352,8.935368608644888,1.1219956776485633,0.11738560049999958,0.1760293675000001,0.18917027850000068
138472.0,2.7941107179999998,-0.740794341,8.6519169625,0.9530597273317796,-0.0003874630939427412,-0.4372311575633595,9.122033659557244,1.048567632121825,0.17828489700000016,0.18191335749999993,0.15798513150000026
138482.0,2.9641580289999996,-0.5635881755,8.6985966165,0.9056304049088337,0.01027126264798663,-0.3418384419663574,9.207032505049268,0.9680524002024419,0.1700473109999998,0.1772061655,0.04667965400000007
138492.0,3.0694814499999996,-0.40913343799999996,8.692614559999999,0.8573999763592224,0.033187435726672175,-0.2461769456645482,9.227711223846777,0.8926585091330463,0.10532342100000003,0.1544547375,-0.00598205650000061
138502.0,3.1173379019999996,-0.3541181315,8.748904731,0.8254237991334343,0.06329611065282635,-0.13346358257075439,9.294435391050765,0.8385364474322315,0.047856451999999994,0.05501530649999997,0.056290171000000555
138512.0,3.0299606505,-0.3780463575,8.8709975235,0.862463176519258,0.06729465996914537,-0.025813419636996137,9.381800341828882,0.8654696035941455,-0.08737725149999953,-0.023928225999999997,0.12209279250000016
138522.0,2.8455956304999996,-0.37686955949999995,9.1259704235,0.9693139786556028,0.05130569869162531,0.07544185691745489,9.566753959823322,0.9735981397427502,-0.18436502000000043,0.0011767980000000344,0.2549729000000003
138532.0,2.4972634224999997,-0.350489671,9.485188012999998,1.1195990445570787,0.009204866475018093,0.15911119592881107,9.814680802389498,1.1308859901908073,-0.348332208,0.02637988849999995,0.35921758949999827
138542.0,2.191982408,-0.3456844124999999,10.0250440955,1.275212600664893,-0.06673615460850718,0.21800035022035175,10.26770635082375,1.2954323772094962,-0.3052810144999998,0.004805258500000076,0.5398560825000018
138552.0,1.9873176224999998,-0.3290131075,10.5948104605,1.3884600345097968,-0.1538699721850721,0.25743606466916363,10.784604288128799,1.4204825106855512,-0.2046647855000001,0.016671304999999914,0.5697663649999996
138562.0,1.910727686,-0.19730979799999998,11.049740953999999,1.4191027801870615,-0.21861994210480973,0.2728909551955734,11.215461943091713,1.4615460489659948,-0.07658993649999979,0.13170330950000003,0.45493049349999914
138572.0,1.9896712184999998,-0.000980665,11.361004025,1.3596813004736625,-0.23034506401970764,0.2782211907311641,11.53391542259164,1.4068401182607284,0.07894353249999986,0.196329133,0.31126307100000083
138582.0,2.039979333,0.191818074,11.6303927005,1.2317800822290141,-0.19810359674761638,0.2848813671567745,11.809502285042493,1.2797205161180985,0.050308114499999945,0.192798739,0.2693886755000001
138592.0,2.0243867595,0.323423317,11.790731427999999,1.0916196713183575,-0.1631970117077298,0.30753050485990485,11.967626832469547,1.1457930802980614,-0.015592573499999762,0.13160524299999998,0.16033872749999922
138602.0,1.9753535094999999,0.41080056849999996,11.886542398499998,0.9884986377935244,-0.14267892102128443,0.3451022076675868,12.05656123386399,1.0566846100708072,-0.04903325000000014,0.08737725149999997,0.09581097049999876
138612.0,1.8855245955,0.46110868299999996,11.9810785045,0.9437344331383739,-0.15253828596580044,0.3834732712726821,12.137300620350695,1.0300263874080917,-0.08982891399999993,0.0503081145,0.0945361060000014
138622.0,1.7323447225,0.5365218214999999,12.101994498999998,0.9573235666944018,-0.19490440822871075,0.4245077073163208,12.237121587871286,1.0652055826301483,-0.15317987300000002,0.07541313849999998,0.1209159944999989
138632.0,1.591030896,0.6190938145,12.2097695825,1.0135476032181472,-0.2615201351188303,0.46687557490848314,12.328549376180513,1.146143240397093,-0.14131382650000002,0.08257199300000007,0.10777508350000176
138642.0,1.483353879,0.6622430745,12.2684133495,1.0719026867585775,-0.3236067326000246,0.504447277716165,12.37549476725102,1.228073183185583,-0.10767701699999987,0.04314925999999997,0.058643766999999514
138652.0,1.4222584495,0.6670483329999999,12.335392768999998,1.09881566382433,-0.36117843540770656,0.5284281016385672,12.43501859030495,1.271645384480517,-0.06109542950000013,0.004805258499999909,0.06697941949999908
138662.0,1.3803840539999999,0.7328509545,12.3378444315,1.0761647807919477,-0.37023669422555716,0.5454817137598037,12.436435818752276,1.262044430760812,-0.04187439550000005,0.06580262150000016,0.002451662500002172
138672.0,1.310952972,0.9148623785,12.356967398999998,1.01141481087221,-0.3627771570025333,0.5636017220540089,12.459944388573293,1.2133482955840642,-0.06943108199999992,0.18201142399999992,0.019122967499997756
138682.0,1.205629551,1.0261678559999998,12.408452311499998,0.9408022799950234,-0.3622430862514231,0.5931798168875568,12.509046800204313,1.1696970884564712,-0.10532342100000003,0.11130547749999986,0.051484912499999425
138692.0,1.1146238389999998,1.048919284,12.470724538999999,0.8808484748597661,-0.38063012992118334,0.6286187273493017,12.564298169592718,1.1471420294980255,-0.09100571200000007,0.022751428000000073,0.062272227500001165
138702.0,1.023618127,1.028521452,12.5700659035,0.8211617051000641,-0.41340392261513287,0.658994437651011,12.653545244929598,1.1311423509052234,-0.09100571199999985,-0.020397832000000005,0.09934136450000075
138712.0,0.9146662455,0.9866470565,12.536527160499999,0.755345339007358,-0.4411162604782989,0.6821776461052517,12.608512997205949,1.1092774572956043,-0.10895188150000001,-0.04187439549999994,-0.03353874300000115
138722.0,0.870438254,0.968700887,12.4431678525,0.6956568239184038,-0.4627007473377127,0.6989642228509331,12.511133856209462,1.0893031639891293,-0.04422799150000001,-0.017946169499999942,-0.09335930799999836
138732.0,0.8644561975,1.0201857994999999,12.310287745,0.6415655797405956,-0.4682962729196065,0.7104223093902758,12.382699542005968,1.0656489337571233,-0.005982056499999944,0.05148491249999987,-0.13288010750000012
138742.0,0.8058124305000001,1.12188076,12.140338500499999,0.596532594380638,-0.46056795499177566,0.7325391216715481,12.218664780553112,1.0509935975557245,-0.05864376699999996,0.10169496050000015,-0.16994924450000148
138752.0,0.7136299205,1.2439735524999997,11.938027311,0.5656228133278184,-0.4219316013403772,0.7685121028844032,12.0238610246848,1.04334380500693,-0.0921825100000001,0.12209279249999971,-0.20231118949999782
138762.0,0.5173007875,1.2476020129999998,11.8637909705,0.5501679228014086,-0.3577139568424978,0.8092795035524867,11.94042072455184,1.041910424686159,-0.196329133,0.003628460500000097,-0.07423634050000061
138772.0,0.2215322235,1.118350366,11.832703889999998,0.5291175066931049,-0.29509503393944525,0.8345937590234125,11.887500385514285,1.031306529381871,-0.29576856399999996,-0.1292516469999998,-0.03108708050000253
138782.0,-0.11964113,0.9291800874999999,11.874578285499998,0.49447795702877345,-0.2564586802880468,0.8236697432351799,11.91147762007142,0.9943396555521374,-0.3411733535,-0.18917027850000012,0.041874395500000716
138792.0,-0.4045243125,0.692153357,11.916452681,0.4563739287992333,-0.27670973559893697,0.7746399538881553,11.943389832351704,0.9406978786107284,-0.2848831825,-0.2370267304999999,0.04187439550000249
138802.0,-0.5098477335,0.5903603299999999,11.862614172499999,0.424132461527142,-0.3363965053586391,0.7074919015761774,11.888233049372419,0.8908399095990552,-0.10532342100000003,-0.10179302700000015,-0.053838508500001936
138812.0,-0.5229886445,0.6634198725,11.6674618375,0.3897582019091137,-0.38649094554938035,0.6438065825001563,11.698004478500714,0.8460340552351365,-0.013140911000000033,0.07305954250000013,-0.1951523349999995
138822.0,-0.5134761939999999,0.8190514079999999,11.406506881,0.34925609128733326,-0.401680546029487,0.6017057502835491,11.447397181763716,0.8033535263407646,0.009512450500000158,0.15563153549999986,-0.2609549564999991
138832.0,-0.46552167549999995,1.0093984845,11.082102899,0.3292720713519982,-0.3734358827444627,0.5822540557700723,11.13771073402858,0.7660902302955377,0.04795451849999993,0.19034707650000005,-0.32440398199999976
138842.0,-0.5241654425,1.0800063645,10.854588619,0.33833033016984876,-0.30282335186727616,0.5793236479559738,10.920771824655803,0.7360606522766913,-0.05864376700000001,0.07060788000000007,-0.22751428000000118
138852.0,-0.6666560669999999,1.062060195,10.7636809735,0.37430331138270395,-0.23620762497715658,0.5854514989597259,10.83647683838051,0.7339281086343515,-0.14249062449999994,-0.017946169500000053,-0.09090764549999975
138862.0,-0.9216289669999999,1.060883397,10.855863483499999,0.42573118312196884,-0.19490440822871075,0.5769255655637335,10.946444423064161,0.7430194323370346,-0.25497289999999995,-0.0011767979999999234,0.09218250999999889
138872.0,-1.1921944405,1.024991058,10.969522556999998,0.4422507244920951,-0.16452869792700145,0.5452164237135007,11.081622596960738,0.721052248066863,-0.27056547350000015,-0.035892339000000106,0.11365907349999915
138882.0,-1.3908771695,0.9447726609999999,11.096420608,0.3761690683530859,-0.13415124229604014,0.4935215165986806,11.223087141747428,0.6348725944164398,-0.19868272899999995,-0.080218397,0.12689805100000306
138892.0,-1.477077623,0.9627188304999998,11.1910547805,0.24720145393546888,-0.1072382652302876,0.4258411388648445,11.329090561519866,0.5039338050846748,-0.08620045350000005,0.017946169499999942,0.09463417249999928
