timestamp,ax,ay,az,gx,gy,gz,acc_mag,gyro_mag,dax,day,daz
64492.0,-1.081477362,2.4902026344999997,10.831837191,0.11978718255212681,0.2371570840902415,-0.11171503476165305,11.166888527146673,0.2882233519855041,0.0,0.0,0.0
64502.0,-1.0563723379999999,1.686939933,10.484681780999999,0.09234188006451599,0.1764039181575709,-0.12104032895505876,10.67193707359985,0.23301529217787673,0.025105024000000142,-0.8032627014999998,-0.34715541000000094
64512.0,-1.2359320995,1.570829197,10.610403033999999,0.08514763288779535,0.15455414125185385,-0.13596289405961026,10.797022046130985,0.22276222867792816,-0.1795597615000002,-0.11611073599999999,0.12572125300000003
64522.0,-1.4334380304999998,1.60436794,10.703762342,0.12458334733660723,0.17293943959236213,-0.14369121198744117,10.917841789850266,0.2570529606959114,-0.1975059309999998,0.03353874300000004,0.09335930800000014
64532.0,-1.7231264714999999,1.5624935444999999,10.781627143,0.15416144217015515,0.19079241251101212,-0.15941139256015407,11.02968878817814,0.29253971867375866,-0.289688441,-0.04187439550000005,0.07786480100000048
64542.0,-1.900332637,1.501398115,10.9025431375,0.16055632854946236,0.19612264804660282,-0.17806372627621747,11.168299212325092,0.3097565468710326,-0.17720616550000012,-0.06109542949999991,0.12091599450000068
64552.0,-2.1026438264999996,1.416472526,10.979133074,0.14110463403598555,0.19745433426587447,-0.21510310366204116,11.268046349506735,0.32429627976875086,-0.2023111894999996,-0.08492558900000002,0.07658993649999957
64562.0,-2.3408473549999997,1.416472526,11.09524381,0.12458334733660723,0.18946072629174046,-0.2638641123042587,11.427615497542197,0.3479089636711046,-0.23820352850000015,0.0,0.11611073599999955
64572.0,-2.5778740855,1.3937210979999999,11.283139224,0.14136992408228868,0.15268838428147194,-0.32062221957911435,11.657492185194469,0.38222742682512506,-0.23702673050000023,-0.022751428000000073,0.18789541399999976
64582.0,-2.722718306,1.3493950399999999,11.489078873999999,0.1951958782137938,0.08447393579652555,-0.37844323236843447,11.884148910241624,0.4341158334201583,-0.1448442205,-0.044326058,0.20593964999999947
64592.0,-2.7765568144999997,1.3410593875,11.756015886999998,0.2588811972898149,0.0029373891311064567,-0.43946343367666024,12.153666835994173,0.5100551069286494,-0.053838508499999715,-0.00833565249999979,0.2669370129999997
64602.0,-2.701143676,1.381756985,12.0589433055,0.30817627668314274,-0.06581113010495018,-0.5074108467860515,12.434771536673054,0.5973018414437657,0.07541313849999964,0.040697597499999905,0.30292741850000127
64612.0,-2.6185716829999994,1.6917451915,12.3294107125,0.3092426728561113,-0.0908583502003208,-0.6113312411082978,12.71744030728993,0.6910948971532982,0.08257199300000062,0.3099882064999999,0.27046740699999994
64622.0,-2.30848541,1.836589412,12.673035728499999,0.23729671043040104,-0.06874153791904866,-0.7229799533583751,13.011840766482306,0.7640256152607999,0.3100862729999996,0.1448442205,0.34362501599999895
64632.0,-1.7805934405,1.9347539784999999,13.042942566499999,0.09660397409788614,0.010131636307827083,-0.8362256418740271,13.305342413883634,0.8418481466353702,0.5278919695,0.09816456649999994,0.36990683800000035
64642.0,-1.2478962125,2.425576811,13.342241524499999,-0.09311680625240147,0.14096500769582604,-0.9177639338686983,13.618225902125607,0.9331840715054452,0.532697228,0.49082283250000014,0.2992989579999996
64652.0,-0.9785075369999999,2.5871904029999997,13.576816592499998,-0.34492418408388337,0.2472834844103126,-0.9809151821936091,13.855720117255702,1.06879203266396,0.2693886755,0.1616135919999997,0.23457506799999983
64662.0,-0.5655495054999999,2.5620853789999996,13.809038064500001,-0.5554283451669194,0.3394787568176611,-1.0203526419716729,14.056089783409424,1.2103164821334542,0.4129580315,-0.025105024000000142,0.23222147200000265
64672.0,-0.177696498,2.6063133705,13.970651656499998,-0.7067798072413637,0.41222233471153275,-1.0408689873288663,14.212795401957866,1.3239611769014172,0.38785300749999996,0.04422799150000056,0.1616135919999966
64682.0,0.22457228499999998,2.5453160075,13.970651656499998,-0.8152293309725355,0.46524892804562445,-1.0406036972825632,14.202400289968311,1.4013962615633277,0.402268783,-0.06099736300000025,0.0
64692.0,0.6842099705,2.3956665285,13.953882284999999,-0.9015637877516869,0.50601807404296,-1.0195532811742596,14.174561447295067,1.4520194378163516,0.4596376855,-0.1496494789999998,-0.016769371499998798
64702.0,1.0853019555,2.284361051,13.9335825195,-0.975106726442972,0.5134793565952358,-0.9918409433110935,14.161246681477373,1.4826471712555305,0.4010919850000001,-0.1113054775000002,-0.020299765499999012
64712.0,1.383326049,2.2903431075,13.824630638,-1.0470526888686822,0.49775743069327083,-0.9513388326893132,14.081181583412771,1.4997090943446894,0.2980240934999998,0.005982056500000166,-0.10895188149999946
64722.0,1.7161637499999998,2.2220888235,13.648699337,-1.1195292313869987,0.4612521240585574,-0.8921826430222173,13.934485650649682,1.5040242984701424,0.3328377009999999,-0.068254284,-0.17593130100000032
64732.0,2.1195112645,2.0508647145,13.3900979765,-1.1866790290282285,0.41568681327674145,-0.8165086573142472,13.71105750472198,1.4992294794782641,0.40334751450000006,-0.17122410900000018,-0.25860136050000015
64742.0,2.493046563,1.8437482665,13.126691357499999,-1.2359741084215565,0.3722542948408626,-0.7344380398977178,13.487947020602247,1.4851277693063083,0.3735352985000002,-0.20711644799999984,-0.2634066190000013
64752.0,2.8114684884999996,1.6522243919999997,12.832197657999998,-1.264752842457691,0.3250902624642198,-0.6438397437559442,13.240071647741521,1.4559577764803429,0.3184219254999996,-0.1915238745000003,-0.29449369950000026
64762.0,3.173039674,1.5038497774999997,12.6598948175,-1.2612883638924821,0.2989766461958806,-0.5527108675215643,13.137833981148802,1.409157434404528,0.36157118550000034,-0.1483746145,-0.17230284049999867
64772.0,3.2759114325,1.6570296505,12.538978823,-1.2636864462847222,0.2808566379016755,-0.46610937536685765,13.065348556386194,1.375878568545213,0.10287175850000008,0.15317987300000024,-0.1209159944999989
64782.0,3.4531175979999995,1.6809578765,12.441991054499999,-1.3172453650406724,0.22303387978310338,-0.3720483459891272,13.021243486259008,1.3868307160592757,0.17720616549999946,0.023928225999999997,-0.09698776850000179
64792.0,3.6303237635,1.6666401674999998,12.275572204,-1.4147708729836115,0.13776756450617242,-0.2529400965160262,12.909167789264133,1.443791957762028,0.17720616550000035,-0.014317709000000178,-0.1664188504999995
64802.0,3.684162272,1.6917451915,11.917629478999999,-1.5093642277832,0.00426907535037813,-0.10665183460161749,12.588286056414564,1.5131335733965503,0.05383850850000016,0.025105024000000142,-0.3579427250000009
64812.0,3.880491405,1.5624935444999999,11.456716929,-1.5514650599998072,-0.16227024187492078,0.05349259624437421,12.196555350266658,1.5608449383751464,0.19632913299999988,-0.12925164700000003,-0.460912549999998
64822.0,3.9869916239999994,1.406862009,10.958735242,-1.5362772048489528,-0.3415993318588341,0.21683272495076752,11.746030862655966,1.5886642767666455,0.10650021899999951,-0.15563153549999997,-0.4979816870000011
64832.0,4.009743052,1.313502701,10.360235392499998,-1.4864498000337665,-0.5688918150168037,0.3748461087800741,11.186501064971395,1.6351392939077396,0.02275142800000074,-0.09335930799999992,-0.5984998495000013
64842.0,3.9906200844999997,1.3206615555,9.650331999,-1.407309590431336,-0.8065759885411475,0.5320583864827154,10.526067798276516,1.7070943838106123,-0.01912296750000042,0.007158854500000089,-0.7099033934999976
64852.0,4.067210021,1.2500536755,8.908164726999999,-1.3159136788214005,-1.0050914829922346,0.703926193914353,9.872194809155705,1.7992636787785021,0.07658993650000046,-0.07060788000000007,-0.7421672720000014
64862.0,4.252751839,1.0788295664999998,8.1970845355,-1.2266470688988986,-1.1303275834690878,0.8680674287474117,9.297417185423365,1.8803841465087578,0.18554181799999991,-0.17122410900000018,-0.7110801914999989
64872.0,4.368862575,0.8776951749999999,7.463252916,-1.1507060478153734,-1.18868441233877,1.0074267335314029,8.692379024619003,1.9370089478496986,0.11611073599999955,-0.2011343914999999,-0.7338316195000001
64882.0,4.2480446469999995,0.8849520959999999,6.829939458999999,-1.0856890425200807,-1.180956094410939,1.1366613833245751,8.091791924458102,1.966056228676038,-0.12081792800000013,0.007256920999999972,-0.6333134570000007
64892.0,4.0924131115,0.8047336989999999,6.2924369725,-1.0366609985023079,-1.1343243874561548,1.2778864450789482,7.549185681539983,1.998587403220108,-0.15563153549999953,-0.080218397,-0.5375024864999993
64902.0,4.0600511665,0.549760799,5.7022727755,-1.0094809860610003,-1.0762363392912795,1.416448134394778,7.021550200413268,2.0454001654102383,-0.03236194499999989,-0.25497289999999995,-0.590164197
64912.0,3.9020660349999994,0.3594137225,5.1587882325,-1.0041524958546617,-0.9835069961328207,1.5368880700871506,6.478301752249767,2.0826985346779203,-0.1579851315000007,-0.1903470765,-0.5434845429999999
64922.0,3.6673929005,0.1978001305,4.6357015215,-1.0097480214365555,-0.879054276388716,1.644272942974606,5.914272920207608,2.1203681280925486,-0.2346731344999995,-0.16161359199999997,-0.5230867110000004
64932.0,3.3262195469999996,-0.033244543499999994,4.159196398,-0.9934937701127322,-0.7487532304225754,1.751923105908364,5.3257634524689115,2.1486963117985427,-0.34117335350000033,-0.231044674,-0.47650512349999996
64942.0,2.9048277965,-0.33136670349999997,3.7126996235,-0.9228812392355457,-0.6245817807894387,1.8355924449197203,4.725671054341864,2.147373234087032,-0.4213917504999998,-0.29812215999999997,-0.4464967744999999
64952.0,2.4654898765,-0.6186034819999999,3.356031763,-0.7816561774811724,-0.5195967356234759,1.8920835168190206,4.210018977787558,2.112095448147002,-0.4393379199999998,-0.28723677849999996,-0.3566678605
64962.0,2.040567732,-0.9155488439999999,3.1069428529999996,-0.5842070792030539,-0.4460520516029388,1.916331376116978,3.828216327016688,2.052458595738424,-0.4249221445,-0.296945362,-0.24908891000000022
64972.0,1.5964245535,-0.9897851845,2.9801428684999998,-0.3569145960450844,-0.38476656024840994,1.9080707327672888,3.522711680388388,1.978930836587908,-0.44414317850000007,-0.07423634050000005,-0.12679998449999985
64982.0,1.1654222859999999,-0.964582094,3.0268225225,-0.13281955607676849,-0.3357367709013852,1.8854215950641584,3.383826577040282,1.9196809122731815,-0.43100226750000004,0.025203090500000025,0.04667965400000007
64992.0,0.8625929339999999,-0.872399584,3.1632330239999997,0.06329611065282635,-0.28084616592616357,1.8539794885894805,3.3928145790883244,1.8761985264490835,-0.30282935199999994,0.09218251,0.1364105014999999
65002.0,0.5848686059999999,-0.7431479369999999,3.3080772445,0.21145012953761702,-0.2120993920193589,1.8206716251444208,3.44059808727065,1.84514023206435,-0.277724328,0.12925164700000003,0.14484422050000045
65012.0,0.3358777625,-0.6449833704999999,3.4577267235,0.3135047668894814,-0.11937004886090018,1.787363761699361,3.5333682958290087,1.8185718748687312,-0.2489908434999999,0.09816456650000005,0.1496494789999998
65022.0,0.0114737805,-0.4282564055,3.6648431715,0.384117297766668,-0.018647097728307416,1.7753716044089078,3.689798188001739,1.8165456631856838,-0.32440398200000004,0.21672696499999988,0.20711644799999984
65032.0,-0.32371751649999997,-0.406779842,3.8743132154999995,0.4211566751524917,0.04770159378625702,1.7708424749999827,3.9090364237423545,1.8208600875243859,-0.33519129699999994,0.02147656349999999,0.2094700439999997
65042.0,-0.5571157864999999,-0.6031089749999999,4.027591155,0.4581943072090634,0.08500626121838382,1.7628488670258486,4.110426857046272,1.8234045671708294,-0.23339826999999996,-0.19632913299999993,0.15327793950000013
65052.0,-1.0180283365,-0.688034564,4.204699253999999,0.548790858021585,0.08713905356432089,1.732206121348584,4.38055579484656,1.8191488854246258,-0.4609125500000001,-0.08492558900000002,0.1771080989999998
65062.0,-1.484922943,-0.5431903435,4.4189745565,0.7145308144494705,0.05036671155405237,1.6890388929590083,4.693334425215595,1.834650776676255,-0.4668946064999999,0.1448442205,0.21427530250000082
65072.0,-1.8344319489999998,-0.40315138149999996,4.772112023,0.9154443912927978,-0.01145285055158679,1.6293503778700544,5.128423224732768,1.8689441551850838,-0.3495090059999999,0.140038962,0.3531374664999998
65082.0,-2.064299825,-0.22241482199999998,5.291668339999999,1.1078302894108807,-0.05088856500039867,1.5408848740742176,5.684413421022319,1.898474069176272,-0.22986787600000014,0.18073655949999998,0.5195563169999993
65092.0,-2.236700732,0.0026477955,5.8650631655,1.2248074918672966,-0.042095596228851236,1.430569593372664,6.277085558653412,1.883734268106452,-0.1724009070000001,0.22506261749999998,0.5733948255000003
65102.0,-2.318095927,0.18465921949999997,6.4061941125,1.2232087702724699,0.0149278010923075,1.3005355827820786,6.815202914158169,1.785456618627084,-0.08139519499999981,0.18201142399999998,0.5411309470000001
65112.0,-2.5215839145000003,0.2935130345,7.02744539,1.1230181445617353,0.1143173206763766,1.166506513533678,7.471915688009253,1.6232608074299106,-0.2034879875000004,0.10885381500000002,0.6212512774999999
65122.0,-2.7645927015,0.41442902899999995,7.5817172479999995,0.9554141764927199,0.2225015543612451,1.0359384321919822,8.080665854611588,1.4267065660565295,-0.2430087869999995,0.12091599449999996,0.5542718579999999
65132.0,-2.9740627454999995,0.48503690899999996,8.1264766555,0.7326508227436757,0.335481952830594,0.9011082568169163,8.66717559817786,1.2088512974082608,-0.2094700439999997,0.07060788000000001,0.5447594075
65142.0,-3.6528790584999995,0.634686388,8.27485127,0.46352279741540203,0.42474681742384407,0.7734740739478231,9.067497767728478,0.9967574357409764,-0.678816313,0.14964947900000003,0.14837461449999978
65152.0,-4.147232284999999,0.6587126804999999,8.306036417,0.2743360878162247,0.3861104637724455,0.6687543188281633,9.307184267098616,0.8194961368207936,-0.4943532264999999,0.02402629249999988,0.031185147000000413
65162.0,-4.3819054195,0.46356034549999997,8.260533560999999,0.28232969579035877,0.3077696149674281,0.5834862582219803,9.362285939436525,0.7175572496715248,-0.23467313450000038,-0.1951523349999999,-0.04550285600000059
65172.0,-4.560288383,0.317539327,8.389785208,0.4664549505587525,0.2038492206451817,0.5094092487795849,9.554347554736115,0.7201614460665033,-0.17838296349999982,-0.1460210185,0.12925164700000025
65182.0,-4.490857301,0.230064009,8.6124942295,0.791005906284106,0.09939650090107707,0.4569167261966035,9.715749358611149,0.9188813322981045,0.06943108199999948,-0.08747531799999997,0.22270902150000005
65192.0,-4.274130336,0.306752012,8.9978955745,1.163787290559071,0.049567350756638956,0.41588054482371284,9.966163338797342,1.2368566640846963,0.21672696500000033,0.076688003,0.385401345
65202.0,-4.2322559405,0.5677069684999999,9.4564545285,1.4459703786922622,0.06555456670490702,0.39189972090131076,10.37587653153068,1.4995709814856506,0.04187439549999983,0.2609549564999999,0.4585589540000008
65212.0,-4.258635828999999,0.7304973585,10.023867297499999,1.5863960796492218,0.12897285040537299,0.3905662893527871,10.915471639499042,1.6388497625001845,-0.026379888499999282,0.16279039000000006,0.5674127689999988
65222.0,-4.274130336,0.6587126804999999,10.6726752615,1.5925256759822262,0.20251753442591006,0.3668525008059402,11.515558595309264,1.6467337786540264,-0.015494507000000546,-0.0717846780000001,0.6488079640000013
65232.0,-4.235884401,0.45757828899999997,11.325111686,1.505124823030106,0.2472834844103126,0.28051804402678865,12.100010299564751,1.5508836924760439,0.03824593499999995,-0.2011343914999999,0.6524364244999994
65242.0,-4.1772406339999995,0.38569554449999993,11.7823957755,1.3593706318668075,0.2531443000385095,0.1342297821123799,12.506916109813325,1.389240146925609,0.0586437670000004,-0.07188274450000004,0.4572840894999999
65252.0,-4.086234922,0.433650063,12.0732610145,1.18990090682741,0.22116986814197345,-0.03497290755146237,12.753391695512132,1.2107862664009836,0.0910057119999994,0.04795451850000004,0.2908652390000004
65262.0,-3.9796366365,0.5808478794999999,12.219282032999999,1.046810088102655,0.1849298515535632,-0.1983147815871077,12.864126298341807,1.0813598675487515,0.10659828550000006,0.14719781649999997,0.14602101849999904
65272.0,-3.777325447,0.7293205605,12.2588028325,0.9516826625519561,0.1577515844415075,-0.331813270742902,12.848281709965416,1.0201399410065703,0.20231118950000004,0.1484726810000001,0.03952079950000176
65282.0,-3.4804781515,0.9818417979999999,12.1283743875,0.8941269398089391,0.14362838013436938,-0.4293387786858411,12.656034401135875,1.002209500531486,0.2968472955000001,0.2525212374999999,-0.1304284450000015
65292.0,-3.1476404504999995,1.2979101274999998,11.973919650000001,0.866414601945773,0.17906903592536622,-0.4839623482855076,12.448572724989281,1.0084441167710363,0.3328377010000003,0.31606832949999986,-0.15445473749999827
65302.0,-2.7765568144999997,1.5947574229999997,11.9451861655,0.8434984288670875,0.2816559986990889,-0.49781851721709064,12.366890939553585,1.0191383503669407,0.37108363599999983,0.2968472954999999,-0.028733484500001794
65312.0,-2.482063115,1.812661186,12.018245707999998,0.8101905654220277,0.4300753076301827,-0.486627466053303,12.405023489697019,1.038354377488495,0.2944936994999998,0.21790376300000025,0.07305954249999935
65322.0,-2.234347136,1.7910865559999998,12.327057116499999,0.7686238039565307,0.5739654871523513,-0.4541189634056566,12.655300681085716,1.0613401742020658,0.24771597900000009,-0.02157463000000015,0.30881140850000044
65332.0,-2.0571409705,1.7923614204999998,12.679017785,0.7081359280701633,0.6776188460990424,-0.4090877233749509,12.969266765185793,1.0620624080667245,0.1772061654999999,0.001274864500000028,0.3519606685000003
65342.0,-1.9673120565,1.822271703,12.900451941999998,0.6492485191078746,0.7135918273118976,-0.3747134637569226,13.176215359315297,1.03496237394932,0.08982891399999993,0.029910282500000163,0.22143415699999913
65352.0,-1.9230840649999998,1.7360712495,13.094427478999998,0.6154065849117045,0.6938730974228656,-0.34753345131561486,13.348266805364196,0.9904365905312825,0.04422799150000012,-0.08620045350000005,0.19397553700000003
65362.0,-1.810503723,1.6546760544999999,13.1614068985,0.6042155337479169,0.6248592881405058,-0.3280817568021381,13.387998660151409,0.9290657567385191,0.11258034199999978,-0.08139519500000003,0.06697941950000086
