timestamp,ax,ay,az,gx,gy,gz,acc_mag,gyro_mag,dax,day,daz
14602.0,3.0682065854999996,1.7554884165,10.3982851945,0.9314647684968538,0.029665361296147618,0.27843237557065537,10.982712152193061,0.9726413708955871,0.0,0.0,0.0
14612.0,3.1424429259999997,1.8943505805,10.844781969,1.0047424171418358,0.08588765249064097,0.3064117488093765,11.448703316103341,1.0539317688839218,0.07423634050000016,0.13886216400000007,0.4464967744999999
14622.0,3.4249725124999997,2.294167701,11.413371536,1.0050094525173907,0.16929170145569397,0.37276044032394096,12.135019240630283,1.0851976896867996,0.28252958649999993,0.39981712050000007,0.5685895670000001
14632.0,3.445272278,2.580325748,11.978430709,0.9461202982258501,0.3043871668770631,0.4889382819829435,12.728345701058771,1.1076352331263433,0.020299765500000344,0.2861580469999998,0.5650591729999999
14642.0,3.3004280575,2.8089187595,12.423750685499998,0.8232822801412372,0.4184339615193805,0.6509467244700652,13.157979748261733,1.1298727056822215,-0.1448442205,0.2285930115000001,0.44531997649999866
14652.0,3.0478087535,2.765867566,12.896627348500001,0.6716637826912378,0.4973071357462563,0.8268130812180218,13.537435449768179,1.1756132423192958,-0.252619304,-0.043051193500000196,0.47287666300000275
14662.0,2.7090870624999996,2.6580924825,13.2820286935,0.5325715132828017,0.5362105247732099,0.9861564059373481,13.813648850781071,1.2424405823254334,-0.3387216910000004,-0.10777508349999998,0.38540134499999823
14672.0,2.1871771495,2.5755204894999997,13.629282169999998,0.42971576980427184,0.5263511598286938,1.1108619263215949,14.04187958019186,1.3021963775185421,-0.5219099129999996,-0.08257199300000018,0.3472534764999988
14682.0,1.7070435655,2.5276640374999997,13.8459110685,0.3609689958974672,0.4671967154908501,1.2057223164967388,14.177881948224725,1.3425117099909878,-0.48013358400000006,-0.047856451999999994,0.21662889850000155
14692.0,1.2665288474999998,2.4401887194999996,14.0206655715,0.31593775586676154,0.3731356861131197,1.277933568968752,14.287675786361131,1.3682693859508976,-0.4405147180000002,-0.08747531800000008,0.17475450300000084
14702.0,0.9505585845,2.3348652985,14.131971048999999,0.2882254180035956,0.2593559268463574,1.3298937661298753,14.355060547224463,1.3852641688734983,-0.31597026299999986,-0.10532342099999958,0.11130547749999842
14712.0,0.752954587,2.191197876,14.201402130999998,0.26530924492491004,0.15490146177300074,1.365067386545317,14.389166453559517,1.3992113593420044,-0.19760399750000002,-0.14366742250000009,0.06943108199999948
14722.0,0.600951512,2.1493234805,14.2601439645,0.2357311500913621,0.07682939367279039,1.390913967438101,14.433725784837034,1.4128388427807057,-0.152003075,-0.04187439549999983,0.05874183350000095
14732.0,0.4668946065,2.143341424,14.246904986999999,0.18643607069803428,0.007548549014875475,1.4215567131153655,14.414791179272024,1.433749935537196,-0.1340569055,-0.005982056500000166,-0.01323897750000036
14742.0,0.34843027449999997,2.152951941,14.2062073895,0.12435121854609199,-0.05187293069852347,1.446071607788878,14.372645341409083,1.452335058223915,-0.118464332,0.00961051700000004,-0.04069759749999946
14752.0,0.2227090215,2.094308174,14.176297107,0.05640206010744875,-0.11076033966081214,1.4708517925086932,14.331891909370418,1.476094184241703,-0.12572125299999998,-0.05864376699999996,-0.029910282499999497
14762.0,0.1413138265,2.1373593674999998,14.079309338499998,-0.020872392524600186,-0.1555262896452147,1.4849749968158314,14.241321080313208,1.4932430561394507,-0.081395195,0.04305119349999975,-0.09698776850000179
14772.0,0.0263798885,2.1840390215,13.901024441499999,-0.1189302258893976,-0.17151350559348277,1.4969654087770325,14.07157428538585,1.5114452409220973,-0.11493393799999999,0.04667965400000007,-0.17828489699999928
14782.0,-0.08737725149999999,2.1505002785,13.701066847999998,-0.22817911041798267,-0.15339524262852963,1.508423495316375,13.869085009663502,1.5332766378298073,-0.11375713999999999,-0.033538742999999815,-0.19995759350000064
14792.0,-0.186718616,2.0320359464999997,13.4964020625,-0.32357357134423675,-0.1190209830105013,1.5204139072775762,13.649794964104162,1.5590138870171477,-0.09934136450000002,-0.11846433200000028,-0.20466478549999856
14802.0,-0.40217071649999997,1.9626048644999998,13.413732003,-0.3837926665257971,-0.10249969631112298,1.5308055976439503,13.562513240092176,1.5815083864465929,-0.21545210049999997,-0.06943108199999992,-0.08267005949999984
14812.0,-0.660772077,1.8596350394999999,13.2688877825,-0.4123043651863765,-0.12301778699756832,1.5302732722220924,13.414851665316945,1.5896114472243932,-0.2586013605,-0.10296982499999996,-0.14484422049999957
14822.0,-0.8499423555,1.6740932215,13.177882070499999,-0.4226978008820027,-0.16378693299490385,1.4982970949963044,13.310956614231394,1.5653733660583098,-0.1891702785,-0.18554181799999991,-0.09100571200000118
14832.0,-1.0019454305,1.7088087624999997,13.031861052,-0.42189844008458927,-0.2082858476037513,1.4596607413449056,13.181552431755948,1.5336201511069756,-0.152003075,0.03471554099999974,-0.14602101849999904
14842.0,-1.1419843925,1.7184192795,12.903786203,-0.4197656477386522,-0.25385115838556727,1.404503100994129,13.06770031587823,1.4877071520757266,-0.140038962,0.009610517000000263,-0.12807484900000077
14852.0,-1.2222027895,1.7111623585,12.731385296,-0.42616053411795946,-0.28662669640876876,1.3469473782511119,12.903876465272512,1.4415390746391348,-0.08021839700000011,-0.007256920999999972,-0.1724009070000001
14862.0,-1.22583125,1.6166262525,12.6189030205,-0.4597354329385744,-0.2903564650202806,1.2827297337532326,12.78095677696051,1.393218975944891,-0.003628460499999875,-0.09453610600000006,-0.11248227549999967
14872.0,-1.2125922724999998,1.5687698005,12.454837766,-0.5268834852505522,-0.2551828446048389,1.208120398888979,12.611677227223483,1.342489996023081,0.013238977500000138,-0.047856451999999994,-0.16406525449999876
14882.0,-1.2090618784999998,1.567494936,12.313622006000001,-0.635600044357279,-0.19283095707734152,1.1324446678517568,12.471734358423253,1.3128602820331698,0.0035303939999999923,-0.001274864500000028,-0.1412157599999997
14892.0,-1.167187483,1.5460183725,12.132885446499998,-0.7736276629219986,-0.10676353567374512,1.05943405458233,12.28655397930888,1.3161681995081282,0.04187439549999983,-0.021476563499999823,-0.18073655950000322
14902.0,-1.167187483,1.5136564274999997,11.968820191999999,-0.9255114504183011,-0.0025778513051956248,0.9994802494470727,12.120484280316973,1.3621816542618395,0.0,-0.032361945000000336,-0.16406525449999876
14912.0,-1.2461310154999998,1.5435667100000001,11.853984320499999,-1.0608739512152252,0.09201724882364504,0.9461883660666779,12.01883459269954,1.4244975038686472,-0.07894353249999986,0.029910282500000385,-0.11483587150000041
14922.0,-1.402939349,1.5950516224999998,11.603718612499998,-1.1722556280897474,0.14877361076924867,0.8968915413440981,11.796555180792879,1.4834861919761841,-0.15680833350000012,0.05148491249999965,-0.2502657080000006
14932.0,-1.4867862065,1.5113028314999999,11.377479197,-1.263119214277824,0.19034211756399758,0.857188791519731,11.573314233637067,1.5383344550206342,-0.08384685749999998,-0.08374879099999988,-0.2262394154999985
14942.0,-1.5658278055,1.3041863834999998,11.159575434,-1.3249387763834632,0.22658038882315587,0.823348602652813,11.344110485468663,1.5762945014349639,-0.07904159899999996,-0.20711644800000006,-0.21790376299999892
14952.0,-1.6939026544999998,1.136590735,11.007572359,-1.3475879140865938,0.22498166722832905,0.7828464920310326,11.194989680228865,1.5746296602269338,-0.12807484899999988,-0.16759564849999986,-0.15200307500000143
14962.0,-1.7764746475,0.9306510849999999,10.859099678,-1.3366638982983612,0.18048275261948163,0.7290205378995274,11.042736048279052,1.5332042739591463,-0.08257199300000018,-0.20593965000000003,-0.14847268099999944
14972.0,-1.8602234384999998,0.7942405835,10.690327231499998,-1.3116166782029905,0.12186063370349608,0.6661363249501718,10.879997502856956,1.476118534537449,-0.08374879099999988,-0.1364105014999999,-0.168772446500002
14982.0,-1.9404418354999997,0.7643303009999999,10.5861806085,-1.2841696303861279,0.07789404451650693,0.5917922801322214,10.789658715722513,1.4161134222234026,-0.08021839699999989,-0.029910282500000163,-0.10414662299999833
14992.0,-1.9859446914999999,0.80022264,10.501255019499999,-1.2705804968301,0.05044874202889609,0.5081229411208651,10.71730794443453,1.369346120522726,-0.04550285600000015,0.035892339000000106,-0.08492558900000091
15002.0,-1.9548576109999998,0.7869836625,10.471246670500001,-1.2873670735757814,0.03765896927028165,0.42179022967096563,10.681189933653641,1.3552266149760552,0.031087080500000086,-0.013238977500000026,-0.03000834899999738
15012.0,-1.8542413819999999,0.7236327034999999,10.3647464515,-1.3491866356814206,0.032328733734690966,0.3399849023007394,10.554137785540695,1.3917397237697438,0.10061622899999989,-0.0633509590000001,-0.10650021900000084
15022.0,-1.6939026544999998,0.5883009335,10.1001630345,-1.4464451082488048,0.045120251822557404,0.2629774850442456,10.258103992198528,1.4708488861679925,0.1603387275000001,-0.13533176999999985,-0.26458341700000076
15032.0,-1.5430763774999998,0.3668667765,9.806846132999999,-1.5578267851233267,0.09654637823257033,0.192364954167059,9.93427939081819,1.5726251209964826,0.15082627699999995,-0.22143415700000002,-0.2933169015000008
15042.0,-1.5107144325,0.1238579895,9.456160329,-1.6641452618378134,0.191141478361411,0.12335114488469924,9.57687668636702,1.6796219878864995,0.03236194499999989,-0.243008787,-0.3506858039999994
15052.0,-1.6352588875,-0.042560861,9.098217604,-1.7414197144698622,0.2995910020925826,0.04634372762820543,9.24410334352512,1.7676100055073267,-0.12454445500000011,-0.1664188505,-0.35794272499999913
15062.0,-1.8686571575,-0.1383718315,8.874331784499999,-1.7651352483459612,0.39764883545738006,-0.038657297602422404,9.069993988830179,1.8097849120688048,-0.2333982699999999,-0.09581097049999998,-0.2238858195000013
15072.0,-2.1452046874999997,-0.2209438245,8.8360858495,-1.7225003453782437,0.462932876128228,-0.12659047597640072,9.095445699062294,1.788110577183764,-0.27654752999999976,-0.08257199300000001,-0.038245934999999065
15082.0,-2.2636690195,-0.3466650775,8.838439445499999,-1.6345689123335172,0.46426456234749963,-0.22544767013861153,9.130300429754351,1.7141131132424783,-0.11846433200000028,-0.12572125299999998,0.0023535959999989586
15092.0,-2.176291768,-0.5429942105,8.9880889245,-1.522654910037137,0.41923332231679394,-0.3322984722749564,9.263737425403455,1.6138949247944392,0.08737725149999997,-0.196329133,0.1496494790000007
15102.0,-2.116471203,-0.5453478064999999,9.0610504005,-1.4259287628916113,0.3339652617106109,-0.4359535765508996,9.320916743732015,1.5280252464467199,0.05982056499999988,-0.002353595999999958,0.07296147599999969
15112.0,-1.9979088044999997,-0.37775215799999995,9.119792234,-1.3665072831782124,0.2284461457935378,-0.5169577977944604,9.343711611308377,1.478774885236938,0.11856239850000039,0.16759564849999997,0.05874183350000095
15122.0,-1.8746392139999999,-0.22329742049999998,8.979655205499999,-1.3435911100995268,0.13171999864801204,-0.5662528771877883,9.175965427699241,1.4639773051880822,0.12326959049999986,0.15445473749999997,-0.14013702850000165
15132.0,-1.722636139,-0.21378497,8.7570442505,-1.3534504750440426,0.0613745031463806,-0.5873032932960919,8.92742982531937,1.4766584494560158,0.15200307499999988,0.009512450499999991,-0.2226109549999986
15142.0,-1.5861275709999998,-0.2795875915,8.462550551,-1.3774330442956968,0.05577897756448678,-0.5849052109038516,8.614449008557512,1.4975136699203548,0.13650856800000022,-0.06580262150000002,-0.29449369950000026
15152.0,-1.5610225469999999,-0.435219127,8.1190236015,-1.3960853780117604,0.11146894333712185,-0.5729147989426506,8.279175763472052,1.513179128482293,0.02510502399999992,-0.15563153549999997,-0.3435269494999993
15162.0,-1.6663459679999997,-0.6506712275000001,7.861599039,-1.4067423584244374,0.20686165893412392,-0.557726943791796,8.062556752133403,1.5273425132411733,-0.1053234209999998,-0.21545210050000008,-0.2574245625000007
15172.0,-1.9189652719999999,-0.8853443619999999,7.727542133499999,-1.4128719547574418,0.2961282688566259,-0.5587915946355124,8.011315109236744,1.5479493397367485,-0.2526193040000002,-0.23467313449999982,-0.1340569055000005
15182.0,-2.2517049065,-1.1714043425,7.629377567,-1.4131389901329967,0.33902846187064656,-0.5817077677141981,8.040507768756079,1.565338950646638,-0.3327396345000002,-0.28605998050000014,-0.0981645664999995
15192.0,-2.568950034,-1.3785207904999999,7.486886942499999,-1.409674511567788,0.3190426966060595,-0.6373994788160852,8.03450682598542,1.5796355802578532,-0.3172451275000001,-0.20711644799999984,-0.1424906245000006
15202.0,-2.799994708,-1.4000954205,7.3025219224999995,-1.3976840996065871,0.24976359727739653,-0.7319928336156738,7.945254179692816,1.597409216601283,-0.23104467399999962,-0.02157463000000015,-0.18436501999999955
15212.0,-2.8861951615,-1.4036258145,7.0415669659999995,-1.3694376909923107,0.1642285012956584,-0.8558972478732552,7.738472282954771,1.6232346377111295,-0.08620045350000005,-0.0035303939999999923,-0.2609549565
15222.0,-2.867072194,-1.3545925644999999,6.783063671999999,-1.3209419723963962,0.1072051039744997,-0.9816674191012186,7.487654957315592,1.6492578787083336,0.019122967499999977,0.04903325000000014,-0.2585032940000005
15232.0,-2.7641023689999997,-1.3210538214999998,6.6297857325,-1.250861766941068,0.12265999450090949,-1.0903857235371974,7.303389895416493,1.6639235740681215,0.10296982500000018,0.03353874300000004,-0.1532779394999988
15242.0,-2.6096476315,-1.337823193,6.555549392,-1.1866458677724407,0.19247316458068267,-1.173253956421888,7.181591709870023,1.6797914099211022,0.1544547374999996,-0.01676937150000013,-0.07423634050000061
15252.0,-2.477944322,-1.3916617015,6.5483905374999996,-1.1504058511840303,0.2857348331609997,-1.2321431107134289,7.138511678632559,1.7097528074545054,0.1317033095000002,-0.05383850849999994,-0.007158854500000089
15262.0,-2.3689924405,-1.487472672,6.5412316829999995,-1.140281196193211,0.38512609807432074,-1.2747762683518944,7.114240090394474,1.7531736514569665,0.1089518814999999,-0.09581097050000009,-0.007158854500000089
15272.0,-2.281615189,-1.5472932369999999,6.4801362534999996,-1.143743929429168,0.4663973546934367,-1.3123479711595762,7.042162316779304,1.8022025041536716,0.08737725149999997,-0.05982056499999988,-0.06109542949999991
15282.0,-2.2624922215,-1.583185576,6.3424508875,-1.139747125442101,0.5143607478674929,-1.3483209523724315,6.917516236392365,1.8389018134492228,0.019122967499999977,-0.035892339000000106,-0.13768536599999948
15292.0,-2.311623538,-1.5772035194999998,6.1904478124999995,-1.119763105506766,0.5234207520145954,-1.3778973018767273,6.7935865669501005,1.8510644695992753,-0.04913131650000002,0.005982056500000166,-0.15200307500000054
15302.0,-2.4025311835,-1.5916192949999999,6.0419751315,-1.083790124293911,0.5084981869100439,-1.40481027894248,6.6940922877990445,1.8457148640649403,-0.09090764549999975,-0.014415775500000061,-0.14847268099999944
15312.0,-2.489908435,-1.6059370039999998,5.8552565155,-1.0126452679948659,0.4549392681540939,-1.4503755897242958,6.562218111111962,1.826474617335011,-0.08737725149999997,-0.014317708999999956,-0.18671861600000028
15322.0,-2.465980209,-1.7029247724999999,5.6912893275,-0.8930029477706547,0.38139458413355687,-1.5132615480029037,6.432090280872095,1.798020190709112,0.023928225999999775,-0.09698776850000002,-0.16396718799999999
15332.0,-2.324764449,-1.7711790564999998,5.557232421999999,-0.742984917244734,0.3147806025726893,-1.5889355337108737,6.278888212545791,1.7820857289418623,0.14121576000000013,-0.068254284,-0.1340569055000005
15342.0,-2.0661630884999997,-1.765197,5.479367621,-0.6012275300685027,0.28866698630435017,-1.6731389434733401,6.11624230088639,1.801165482697632,0.25860136050000015,0.005982056499999944,-0.0778648009999996
15352.0,-1.760882074,-1.6693860294999998,5.400326021999999,-0.49437498260290585,0.30518652767447646,-1.7493469999324205,5.920394964688981,1.843301485452173,0.3052810144999998,0.09581097050000009,-0.07904159900000085
15362.0,-1.4173551244999998,-1.5424879785,5.305789915999999,-0.42616053411795946,0.3574137602111548,-1.8090337696921226,5.704346706283789,1.8926068204237438,0.3435269495000002,0.12689805099999973,-0.09453610599999962
15372.0,-1.1408075945,-1.3474337099999998,5.2423408904999995,-0.39018929823435633,0.4344211774676486,-1.8490035548920447,5.531650529699212,1.9390161406993023,0.27654752999999976,0.1950542685000003,-0.06344902549999976
15382.0,-0.9899813175,-1.0493115499999999,5.1609456955,-0.36354161121490686,0.5279498814235207,-1.8700539710003483,5.35877581261452,1.976865052256732,0.15082627700000006,0.2981221599999999,-0.08139519499999981
15392.0,-0.903780864,-0.8278773929999999,5.120248098,-0.3432905559040167,0.6164153852193572,-1.8801803713204195,5.264897094250341,2.008206802499834,0.08620045349999994,0.22143415700000002,-0.04069759749999946
15402.0,-0.7230443045,-0.803949167,5.0544454765,-0.3249052575635084,0.6782349473249965,-1.8785816497255925,5.168805123459502,2.0235204681077676,0.1807365595,0.023928225999999886,-0.06580262150000049
15412.0,-0.545838139,-0.955952242,5.047188555499999,-0.2806733783302161,0.6984860026358867,-1.8697869356247931,5.165839358491704,2.015629783917352,0.1772061655,-0.152003075,-0.007256921000000638
15422.0,-0.4213917505,-1.0732397759999999,5.023260329499999,-0.19007508218844246,0.6659774999882403,-1.8652578062158678,5.153887752183436,1.9896837062731256,0.1244463885,-0.11728753399999992,-0.023928225999999775
15432.0,-0.28723677849999996,-1.11991943,4.938236674,-0.07736171909464866,0.6020268908659161,-1.877248218177069,5.071775423365388,1.9729374256564607,0.13415497200000004,-0.04667965400000007,-0.08502365549999968
15442.0,-0.069431082,-0.9762520075,4.762305372999999,0.027091000649455983,0.5474015759369976,-1.9097567208247155,4.861835159998757,1.986845021734123,0.21780569649999995,0.14366742249999997,-0.17593130100000032
15452.0,0.266937013,-0.667440599,4.504978877,0.09850289232405597,0.5258188344068356,-1.9577201139987714,4.561969640880902,2.0294965659415465,0.336368095,0.3088114085,-0.25732649599999924
15462.0,0.6680289979999999,-0.2244742185,4.124284724,0.1360745951317379,0.5519307053459228,-2.0190073506825525,4.184062129266226,2.0975067296802874,0.40109198499999993,0.4429663805,-0.3806941530000003
15472.0,1.060687264,0.38598974399999997,3.6621953759999997,0.14273651688660027,0.6438606877069681,-2.071499873265534,3.8321952620503006,2.1739461868607814,0.3926582660000001,0.6104639624999999,-0.4620893480000001
15482.0,1.5407227815,0.7977709775,3.2348215689999997,0.12994674412798582,0.8125310519489521,-2.0946813363905226,3.6707404982158605,2.250507224541508,0.48003551749999995,0.41178123350000007,-0.42737380699999994
15492.0,2.08293246,0.812186753,3.06359746,0.13847267752397813,1.0281001585212757,-2.0611081828991598,3.7926091746433332,2.3074513125927507,0.5422096784999999,0.01441577549999995,-0.17122410899999974
15502.0,2.47323713,0.7128453885,3.0815436295,0.21441544393675538,1.2423358335450758,-1.978238204685217,4.01509172866927,2.345804488951482,0.3903046699999999,-0.09934136449999997,0.017946169500000053
15512.0,2.7114406585,0.630175329,3.2874832794999995,0.3431160229788172,1.4067423584244374,-1.8759165319577973,4.30773463700345,2.369750092959787,0.23820352850000015,-0.08267005950000006,0.20593964999999947
15522.0,2.876682711,0.5452497399999999,3.629833431,0.4997959752596002,1.5221208392860268,-1.7656012512562438,4.663506345609664,2.384113177831981,0.16524205250000001,-0.08492558900000002,0.3423501515000007
15532.0,2.970042019,0.6314501935,4.10506369,0.6524791235533162,1.5874048799568745,-1.6606144607610287,5.106018687828434,2.38814230038171,0.09335930800000014,0.08620045350000005,0.4752302589999995
15542.0,2.9496441869999996,0.8756357784999999,4.6282484675,0.7681246397904604,1.577812550387914,-1.5636230235692,5.55768141614903,2.350409510330173,-0.02039783200000045,0.24418558499999987,0.5231847775
15552.0,2.8454975639999995,1.2216143904999999,5.2028200909999995,0.846730778641781,1.4864148934487267,-1.4738240882248397,6.054629221110064,2.257994616910609,-0.1041466230000001,0.345978612,0.5745716234999998
15562.0,2.8047999664999996,1.7195960774999999,5.663732641,0.9333305254672357,1.3094838858570537,-1.385091549053448,6.549945110499829,2.1223412817799865,-0.040697597499999905,0.497981687,0.46091255000000064
15572.0,3.0370214385,2.1361825695,5.8683974265,1.0604323829144706,1.0438203390939886,-1.2931633120216546,6.944412397279992,1.9713825327923464,0.23222147200000043,0.416586492,0.20466478549999945
15582.0,3.6164963869999998,2.2079672474999996,5.907918226,1.217646405946364,0.7509785252188682,-1.1831133213664042,7.270327588789914,1.856445163867936,0.5794749484999997,0.07178467799999977,0.03952079949999998
15592.0,4.358663659,2.1265720525,6.0145165115,1.388447817205033,0.5276828460479657,-1.0525469853539604,7.726232358262821,1.820464688889189,0.7421672720000005,-0.08139519499999981,0.1065982855000005
15602.0,4.9895254535,2.0691050834999998,6.094636842,1.563247777780021,0.3997816278033171,-0.903061280249898,8.143780346592955,1.8490777810978716,0.6308617944999995,-0.057466969000000034,0.08012033049999978
15612.0,5.3798301235,2.168446448,6.225163353499999,1.7076702827240478,0.3768654547246316,-0.7453166771253985,8.508665637649724,1.9009635227075974,0.3903046699999999,0.0993413645000003,0.1305265114999994
15622.0,5.5174174229999995,2.4162604935,6.3652023155,1.7921389825328176,0.427226930290928,-0.5814424776678949,8.763333287586374,1.9319317631624964,0.13758729949999982,0.24781404549999975,0.1400389620000011
15632.0,5.3582554935,2.676038652,6.539956818499999,1.8278449283701175,0.514626037913796,-0.41143868187738725,8.868095623552191,1.9429716493073732,-0.15916192949999974,0.2597781585000001,0.17475450299999906
15642.0,5.2217469255,2.685649169,6.806991897999999,1.8635508742074174,0.6289398679316687,-0.25982192975663987,8.989688043105652,1.9839089327425286,-0.136508568,0.00961051700000004,0.2670350794999994
15652.0,5.193013441,2.2534701034999998,7.308503979,1.9493512602354586,0.7397874740550804,-0.12685751135195583,9.244444089118273,2.088863009088145,-0.028733484500000017,-0.4321790655000002,0.5015120810000013
15662.0,5.251755274499999,1.5807339134999998,8.0735207455,2.0953742321035644,0.8253225700368186,-0.006682865705886288,9.760194178219328,2.2520646477998416,0.058741833499999174,-0.67273619,0.7650167664999996
15672.0,5.215764869,1.149731646,8.864819334,2.2368645839042407,0.8783474180416584,0.08364839506033223,10.349449640003504,2.4045902785093576,-0.03599040549999888,-0.4310022674999998,0.7912985885000001
15682.0,5.13083928,0.9689950864999999,9.597376088999999,2.3197345621181835,0.8980661479306902,0.15932412609755436,10.925845092648942,2.4926041446450053,-0.08492558900000002,-0.18073655950000012,0.7325567549999992
15692.0,4.987171857499999,0.937908006,10.290510111,2.354375857111767,0.8847423044209656,0.21608048804315796,11.473715741142975,2.52439010438083,-0.14366742250000097,-0.031087080499999864,0.6931340220000006
15702.0,4.8207530069999995,1.0851058224999999,10.904602534,2.37782435561231,0.8429085075799134,0.2491213161126626,11.971945147929896,2.5350749196888445,-0.1664188504999995,0.14719781649999986,0.6140924230000007
15712.0,4.6053009065,1.3724406674999998,11.479272223999999,2.4012728541128543,0.7970761614225423,0.2552509124456667,12.444520103962043,2.5429500103839504,-0.2154521004999994,0.28733484499999995,0.5746696899999986
15722.0,4.4591818215,1.810503723,12.063454364499998,2.4247213526133984,0.7874838318535815,0.2768336539758286,12.988039014900092,2.5643793196841527,-0.14611908500000048,0.43806305550000024,0.5841821404999994
15732.0,4.690226495499999,2.3109370725,12.578205423,2.411931579854784,0.838112342795433,0.37355980112135434,13.621670470075676,2.5805800065219193,0.23104467399999962,0.5004333494999997,0.5147510585000017
15742.0,4.659139415,2.5635563765,13.205438757,2.3637011513051727,0.9124546422841315,0.5179823060653811,14.235976051847588,2.5861094865268313,-0.031087080499998976,0.252619304,0.6272333339999996
15752.0,4.660316213,2.464215012,13.825513236499999,2.335189452644593,0.9676122826349083,0.7250237339124604,14.796476576643288,2.6296468819947783,0.0011767979999994793,-0.09934136449999986,0.6200744794999995
15762.0,4.3850435475,2.434206663,14.510311606,2.3341230564716247,0.988929734118767,0.9373936519658784,15.35262557007378,2.7027429253487245,-0.2752726655000002,-0.030008349000000045,0.6847983695000011
15772.0,3.7984097445,2.385173413,15.341130993999998,2.3216003190885655,0.9801367653472196,1.1100625655241816,15.98334348539948,2.753676636745057,-0.5866338029999998,-0.04903324999999992,0.8308193879999983
15782.0,3.1185147,2.375562896,16.3562173355,2.2384633054990677,0.9516250666866402,1.2187791246309083,16.81946130329621,2.720612209089757,-0.6798950444999998,-0.00961051700000004,1.0150863415
15792.0,2.5569859210000003,2.3205475895,17.4061172845,2.053271654557705,0.9111229560648598,1.2587489098308304,17.745310282919714,2.574979290495131,-0.5615287789999996,-0.05501530650000008,1.0498999490000003
15802.0,2.0387044684999998,2.4401887194999996,18.063260901,1.7596304798851712,0.8207916952986414,1.2446257055236924,18.340998644410075,2.3063155854441266,-0.5182814525000006,0.11964112999999976,0.6571436165000009
15812.0,1.5515100964999997,2.7479213965,18.271554147,1.4031033469340295,0.6566504604655826,1.2185120892553531,18.542058853526402,1.970954220946946,-0.48719437200000004,0.3077326770000002,0.2082932460000002
15822.0,1.1468877174999998,2.9801428684999998,18.1147458135,1.0724245402049237,0.4573373505463341,1.2411612269584835,18.394037589418467,1.7028602520299694,-0.40462237899999987,0.23222147199999998,-0.156808333499999
15832.0,0.7949270489999999,3.0471222879999997,17.8381982835,0.814754601415993,0.2753431427946254,1.341084817293663,18.114032716452748,1.59315642483346,-0.35196066849999996,0.06697941949999997,-0.276547530000002
15842.0,0.4190381544999999,2.9310115519999997,17.382189058499996,0.6252991111120084,0.16635954831234354,1.5118879738815838,17.632552797548094,1.6445302439419944,-0.37588889449999996,-0.11611073599999999,-0.4560092250000025
