timestamp,ax,ay,az,gx,gy,gz,acc_mag,gyro_mag,dax,day,daz
171802.0,-1.5727905269999998,0.4149193615,9.591884364999999,-0.11477459694039911,0.12122707918502215,0.04326671215693943,9.728826948296486,0.1724564327922683,0.0,0.0,0.0
171812.0,-0.395992527,0.40776050699999994,9.764285272,-0.1193037263493244,0.11083538881864789,0.03260973174426206,9.78081518000953,0.16607605829814265,1.1767979999999998,-0.007158854500000034,0.17240090700000188
171822.0,-0.2619356215,0.48797890399999994,9.8600962425,-0.08546353748240633,0.11643091440054174,0.0027646015351590184,9.875638287823337,0.14445697314010547,0.1340569055,0.080218397,0.09581097049999876
171832.0,-0.2738997345,0.5957539875,9.866078299,-0.039098865903176974,0.07379775676207624,-0.019350465416861133,9.887843287602209,0.08572788770218431,-0.011964112999999998,0.10777508350000004,0.00598205650000061
171842.0,-0.176911966,0.6495924959999999,9.863626636500001,-0.0071244340066408535,0.027433085182846872,-0.032407273551030714,9.886576691597847,0.04305302662503123,0.09698776849999999,0.05383850849999994,-0.002451662499998619
171852.0,-0.0907115125,0.7429518039999999,9.831362758000001,0.011794935084977679,0.0002530727415391778,-0.022814943982069874,9.859812353232504,0.025684746609151782,0.08620045350000001,0.09335930800000003,-0.03226387850000023
171862.0,-0.0452086565,0.73942141,9.7953723525,0.01845685683984004,-0.020530307991209296,-0.007360053455660088,9.823345019305302,0.02857130549153182,0.045502855999999994,-0.0035303939999999923,-0.03599040550000154
171872.0,-0.027262487,0.7944367164999999,9.751144361,0.020322613810221976,-0.027991590543485056,0.01102524488484818,9.783490649496365,0.03630556152994219,0.0179461695,0.05501530649999997,-0.044227991499999675
171882.0,-0.058447634,0.78845466,9.7008362465,0.007265805676052394,-0.0330547907035206,0.03367438258797859,9.733000604038002,0.04774280221412714,-0.031185147,-0.005982056499999944,-0.050308114499999945
171892.0,-0.1242502555,0.8363111119999999,9.656510188499999,-0.011920598791121272,-0.021863739539732963,0.04486717908101823,9.693453637514898,0.051314593839261013,-0.0658026215,0.04785645199999988,-0.04432605800000111
171902.0,-0.2368305975,0.8291522575,9.641015681499999,-0.029239500958661003,0.003984586682303054,0.05579119486925074,9.679502340975928,0.06311483797237409,-0.11258034199999999,-0.007158854499999867,-0.015494506999999658
171912.0,-0.39363893099999997,0.7716852885,9.704464707,-0.04416206606321252,0.03729245012736283,0.06218608124855796,9.74305316838078,0.0849006691170667,-0.15680833349999998,-0.057466969000000034,0.06344902550000064
171922.0,-0.6114446275,0.7454034664999999,9.767913732499999,-0.05775119961924037,0.06154030942532006,0.05952096348076262,9.81537719835213,0.10327224135896229,-0.21780569649999998,-0.026281822000000066,0.06344902549999887
171932.0,-0.8305251885,0.7334393534999999,9.868431894999999,-0.07027568233155168,0.05567774846787111,0.04832991231697498,9.930440747532243,0.10185511094777315,-0.21908056100000006,-0.011964112999999998,0.10051816250000023
171942.0,-0.9275129569999999,0.6866616329999999,9.8995189755,-0.0641460859985476,0.04608541889891027,0.028078857006084774,9.96655710011846,0.08382725329383789,-0.0969877684999999,-0.04677772049999995,0.031087080500000752
171952.0,-0.973015813,0.6843080369999999,9.9187400095,-0.037233108932795037,0.03515965778142577,0.001699950691442477,9.98981684706516,0.05123861598893642,-0.045502856000000036,-0.002353596000000069,0.01922103400000097
171962.0,-0.996944039,0.744128602,9.8600962425,-0.0015271630954950383,0.020504128052429384,-0.02121622238724307,9.938265578287528,0.029544535648671443,-0.023928225999999997,0.0598205650000001,-0.05864376700000129
171972.0,-0.9765462069999999,0.7705084904999999,9.80861133,0.02485174321914726,0.004516912104161324,-0.036938148289207995,9.887172601474248,0.04474861377766545,0.020397832000000005,0.02637988849999995,-0.051484912499999425
171982.0,-0.9610517,0.78845466,9.785859901999999,0.03151366497400961,-0.0024120450262561633,-0.046263442482613694,9.864498727381946,0.05602887783674516,0.01549450699999999,0.017946169500000053,-0.022751428000001184
171992.0,-1.0233239275,0.9213347675,9.739180248,0.03311238656883642,0.0034505159311927895,-0.042800709246656944,9.836039930654595,0.054223951502010065,-0.062272227499999944,0.1328801075,-0.046679653999998294
172002.0,-1.135806203,0.985960591,9.69485419,0.03364471199069469,0.015974998643504098,-0.02174854780910134,9.810829311691183,0.04312964825269874,-0.11248227550000012,0.06462582350000001,-0.04432605800000111
172012.0,-1.263881052,1.007535221,9.7139771575,0.03071430417659621,0.03036349299694535,0.009426523290021374,9.847531403940376,0.04420598974534266,-0.12807484899999988,0.021574629999999928,0.01912296750000131
172022.0,-1.2937913344999998,0.8327807179999999,9.776249385,0.045635123951895736,0.03036349299694535,0.03394141796353373,9.896588896140567,0.064471126083354,-0.02991028249999994,-0.17475450300000006,0.06227222749999939
172032.0,-1.23759923,0.6447872375,9.868431894999999,0.07894298739695553,0.038624136346634516,0.037671186575045604,9.966611786459465,0.09561870876377274,0.056192104499999784,-0.18799348049999987,0.09218250999999889
172042.0,-1.218378196,0.5849666725,9.90079384,0.1114514900446019,0.030096457621390217,0.019552923610092476,9.992614777854989,0.11708777996110545,0.01922103400000008,-0.05982056499999999,0.03236194500000167
172052.0,-1.2172013979999998,0.510730332,9.998958406499998,0.135434059296256,0.0010524335389525807,-0.006827728033801817,10.085712366027249,0.1356101393846318,0.0011767980000001454,-0.07423634050000005,0.09816456649999772
172062.0,-1.171698542,0.41021216949999995,10.0923177145,0.14129662025370496,-0.04158072409951291,-0.04360007004407035,10.168383762808194,0.15360552600608926,0.045502855999999925,-0.10051816250000001,0.09335930800000192
172072.0,-1.1621860915,0.22584714949999998,10.1641023925,0.12610701977359828,-0.09860412142067165,-0.10115579278708735,10.232822723542002,0.18936274082222568,0.009512450499999936,-0.18436501999999996,0.07178467800000021
172082.0,-1.079516032,0.12650578499999998,10.1078122215,0.10399195282157814,-0.16282176591855102,-0.17176832366427394,10.166082159912355,0.25851423698302484,0.08267005950000006,-0.0993413645,-0.056290171000000555
172092.0,-0.9538928454999999,0.092967042,9.998958406499998,0.09066810931185341,-0.20652131972998503,-0.23944870139811006,10.044785893512678,0.32894899627517055,0.12562318650000004,-0.03353874299999998,-0.10885381500000157
172102.0,-0.6785221135,0.13121297699999998,9.80861133,0.08640426994923127,-0.2155813238770876,-0.30393338127154457,9.832927607119156,0.38251340541373374,0.27537073199999984,0.03824593499999998,-0.19034707649999838
172112.0,-0.43551332649999996,0.304790682,9.619441051499999,0.08374089751068793,-0.17134769931454333,-0.3646865472042152,9.63411725902672,0.4115444686640982,0.24300878700000006,0.173577705,-0.18917027850000068
172122.0,-0.25232510449999995,0.5371102205,9.536869058499999,0.07308217176875856,-0.08847772110060054,-0.40065952841707025,9.555314060055856,0.41677016288715185,0.183188222,0.23231953850000003,-0.08257199300000018
172132.0,-0.0883579165,0.709413061,9.554815227999999,0.04909960251710448,0.013309880875708757,-0.4121176149564131,9.581522220072669,0.4152455327316907,0.16396718799999996,0.1723028405,0.017946169500000053
172142.0,0.027752819499999998,0.7573675794999999,9.636210423,0.011794935084977679,0.11589858897868346,-0.4187777913820234,9.665967472829697,0.43467970044127224,0.11611073599999999,0.047954518499999876,0.0813951950000007
172152.0,0.11042287899999999,0.7454034664999999,9.830087893499998,-0.026841418566420795,0.18571175905845663,-0.4302358779213662,9.858927301385892,0.46937429611559767,0.08267005949999999,-0.011964112999999998,0.1938774704999986
172162.0,0.24085132399999998,0.7501106585,9.984542631,-0.05242270941290168,0.2054287436182366,-0.4424933252581224,10.015576214603145,0.49066225865125107,0.130428445,0.004707192000000138,0.15445473750000183
172172.0,0.343821149,0.7573675794999999,10.0719198825,-0.0572188741973821,0.174520707894669,-0.45022164318595326,10.10620545766195,0.48624171462507415,0.10296982500000001,0.007256920999999861,0.08737725149999953
172182.0,0.40011132,0.8567089439999999,10.0719198825,-0.02817485011494446,0.09964433765486026,-0.4427603606336775,10.116205286698197,0.45470820660522454,0.056290171,0.09934136449999997,0.0
172192.0,0.458755087,0.8914244849999999,10.049168454499998,0.01845685683984004,-0.00027925268031909274,-0.41904482675757854,10.09905344422059,0.4194511895069018,0.05864376700000001,0.03471554100000007,-0.022751428000001184
172202.0,0.578396217,0.9344756784999999,9.881572806,0.059226002837175586,-0.10046987839105358,-0.3934652812403497,9.942498081358963,0.410386212509058,0.11964112999999998,0.04305119349999997,-0.16759564849999897
172212.0,0.701763874,1.0158708735,9.754674755,0.08400618755699107,-0.16069071890186593,-0.3636201510312466,9.832504550841126,0.40632273001278857,0.12336765699999996,0.08139519500000003,-0.1268980509999995
172222.0,0.8310155209999999,1.193077039,9.646997738,0.08827002691961322,-0.15536048336627525,-0.3244514719579899,9.755951259313928,0.370401451265918,0.12925164699999991,0.17720616550000012,-0.10767701700000032
172232.0,0.9208444349999999,1.2829059529999998,9.619441051499999,0.07361449719061684,-0.0983370860451165,-0.27915145122247703,9.748202311246763,0.30498329365407373,0.08982891400000004,0.0898289139999997,-0.027556686500000538
172242.0,0.933985346,1.3151698315,9.658961850999999,0.04989896331451788,-0.027991590543485056,-0.23491957198918476,9.792729157456762,0.24178635400824317,0.013140911000000144,0.03226387850000023,0.03952079949999998
172252.0,0.840626038,1.2709418399999999,9.772718991,0.03178070034956475,0.028232445980260274,-0.19681554375964455,9.890802888212777,0.20135402202623542,-0.09335930800000003,-0.04422799150000012,0.11375714000000059
172262.0,0.689799761,1.1894485785,9.913934751,0.01845685683984004,0.06233967022273346,-0.16590576270682497,10.008831793883678,0.17818982054881483,-0.15082627700000006,-0.08149326149999991,0.1412157599999997
172272.0,0.5365218214999999,1.109328248,10.077901939,0.007265805676052394,0.05967455245493812,-0.14405598580110798,10.152958796274925,0.15609603194171318,-0.15327793950000002,-0.0801203305,0.16396718800000087
172282.0,0.3725546335,1.018322536,10.171261246999999,0.004068362486398782,0.026366689009878336,-0.13153150308879666,10.228896963846676,0.13420987358410894,-0.16396718799999993,-0.09100571200000007,0.09335930799999836
172292.0,0.26840801049999996,0.9309452844999999,10.205976788000001,0.01446005285277302,-0.032255429906107205,-0.13126621304249353,10.251861498285479,0.13594235753969433,-0.10414662300000005,-0.08737725149999997,0.0347155410000024
172302.0,0.1534740725,0.9189811714999999,10.213233709,0.04163831996482872,-0.10313325082959691,-0.1357953424514188,10.255643494152629,0.175529462335165,-0.11493393799999996,-0.011964112999999998,0.00725692099999975
172312.0,-0.0033342610000000003,1.031463447,10.22637462,0.08320682675957768,-0.15935728735334226,-0.12993278149396986,10.2782618096823,0.22181219253858386,-0.1568083335,0.1124822755,0.013140910999998923
172322.0,-0.232025339,1.194253837,10.2790363305,0.12877213754139363,-0.19266515079840205,-0.10115579278708735,10.350780930387147,0.2528529575732401,-0.228691078,0.16279039000000006,0.05266171050000068
172332.0,-0.4463006415,1.3032057185,10.376024098999999,0.1650104088005519,-0.19612962936361078,-0.05452408583230286,10.467062888430696,0.26204606935170943,-0.2142753025,0.10895188150000013,0.09698776849999824
172342.0,-0.7311838239999999,1.333116001,10.5340092305,0.18046529932696168,-0.17134769931454333,0.004098033083682686,10.64317520878336,0.24888662518647317,-0.28488318249999994,0.02991028249999994,0.15798513150000204
172352.0,-1.1047191225,1.273295436,10.8082031645,0.18579553486255238,-0.12391837689159739,0.06698224603303839,10.93887294249565,0.23315738502123493,-0.3735352985,-0.0598205650000001,0.2741939339999995
172362.0,-1.6301594294999997,1.136786868,11.271469310499999,0.19698658602634,-0.07835306610978143,0.12613669037088218,11.445336367551123,0.24668478408859398,-0.5254403069999998,-0.136508568,0.4632661459999987
172372.0,-2.153344207,0.9189811714999999,11.8412356755,0.20577955479788745,-0.06956009733823401,0.1565141460018435,12.070471407121014,0.2677321613351817,-0.5231847775000003,-0.21780569650000003,0.5697663650000013
172382.0,-2.650149096,0.6795027785,12.3823666225,0.20284914698378897,-0.13031326327090462,0.1285347727631224,12.6810101108319,0.2732224566642179,-0.49680488899999986,-0.23947839299999996,0.5411309469999992
172392.0,-2.9003167375,0.20907777799999996,12.775024888499999,0.1836627425166153,-0.2664751248652422,0.04353374753249456,13.101786580343555,0.32655195962494843,-0.25016764150000004,-0.4704250005,0.39265826599999976
172402.0,-3.0116222149999996,0.004314926,12.858773679499999,0.1479567966793153,-0.442606771659502,-0.09209578863998479,13.206738716468568,0.4756822492879796,-0.11130547749999975,-0.20476285199999997,0.08374879099999966
172412.0,-2.9039451979999997,-0.067469752,12.728345234499999,0.10532363904084982,-0.6480494779117545,-0.24078213294663373,13.055582035629092,0.6993119692303538,0.10767701699999987,-0.07178467799999999,-0.13042844499999973
172422.0,-2.5963105874999997,-0.0842391235,12.3368637665,0.05336344187972663,-0.7743537198908281,-0.3828065554984203,12.607384046259288,0.8654549089181822,0.30763461050000007,-0.016769371500000005,-0.3914814679999985
172432.0,-2.1797240954999997,0.022359162,11.761017278499999,-0.006590363255530588,-0.7935383790287499,-0.49738567556259605,11.961322020989327,0.9365570469193405,0.416586492,0.1065982855,-0.5758464880000016
172442.0,-1.7439165694999998,0.10493115499999998,11.222337994,-0.07107504312896509,-0.6960128710858107,-0.5839854223880506,11.357514058993818,0.9113311977731517,0.43580752599999983,0.08257199299999998,-0.5386792844999988
172452.0,-1.3357637965,0.07256921,10.872828987999998,-0.12836373049642696,-0.49829848276138905,-0.6495347531052017,10.954813618340259,0.8286579636500798,0.40815277299999986,-0.03236194499999999,-0.3495090060000017
172462.0,-1.1429650574999999,0.061781894999999996,10.8321313905,-0.16513607250669549,-0.24649110492990717,-0.7105549544134274,10.892440341184855,0.7700104742754939,0.1927987390000001,-0.010787314999999999,-0.040697597499997684
172472.0,-1.0711803795,-0.007649186999999999,11.066706458499999,-0.18831753563168416,-0.013603096190043804,-0.7854313246532362,11.118429644248017,0.8078062293637525,0.07178467799999999,-0.06943108199999999,0.23457506799999805
172482.0,-1.0507825474999999,-0.099831697,11.464169983,-0.21949435206005888,0.16306262135532623,-0.8840214834398918,11.512658412763521,0.9253438129975272,0.020397832000000005,-0.09218251,0.3974635245000009
172492.0,-0.962228498,-0.158475464,11.7910256275,-0.2725209453941506,0.2469972504129855,-1.0025974074911346,11.831284102049748,1.0679311161765261,0.0885540494999999,-0.05864376700000001,0.32685564450000015
172502.0,-0.8102254229999999,-0.1405292945,11.983726299999999,-0.3335394013731243,0.2560572545600881,-1.118508213774582,12.011906998973972,1.194937016818208,0.1520030750000001,0.017946169499999998,0.19270067249999911
172512.0,-0.61389629,-0.005197524499999999,12.005300929999999,-0.3847002377368341,0.22754555589950873,-1.2048426705537334,12.020987733501583,1.2850747502427418,0.19632913299999988,0.13533177000000002,0.021574629999999928
172522.0,-0.3541181315,0.06305675949999999,11.904684700999999,-0.4100144932077599,0.1870434452777283,-1.2562705422929985,11.910117280539227,1.3346583122638256,0.2597781585,0.06825428399999998,-0.10061622899999989
172532.0,-0.1936813375,0.14925721299999997,11.9345949835,-0.3921615202891099,0.1356155735384634,-1.2847822409535778,11.937099630827904,1.3501287525459673,0.160436794,0.08620045349999998,0.029910282500001273
172542.0,-0.1577889985,0.2856677145,12.0387416065,-0.33220771515385267,0.05514542304601284,-1.2885120095650897,12.043164155620792,1.3317905925798292,0.035892338999999995,0.13641050150000003,0.1041466230000001
172552.0,-0.063154826,0.39461959599999996,12.181232231,-0.25173581933215017,-0.05677032457961956,-1.2861139271728497,12.187786174000081,1.311748004060107,0.0946341725,0.10895188149999996,0.14249062449999883
172562.0,0.0863965865,0.5645688405,12.242327660499999,-0.18112328845496353,-0.16521984831079123,-1.2821171231857826,12.255643144807445,1.3053457631841334,0.14955141249999998,0.16994924450000004,0.06109542949999991
172572.0,0.38814720699999994,0.7944367164999999,12.193196343999999,-0.15927351154924654,-0.23849749695577313,-1.2613319971237822,12.225212678483762,1.293525227625525,0.30175062049999996,0.22986787599999992,-0.049131316500000466
172582.0,0.7580540449999998,0.997924704,12.1201368015,-0.2072369047233027,-0.23796342620466288,-1.231488612243931,12.184753413059658,1.2712741360449524,0.3699068379999999,0.20348798750000008,-0.07305954249999935
172592.0,1.0884400834999999,1.217005265,12.1728965785,-0.3175521854248563,-0.15935728735334226,-1.2051097059292888,12.281905989758437,1.2563930670079706,0.33038603850000003,0.21908056100000006,0.05275977700000034
172602.0,1.2775122954999998,1.3606726875000001,12.281750393499998,-0.45025131378323713,-0.06849370116526547,-1.1813941720531898,12.422755755302424,1.266139732582502,0.1890722119999999,0.14366742250000009,0.10885381499999802
172612.0,1.382933783,1.4552087934999998,12.449346041999998,-0.6074635914858785,-0.0018779742751458986,-1.148353343983685,12.61016872822499,1.2991269931791933,0.10542148750000013,0.09453610599999962,0.16759564850000075
172622.0,1.4463828085000001,1.470801367,12.583501014,-0.7297692841486331,-0.01013861762483506,-1.1177088529771688,12.751461785192802,1.334892909441686,0.0634490255000002,0.015592573500000206,0.13415497200000104
172632.0,1.5588650839999998,1.4049987455,12.587031408,-0.799050128806548,-0.10180156461032525,-1.080671220920597,12.760777464204496,1.3478482684000026,0.11248227549999967,-0.06580262150000005,0.0035303940000002143
172642.0,1.7288143285,1.331939203,12.340492227,-0.8382205532090566,-0.2419602301917299,-1.0380380632821316,12.531983459435407,1.355979892785675,0.16994924450000015,-0.07305954250000002,-0.24653918099999927
172652.0,1.9371075745,1.225438984,11.873597620499998,-0.8494116043728444,-0.3797225587101463,-0.9900746701080754,12.092824604377402,1.3586526957343603,0.208293246,-0.10650021899999995,-0.46689460650000214
172662.0,2.13588837,1.1344332719999999,11.393562103,-0.8464811965587459,-0.49829848276138905,-0.9389138337443655,11.647412389567036,1.3588197015227483,0.19878079550000005,-0.09100571200000007,-0.4800355174999975
172672.0,2.3597741895,1.055391673,10.908721326999999,-0.8334243884245762,-0.5635807781029849,-0.8866866012076873,11.21082453698267,1.3410565362538915,0.22388581949999997,-0.07904159899999996,-0.4848407760000022
172682.0,2.413612698,1.1859181845,10.5316556345,-0.8046456543884418,-0.5713090960308159,-0.84458576899108,10.86957674428817,1.2989125580715608,0.05383850850000016,0.13052651150000005,-0.37706569249999866
172692.0,2.5106004665,1.2301461759999999,10.261090161,-0.7716048263189371,-0.5593169387403628,-0.8022179013989177,10.635146713087153,1.24569779934198,0.09698776850000002,0.0442279914999999,-0.2705654734999996
172702.0,2.6674088,1.1847413864999998,10.1725361115,-0.7580156927629093,-0.5313393108308937,-0.7582513122119285,10.58296616261126,1.1966011474924274,0.1568083334999999,-0.04540478950000004,-0.08855404950000079
172712.0,2.864914731,1.053038077,10.2347102725,-0.7726712224919057,-0.4964327257910071,-0.7206796094042466,10.68016479130962,1.1674096833222185,0.1975059309999998,-0.13170330949999975,0.06217416099999973
172722.0,3.0193694685,0.939280937,10.311398275499998,-0.8142379839574025,-0.4623255015485339,-0.6831096519258166,10.785350020370498,1.1590371695745263,0.15445473750000005,-0.11375714000000003,0.07668800299999923
172732.0,3.1042950575,1.0027299625,10.330521243,-0.8867162718049711,-0.43141572049571436,-0.6415411451310676,10.83336440510465,1.1764184253362515,0.08492558900000002,0.06344902549999987,0.01912296750000131
172742.0,3.1007646635,1.032640245,10.2431439915,-0.9930347485194577,-0.4194253085345133,-0.5871828655777043,10.751887564730506,1.2275256896840974,-0.00353039399999977,0.029910282500000163,-0.08737725149999953
172752.0,3.0935077425,0.9656608255,10.033673947499999,-1.1081461940054917,-0.4380776422505767,-0.5248309780502068,10.544045896502585,1.3020551307259682,-0.007256921000000194,-0.06697941950000008,-0.20947004400000147
172762.0,3.1007646635,0.8028704354999999,9.6888721335,-1.1891504152490526,-0.4751152743071484,-0.47393543173280017,10.204586500879056,1.365440598275409,0.007256921000000194,-0.16279039000000006,-0.34480181399999843
172772.0,3.1042950575,0.705882667,9.2471806175,-1.21393234529812,-0.4993631336051056,-0.43716483505178366,9.779839851258181,1.383513054210461,0.00353039399999977,-0.0969877684999999,-0.44169151600000056
172782.0,3.13420534,0.6256642699999999,8.909537658,-1.1888851252027495,-0.5062920907355232,-0.4233086661202007,9.465440305202884,1.3597682702880547,0.02991028249999994,-0.08021839700000011,-0.3376429595000001
172792.0,3.1677440829999997,0.6088948985,8.695262355499999,-1.12466748070487,-0.5145527340852123,-0.4209105837279605,9.274316309236827,1.3064483065945698,0.033538742999999815,-0.016769371499999908,-0.21427530250000082
172802.0,3.2659086494999996,0.5215176469999999,8.5301183695,-1.0660453617888845,-0.5078908123303499,-0.4091854618130626,9.14882830534559,1.2497353851117226,0.09816456649999994,-0.08737725150000009,-0.16514398599999858
172812.0,3.3605428219999998,0.498766219,8.434307399,-1.0388670946768288,-0.47484998426084524,-0.3860039986880739,9.092829983043641,1.2057057829163724,0.09463417250000017,-0.022751427999999907,-0.09581097050000054
172822.0,3.4215401849999996,0.45689182349999996,8.320550259,-1.0420645378664823,-0.4218233909267535,-0.35296142528931723,9.008176507401258,1.1783103334665688,0.060997362999999805,-0.04187439550000005,-0.11375714000000059
172832.0,3.5364741229999996,0.31685286149999997,8.2104215795,-1.0599175107851324,-0.3557399894584922,-0.31992059721981264,8.945281855347467,1.1628952052074,0.11493393800000007,-0.140038962,-0.11012867949999894
172842.0,3.605905205,0.119248864,8.142265362,-1.0655130363670262,-0.27793321140458505,-0.2943410517025837,8.905799114298299,1.1398252301941418,0.06943108200000037,-0.19760399749999996,-0.06815621750000034
172852.0,3.5173511554999997,-0.043541526000000004,8.180511297,-1.0575194283928921,-0.220377488661568,-0.27542168261096517,8.904741439027202,1.1147962514242071,-0.08855404950000034,-0.16279039,0.03824593500000084
172862.0,3.3006241904999998,-0.005197524499999999,8.2643581545,-1.0327374983438247,-0.22517365344604842,-0.2461106231529724,8.8990877491474,1.0852743217824914,-0.21672696499999988,0.0383440015,0.08384685749999932
172872.0,3.0839952919999996,0.210254576,8.2643581545,-1.0020947526665602,-0.3088429924574046,-0.19841426535447135,8.823539519583836,1.0672141809440379,-0.21662889850000022,0.2154521005,0.0
172882.0,2.9953431759999996,0.36470931349999997,8.2212088945,-0.9781121834149061,-0.4460712502247107,-0.1294004560721116,8.757475053482558,1.08278690500642,-0.088652116,0.15445473749999997,-0.043149259999999856
172892.0,3.08517209,0.3670629095,8.058418504499999,-0.9557300810873309,-0.5585175779429494,-0.029476865736932232,8.63661570281517,1.1073530414371597,0.08982891400000037,0.0023535960000000133,-0.1627903900000014
172902.0,3.3090579095,0.23418280199999997,7.846496798,-0.9429403083287164,-0.5990214338939818,0.08696801129762545,8.518932904666014,1.1205028060315247,0.22388581949999997,-0.1328801075,-0.2119217064999983
172912.0,3.4886176709999996,0.07256921,7.5472959065,-0.9309498963675155,-0.5646471742759535,0.19568457040435222,8.314889959880716,1.1062488834158626,0.17955976149999975,-0.16161359199999997,-0.29920089150000084
172922.0,3.5304920665,-0.059036033,7.322233289,-0.9069673271158614,-0.49909784355880243,0.28601408584131877,8.12914262535426,1.0740076569561234,0.04187439550000027,-0.13160524299999998,-0.2250626174999999
172932.0,3.4981301215,-0.3021428865,7.2838892875,-0.9056356408965897,-0.4404757246428169,0.35502789512367855,8.085990837452478,1.067820014973376,-0.03236194499999989,-0.2431068535,-0.038344001499999614
172942.0,3.4610609845,-0.497197155,7.4144157989999995,-0.961857932091083,-0.39224529609320563,0.40592344144108516,8.197542911740626,1.1152582185956557,-0.03706913700000003,-0.19505426850000002,0.1305265114999994
172952.0,3.465866243,-0.8048317655,7.2360328355,-0.9933017838950128,-0.33655533032057056,0.4482913090332475,8.06350756070576,1.140562590133021,0.004805258499999798,-0.3076346105,-0.17838296349999982
172962.0,3.353285901,-1.0694151824999998,7.044508960999999,-0.9290841393971334,-0.2723376858226912,0.4821314979001656,7.87485121561139,1.0815802949693694,-0.11258034199999978,-0.26458341699999977,-0.19152387450000052
172972.0,3.1833366565,-1.108935982,6.967820958,-0.8331573530490212,-0.24249430094284016,0.5183697691593239,7.74040697790077,1.0107729114433661,-0.16994924450000015,-0.0395207995000002,-0.07668800299999923
172982.0,3.0612438639999997,-1.143651523,7.051667815499999,-0.737764637452019,-0.24302662636469843,0.564202115316695,7.772076413745325,0.9600430346212345,-0.12209279250000016,-0.03471554099999996,0.08384685749999932
172992.0,2.9690613539999995,-1.146005119,7.159442899,-0.632510811581249,-0.2571498306718365,0.6356140069912949,7.834939417802287,0.9328457150382663,-0.09218251000000022,-0.002353596000000069,0.10777508350000087
173002.0,2.9092407889999996,-1.142474725,7.220440262,-0.53738338603055,-0.28965833331948293,0.7278092793986435,7.867889681658977,0.9499416828531384,-0.05982056499999988,0.0035303939999999923,0.06099736300000025
173012.0,2.8971786095,-1.2537802024999998,7.179742664499999,-0.4689036474993005,-0.32909404776829476,0.8146760615996532,7.84310610791202,0.9959270095033024,-0.012062179499999548,-0.11130547749999975,-0.04069759750000124
173022.0,2.9953431759999996,-1.5063995065,6.9953776444999995,-0.41214728555369695,-0.3554746994121891,0.8828905100845996,7.757359641293135,1.0371708151066108,0.0981645664999995,-0.2526193040000002,-0.18436501999999955
173032.0,3.0911541464999996,-1.7254800675,6.893682684,-0.3569896452029202,-0.3514778954251221,0.9228602952845216,7.7495403972394,1.0500711606206574,0.09581097050000009,-0.21908056099999995,-0.10169496049999971
173042.0,3.0828184939999996,-1.8152109149999998,6.801500173999999,-0.3191509070196831,-0.3088429924574046,0.9468411192069238,7.684996106037112,1.0458247465338306,-0.008335652500000013,-0.08973084749999982,-0.09218251000000066
173052.0,2.9773970065,-1.7829470365,6.759527712,-0.2959694438946944,-0.24542470875693864,0.9737540962726764,7.598355608852171,1.0469136733253508,-0.10542148749999969,0.03226387849999979,-0.04197246199999949
173062.0,2.7667501645,-1.7075338979999999,6.8780901105,-0.26692541981225676,-0.1758785740527206,1.0123921952533268,7.607805337529197,1.0616592718771019,-0.21064684200000006,0.07541313850000009,0.11856239849999994
173072.0,2.4902026344999997,-1.6739951549999998,7.082754895999999,-0.23015307780198824,-0.12205261992121547,1.0619543100222097,7.692124924664586,1.0934414652033773,-0.2765475300000002,0.03353874300000004,0.20466478549999945
173082.0,2.1897268784999997,-1.6248638385,7.348515110999999,-0.1949794573865465,-0.11006220796001441,1.100323628298053,7.838096748107007,1.1228725508332535,-0.300475756,0.0491313164999998,0.26576021500000024
173092.0,1.9503465519999998,-1.7146927525,7.5125803655,-0.1707315980885893,-0.15296240097403502,1.1168449149974313,7.948766360666944,1.1401268959432738,-0.23938032649999985,-0.08982891399999993,0.16406525450000053
173102.0,1.8473767269999999,-1.8547317144999997,7.656149721499999,-0.1528786251699393,-0.23876278700207626,1.124039162174152,8.091319982688724,1.159242675453254,-0.10296982499999996,-0.14003896199999977,0.14356935599999954
173112.0,1.8857207284999997,-2.066653421,7.692140126999999,-0.1382230954409429,-0.3309598047386767,1.1155132287781597,8.185109575432032,1.1717550000085402,0.038344001499999836,-0.21192170650000008,0.03599040549999977
173122.0,1.9455412935,-2.1276507839999996,7.4898289375,-0.13715669926797439,-0.40956594358999737,1.090198973307234,8.02555707078218,1.1726423255635101,0.059820565000000325,-0.060997362999999805,-0.2023111894999996
173132.0,2.0281132865,-2.0714586795,7.0564730739999995,-0.15554374293773465,-0.43194804591757263,1.0542259920943788,7.628761158133129,1.1498545180789033,0.08257199299999995,0.05619210449999956,-0.4333558635000001
173142.0,2.0844034574999997,-2.0043811934999995,6.697353551,-0.17952456686013674,-0.36533231902745306,1.022516850244146,7.294986383098102,1.100562348286323,0.05629017099999967,0.06707748600000052,-0.3591195229999995
173152.0,2.0269364885,-1.9349501115,6.418354358499999,-0.19844393595175525,-0.22250853567825307,1.0083953912662598,7.003411749546253,1.0515471027456345,-0.05746696899999959,0.06943108199999948,-0.2789991925000006
173162.0,1.8557123795,-1.8331570845,6.375303165,-0.205905218504031,-0.03438647692279228,1.018520046257079,6.888296144732825,1.039693451662497,-0.17122410900000018,0.10179302700000004,-0.04305119349999931
173172.0,1.5672007365,-1.851103254,6.481803383999999,-0.20057498296844037,0.1233598715309592,1.0587568668325562,6.920728033544547,1.0846262419663357,-0.2885116429999999,-0.017946169500000053,0.10650021899999906
173182.0,1.303892184,-1.9924170804999999,6.7141229225,-0.176060088294928,0.2011666495848664,1.118443636592258,7.1238548040091585,1.1499484092033578,-0.26330855250000007,-0.1413138264999998,0.23231953850000053
173192.0,1.1362965354999999,-2.3036801515,6.9618389015,-0.13236053448349397,0.18171495507138963,1.163741911998519,7.420600578621861,1.1852573027521587,-0.16759564850000008,-0.31126307100000017,0.24771597900000053
173202.0,1.0297963165,-2.6975152154999997,7.2348560375,-0.06681120376634293,0.04848350129115048,1.1728019161456218,7.789750360228573,1.17570350061612,-0.10650021899999995,-0.3938350639999997,0.273017136
173212.0,1.0896168815,-3.0123086805,7.300658659,0.012861331257946215,-0.15935728735334226,1.1432238213120738,7.972508099105143,1.1543486754398442,0.0598205650000001,-0.31479346500000016,0.0658026214999996
173222.0,1.187781448,-3.0134854785,7.2024940925,0.08533961910551473,-0.3616025504159412,1.0755434435782376,7.897331235920193,1.1379072695437538,0.09816456649999994,-0.0011767979999999234,-0.0981645664999995
173232.0,1.266823047,-2.7513537239999994,6.867302795499999,0.14742447125745703,-0.5038940083432829,1.0041315519036376,7.505640254639249,1.1331034021210107,0.07904159899999996,0.26213175450000037,-0.3351912970000015
173242.0,1.3050689819999999,-2.3731112335,6.568003837499999,0.17327105215024105,-0.5329380324257205,0.9745534570700898,7.104472984237264,1.1241887050697108,0.03824593499999995,0.3782424904999995,-0.2992989579999996
173252.0,1.2882996104999997,-2.0653785565,6.061686497999999,0.20258211160823383,-0.4410080500646752,0.9998677125410156,6.532193174432304,1.1114238861692243,-0.01676937150000013,0.3077326770000002,-0.5063173394999998
173262.0,1.0704939139999998,-1.8678726255,5.830641824,0.24628166541966787,-0.25102023433883247,1.0494298273098983,6.215407423876679,1.1067830768570193,-0.21780569649999992,0.1975059309999998,-0.23104467399999962
173272.0,0.7999284405,-1.940932168,5.955088212499999,0.2686655130764951,-0.029323276762756728,1.10005833825175,6.3142837130868905,1.1327706564145996,-0.2705654734999998,-0.07305954250000002,0.12444638849999912
173282.0,0.6167402184999999,-2.3311387715,6.36451585,0.3035720981163817,0.1699898331564917,1.1418921350928022,6.806000181751921,1.193721161041452,-0.18318822200000007,-0.3902066035,0.4094276375000012
173292.0,0.5281861689999999,-2.771751556,6.7882611965,0.3499367696956111,0.28936511800514786,1.1458889390798692,7.351331674548423,1.2325783443695255,-0.08855404950000001,-0.44061278449999985,0.4237453464999996
173302.0,0.4898421675,-3.1033143924999997,7.196512036,0.3936363235070451,0.3192085028849989,1.0912636241509506,7.852406704447472,1.2032040229708727,-0.03834400149999995,-0.33156283649999985,0.40825083949999996
173312.0,0.40844697249999995,-3.1547993049999996,7.5029698485,0.4216139514165142,0.2504617289781943,0.9918741045668814,8.149487353918222,1.106482553419685,-0.08139519500000003,-0.05148491249999987,0.3064578125000006
173322.0,0.34617474499999995,-3.0662452554999997,7.7004757795,0.4397339597107193,0.14387621688815255,0.8786266707219774,8.295723244637456,0.9930010813754945,-0.0622722275,0.0885540494999999,0.19750593099999936
173332.0,0.230064009,-2.783715669,7.86689463,0.4618507719919915,0.06420368186386341,0.7837662805468336,8.348055671448058,0.9119856527800712,-0.11611073599999994,0.28252958649999993,0.16641885050000038
173342.0,0.1056176205,-2.3993930555,7.960253937999999,0.47783798794025956,0.03675837937625258,0.7368692835457459,8.314678879787614,0.8790089090597347,-0.12444638850000002,0.38432261349999974,0.09335930799999925
173352.0,-0.050013915,-2.0474323869999997,8.038118739,0.4738411839531925,0.05514542304601284,0.746995683865817,8.294928187349973,0.8863233253205326,-0.1556315355,0.3519606685000003,0.07786480100000048
173362.0,-0.24398945199999997,-1.863067367,8.1254959905,0.44373076369778636,0.08312305095548193,0.8176082147430037,8.33991822251868,0.9339644667048154,-0.19397553699999998,0.18436501999999977,0.08737725149999953
173372.0,-0.37088750299999995,-1.9540730789999998,8.188945016,0.4144197042397936,0.09724625526262005,0.927389424693447,8.42702673622348,1.0204174001152877,-0.12689805099999998,-0.09100571199999985,0.06344902550000064
173382.0,-0.257130363,-2.2581772955,8.084798393,0.42268034758948275,0.08632049414513555,1.0001347479165705,8.398181099318089,1.0892104562195353,0.11375713999999998,-0.3041042165000001,-0.1041466230000001
173392.0,-0.1362143685,-2.5897401319999998,8.0213493675,0.47410821932874764,0.07752752537358812,0.9846798573901608,8.43014554921621,1.0956201633666367,0.12091599449999998,-0.33156283649999985,-0.06344902550000064
173402.0,-0.130232312,-2.7885209274999996,7.9937926809999995,0.5031522434111853,0.07646112920061958,0.9042079615684583,8.467203248121749,1.0375936208806071,0.005982056499999999,-0.19878079549999983,-0.02755668649999965
173412.0,-0.2511483065,-2.7345843524999998,8.0572417065,0.5255343457387606,0.09085136888331283,0.8101469321907279,8.512354020466882,0.9699373028794628,-0.12091599449999998,0.05393657499999982,0.06344902549999976
173422.0,-0.5169085215,-2.497557622,8.1745292405,0.5375265030292136,0.142811566044436,0.7352705619509191,8.563172122443827,0.9219287847369231,-0.265760215,0.23702673049999978,0.1172875340000008
173432.0,-0.73353742,-2.297698095,8.2871095825,0.5154096907479414,0.18864216687255514,0.6915710081394851,8.630972072407035,0.8828949403741791,-0.2166288985,0.1998595270000001,0.11258034199999933
173442.0,-0.8376840429999999,-2.28691078,8.3959633975,0.462915422835708,0.23607323462475302,0.6886388549961346,8.742075087971777,0.8626961999543892,-0.10414662299999988,0.010787314999999964,0.1088538149999998
173452.0,-0.9598749019999999,-2.4209676855,8.574346361,0.41255394726941164,0.27124510971094273,0.7048931063199578,8.96113050234839,0.8606096445468603,-0.12219085900000004,-0.13405690550000005,0.1783829635000007
173462.0,-0.9466359245,-2.6375965839999997,8.684475040499999,0.395500335148175,0.2587223723278834,0.7032943847251311,9.12541188344668,0.8473374608921685,0.013238977499999915,-0.21662889849999978,0.11012867949999894
173472.0,-0.871222786,-2.7106561264999995,8.6570164205,0.4245461045598647,0.22088363414464635,0.667588438887831,9.11321123884354,0.8214032496080064,0.07541313849999998,-0.0730595424999998,-0.0274586199999991
173482.0,-0.902407933,-2.5478657365,8.576798023499999,0.4892960744796023,0.1777181510843226,0.6158952771022631,8.99263166290522,0.8064250629059417,-0.03118514699999997,0.16279038999999962,-0.08021839700000122
173492.0,-1.0328363779999998,-2.2269921485,8.5324719655,0.5553777306186116,0.17318727634614534,0.5815210174842347,8.878587886327658,0.8225599978914455,-0.13042844499999984,0.320873588,-0.044326057999999335
173502.0,-1.3165427625,-1.927791257,8.65338796,0.619595375116491,0.22008427334723296,0.5908480570068924,8.962744399029225,0.8839892209237309,-0.2837063845000001,0.29920089149999995,0.12091599450000068
173512.0,-1.6721318914999999,-1.8044235999999998,8.9023788035,0.6968698277485399,0.2795057530606319,0.6454733719358109,9.236033669915589,0.9901448867203508,-0.35558912899999995,0.12336765700000019,0.24899084349999967
173522.0,-1.9785897039999998,-1.8559085124999999,9.2016777615,0.7792074805406244,0.31281361650569167,0.7323401541368207,9.5932313247429,1.1141538303856338,-0.3064578124999999,-0.05148491250000009,0.2992989579999996
173532.0,-2.14373369,-2.149225414,9.453022201,0.8607440272060435,0.3010902399200458,0.8189399009622753,9.928463765680135,1.2256419437723605,-0.16514398600000013,-0.2933169015000001,0.2513444395000004
173542.0,-2.1940418045,-2.5023628804999998,9.67327956,0.9385525505892027,0.20995961835641386,0.8554452075969887,10.229759375054314,1.2871481790215624,-0.050308114499999945,-0.3531374664999998,0.22025735899999965
173552.0,-2.097054036,-2.68309944,9.7486926985,1.0001050773192868,0.08392241175289533,0.8184075755404171,10.326357904150882,1.2950073731744474,0.09698776850000002,-0.18073655950000012,0.07541313850000009
173562.0,-1.9965358734999998,-2.7166381829999997,9.7475159005,1.0331459053887913,-0.04291415564803658,0.7339388757316475,10.314084774811882,1.2680293213829261,0.10051816250000001,-0.033538742999999815,-0.0011767979999994793
173572.0,-1.9174942744999999,-2.647207101,9.709269965499999,1.0501995175100278,-0.1428377459832159,0.6233565596545387,10.244726106211207,1.229591415357233,0.07904159899999996,0.06943108199999992,-0.03824593500000084
173582.0,-1.8696378224999997,-2.4880451714999996,9.697207786,1.058460160859717,-0.1721470601119567,0.5332923342638753,10.184387718837398,1.1976532203509416,0.047856452000000216,0.1591619295000002,-0.012062179499999104
173592.0,-1.9139638804999999,-2.193551472,9.670925964,1.0547286469189532,-0.13351070646055824,0.48719469806020116,10.099590823263155,1.1694598330806636,-0.044326058000000224,0.2944936994999998,-0.02628182199999962
173602.0,-2.0096767845,-1.9253395945,9.681713279,1.0307478229965512,-0.0594336970181629,0.4815991724783073,10.073792997132342,1.1392590582853255,-0.09571290399999999,0.26821187749999975,0.010787314999999964
173612.0,-2.1018592944999996,-1.8092288584999998,9.698482650499999,0.9798540220083966,0.017041394816472634,0.5042483101814378,10.08720413585225,1.1021209878702782,-0.09218250999999977,0.11611073600000021,0.016769371499998798
173622.0,-2.1485389485,-1.8487496579999998,9.704464707,0.9257610325013362,0.07672816457617472,0.5175704083619104,10.109932253016595,1.0633907222413985,-0.046679654000000514,-0.03952079949999998,0.00598205650000061
173632.0,-2.1844312875,-1.9625067979999997,9.705641505,0.8857912473014141,0.08152432936065514,0.48559597646537433,10.140150393637352,1.0134474838060727,-0.03589233899999966,-0.11375713999999992,0.0011767979999994793
173642.0,-2.0300746165,-2.033114678,9.696030988,0.8570142585945316,0.041554544160732995,0.40778745308221515,10.11275309511277,0.9499951718119524,0.15435667099999995,-0.07060788000000029,-0.009610516999998708
173652.0,-1.8121708535,-1.9983991369999998,9.559620486499998,0.7989262104296564,0.00558330827712986,0.2724249522852909,9.932970661335295,0.8441146946182444,0.2179037629999998,0.03471554100000018,-0.1364105015000021
173662.0,-1.4949257259999997,-1.846396062,9.36927341,0.7560242720863838,0.0167743594409175,0.13972756925616206,9.665778063630405,0.7690109704865303,0.31724512750000033,0.15200307499999988,-0.19034707649999838
173672.0,-1.2004320265,-1.5218940134999999,9.299842328,0.6798162156273033,0.10310707089081703,0.0693803284252786,9.499698193323539,0.6910823287206176,0.2944936994999998,0.3245020485000001,-0.06943108199999948
173682.0,-1.1107011789999999,-1.3830318494999998,9.3668217475,0.5628390131708874,0.2592546977497417,0.039269908169872414,9.533298686981455,0.6209209923493958,0.08973084750000004,0.13886216400000007,0.06697941949999908
173692.0,-1.2698631084999998,-1.3196808905,9.589530769,0.46797862299574355,0.4559044352304468,0.05419247327442393,9.76284847453231,0.655583457542504,-0.15916192949999997,0.06335095899999987,0.22270902150000005
173702.0,-1.6733086895,-1.27290317,9.955809146499998,0.4269441869521049,0.615249505279025,0.09149714070655073,10.175381084366585,0.7544435162924745,-0.40344558100000016,0.04677772049999995,0.3662783774999987
173712.0,-2.0815595289999997,-1.2130826049999999,10.329344444999998,0.4328067479095538,0.670672435676105,0.12640372574643732,10.606593050682044,0.8081467062943113,-0.40825083949999974,0.0598205650000001,0.3735352985000002
173722.0,-2.293383169,-1.2418160894999999,10.57353003,0.4738411839531925,0.6285716034594978,0.13119989053091774,10.89042014135843,0.7980232700624288,-0.21182364000000042,-0.028733484500000017,0.2441855850000021
173732.0,-2.341239621,-1.1400230625,10.7387720825,0.5199388201568668,0.5302467347191453,0.10295522724589351,11.049990107952745,0.7497317888443066,-0.047856451999999994,0.10179302699999981,0.16524205250000001
173742.0,-2.270631741,-0.9999841005,10.783000074,0.5431220286111075,0.40820807743194576,0.027813566959781634,11.064756088607353,0.6799918874151046,0.07060788000000029,0.1400389620000001,0.044227991499999675
173752.0,-2.1676619159999997,-0.9341814789999999,10.7662307025,0.5468517972226193,0.2944283181651834,-0.07344345492392139,11.021940698317925,0.6254029610853704,0.10296982500000018,0.06580262150000005,-0.016769371500000574
173762.0,-2.028799752,-0.991648448,10.733966824,0.5532466836019265,0.22594683430468193,-0.14645406819334816,10.968930615920073,0.6152907109157585,0.13886216399999984,-0.057466969000000034,-0.03226387850000023
173772.0,-1.9211227349999997,-1.0346996415,10.7781948155,0.5676351779553678,0.20596281436934685,-0.18509042184474667,10.996854067956216,0.6315764723404683,0.1076770170000001,-0.043051193500000084,0.044227991499999675
173782.0,-1.7930478859999999,-1.11011278,10.874005786,0.5748311704613405,0.21928491254981955,-0.2048091517337786,11.076613784896983,0.6484315970400013,0.12807484899999988,-0.07541313849999987,0.09581097050000054
173792.0,-1.7391113109999998,-1.167579749,10.999727039,0.5777615782754388,0.23420747765437108,-0.22745828943690902,11.197399053120806,0.6636255400104139,0.05393657500000004,-0.057466969000000034,0.12572125300000003
173802.0,-1.781083773,-1.1257053535,11.048760288999999,0.578028613650994,0.2219500303176149,-0.26582935304200433,11.247869837134754,0.6738279744089072,-0.041972462000000155,0.04187439550000005,0.04903324999999903
173812.0,-1.8457095964999999,-0.9652685595,11.070334918999999,0.5809590214650925,0.1729202409705902,-0.3177895502031275,11.264577334520906,0.6844011927059382,-0.0646258234999999,0.16043679399999988,0.021574629999999928
173822.0,-1.81815291,-0.764134168,10.9505957225,0.587886233266258,0.10790498100454943,-0.3804084731061801,11.126775260985628,0.7084943998371169,0.027556686499999872,0.2011343915,-0.11973919649999942
173832.0,-1.668503431,-0.667244466,10.8584132125,0.6012100767759828,0.06447071723941854,-0.44116163903885075,11.006100870429135,0.7484875560473891,0.14964947900000003,0.09688970200000002,-0.09218250999999889
173842.0,-1.3524351015,-0.6145827555,10.761523510499998,0.6185307242727744,0.08605520409883241,-0.4758011887031821,10.863571279011865,0.7850939601049391,0.31606832949999997,0.052661710500000014,-0.09688970200000213
173852.0,-1.0256775235,-0.541523213,10.7268079695,0.6118688025179121,0.20836089676158706,-0.4771328749224539,10.789331350318221,0.8034011918871931,0.32675757800000005,0.07305954250000002,-0.03471554099999885
173862.0,-0.8964258765,-0.3978557905,10.7303383635,0.5489828442393044,0.40074679487966997,-0.4384965212710553,10.77506519596485,0.8088630020233474,0.12925164699999991,0.14366742249999997,0.0035303940000002143
173872.0,-0.941830666,-0.34038882149999994,10.957754577,0.442931402900373,0.6197786346879504,-0.3734795159757626,11.003421964233882,0.8484107098242233,-0.04540478949999993,0.057466969000000034,0.22741621349999974
173882.0,-1.2339707695,-0.41580195999999997,11.289415479999999,0.33821164778071316,0.7940445245118282,-0.30952890685343837,11.364263152971418,0.9168980149284025,-0.29214010349999997,-0.07541313850000003,0.3316609029999995
173892.0,-1.6278058334999999,-0.539169617,11.704825173999998,0.25987254430494766,0.8563981573685776,-0.2636965606960673,11.829767033267249,0.9329991529207069,-0.3938350639999999,-0.12336765700000002,0.41540969399999916
173902.0,-2.063515293,-0.644493038,12.0507057195,0.2172376413372302,0.7892483597273477,-0.25224021948597647,12.243078656059732,0.8565805825912736,-0.4357094595000002,-0.10532342100000003,0.3458805455000018
173912.0,-2.3628142509999996,-0.8264063955,12.193196343999999,0.21990275910502557,0.5957978107655483,-0.27275656484316985,12.44748471774868,0.691178991607868,-0.2992989579999996,-0.18191335749999993,0.14249062449999883
173922.0,-2.3699731054999997,-0.979684335,12.142888229499999,0.2678661522790817,0.3557138095197123,-0.31352571084050535,12.4107327934803,0.5445943088004781,-0.007158854500000089,-0.15327793950000002,-0.050308114499999945
173932.0,-2.2574908299999996,-1.007142955,11.9310645895,0.3462052557548472,0.15560133880305047,-0.35722526465193943,12.184453373794042,0.521229071958989,0.11248227550000012,-0.02745861999999999,-0.21182363999999865
173942.0,-2.1497157464999996,-0.8958374775,11.6653043745,0.427209476998408,0.02476796741505153,-0.39426464203776307,11.8955087628303,0.5818642431085551,0.10777508349999998,0.11130547749999997,-0.26576021500000024
173952.0,-2.0551796405,-0.8132654845,11.4234723855,0.4876973528847755,-0.0330547907035206,-0.4145156973486533,11.6353291936793,0.6409091905626811,0.09453610599999962,0.08257199299999995,-0.24183198899999958
173962.0,-1.9641739285,-0.6277236664999999,11.2595051975,0.5050180003815673,-0.032255429906107205,-0.42250930532278724,11.446766945972685,0.6592402494934367,0.09100571200000007,0.18554181800000014,-0.16396718800000087
173972.0,-1.898371307,-0.436199792,11.1349607425,0.47783798794025956,-0.005342452840354643,-0.42837186628023627,11.304045055412592,0.6417633055430637,0.06580262150000005,0.1915238744999999,-0.12454445499999878
173982.0,-1.7965782799999999,-0.24467591749999998,11.051211951500001,0.4277435477495183,0.026366689009878336,-0.42810483090468116,11.198966265586689,0.6057503538377949,0.10179302700000004,0.1915238745,-0.08374879099999966
173992.0,-1.699688578,-0.1213082605,11.0212036025,0.3526001421341544,0.0804579331876866,-0.4147809873949564,11.1521561056151,0.5503122811188164,0.09688970199999991,0.12336765699999998,-0.030008349000000933
174002.0,-1.6002491469999998,-0.30331968449999996,11.0188500065,0.26706679148166834,0.11909603216833706,-0.4115835442053028,11.138575116648648,0.5048856799822639,0.09943943100000019,-0.18201142399999998,-0.002353596000000735
174012.0,-1.504536243,-0.5079844699999999,11.10505046,0.2023150762326787,0.12149411456057728,-0.4366307643006734,11.218013337815565,0.49632512960526537,0.09571290399999977,-0.20466478549999995,0.08620045350000005
174022.0,-1.3357637965,-0.7091188614999999,11.1002452015,0.18073233470251682,0.08418944712845047,-0.49258776544886357,11.202792420338731,0.5314082672340743,0.1687724465,-0.2011343915,-0.004805258499999354
174032.0,-1.136983001,-0.7773731454999999,11.023655265,0.18765954650368233,0.028764771402118545,-0.5679982064397826,11.109366082431064,0.5988868674354062,0.19878079550000005,-0.068254284,-0.07658993649999957
174042.0,-0.9119203834999999,-0.7127473219999999,10.899110809999998,0.20844467256568278,-0.0314560691086938,-0.6364779449710322,10.960393422661422,0.6704795598967458,0.2250626175,0.06462582350000001,-0.12454445500000233
174052.0,-0.6713632589999999,-0.555840922,10.785451736499999,0.22603061010877765,-0.05543689303109589,-0.6711192399646156,10.820612594325507,0.7103267699205562,0.2405571245,0.1569063999999999,-0.11365907349999915
174062.0,-0.4810161825,-0.37157396849999996,10.701604878999998,0.21936868835391526,-0.02426182193197317,-0.6735173223568558,10.718852119892794,0.7087572510728372,0.19034707649999993,0.18426695350000005,-0.08384685750000109
174072.0,-0.2846870495,-0.169262779,10.596281457999998,0.18099937007807193,0.03675837937625258,-0.6647226082560563,10.601456378331346,0.6899044110235576,0.196329133,0.20231118949999996,-0.10532342099999958
174082.0,-0.1338607725,-0.0016671305000000001,10.575883626,0.11944684334798793,0.11643091440054174,-0.6516658001218868,10.576730872837471,0.6726752717786227,0.150826277,0.1675956485,-0.020397831999998672
174092.0,-0.027262487,0.09532063799999999,10.620209683999999,0.0546951280989983,0.20010025341189788,-0.6319488155621068,10.620672436308046,0.6651247807318723,0.1065982855,0.09698776849999999,0.044326057999999335
174102.0,-0.0033342610000000003,0.1934852045,10.763877106499999,0.011527899709422546,0.25525789376267466,-0.6116977602512166,10.7656164712241,0.6629205342242932,0.023928225999999997,0.09816456650000002,0.14366742250000009
174112.0,-0.070411747,0.22221868899999997,10.887146696999999,0.004600687908257053,0.2576559761549149,-0.5965081597711099,10.889641966651357,0.6497920844786332,-0.06707748599999999,0.02873348449999996,0.12326959049999964
174122.0,-0.1373911665,0.177892631,10.974523948499998,0.02778215103324574,0.19397240240814578,-0.5991732775389054,10.976825498157304,0.6304012669155542,-0.0669794195,-0.044326057999999974,0.08737725149999953
174132.0,-0.14582488549999997,0.165928518,10.987762926,0.05736024586679364,0.09538049829223812,-0.6111636895001064,10.989983225114443,0.6212154961233317,-0.008433718999999978,-0.011964112999999998,0.013238977500002136
174142.0,-0.05246557749999999,0.23065240799999998,10.918331843999999,0.06242344602682919,-0.0005462880558742252,-0.6212900898201774,10.920893893168408,0.6244184180125284,0.09335930799999997,0.06472388999999998,-0.06943108200000125
174152.0,0.0816893945,0.3060655465,10.775841219499998,0.02964790800362768,-0.06662794419488353,-0.6252868938072446,10.78049642937668,0.6295252028026681,0.13415497199999998,0.07541313850000003,-0.1424906245000006
174162.0,0.18456115299999998,0.4927841625,10.689640765999998,-0.037500144308350164,-0.09327563121433295,-0.6021054306822559,10.702584676429174,0.6104404588972164,0.10287175849999998,0.186718616,-0.08620045350000005
174172.0,0.18818961349999996,0.6962721499999999,10.487329576499999,-0.09772098481916251,-0.11325965114966803,-0.5538750021326445,10.51210216291806,0.5737200165934674,0.003628460499999986,0.20348798749999986,-0.2023111894999996
174182.0,0.169066646,0.7585443774999999,10.3700420425,-0.11957076172487953,-0.16015664815075564,-0.5085767267263837,10.399122321938718,0.5464408531342396,-0.019122967499999977,0.062272227500000055,-0.11728753399999903
174192.0,0.14749201599999998,0.7920831204999998,10.330521243,-0.09558993780247743,-0.24249430094284016,-0.4547507725948785,10.361892622327208,0.5241556900144051,-0.02157463000000001,0.033538742999999926,-0.03952079949999998
174202.0,0.18818961349999996,0.7801190075,10.3137518715,-0.011920598791121272,-0.36053615424297264,-0.40199121463634196,10.34492526137148,0.5401160577474557,0.04069759749999999,-0.011964112999999887,-0.016769371500000574
174212.0,0.30665394549999997,0.728634095,10.240692329,0.09333322707964876,-0.48843911781687305,-0.35509421763525434,10.271159801304165,0.6110448154504053,0.118464332,-0.05148491249999998,-0.07305954249999935
174222.0,0.4192342875,0.7130415214999999,10.0719198825,0.1780672169347215,-0.5856975903842571,-0.3137927462160605,10.105827809669897,0.687906598824738,0.11258034200000006,-0.015592573500000095,-0.16877244650000023
174232.0,0.4982758865,0.7477570625,9.981012236999998,0.2156389197424034,-0.6357920305749983,-0.277020404205792,10.02137838616673,0.7262726445328164,0.07904159899999996,0.03471554100000007,-0.09090764550000152
174242.0,0.5077883369999999,0.81002929,9.9067758965,0.21190915113089154,-0.6445849993465458,-0.2415814937440471,9.95279885807628,0.7202478239017502,0.009512450499999936,0.062272227500000055,-0.07423634049999883
174252.0,0.436003659,0.8303290554999999,9.911581154999999,0.19325681741482814,-0.6243339440356557,-0.20001298694929817,9.955851873306473,0.6834809917626133,-0.07178467799999994,0.0202997654999999,0.004805258499999354
174262.0,0.36657257699999996,0.7597211755,9.893536919,0.16367872258128022,-0.5947575945313597,-0.14911918596114354,9.929432233835303,0.6346367875409391,-0.06943108200000003,-0.07060787999999996,-0.018044235999997937
174272.0,0.37490822949999997,0.570550897,9.8948117835,0.12903917291694875,-0.5723737468745325,-0.11207980857531986,9.918335784671982,0.5973480541096304,0.008335652500000013,-0.1891702785,0.0012748644999991399
174282.0,0.37971348799999993,0.40658370899999996,9.8481321295,0.0943978779233653,-0.5358684402398189,-0.09316043948370133,9.863832880046353,0.5520369662316894,0.004805258499999965,-0.16396718799999999,-0.04667965400000007
174292.0,0.331857036,0.36470931349999997,9.751144361,0.06242344602682919,-0.48843911781687305,-0.08490154146326416,9.763603757053971,0.4996776262455905,-0.04785645199999994,-0.041874395499999995,-0.09698776850000002
174302.0,0.28870777599999997,0.36225765099999996,9.661315446999998,0.03231302577142302,-0.43248211666868286,-0.07930601588137033,9.672414329011742,0.4408790730208285,-0.04314926000000002,-0.002451662500000007,-0.0898289140000017
174312.0,0.261249156,0.3550987965,9.5715845995,0.0027349309378751144,-0.3616025504159412,-0.07290938417281112,9.581731473077923,0.36888977027698505,-0.02745861999999999,-0.007158854499999978,-0.08973084749999849
174322.0,0.17142024199999997,0.27850886,9.590707566999999,-0.011653563415566138,-0.29925066288844376,-0.07077833715612604,9.596281765359793,0.3077277007193858,-0.08982891400000001,-0.07658993649999996,0.019122967499999532
174332.0,0.09365350749999998,0.18152109149999998,9.6757312225,-0.0071244340066408535,-0.26567576406782883,-0.07370874497022453,9.677886937559652,0.27580309689708926,-0.07776673449999999,-0.09698776850000004,0.08502365550000057
174342.0,0.0481506515,0.09532063799999999,9.755949619499999,0.011794935084977679,-0.256083434498868,-0.07637386273801985,9.756534091955544,0.2674898368684701,-0.04550285599999998,-0.0862004535,0.08021839699999944
174352.0,0.028929617499999997,0.07502087249999999,9.8157701845,0.03444407278810809,-0.2587485522666634,-0.0798383413032286,9.816099498731587,0.2729677054018983,-0.019221034000000005,-0.020299765499999997,0.05982056500000077
174362.0,0.064920023,0.0785512665,9.7834082395,0.05069832411193128,-0.2608795992833484,-0.07850665508395693,9.7839389660592,0.2771132986387883,0.035990405499999996,0.003530394000000006,-0.03236194499999989
174372.0,0.1079712165,0.092967042,9.727216134999999,0.04883431247080134,-0.24036150859690306,-0.07530746656505133,9.728259576691766,0.2565729124633411,0.0430511935,0.014415775500000005,-0.056192104500000895
174382.0,0.15465087049999998,0.11454167199999998,9.648174535999999,0.030979594222899347,-0.20812004132481185,-0.07397578034577966,9.650093707497858,0.22303834409586154,0.04667965399999999,0.021574629999999984,-0.07904159899999996
174392.0,0.1785790965,0.128859381,9.6421924795,0.014193017477217889,-0.16655153453006288,-0.07744025891098841,9.64470689266941,0.18422228176751113,0.023928226000000025,0.014317709000000012,-0.0059820564999988335
174402.0,0.1415099595,0.128859381,9.6421924795,0.011794935084977679,-0.12258494534307374,-0.07104537253168118,9.644091746786515,0.1421746611622077,-0.037069137,0.0,0.0
174412.0,0.12356378999999999,0.1468055505,9.650528132,0.023785347046178722,-0.0967383644502897,-0.06305176455754714,9.652435604881298,0.11789647536904822,-0.01794616950000001,0.017946169499999998,0.008335652499999568
174422.0,0.12954584649999998,0.1013026945,9.687695335499999,0.04830024171969107,-0.08634667408391547,-0.06278472918199202,9.689091044867252,0.11717757334059528,0.005982056499999985,-0.045502855999999994,0.037167203499999246
174432.0,0.1677917815,0.10973641349999999,9.807434532,0.06881833240613641,-0.06449689717819845,-0.058253854443814736,9.809483587929227,0.11085722429475556,0.03824593500000001,0.008433718999999992,0.1197391965000012
174442.0,0.214569502,0.12650578499999998,9.8995189755,0.06348809687054573,-0.029057986716453592,-0.048396234828550766,9.902652156423125,0.0849546972323345,0.04677772050000001,0.01676937149999999,0.09208444349999922
174452.0,0.111599677,0.2737036015,9.9569859445,0.02991494337918281,0.013042845500153624,-0.04040088152516474,9.961372257292222,0.05193506411020389,-0.102969825,0.14719781650000002,0.057466969000000034
174462.0,0.0361865385,0.359904055,10.0036655985,-0.015650367402633154,0.0532796660756309,-0.02174854780910134,10.010203084902244,0.05963770744061934,-0.0754131385,0.0862004535,0.04667965400000007
174472.0,-0.0057859235,0.33950622299999994,9.997683541999999,-0.054553756429586764,0.08392241175289533,-0.0020315632493213996,10.00344811344289,0.10011598665666326,-0.041972461999999995,-0.02039783200000006,-0.00598205650000061
174482.0,-0.0571727695,0.28449091649999997,10.0252402285,-0.07054097237785481,0.09911026690375001,0.01342332727708839,10.029438939755206,0.12238896806875064,-0.051386846,-0.05501530649999997,0.027556686500000538
174492.0,-0.09669356900000001,0.20191892349999999,10.027691891,-0.0633467252011342,0.09378177669741132,0.023015656846049223,10.030190704008598,0.11548830977326763,-0.03952079950000001,-0.08257199299999998,0.0024516625000003955
174502.0,-0.12660385149999998,0.177892631,10.0383811395,-0.042031019046527444,0.06633647420980048,0.02727949620867137,10.040755460882815,0.08313426060341182,-0.02991028249999997,-0.02402629249999999,0.010689248500000303
174512.0,-0.130232312,0.161221326,10.065937825999999,-0.01005484182073933,0.025567328212464935,0.02088460982936415,10.068071170186654,0.034510216511763114,-0.0036284605000000136,-0.016671304999999997,0.02755668649999876
174522.0,-0.142196425,0.18995481049999996,10.0564253755,0.01952325301280857,-0.0072082098107365804,0.015289084247470327,10.059224323292288,0.025823860943011277,-0.011964112999999998,0.02873348449999996,-0.009512450499999048
174532.0,-0.14582488549999997,0.22467035149999998,9.986994293499999,0.03391174736624982,-0.021064378742319565,0.012623966479674986,9.990585402391382,0.04186978852242024,-0.003628460499999986,0.034715541000000016,-0.06943108200000125
174542.0,-0.1230734575,0.253403836,9.9103062905,0.023785347046178722,-0.01573414320672888,0.010492919462989908,9.914309423836054,0.030387618455775832,0.022751427999999976,0.028733484500000017,-0.07668800299999923
174552.0,-0.11709140099999998,0.27252680349999997,9.863626636500001,0.0032690016889853793,0.01357691625126389,0.011824605682261582,9.868085512351744,0.01829864274959746,0.005982056500000013,0.019122967499999977,-0.046679653999998294
174562.0,-0.16014259449999999,0.2868445125,9.8612730405,-0.013784610432251213,0.04768414049373708,0.019018852858982208,9.866743708246236,0.05315552185302107,-0.0430511935,0.014317709000000012,-0.002353596000000735
174572.0,-0.143373223,0.231829206,9.876865614,-0.017249088997459958,0.07139967436983603,0.020352284407505875,9.88062624628842,0.07622112602136577,0.01676937149999999,-0.05501530649999997,0.015592573499999318
174582.0,-0.187699281,0.18152109149999998,9.948650292,-0.013519320385948075,0.0836553763773402,0.015022048871915194,9.952076344123318,0.08606193103133679,-0.044326058,-0.05030811450000003,0.07178467800000021
174592.0,-0.2380073955,0.17073377649999996,9.995329945999998,-0.010854202618152736,0.07805985079544639,0.006496115475922894,9.999620906422152,0.07907814828990238,-0.0503081145,-0.01078731500000002,0.046679653999998294
174602.0,-0.2846870495,0.187503148,10.047991656499999,-0.010587167242597603,0.05461135229490257,-0.004429645641561609,10.053772449969042,0.05580420835573691,-0.046679654000000015,0.016769371500000047,0.05266171050000068
174612.0,-0.29900475849999997,0.161221326,10.0576021735,-0.011653563415566138,0.028764771402118545,-0.008958775050486893,10.063337301410241,0.032302898701230896,-0.014317708999999956,-0.02628182200000001,0.009610517000000485
174622.0,-0.30743847750000003,0.16475172,10.087512455999999,-0.017516124373015092,0.013042845500153624,-0.0076270888312152205,10.093540959279137,0.023132291625151603,-0.008433719000000062,0.0035303939999999923,0.029910282499999497
174632.0,-0.3409772205,0.1599464615,10.0444612625,-0.0276407793638342,0.007182029871956666,-0.007360053455660088,10.051519804950363,0.029491772137191324,-0.03353874299999998,-0.0048052584999999925,-0.04305119349999842
174642.0,-0.3576485255,0.165928518,9.995329945999998,-0.04096462287355891,0.009580112264196876,-0.007894124206770351,10.00310279214816,0.04280415955441059,-0.01667130499999997,0.005982056499999999,-0.04913131650000224
174652.0,-0.40913343799999996,0.183972754,9.916288346999998,-0.052955034834759954,0.008780751466783471,-0.0020315632493213996,9.926429908338244,0.05371652036299498,-0.05148491249999998,0.01804423599999999,-0.07904159899999996
