timestamp,ax,ay,az,gx,gy,gz,acc_mag,gyro_mag,dax,day,daz
170022.0,-1.4507958009999997,3.6777879494999994,8.897181279,-0.020093975678210717,0.3720064580870794,0.03622605395439431,9.736055020852888,0.37430589055230906,0.0,0.0,0.0
170032.0,-1.0652963895,3.8286142264999996,9.04565396,-0.029153979825313283,0.41490665110110003,0.2155551439383077,9.880131520222976,0.46846718534583537,0.38549941149999967,0.15082627700000018,0.14847268099999944
170042.0,-1.079712165,3.5867822375,9.232372576,0.022539181960254773,0.436756428006817,0.35225107628375557,9.96330710961834,0.5615558857956843,-0.014415775499999839,-0.24183198899999958,0.18671861600000028
170052.0,-1.3059515805,3.4610609845,9.426348113,0.14964278473674184,0.35708389298252785,0.40820807743194576,10.126227896729226,0.5626150585720309,-0.22623941550000004,-0.12572125300000003,0.19397553700000003
170062.0,-1.338215459,3.397611959,9.636994955,0.3279054785476867,0.2190562744178083,0.38715766132364215,10.30564211494567,0.5526289070841206,-0.03226387850000001,-0.0634490255000002,0.21064684200000094
170072.0,-1.2125922724999998,3.5281384704999996,9.8728448875,0.5005726467767377,0.10341250350991602,0.3301342640024834,10.554203298164369,0.6084864442629091,0.12562318650000015,0.13052651149999983,0.23584993249999897
170082.0,-0.9935117115,3.9076558254999996,10.136251506499999,0.6244788063635711,0.027469737097138753,0.2904315141781164,10.908732014972008,0.6892596248738568,0.21908056099999984,0.37951735499999995,0.2634066189999995
170092.0,-0.6546919539999999,4.3265959135,10.4186830265,0.6961559880844742,-0.003972369377539094,0.2920302357729432,11.30031016211619,0.7549374795769137,0.33881975750000004,0.4189400880000007,0.28243152000000116
170102.0,-0.22976980949999998,4.7216077755,10.803005639999999,0.7230689651502269,0.013081242743697501,0.3359968249599324,11.792001738843643,0.7974294411785252,0.42492214449999993,0.3950118619999996,0.3843226134999984
170112.0,0.203586054,5.061604331,11.118975902999999,0.6958906980381712,0.08182801665050214,0.4308572151350762,12.218547819461849,0.8225555469139828,0.4333558635,0.33999655549999996,0.31597026300000053
170122.0,0.5113187309999999,5.3788494585,11.4793702905,0.6028943195041573,0.2020026622965717,0.5704835552946226,12.687372092292843,0.8542471088197352,0.30773267699999995,0.31724512750000056,0.3603943875000013
170132.0,0.48376204449999993,5.623035043499999,12.013244316499998,0.4840531054066114,0.3378992338446062,0.7415520019288467,13.272926874809768,0.9478305083986462,-0.027556686499999983,0.24418558499999854,0.5338740259999977
170142.0,0.154552804,5.6781484165,12.7746326225,0.38599352671256193,0.4236996198726474,0.9272759782920673,13.980575619368,1.0901160995333192,-0.32920924049999994,0.055113373000001076,0.7613883060000024
170152.0,-0.2656621485,5.5512503655,13.612610864999999,0.3191125097761392,0.3946555957902098,1.0796920912102281,14.703405440901285,1.1930301106870973,-0.42021495249999996,-0.1268980510000004,0.8379782424999984
170162.0,-0.6103658959999999,5.3321698045,14.239844198999998,0.24237038256594853,0.252097102487313,1.1822807993132027,15.21767867195307,1.2329169638918627,-0.34470374749999994,-0.21908056099999929,0.6272333339999996
170172.0,-0.7767847465,5.1334870755,14.546302011499998,0.13658597660257224,0.04798782778358409,1.2456990830136687,15.445095865888613,1.2540832372856916,-0.16641885050000005,-0.1986827290000006,0.3064578124999997
170182.0,-0.7804132069999999,4.9634397644999995,14.5774871585,0.009749409201640325,-0.1422670233178138,1.2909973584199297,15.419076202085268,1.2988491584286177,-0.003628460499999986,-0.17004731100000026,0.03118514700000219
170192.0,-0.7767847465,4.8856730299999995,14.4637300185,-0.10855947947404729,-0.28935464602963595,1.3360303437798875,15.28635605847654,1.3713089918990602,0.003628460499999986,-0.07776673449999993,-0.11375714000000059
170202.0,-0.7408924075,4.8640984,14.236313804999998,-0.22580371730601836,-0.370891192695055,1.3959841489151446,15.06256968643821,1.4619573658593183,0.035892338999999995,-0.021574629999999928,-0.22741621350000152
170212.0,-0.7744311504999999,4.6809101779999995,14.1177514065,-0.322262829075989,-0.39220864417891377,1.4681954013871579,14.893675452254943,1.553473105086509,-0.033538742999999926,-0.18318822200000007,-0.11856239849999817
170222.0,-0.9300626859999999,4.4642812795,14.112946147999999,-0.3851487873545967,-0.3735563104628503,1.5412060146565847,14.831388098176506,1.6319313359026375,-0.15563153549999997,-0.21662889849999978,-0.0048052585000011305
170232.0,-1.1107992455,4.2571648315,14.163254262499999,-0.44616898866282245,-0.362897584720921,1.5968959804292198,14.830883273446265,1.69730321267347,-0.18073655950000012,-0.20711644799999984,0.050308114499999945
170242.0,-1.220927925,4.054853642,14.314080539499999,-0.5170468095863122,-0.3604995023286808,1.63313599701763,14.927337496934209,1.7505514786024943,-0.11012867950000005,-0.2023111894999996,0.15082627700000018
170252.0,-1.3335082669999998,3.929132389,14.4074398475,-0.5943212622183611,-0.36369694551833437,1.6656444996652764,14.993019995577175,1.805509576316166,-0.11258034199999978,-0.12572125300000048,0.09335930800000014
170262.0,-1.4280443729999999,3.9136378819999997,14.5331611005,-0.6729274010696817,-0.36716142408354313,1.6994846885321946,15.118486821628967,1.8643730863217325,-0.09453610600000006,-0.015494507000000102,0.12572125300000003
170272.0,-1.5991704155,3.938742906,14.7545952575,-0.7488701674824589,-0.3818169538125395,1.7349235989939393,15.354775247785858,1.9278357316716526,-0.17112604250000008,0.025105024000000142,0.2214341570000009
170282.0,-1.7285201289999998,3.8190037094999996,15.032319585499998,-0.810422694212543,-0.42924627623548545,1.7684984978145544,15.605870795637768,1.9921406189647062,-0.1293497134999999,-0.11973919650000031,0.2777243279999979
170292.0,-1.8338435499999999,3.7017161755,15.305238654999998,-0.8882294722664502,-0.49559671307930186,1.8028727574325825,15.852949728562855,2.0700043180897736,-0.10532342100000003,-0.11728753399999947,0.27291906950000033
170302.0,-1.9619183989999998,3.5939410919999997,15.4789144265,-1.000942835360244,-0.5608790084208978,1.8287193383253666,16.01131875268276,2.15886225593746,-0.12807484899999988,-0.10777508350000042,0.17367577150000102
170312.0,-2.121178395,3.5042102444999994,15.487250079,-1.149896215042448,-0.6109734486116389,1.8564316761885327,16.01979407578509,2.2675732465862075,-0.15925999600000007,-0.08973084750000027,0.008335652500001345
170322.0,-2.3378072934999996,3.5831537769999997,15.342405858499998,-1.3220310578496406,-0.6322909000954978,1.8748169745290408,15.927766681431086,2.379600089982525,-0.21662889849999978,0.0789435325000003,-0.14484422050000312
170332.0,-2.6083727669999996,3.615515722,15.17481021,-1.4787110101304237,-0.6123068801601627,1.8684220881497338,15.816144515563098,2.4601843561932957,-0.27056547350000004,0.032361945000000336,-0.1675956484999972
170342.0,-2.9304231529999996,3.6873004,15.027514327,-1.5914243732242175,-0.5845945422969967,1.8580303977833594,15.748325337751595,2.5152851277067017,-0.3220503859999999,0.07178467799999977,-0.14729588299999996
170352.0,-3.1171417689999994,3.7244676035,14.921014108,-1.6892151712134598,-0.5496879572571102,1.823656138165331,15.691554854401794,2.545844939362824,-0.18671861599999984,0.037167203500000134,-0.10650021900000084
170362.0,-3.2764017649999997,3.6766111515,14.745082806999998,-1.8133866208465965,-0.5033232856778808,1.7722282664260662,15.545730766686917,2.585052880482439,-0.1592599960000003,-0.047856451999999994,-0.1759313010000021
170372.0,-3.4391921549999998,3.6849468039999995,14.506781211999998,-1.9650051182965957,-0.4553598925038246,1.714672543683049,15.357525085773407,2.6473948852963756,-0.16279039000000006,0.008335652499999568,-0.23830159499999937
170382.0,-3.5516744305,3.627479835,14.1512901495,-2.120086348982552,-0.38288160465625604,1.639530883396937,15.03436111409244,2.7072912602708,-0.11248227550000012,-0.05746696899999959,-0.35549106249999873
170392.0,-3.7025007074999996,3.544907842,13.8639553045,-2.2661075755214055,-0.30747290899458907,1.5526641011959275,14.781209009498674,2.7641542910524466,-0.15082627699999973,-0.08257199299999973,-0.28733484500000017
170402.0,-3.9730661809999996,3.520979616,13.531215669999998,-2.3873468720111917,-0.2882882498566674,1.4868477351032214,14.535348287638207,2.8272338760153217,-0.27056547350000004,-0.02392822600000022,-0.3327396345000011
170412.0,-4.187341483499999,3.4730250975,13.175626540999998,-2.47288196799293,-0.3362516430307235,1.4202320082131017,14.254573538875459,2.8714577051070185,-0.2142753024999995,-0.0479545185000001,-0.35558912900000017
170422.0,-4.4195629555,3.3294557414999995,12.755509655,-2.527240247546293,-0.43830628038258795,1.357346049934494,13.903986435948267,2.9019724263875153,-0.23222147200000087,-0.14356935600000043,-0.42011688599999886
170432.0,-4.512922263499999,3.164213689,12.168875852,-2.5544202599876007,-0.5829958207021698,1.2872675898084176,13.358901718608369,2.9192473069889937,-0.09335930799999925,-0.16524205249999957,-0.5866338029999998
170442.0,-4.574017693,2.9463099259999996,11.503298516500001,-2.542428102697148,-0.708233666508275,1.212391219568609,12.725103410017315,2.904380838155877,-0.0610954295000008,-0.21790376300000025,-0.6655773354999983
170452.0,-4.5943174585,2.7859711985,10.770643695,-2.501126631277954,-0.7841746875918003,1.1316522883713513,12.036451056395016,2.855030869907298,-0.0202997654999999,-0.16033872749999967,-0.7326548215000006
170462.0,-4.576371289,2.6027829764999995,10.114676876499999,-2.4526309126820394,-0.7692538678165008,1.037591258993621,11.402821655780883,2.7719569851882886,0.017946169500000053,-0.1831882220000005,-0.6559668185000014
170472.0,-4.484188779,2.3190765919999996,9.482540217499999,-2.421988167004775,-0.6597362025831086,0.9240785351024137,10.74265489633623,2.674920499219921,0.09218250999999977,-0.28370638449999985,-0.6321366590000004
170482.0,-4.389652673,2.0700857485,9.044477162,-2.4171920022202946,-0.43590819799034775,0.7865849872888044,10.264349600907913,2.5790597268968156,0.09453610600000051,-0.24899084349999967,-0.4380630554999989
170492.0,-4.398086392,1.819918107,8.801468374999999,-2.4262502610381453,-0.1718433728221097,0.6317690466491513,10.006053736803894,2.513036530230813,-0.008433719000000117,-0.25016764150000004,-0.24300878700000084
170502.0,-4.502233015,1.6211373115,8.7535138565,-2.4350432298096925,0.04052654523130833,0.4774871767606087,9.976081051195953,2.4817477583109087,-0.1041466230000001,-0.19878079549999983,-0.04795451849999921
170512.0,-4.687774833,1.4020567505000001,8.721249978,-2.4361096259826613,0.16469799486444492,0.32640275006171954,10.000059859585631,2.463390812389622,-0.18554181799999991,-0.21908056099999995,-0.03226387850000023
170522.0,-4.726020768,1.02381426,8.601510781499998,-2.4366436967337712,0.2067988270810521,0.15160453481598343,9.867596245429146,2.450098405103617,-0.03824593499999995,-0.37824249050000014,-0.1197391965000012
170532.0,-4.685323170499999,0.7736466184999999,8.4040048505,-2.431046425822626,0.20333434851584337,-0.03092199835758354,9.652879354346462,2.4397310818558986,0.04069759750000035,-0.25016764150000004,-0.19750593099999847
170542.0,-4.5464610064999995,0.735302617,8.1166700055,-2.4099960097143223,0.196674172090233,-0.23716406540724946,9.33227247782529,2.4296107282292834,0.13886216399999984,-0.03834400149999995,-0.28733484500000017
170552.0,-4.3501318735,0.680189244,7.785107169,-2.3873468720111917,0.22305307840487532,-0.4194253085345133,8.943947582433,2.4341518754027622,0.19632913299999988,-0.055113372999999966,-0.33156283649999985
170562.0,-4.218428564,0.6120330265,7.428341242,-2.371891981484782,0.2811428718990026,-0.5539884485340241,8.564460145432166,2.4519005051919542,0.13170330949999975,-0.0681562175,-0.35676592699999965
170572.0,-4.2077393155,0.45394982849999993,7.1350243405,-2.3548383693635455,0.353354124371016,-0.6627050076407509,8.29576475881079,2.4716999838550184,0.010689248500000303,-0.1580831980000001,-0.2933169014999999
170582.0,-4.2328443395,0.109246081,6.79993111,-2.3321892316604145,0.43062683167381294,-0.771955637498588,8.01049118402841,2.4940853206528586,-0.025105024000000142,-0.34470374749999994,-0.33509323050000006
170592.0,-4.2818775895,-0.2187863615,6.547311806,-2.280763105250402,0.5039044803187949,-0.889198130001307,7.826214605313843,2.4992945768665673,-0.04903324999999992,-0.32803244249999997,-0.25261930400000043
170602.0,-4.218428564,-0.5024927459999999,6.362946785999999,-2.20934946824655,0.5851757369379108,-1.0288244701608533,7.650799324960853,2.506418860913694,0.06344902549999976,-0.28370638449999996,-0.18436502000000043
170612.0,-4.2064644509999995,-0.753935252,6.221731026,-2.150462059284261,0.6842999664756768,-1.182306979251983,7.548026132812872,2.547666246926325,0.011964113000000332,-0.25144250600000007,-0.1412157599999997
170622.0,-4.2771703975,-0.848471358,6.028932287,-2.116087799666233,0.7802267528237891,-1.333658441326427,7.440572207554182,2.620157666981029,-0.0707059465000004,-0.09453610599999995,-0.19279873899999966
170632.0,-4.332185704,-0.9466359245,5.912821551,-2.07958249303152,0.8777522607667282,-1.4860745542445877,7.3909005703950585,2.7025043861902507,-0.05501530649999964,-0.09816456650000005,-0.11611073599999955
170642.0,-4.250790509,-1.0172438045,5.8912469210000005,-2.0260235742755697,0.9731449763637303,-1.6480829967317097,7.3355841753326025,2.787106067708671,0.08139519499999981,-0.07060788000000007,-0.021574629999999928
170652.0,-4.192146742,-0.859258673,5.922432068,-1.9599419181365605,1.0312347698578577,-1.809826149172528,7.306683336074014,2.860120305732133,0.058643766999999514,0.15798513150000004,0.031185146999999525
170662.0,-3.9718893829999997,-0.7514835894999999,5.9511655525,-1.877871300720031,1.0240387773518849,-1.948920163910216,7.194234100259634,2.893673417109144,0.22025735900000054,0.10777508350000009,0.028733484500000017
170672.0,-3.6450337385,-0.6270372009999999,5.936749777,-1.7766160241655797,0.974478407912254,-2.043513518709805,6.994601098057755,2.8778325465458967,0.3268556444999997,0.1244463885,-0.014415775499999839
170682.0,-3.3074888455,-0.4055049775,5.832603153999999,-1.666033708088471,0.9081279710684376,-2.107464127832129,6.717378677872414,2.8358014349427103,0.337544893,0.22153222349999996,-0.10414662300000099
170692.0,-2.9518997165,-0.248696644,5.6626539094999995,-1.5618462783906697,0.8702909782144524,-2.1386409442605037,6.390712891046293,2.7875715726330172,0.35558912900000017,0.15680833349999998,-0.1699492444999997
170702.0,-2.5975854519999997,-0.21643276549999999,5.437591292,-1.4749794961896598,0.8876098803819922,-2.1381086188386456,6.030065702897295,2.744981653833726,0.35431426450000014,0.03226387850000001,-0.2250626174999999
170712.0,-2.38693861,-0.235555733,5.2951006675,-1.4033005691395048,0.9334422265393634,-2.1282492538941296,5.813007269066231,2.714776558823017,0.2106468419999996,-0.019122967500000004,-0.14249062449999972
170722.0,-2.2384659289999997,-0.295376298,5.114364107999999,-1.3398840307682909,1.0059205143869319,-2.1213202967637117,5.590590049530787,2.703176853007223,0.14847268100000033,-0.05982056499999999,-0.18073655950000056
170732.0,-2.15942433,-0.48690017249999995,4.924017031499999,-1.2823265626960219,1.1103732341310366,-2.123453089109649,5.39871548995486,2.7177827643356123,0.07904159899999996,-0.19152387449999997,-0.19034707650000016
170742.0,-2.121178395,-0.6066393689999999,4.8545859495,-1.2189100243248077,1.2420059663164487,-2.1474339130320512,5.332392882048199,2.7640175250177603,0.03824593499999995,-0.11973919649999998,-0.06943108199999948
170752.0,-2.120001597,-0.73353742,4.8294809254999995,-1.1347066145623415,1.3539199686128291,-2.1972630631764893,5.325069945793308,2.81933030192275,0.0011767979999999234,-0.12689805100000007,-0.025105024000000142
170762.0,-2.1306908454999998,-0.873576382,4.8964603449999995,-1.030253894818237,1.4205356955029487,-2.2572168683117466,5.410942901606265,2.8590859974084872,-0.01068924849999986,-0.140038962,0.06697941949999997
170772.0,-1.9954571419999998,-0.9813514655,4.964714629,-0.9242024534793053,1.4458499509738745,-2.3203681166366574,5.439971622334478,2.8859557260034796,0.13523370349999997,-0.10777508349999998,0.06825428400000089
170782.0,-1.835020348,-0.9777230049999999,5.024535194,-0.8170846159674053,1.4394550645945672,-2.379789596350056,5.437756510531241,2.8988026279023402,0.16043679399999977,0.003628460500000097,0.05982056499999988
170792.0,-1.603975674,-0.950264385,4.99943017,-0.7062352645147415,1.3845627142900936,-2.4029710594750453,5.335732600954569,2.8618267018324466,0.23104467400000006,0.027458619999999878,-0.025105024000000142
170802.0,-1.267607579,-0.7946328495,4.8989120075,-0.5863276542442271,1.3038255284220879,-2.3736600000170522,5.122266021700788,2.770920952026172,0.33636809499999987,0.15563153549999997,-0.10051816250000023
170812.0,-0.907311258,-0.7359890825000001,4.628346533999999,-0.47707702438639,1.2531970174802363,-2.3129068340843815,4.773519172187595,2.6735076725105857,0.3602963210000001,0.05864376699999996,-0.2705654735000005
170822.0,-0.6116407604999999,-0.8544534144999999,4.46790974,-0.36569709284111984,1.2790435983730204,-2.2233766794448284,4.589816173033795,2.590963285913284,0.2956704975000001,-0.11846433199999984,-0.16043679399999977
170832.0,-0.5385812179999999,-0.859258673,4.4260353445,-0.23299796448273902,1.337398681913451,-2.1415713520746023,4.540725059533039,2.5355968019114505,0.07305954250000002,-0.004805258500000131,-0.04187439549999983
170842.0,-0.5565273875,-0.9549715769999999,4.531358765499999,-0.08191353778384987,1.3808329456785817,-2.0986711590605815,4.664215443950796,2.5135294081065256,-0.017946169500000053,-0.09571290399999988,0.10532342099999958
170852.0,-0.5445632745,-0.9789978695,4.7180773815,0.07796385768658669,1.38136527110044,-2.1029349984232035,4.849251505772989,2.5172572341540635,0.011964112999999998,-0.0240262925000001,0.18671861600000028
170862.0,-0.3913834015,-0.9262380925,4.883319434,0.2271825274150939,1.353652933237274,-2.1415713520746023,4.985770418445862,2.5436815878665366,0.15317987299999997,0.05275977700000001,0.16524205250000001
170872.0,-0.16867437999999998,-0.7144144524999999,5.012571081,0.3361661218973758,1.3320701917071123,-2.1818081726500793,5.066034731275217,2.578314480312443,0.22270902150000002,0.2118236400000001,0.12925164700000025
170882.0,0.1856398845,-0.5647649735,5.123974625,0.4091767351668026,1.3096880893795368,-2.188735384451245,5.158346401673071,2.583267519095404,0.3543142645,0.14964947899999992,0.11140354399999985
170892.0,0.562705577,-0.5228905779999999,5.2568547325,0.48112095226326085,1.2793106337485756,-2.153563509365055,5.3126804723751,2.550676156864611,0.3770656925,0.04187439550000005,0.13288010750000012
170902.0,0.897896874,-0.363630582,5.3166752975,0.5613258127094083,1.2412066055190354,-2.09494139044907,5.404209675387452,2.4988917413554845,0.33519129699999994,0.15925999599999996,0.05982056499999988
170912.0,1.0727494435,-0.200840192,5.3298162085,0.6370015437466304,1.220423224786287,-2.0293920597319186,5.440410735196513,2.4522715890448,0.17485256950000005,0.16279038999999998,0.01314091099999981
170922.0,1.210336743,0.0350097405,5.3334446689999995,0.7100121570160572,1.196440655534633,-1.9854254705449295,5.469165635695288,2.4243559566233857,0.13758729950000004,0.2358499325,0.003628460499999875
170932.0,1.337234794,0.24810824499999998,5.358549693,0.8096687119756815,1.1724598316122308,-1.9699705800185197,5.52845452254711,2.4312567873499176,0.12689805099999996,0.21309850449999998,0.025105024000000142
170942.0,1.506105307,0.344997947,5.4016989529999995,0.9055954983237938,1.1703270392662937,-1.966506101453311,5.618338576309643,2.461080013424031,0.1688705129999999,0.09688970200000005,0.043149259999999856
170952.0,1.6976291815,0.552114395,5.347762378,0.9703472135727834,1.2169587462210782,-1.9539816187409995,5.6378486672310375,2.498120587815997,0.19152387450000008,0.207116448,-0.05393657499999982
170962.0,1.926222193,0.6394916465,5.3849295815,1.0201746183879696,1.303558493046533,-1.9329312026326961,5.754715292737146,2.5448465633330173,0.2285930115000001,0.08737725149999997,0.037167203500000134
170972.0,2.099799898,0.5796710815,5.566842939,1.0625424859801318,1.4077459227443343,-1.8966929313735377,5.977869058607954,2.590017218753281,0.17357770500000003,-0.05982056499999999,0.18191335750000004
170982.0,2.237485264,0.564078508,5.797887612999999,1.1129039615464282,1.4951450303672023,-1.8284784828885914,6.240194359375635,2.6110050654573693,0.13768536599999992,-0.015592573499999984,0.23104467399999962
170992.0,2.3990988559999997,0.653907422,6.137884168499999,1.181917770828788,1.5492362745450108,-1.720828319954833,6.62245364674832,2.599675510159983,0.1616135919999997,0.08982891399999993,0.33999655549999996
171002.0,2.4613710834999996,0.7975748444999999,6.546135007999999,1.2637213528697624,1.5569645924728415,-1.5740077326185662,7.038917302130514,2.549241209116184,0.06227222749999983,0.14366742249999997,0.40825083949999996
171012.0,2.343985483,0.8011052384999999,7.076380573499999,1.3790998337313514,1.4690314140988634,-1.4111981840047791,7.497412858358213,2.45996950419015,-0.11738560049999958,0.0035303939999999923,0.5302455654999996
171022.0,2.2625902879999997,0.653907422,7.486985009,1.5259204210676183,1.2865048809252961,-1.265976318263339,7.848684874097656,2.3635194051412793,-0.08139519500000025,-0.14719781649999997,0.4106044355000007
171032.0,2.1597185295,0.4898421675,7.7120476265,1.661816992615653,1.075733684466705,-1.1545946413888168,8.023715353197112,2.291708415738402,-0.10287175849999963,-0.16406525449999998,0.22506261750000078
171042.0,2.1177460674999997,0.39530606149999997,7.74921483,1.7718652379416513,0.8785516215641417,-1.0733233847697008,8.04309926397544,2.2501960940043637,-0.04197246200000038,-0.09453610600000001,0.037167203499999246
171052.0,2.1034283584999995,0.4982758865,7.679783748,1.8462092827596017,0.7386582460290402,-1.0147012658537153,7.978205821765586,2.232425447601678,-0.014317709000000178,0.10296982500000001,-0.06943108199999948
171062.0,2.0135994445,0.6861713005,7.521700549999999,1.9128250096497215,0.696822703858736,-0.9683383396037378,7.816737998704502,2.254360339009933,-0.08982891399999948,0.18789541399999998,-0.1580831980000008
171072.0,2.0100690505,0.8442544984999999,7.563673011999999,1.9733111402068368,0.7511827287413515,-0.9499512959339776,7.8716130925289125,2.3153055549258186,-0.0035303940000002143,0.15808319799999992,0.04197246199999949
171082.0,2.014874309,1.04538889,7.744409571499999,2.0239396511486882,0.8513716091228339,-0.9379608839727767,8.070219081508535,2.3876632819925154,0.004805258500000242,0.2011343915,0.18073655950000056
171092.0,2.0914642454999997,1.2392663605,8.0915649815,2.0460547181007085,0.9678164861573916,-0.9006562165406499,8.448871383345168,2.4360193514694273,0.07658993649999957,0.19387747050000015,0.34715541000000005
171102.0,2.1644257215,1.3422361854999998,8.4985409565,2.034863666936921,1.0701381588848111,-0.8409694467809478,8.8719521567051,2.448079948151285,0.07296147600000014,0.10296982499999974,0.40697597499999993
171112.0,2.16923098,1.4500112689999998,8.965435563,2.013013890031204,1.115169398915517,-0.776217731531958,9.337404915667086,2.4286501758138765,0.004805258500000242,0.10777508349999998,0.46689460650000036
171122.0,2.0722432115,1.464328978,9.427524910999999,2.0345983768906177,1.0605440839865983,-0.6960128710858107,9.76302602838607,2.397660990641092,-0.09698776850000002,0.014317709000000178,0.46208934799999923
171132.0,1.9765303075,1.570829197,9.8273420315,2.1166672489778953,0.9153222182451581,-0.6184731284074586,10.146468736792139,2.3875937712833393,-0.09571290399999999,0.10650021899999995,0.3998171205000016
171142.0,1.8639499654999998,1.6726222239999997,10.203230926,2.2205876433001412,0.7306646380549061,-0.5590516486940597,10.506088516064814,2.403626227346658,-0.11258034200000022,0.10179302699999981,0.3758888944999992
171152.0,1.9094528214999997,1.9767264404999998,10.3445447525,2.2941323273206784,0.5156296022336927,-0.518015467321169,10.703413644000749,2.4077493736561197,0.045502855999999925,0.3041042165000001,0.14131382649999935
171162.0,2.0949946395,2.39086127,10.263051490999999,2.311718264863773,0.3642781401592485,-0.468453352552286,10.744088889190978,2.3866689010041027,0.18554181800000014,0.4141348295,-0.08149326150000036
171172.0,2.2326800055,2.8828609005,10.1027127635,2.2978620959321905,0.33123731208974383,-0.3965091354558278,10.740602970056056,2.355229896070073,0.13768536599999992,0.49199963050000006,-0.16033872749999922
171182.0,2.397922058,3.1869651169999997,10.0009197365,2.284539997751718,0.3967866428068949,-0.3123074710226133,10.76685527111482,2.339679165546833,0.16524205250000001,0.30410421649999986,-0.10179302699999937
171192.0,2.500891883,3.3557375635,10.0560331095,2.2837406369543043,0.5182929746722361,-0.22224324563194994,10.892164004682469,2.3523373407528245,0.10296982500000018,0.16877244650000023,0.0551133729999993
171202.0,2.5296253675,3.5580487529999996,10.1170304725,2.310386578644502,0.6520584992035855,-0.1292468670979361,11.01875768905542,2.4041154676551857,0.028733484500000017,0.2023111894999996,0.06099736300000025
171212.0,2.5308021655,3.7507494254999996,10.460655488499999,2.3535538070340776,0.7682363408625881,-0.05223944984144228,11.397297666678414,2.476314107326911,0.0011767979999999234,0.1927006725,0.34362501599999895
171222.0,2.4505837685,3.7723240555,11.0280682575,2.4071127257900273,0.833785671579739,0.030895818418803622,11.910251008195365,2.5476155071728814,-0.08021839699999989,0.021574630000000372,0.5674127690000006
171232.0,2.274554401,3.8824527349999993,11.7786692485,2.442019310829914,0.8201965380237113,0.13081940875398299,12.608889175029535,2.579398067991645,-0.17602936749999998,0.11012867949999938,0.7506009910000007
171242.0,2.07704847,4.039261068499999,12.6034085135,2.4185708123293703,0.7367924890586582,0.23314108148140256,13.396852857458477,2.539035783532623,-0.19750593100000025,0.1568083334999999,0.8247392649999998
171252.0,1.9322042495,4.241572258,13.416281731999998,2.3325033909257735,0.5787808505586036,0.33652915038179065,14.202850558744112,2.4266872914964264,-0.1448442204999998,0.2023111895000005,0.8128732184999983
171262.0,1.8951351125,4.5599941835,13.867583765,2.182483615070601,0.3738704697282093,0.440449544704037,14.720562609067485,2.257655788559546,-0.03706913700000003,0.31842192550000004,0.45130203300000105
171272.0,2.019581501,4.7108204605,14.0938231805,2.0055526074789283,0.21186202724108766,0.5398390642881061,14.996879365169473,2.0877147782404784,0.12444638849999978,0.15082627700000018,0.22623941550000026
171282.0,2.16923098,4.898813940999999,14.053125582999998,1.8059724621841244,0.10127971116397895,0.6674749924864514,15.03975663781488,1.9280344861167904,0.14964947900000025,0.18799348049999942,-0.04069759750000124
171292.0,2.1668773839999997,5.142999526,13.659290518999999,1.6077240031085924,0.06557376532667895,0.8124315681815886,14.755406439816227,1.802531953072852,-0.002353596000000291,0.24418558500000032,-0.39383506399999924
171302.0,2.0986230999999997,5.187325584,13.1900423165,1.43612323105251,0.14577862577282635,0.9739076852468519,14.327937113951025,1.7413206258135794,-0.068254284,0.044326058000000224,-0.4692482024999993
171312.0,1.962114532,4.8114366895,13.045198096,1.3375313269366025,0.3243083549593263,1.1260567627894575,14.041973145453396,1.7782490806006581,-0.13650856799999977,-0.37588889450000007,-0.14484422049999957
171322.0,1.5970129524999999,4.3960269955,13.441386756,1.3119517814193737,0.5140308806388659,1.2619533343374918,14.23187906216146,1.891552653527083,-0.3651015795000001,-0.41540969400000005,0.39618865999999997
171332.0,1.020087733,4.258341629499999,14.150113351499998,1.3012930556774442,0.6184836003829707,1.3762654190261128,14.812149076918187,1.9924838981292028,-0.5769252194999999,-0.13768536600000036,0.7087265954999982
171342.0,0.4717979315,4.330224374,15.0168250785,1.2392064581962499,0.6075595845947381,1.4602017934130238,15.635807361809556,2.0092164075466923,-0.5482898015,0.07188274450000076,0.866711727000002
171352.0,0.1366066345,4.339736824499999,15.708684235999998,1.1464788603670433,0.46739917368408146,1.5531964266177858,16.29769117098694,1.9862766434933818,-0.335191297,0.009512450499999048,0.6918591574999979
171362.0,-0.028635417999999996,4.435547795,16.1636147295,1.031100379505454,0.24330413371576554,1.6387315225995238,16.761185678602896,1.9513600122122068,-0.1652420525,0.09581097050000054,0.4549304935000027
171372.0,-0.18544375149999998,4.599514983,16.228240553,0.8893412469999706,-0.011965977351673124,1.738121042183593,16.86848300558902,1.9524691535363172,-0.15680833349999998,0.16396718799999999,0.06462582349999835
171382.0,-0.36137505249999996,4.8485058265,15.767328003,0.7161417533490613,-0.23765973891481584,1.8564316761885327,16.49991615228277,2.003916098729458,-0.17593130099999998,0.24899084350000056,-0.46091254999999975
171392.0,-0.5829072759999999,4.932352684,14.9030679385,0.5298837062347305,-0.35037310200860966,1.9747405648642202,15.708892954989615,2.0744007209949693,-0.22153222349999996,0.08384685749999932,-0.8642600644999998
171402.0,-0.7995361745,4.6809101779999995,14.195616207499999,0.3838624796958769,-0.3154665169687231,2.0807920062031515,14.96882419228293,2.13929074688916,-0.2166288985000001,-0.25144250600000007,-0.7074517310000008
171412.0,-1.003024162,4.204503121,13.716757487999999,0.3183131489787258,-0.17557488676287356,2.1340856349127986,14.381701566527466,2.1648259280634345,-0.20348798749999997,-0.4764070569999994,-0.4788587194999998
171422.0,-1.2963410635,3.7495726275,13.412653271499998,0.31431634499165884,-0.0010419615634406148,2.1282230739553496,13.987103446507184,2.151308741889172,-0.2933169014999999,-0.45493049350000003,-0.30410421650000075
171432.0,-1.72008641,3.4563537925,13.223482993,0.32284227838765106,0.14924310433803512,2.078927994562022,13.77554286636124,2.1091330558977672,-0.42374534650000006,-0.29321883500000023,-0.1891702784999989
