timestamp,ax,ay,az,gx,gy,gz,acc_mag,gyro_mag,dax,day,daz
151362.0,-0.16632078399999997,1.849730323,9.4719490355,-0.021926571392804763,0.056101863476105726,-0.09829170748456466,9.652304564306155,0.1152798914762093,0.0,0.0,0.0
151372.0,0.06472388999999999,1.7000808439999997,8.4963834935,-0.02725506159914345,0.06462954220135002,-0.06551616946136314,8.665044519602409,0.0959801259054146,0.23104467399999995,-0.14964947900000025,-0.975565542
151382.0,0.353235533,1.7874580954999997,8.4520574355,-0.030187214742493924,0.12325166111733556,-0.028478537404791473,8.64621632148613,0.13005101689263363,0.288511643,0.08737725149999997,-0.044326057999999335
151392.0,0.352058735,1.939559237,8.287992181,-0.015796975059800676,0.18773459566151804,0.015222761735894541,8.519193023933603,0.1890120506848742,-0.001176797999999979,0.15210114150000043,-0.16406525450000053
151402.0,0.458558954,1.904843696,8.194632873,0.020441296199357587,0.22877077703440873,0.06824760974073427,8.425598717226968,0.23960728547053947,0.10650021900000001,-0.03471554100000018,-0.09335930800000014
151412.0,0.49092089899999997,1.824625299,8.127653453499999,0.07533190117457926,0.25994584813353144,0.11487931669551876,8.344400006652142,0.2940135995168707,0.03236194499999995,-0.08021839699999989,-0.06697941950000086
151422.0,0.5831034089999999,1.6773294159999999,8.1168661385,0.13048954152535605,0.25435032255163764,0.13592973280382237,8.308848263489606,0.31654146535602296,0.09218250999999994,-0.14729588300000018,-0.010787314999998188
151432.0,0.7590347099999999,1.6570296505,8.097743171,0.18644654267354627,0.22344054149881803,0.13886014061792085,8.300320802059284,0.32244399128008616,0.17593130099999998,-0.0202997654999999,-0.01912296750000131
151442.0,1.1074649845,1.7252839345,8.06302763,0.23387761042574415,0.16295441094170257,0.1284684502515466,8.31958520051816,0.3126611894908729,0.3484302745000001,0.068254284,-0.03471554099999885
151452.0,1.6197643805,2.035272141,8.041452999999999,0.29329909013914307,0.10300060580644536,0.11754268913406211,8.45168241757085,0.33233983336610534,0.512299396,0.30998820650000014,-0.021574630000001704
151462.0,2.2315032075,2.4805921175,7.954075748499999,0.3593807462781524,0.06702762459359023,0.1375284543986492,8.625558812700877,0.39059096126687615,0.6117388269999999,0.4453199765,-0.08737725149999953
151472.0,2.849224091,3.0612438639999997,7.894157117,0.43052734790644925,0.08195018969814176,0.2001473773017017,8.933476842948336,0.4817972639271335,0.6177208835000001,0.5806517464999996,-0.05991863149999954
151482.0,3.3735856664999995,3.641797544,8.029488887,0.5112645337744549,0.1514963244023598,0.3069981794380466,9.44015155530647,0.6152970355700658,0.5243615754999995,0.5805536800000004,0.13533176999999963
151492.0,3.7051485029999998,4.103886892,8.387431612,0.5880066609846456,0.2639426521205985,0.46607621411106975,10.045846012038483,0.7953895865114623,0.3315628365000003,0.4620893480000001,0.3579427250000009
151502.0,3.6584688489999997,4.4882095054999995,8.908164726999999,0.6455623837276626,0.39504305888415253,0.6659233947814285,10.62467965106388,1.0080990910490457,-0.04667965400000007,0.3843226134999993,0.5207331149999987
151512.0,3.3076849784999998,4.636584119999999,9.592865029999999,0.6794025725945807,0.5088228181509149,0.893215877939398,11.15624272336469,1.232202548496887,-0.35078387049999993,0.14837461449999978,0.6847003029999996
151522.0,2.7570415809999997,4.4689884714999994,10.3698459095,0.6964561847158173,0.5642457485479948,1.1130470785450919,11.623546809151533,1.4290900185226834,-0.5506433975,-0.16759564849999986,0.7769808795000017
151532.0,1.9956532749999998,4.150566545999999,11.240088030499999,0.7193723577945028,0.5312049204784901,1.2913097723560365,12.146991956043355,1.5707183658700818,-0.761388306,-0.31842192550000004,0.8702421209999986
151542.0,1.2008242925,3.6873004,12.139161702499997,0.7505491742228776,0.40170498063901483,1.4122855241287717,12.743524240206902,1.649012236479922,-0.7948289824999999,-0.4632661459999996,0.8990736719999983
151552.0,0.557998385,3.2826780209999997,12.8574007485,0.7572093506484879,0.20612163933127833,1.4594478111761624,13.281569605839042,1.6570576466909681,-0.6428259074999999,-0.4046223790000001,0.7182390460000025
151562.0,0.06472388999999999,2.937876207,13.400885291499998,0.7113787498203687,-0.0003874630939427412,1.4487908307634851,13.71929416499021,1.6140181991315925,-0.493274495,-0.34480181399999976,0.5434845429999982
151572.0,-0.171027976,2.7883247945000003,13.703714643499998,0.6055925985277404,-0.16079718398623757,1.3978952844460784,13.98555686265922,1.531897305972586,-0.23575186599999998,-0.1495514124999997,0.30282935199999983
151582.0,-0.2668389465,2.6877085654999995,13.7827562425,0.44065200289726836,-0.2442012329512906,1.331813628307069,14.044904769937174,1.4239157174414308,-0.09581097050000001,-0.10061622900000078,0.07904159900000174
151592.0,-0.28713871199999996,2.6398521134999995,13.734801723999999,0.24533569696508692,-0.25619164491249163,1.2633321444465675,13.989140295910708,1.312185913017007,-0.020299765499999955,-0.047856451999999994,-0.04795451850000099
151602.0,-0.2668389465,2.6745676544999997,13.61751419,0.062009802994106536,-0.2090276125358489,1.207108107922822,13.880245238349293,1.2266408368723178,0.020299765499999955,0.03471554100000018,-0.11728753399999903
151612.0,-0.34107528699999995,2.7081063975,13.4954213975,-0.08561014513957386,-0.13095379910638655,1.1738002444777624,13.768680812179626,1.1841811552238406,-0.07423634049999994,0.03353874300000026,-0.12209279250000016
151622.0,-0.470326934,2.692513824,13.4703163735,-0.19938990440633622,-0.06833487620333398,1.1578130285294943,13.744826711146965,1.1768419597879456,-0.12925164700000003,-0.015592573499999762,-0.025105024000000142
151632.0,-0.6870538989999999,2.5692442334999996,13.4738467675,-0.2923862829403501,-0.02943148717638038,1.137294937843049,13.733812497102699,1.1746470646677294,-0.21672696499999994,-0.12326959050000053,0.0035303940000002143
151642.0,-0.9383983384999999,2.447151441,13.521801286,-0.3744569003568794,-0.025169393143010227,1.0986585841916505,13.773461860946913,1.1609918833454742,-0.25134443949999996,-0.12209279249999971,0.04795451850000099
151652.0,-1.0760837044999998,2.359676123,13.514544365,-0.44373599968554234,-0.036892769728656134,1.0450996654357005,13.761138649766597,1.136000010813817,-0.13768536599999992,-0.08747531800000008,-0.00725692099999975
151662.0,-1.1011887285,2.2926967035,13.449918541499999,-0.5180800445034929,-0.049949577862825716,0.972621377588132,13.688293668788695,1.1031292929583782,-0.025105024000000142,-0.06697941949999997,-0.0646258235000019
151672.0,-1.129922213,2.278280928,13.318215231999998,-0.5956197871818448,-0.05021661323838085,0.9022758820865006,13.558840111167184,1.0823060595426102,-0.028733484500000017,-0.014415775499999839,-0.13170330950000064
151682.0,-1.153850439,2.3309426385,13.0656939945,-0.6736936006113072,-0.03529404813382934,0.841788006200133,13.32205029180836,1.0787565919709117,-0.023928225999999997,0.05266171049999979,-0.2525212374999981
151692.0,-1.1682662145,2.4003737204999998,12.811897892499998,-0.7530991002600412,-0.005982988675836562,0.8015529309539079,13.087068715104046,1.0998550595813883,-0.014415775500000061,0.06943108199999992,-0.2537961020000026
151702.0,-1.3202692894999999,2.4111610354999997,12.576047959999999,-0.818383140930889,0.021195278436219135,0.760251459534714,12.872986865064782,1.117220876511247,-0.15200307499999988,0.010787314999999964,-0.23584993249999897
151712.0,-1.349002774,2.506972006,12.354613803,-0.8458284434185,0.058499945868345934,0.7261442352922407,12.678375264378534,1.1163034756778798,-0.028733484500000017,0.09581097050000009,-0.22143415699999913
151722.0,-1.4662903079999998,2.516582523,12.240856663,-0.8471601296377717,0.08807804070189384,0.6963008504123898,12.58259777257921,1.1001240388187088,-0.11728753399999992,0.00961051700000004,-0.11375713999999881
151732.0,-1.554942424,2.4099842375,12.196530605,-0.8423639648532912,0.10912845681019745,0.6691208379710821,12.529215009953939,1.0812995723555314,-0.08865211600000023,-0.10659828550000006,-0.04432605800000111
151742.0,-1.7033170385,2.3609509875,12.2576260345,-0.8511569336248386,0.11525630781394954,0.6352806491041639,12.598602085178888,1.0683321792751306,-0.1483746145,-0.04903324999999992,0.06109542949999991
151752.0,-1.8685590909999998,2.3309426385,12.333039173,-0.8812673538802448,0.09846973106826808,0.5918463853390331,12.68970692739941,1.0661194026893164,-0.1652420524999998,-0.030008349000000045,0.07541313850000009
151762.0,-2.008598053,2.243565387,12.3294107125,-0.9457520337536793,0.057967620446487664,0.5454817137598037,12.691824939770074,1.0933240390734034,-0.1400389620000002,-0.08737725149999997,-0.003628460499999875
151772.0,-2.086462854,2.1310831114999997,12.2456619215,-1.0259568941998267,-0.013177235852557189,0.49485494814720427,12.603613702621857,1.1391411712367525,-0.07786480100000004,-0.11248227550000012,-0.08374879099999966
151782.0,-2.1283372495,2.0365470054999997,12.054138046999999,-1.0965694250770133,-0.10484018283804739,0.44529283337832126,12.408851163961682,1.1881673600168203,-0.04187439549999983,-0.09453610600000006,-0.1915238745000014
151792.0,-2.1809989599999997,1.9742747779999998,11.7345393235,-1.1461315398458962,-0.18877655722495867,0.4018585696131904,12.097682856536448,1.2291234295866273,-0.05266171049999979,-0.06227222749999983,-0.3195987234999986
151802.0,-2.2301302764999997,1.928771922,11.3465882495,-1.1730445169116488,-0.24473355837314886,0.36295518058623677,11.723425569386665,1.252064062404498,-0.04913131650000002,-0.045502855999999925,-0.38795107400000006
151812.0,-2.2923044375,1.9012152354999998,10.9503995895,-1.1799717287128144,-0.2732452570337282,0.3245841169811415,11.34815095844258,1.2539342486946288,-0.06217416100000017,-0.027556686500000094,-0.39618865999999997
151822.0,-2.2934812355,1.8186432424999999,10.606872639999999,-1.1773083562742712,-0.2545929233176648,0.2923426497090502,11.003329797032444,1.2394905192035834,-0.0011767979999999234,-0.08257199299999995,-0.34352694950000107
151832.0,-2.3115254715,1.8018738709999997,10.348271279499999,-1.185301964248405,-0.18291399626750973,0.26489734722143937,10.755306500816719,1.22823812066172,-0.018044236000000158,-0.01676937150000013,-0.25860136050000015
151842.0,-2.4024331169999997,1.6821346744999999,10.272858140999999,-1.2084834273733938,-0.0840568021052989,0.23931605637495848,10.68329894414284,1.2348157413376202,-0.09090764549999975,-0.11973919649999987,-0.07541313850000009
151852.0,-2.5832677429999995,1.4942392604999999,10.311104076,-1.246587455602934,0.017465509824707254,0.20920738144880432,10.734285745486176,1.2641412329928563,-0.18083462599999978,-0.18789541399999998,0.03824593500000084
151862.0,-2.8369657784999998,1.2990869255,10.323068188999999,-1.3044102137215061,0.07635291878699593,0.16817120007591363,10.78432837515294,1.3174207097215573,-0.25369803550000025,-0.19515233499999995,0.011964112999999443
151872.0,-3.024959259,1.0524496779999999,10.248929914999998,-1.369694254392354,0.0736895463484526,0.1050199517510028,10.737718251375103,1.3756895325698493,-0.1879934805000003,-0.24663724750000005,-0.07413827400000095
151882.0,-3.104000858,0.886128894,10.047795523499998,-1.4189893337856818,0.04437848689045982,0.02241700891261517,10.553588992627722,1.4198600993706416,-0.07904159899999996,-0.16632078399999994,-0.20113439150000012
151892.0,-3.199713762,0.7891411254999999,9.7951762195,-1.4546952796229817,0.011602948867258302,-0.07430913823291058,10.334717656798656,1.4566381956425278,-0.09571290399999999,-0.09698776850000002,-0.25261930399999777
151902.0,-3.2081474809999997,0.6765607834999999,9.47910789,-1.482672907532451,-0.017708110590734467,-0.1787636033062672,10.030126177864215,1.4935156355989267,-0.008433718999999673,-0.112580342,-0.3160683295000002
151912.0,-3.143423591,0.5951655885,9.0769371735,-1.508254198378932,-0.021437879202246348,-0.2877454524592971,9.624246588791044,1.5356066407134903,0.06472388999999978,-0.08139519499999992,-0.4021707165000006
151922.0,-3.1422467929999995,0.5580964515,8.703401874999999,-1.5333014184743023,0.00840550567760469,-0.400458815553091,9.270080407151234,1.5847558661747205,0.0011767980000003675,-0.03706913700000003,-0.3735352985000002
151932.0,-3.0787977675,0.439534053,8.3035847545,-1.5599473601644998,0.06329611065282635,-0.5086430492379594,8.866888160571014,1.6419987562863911,0.06344902549999976,-0.1185623985,-0.39981712049999985
151942.0,-2.9315999509999995,0.252815437,7.896608779499999,-1.582064172445772,0.15202864982421807,-0.6152285613280012,8.427017511217427,1.704272847515216,0.1471978165000003,-0.186718616,-0.40697597499999993
151952.0,-2.8430459015,0.07560927149999999,7.6092739345,-1.5940545844069731,0.25221927553495255,-0.7234127950128697,8.123403016607869,1.7686013267575584,0.08855404949999945,-0.17720616549999998,-0.2873348449999993
151962.0,-2.7532169874999997,0.0169655045,7.3195854935,-1.5913894666391777,0.3401507085796789,-0.8246680715673207,7.820282821308776,1.8243630031712295,0.08982891400000037,-0.05864376699999999,-0.289688441
151972.0,-2.6179832839999997,-0.0667832865,7.0598073349999995,-1.578067368458705,0.4224883613717634,-0.9094020614223934,7.529885529673008,1.8697072348921577,0.13523370349999997,-0.08374879099999999,-0.2597781585000005
151982.0,-2.5305079659999996,-0.1936813375,6.8084628955,-1.5634118387297085,0.5000281040501154,-0.9813480238481037,7.266095927379812,1.91241434480887,0.08747531800000008,-0.126898051,-0.2513444394999995
151992.0,-2.447935973,-0.3409772205,6.570161300499999,-1.5394310148073065,0.5517230111649355,-1.0487631115356366,7.019663489612248,1.942717219390786,0.08257199299999973,-0.14729588300000002,-0.23830159500000114
152002.0,-2.4323433994999997,-0.5396599495,6.343921885,-1.4896018646628684,0.5719740664758257,-1.12097436400765,6.81563439139509,1.9500388644051025,0.015592573500000206,-0.19868272899999995,-0.2262394154999985
152012.0,-2.3605587215,-0.7348122844999999,6.151221212499999,-1.4139261336256463,0.5615823761094514,-1.204109632267896,6.6294576683324395,1.9402169680287393,0.07178467799999977,-0.19515233499999995,-0.1927006725000009
152022.0,-2.192963073,-0.7969864454999999,5.993236081,-1.314269578666022,0.5322713166514587,-1.2832498418703269,6.431419217906151,1.912419262765636,0.16759564849999986,-0.06217416099999995,-0.15798513149999938
152032.0,-1.963095197,-0.7467763974999999,5.8483918605,-1.2026208664159448,0.4949666492193319,-1.3432036470055841,6.21410533337746,1.8696216113180637,0.22986787600000014,0.05021004799999995,-0.14484422050000045
152042.0,-1.601622078,-0.5815343449999999,5.649611064999999,-1.0968364604525684,0.4704517545458195,-1.3655874946624114,5.900972857158559,1.813616354114541,0.361473119,0.16524205250000001,-0.19878079550000027
152052.0,-1.3298798065,-0.6449833704999999,5.49760799,-1.0113013644708304,0.4483349422645474,-1.3783772674210257,5.69282684258619,1.7673874961589415,0.27174227149999997,-0.06344902549999998,-0.15200307499999965
152062.0,-1.1048171889999998,-0.6210551445,5.337171195999999,-0.9388230766232618,0.4403413342904134,-1.3661198200842697,5.485592665248837,1.7151013447350876,0.22506261750000012,0.023928225999999886,-0.16043679400000066
152072.0,-0.8917186844999999,-0.5707470299999999,5.2150784035,-0.867678220324217,0.44726854609157884,-1.3426713215837258,5.321461936272056,1.660024374565405,0.2130985044999999,0.050308114500000056,-0.12209279249999927
152082.0,-0.779236409,-0.6031089749999999,5.0271829895,-0.7914701638651366,0.47498088395474486,-1.3104298543116344,5.122842826669086,1.6028905962299325,0.1124822754999999,-0.032361945,-0.18789541399999976
152092.0,-0.6738149214999999,-0.6773453155,4.9780516729999995,-0.7080678602293355,0.5290738734618051,-1.2864472850599804,5.068907346156955,1.5608413998570843,0.10542148750000013,-0.07423634050000005,-0.049131316500000466
152102.0,-0.6390993805,-0.8257199299999999,5.030713383499999,-0.6110746777082546,0.5770372666358612,-1.2797853633051182,5.137931351028418,1.531089430749506,0.03471554099999985,-0.1483746144999999,0.05266171049999979
152112.0,-0.6822486405,-0.89044382,5.178009266499999,-0.49116706743774025,0.5711747056784123,-1.2912434498444607,5.298125457933225,1.4949231683629882,-0.04314925999999997,-0.06472389000000012,0.14729588299999996
152122.0,-0.6558687519999999,-0.9251593609999998,5.343153252499999,-0.3624647430664264,0.49709769623601696,-1.3128279367038747,5.462176337578025,1.4498289557597885,0.02637988850000006,-0.03471554099999985,0.16514398599999947
152132.0,-0.5074941374999999,-0.9538928454999999,5.397089827499999,-0.23376416402436453,0.39211090574080204,-1.3437359724274422,5.504183905575552,1.4191627850174222,0.1483746145,-0.028733484500000017,0.05393657500000071
152142.0,-0.19024901,-0.9155488439999999,5.395814963,-0.12344888332281093,0.31217308067020977,-1.3773108712480573,5.476243556169723,1.4176307330002622,0.31724512749999995,0.03834400149999995,-0.0012748644999991399
152152.0,0.15572960199999997,-0.8281715924999999,5.291668339999999,-0.04910483850486046,0.3033801118986624,-1.4031574521408412,5.358346173598847,1.4364197203319824,0.34597861199999996,0.08737725149999997,-0.10414662300000099
152162.0,0.46816947099999995,-0.7000967435,5.174380805999999,-0.016863371232769212,0.36120287001723445,-1.4140832132583259,5.242474113368318,1.4595832352479983,0.312439869,0.128074849,-0.11728753399999992
152172.0,0.7842378004999999,-0.707255598,5.0534648115000005,-0.007803367085666648,0.4811104802877489,-1.4052902444867783,5.162629757178424,1.4853850874538532,0.31606832949999997,-0.007158854500000089,-0.1209159944999989
152182.0,0.9721332144999999,-0.8077737604999999,5.083375094,-0.0035412730522964946,0.6385897933659453,-1.3821070360325376,5.238152706936475,1.5225075776023702,0.18789541399999998,-0.1005181624999999,0.029910282499999497
152192.0,1.0511748134999999,-0.9155488439999999,5.2042910885,0.026836182578664814,0.7579650782146014,-1.3647881338649979,5.387749428854966,1.5613705168303151,0.07904159899999996,-0.10777508349999998,0.12091599449999979
152202.0,1.05715687,-1.067551919,5.453281931999999,0.10517703138368228,0.7944703848493148,-1.3525306865282416,5.656459279215791,1.5721274306918822,0.005982056500000166,-0.1520030750000001,0.24899084349999967
152212.0,1.1146238389999998,-1.195626768,5.68197301,0.22002144149416114,0.7478386778945303,-1.341337890035202,5.912421412348217,1.5514056394496878,0.05746696899999981,-0.12807484899999988,0.22869107800000066
152222.0,1.209159945,-1.2160246,5.856727512999999,0.34952312666288843,0.6327272324084964,-1.329614513449556,6.102625726843218,1.5134017712026164,0.09453610600000006,-0.020397832000000005,0.17475450299999906
152232.0,1.4222584495,-1.168168148,5.9896076205,0.49207987463653324,0.4835085626799891,-1.305099618776044,6.266006333122204,1.4762141267907412,0.2130985045,0.047856451999999994,0.132880107500001
152242.0,1.763431803,-1.042446895,6.0698260175,0.6370347050024183,0.34974478347789173,-1.2709923945335708,6.406182571192213,1.4640888961773106,0.3411733535000001,0.1257212529999998,0.08021839699999944
152252.0,2.0986230999999997,-0.856905077,6.0949310415,0.747617021079527,0.27699946025476807,-1.223828362156928,6.502821666590762,1.4606217070853655,0.3351912969999997,0.18554181800000014,0.025105024000000142
152262.0,2.3213321215,-0.636647718,6.1080719525,0.8057068145736543,0.2903233037644928,-1.1492190272926743,6.565245320021138,1.4332325228136138,0.22270902150000005,0.22025735899999999,0.01314091099999981
152272.0,2.481670849,-0.43914178699999995,6.171520977999999,0.8264901953064028,0.3806545645307113,-1.0626192804672197,6.666273838791803,1.3989795122360988,0.1603387275000001,0.19750593100000002,0.06344902549999976
152282.0,2.4517605665,-0.31342053400000003,6.409822573,0.834750838656092,0.49922874325270206,-0.9629627255075953,6.869875379067483,1.3686984735301408,-0.02991028249999994,0.12572125299999992,0.23830159500000025
152292.0,2.281811322,-0.2595820255,6.7485442639999995,0.8568676509373642,0.5812993606692314,-0.859042331185349,7.128597016267462,1.345393936624412,-0.16994924450000015,0.05383850850000005,0.33872169099999994
152302.0,2.1668773839999997,-0.22722008049999998,7.150813047,0.9136240128829677,0.5815663960447865,-0.7601833916938863,7.475367134490354,1.3231806750901856,-0.11493393800000007,0.032361945,0.40226878300000024
152312.0,2.042332929,-0.17210670749999998,7.521896683,0.9988920734891507,0.5216125909095293,-0.6661223623161557,7.796132003844638,1.3090393695578688,-0.12454445499999967,0.05511337299999999,0.37108363599999983
152322.0,1.8999403709999998,-0.05599597149999999,7.8187439785,1.084425424141637,0.41929091818210973,-0.5755258115036341,8.04646918614058,1.2973100378481939,-0.14239255800000028,0.11611073599999999,0.2968472955000001
152332.0,1.8712068865,0.07560927149999999,8.0701864845,1.1526398726265832,0.3111066844972412,-0.5078436884405461,8.28462683943147,1.2974094407689465,-0.028733484499999795,0.13160524299999998,0.25144250600000095
152342.0,1.9286738555,0.09120184499999999,8.425677547,1.2224530427063562,0.2106507687402036,-0.46600989159949396,8.644081370709126,1.3251152429360398,0.057466969000000034,0.015592573499999998,0.35549106249999873
152352.0,2.1404974955,0.20378218699999998,8.8015664415,1.329038554796398,0.13230991993518612,-0.44975564027567083,9.060398916831382,1.4093010789069638,0.21182363999999998,0.11258034199999999,0.37588889450000096
152362.0,2.4146914295,0.5102399995,9.325928017,1.430028541304546,0.10113484883606343,-0.44202732234783987,9.646969106152257,1.5001993335209498,0.2741939339999999,0.30645781250000004,0.5243615755000004
152372.0,2.6540717559999996,0.8489616904999999,9.8622537055,1.493712115051315,0.10752973521537064,-0.4129832982654022,10.248359917059023,1.553477946818921,0.23938032649999963,0.33872169099999994,0.5363256884999998
152382.0,2.7761645484999997,1.1745424705,10.409268642499999,1.51369613498665,0.14936353205642272,-0.3572933324927672,10.836951291165343,1.5624480724893481,0.12209279250000016,0.3255807800000001,0.5470149369999984
152392.0,2.7869518634999997,1.3661644114999998,10.941965870499999,1.4867849032501494,0.21251652571058555,-0.25816910295500123,11.373659173718107,1.5239238524129886,0.010787314999999964,0.19162194099999974,0.532697228
152402.0,2.6947693534999995,1.5193442845,11.44239922,1.4273634235367505,0.2588811972898149,-0.14998486927013271,11.85321428276998,1.458383104047335,-0.09218251000000022,0.15317987300000024,0.5004333495000015
152412.0,2.6337719904999997,1.4331438309999998,11.880560341999999,1.3618140928195996,0.26527608366912214,-0.051927035905335296,12.253096350644551,1.3883823108304176,-0.060997362999999805,-0.08620045350000027,0.43816112199999857
152422.0,2.551101931,1.3397845229999998,12.380895624999999,1.3159817466622283,0.21038373336464847,0.03360806007640281,12.711794527428705,1.3331161894278818,-0.08267005949999984,-0.09335930799999992,0.5003352830000001
152432.0,2.4996170185,1.3014405214999998,12.8107210945,1.3066564524688227,0.08034972277406295,0.10608634792397133,13.117027393096512,1.3134159569398125,-0.05148491249999987,-0.03834400150000006,0.4298254695000008
152442.0,2.5834638759999997,1.226027383,13.0572602755,1.3293055901719533,-0.11523361853367362,0.1703022470925987,13.36673014033773,1.345115234568235,0.08384685749999976,-0.07541313849999987,0.24653918099999927
152452.0,2.7678288959999997,1.3158562969999998,13.143460729,1.36661025760408,-0.32787057196264674,0.22039843261259195,13.496033288587144,1.422567459646779,0.18436502,0.08982891399999993,0.08620045350000005
152462.0,3.0276070545,1.5073801715000001,13.1255145595,1.4015168426439666,-0.49893901859687095,0.2835496809375028,13.554251433020415,1.5144603085102235,0.2597781585000001,0.1915238745000003,-0.017946169500000053
152472.0,3.2538464699999996,1.7588226775,13.071676050999999,1.42256725875227,-0.5847394046249123,0.37681134951781975,13.584906655678818,1.5835417803520326,0.22623941549999982,0.25144250599999984,-0.05383850850000016
152482.0,3.311313439,1.9970262059999997,12.981847136999999,1.410042776039959,-0.5767457966507782,0.506313034686547,13.545525661530741,1.6053688776447346,0.05746696900000048,0.2382035284999997,-0.08982891399999993
152492.0,3.129302015,2.0365470054999997,13.030978453499998,1.3714064223885605,-0.5151932699206941,0.6581950768535975,13.555310924588754,1.6060511946804439,-0.18201142400000014,0.03952079949999998,0.04913131649999869
152502.0,2.7510595245,1.927595124,13.172194213500001,1.3210449468222638,-0.4445807390435076,0.8028846171731795,13.593772539938044,1.6085507432302009,-0.3782424904999999,-0.10895188149999968,0.14121576000000324
152512.0,2.2841649179999997,1.7575478129999997,13.345771918499999,1.2688177142855859,-0.41873415815072357,0.9094701292632212,13.653424910557282,1.6162835776277487,-0.46689460650000036,-0.17004731100000026,0.1735777049999978
152522.0,1.8951351125,1.5756344555,13.514544365,1.208064548352915,-0.4365871310693736,0.9622296872217578,13.737433181840865,1.6049654971286458,-0.38902980549999966,-0.18191335749999982,0.168772446500002
152532.0,1.648497865,1.4750182264999998,13.4738467675,1.120398405354492,-0.48001964950525244,0.9776845777481676,13.654221716871561,1.562555145970422,-0.24663724750000005,-0.10061622900000011,-0.04069759750000124
152542.0,1.564749074,1.4858055415,13.2894817475,1.0103501600284934,-0.5093307089632453,0.9752864953559274,13.463520449305658,1.4937901341842674,-0.08374879099999988,0.010787315000000186,-0.18436501999999955
152552.0,1.5228746785,1.5205210825,13.003421766999999,0.8987014477784161,-0.4914777360445952,0.9862105111441598,13.180292458789859,1.4219092198722698,-0.04187439550000005,0.03471554099999996,-0.28605998050000103
152562.0,1.4222584495,1.6713473595,12.684999841499998,0.7918506456420714,-0.41393799336624315,1.0197854099647747,12.873439403366016,1.3558519055313014,-0.10061622900000011,0.15082627699999995,-0.3184219255000009
152572.0,1.240345092,1.764804734,12.342649689999998,0.6924593807287502,-0.29989119872392567,1.0733443287207247,12.529724381104892,1.3120605066186013,-0.18191335749999982,0.09345737450000002,-0.3423501514999998
152582.0,0.963797562,1.7827509035,12.0732610145,0.6101234732659178,-0.18131527467268294,1.129301329868915,12.242170479481683,1.296320706886763,-0.2765475300000001,0.017946169500000053,-0.26938867549999834
152592.0,0.5639804414999999,1.731265991,11.985883763,0.5525660051936487,-0.0800599981182319,1.1932519389912393,12.123397438430153,1.3174175432643636,-0.39981712050000007,-0.05148491250000009,-0.08737725149999953
152602.0,0.056388237499999994,1.5912270289999997,11.940380907,0.513397326120392,-0.009447467241045306,1.254272140299465,12.046073189857294,1.3553098062938376,-0.5075922039999999,-0.1400389620000002,-0.04550285600000059
152612.0,-0.47150373199999995,1.30624578,11.926063198,0.48675138443019456,0.013735741213195374,1.2934425647019738,12.00664720934815,1.3820670204495173,-0.5278919695,-0.28498124899999966,-0.014317709000000178
152622.0,-0.9946885095,1.096775736,12.0229529,0.47609265868826517,0.006539748707222752,1.3014361726761077,12.113782179056551,1.3858005265982005,-0.5231847775,-0.20947004400000013,0.09688970200000036
152632.0,-1.474724027,0.9280032895,12.0589433055,0.4715617839500879,-0.0265010793622819,1.2811851173652173,12.184174765095795,1.3654699294556731,-0.48003551749999995,-0.1687724464999999,0.03599040549999977
152642.0,-1.8506129214999998,0.878871973,12.054138046999999,0.45477520720440645,-0.07179935476854274,1.2284255594066809,12.22699587741325,1.3118707983016493,-0.37588889449999985,-0.04913131650000002,-0.0048052585000011305
152652.0,-2.0720470785,0.8549437469999999,12.014617247499999,0.42279902997861835,-0.1112368145466066,1.1506187813527737,12.221920287335344,1.2308762036301941,-0.22143415700000002,-0.023928226000000108,-0.03952079949999998
152662.0,-2.2348374685,0.9052518615,11.953521817999999,0.3873601195168735,-0.1461433995864932,1.0613539167595238,12.194288142272294,1.139244439115507,-0.16279039000000006,0.05030811450000017,-0.06109542949999991
152672.0,-2.3701692385,1.0201857994999999,11.887719196499999,0.36364458564077456,-0.18451271786233653,0.9787509739211361,12.16455297080282,1.060299861676106,-0.13533177000000007,0.11493393799999985,-0.0658026214999996
152682.0,-2.4851031765,1.09442214,11.6998237825,0.36790842500339666,-0.22448250306225867,0.9108018154824928,12.010802394508252,1.007625401851195,-0.11493393800000007,0.07423634050000016,-0.18789541399999976
