timestamp,ax,ay,az,gx,gy,gz,acc_mag,gyro_mag,dax,day,daz
12612.0,1.624569639,-0.05727083599999999,9.813122389,-0.012866567245702197,0.03292040035111705,-0.03087661979703168,9.94685264202249,0.04693257889842037,0.0,0.0,0.0
12622.0,1.634180156,-0.1207198615,9.3570150975,-0.009136798634190315,0.06409547145023976,-0.010091493735031215,9.499413118823062,0.06552517680643385,0.00961051700000004,-0.0634490255,-0.4561072915000004
12632.0,1.6843902039999998,-0.0667832865,9.4456672135,0.007384488065188008,0.1352420730785366,0.01868549497185129,9.594907997207464,0.136726357067349,0.05021004799999984,0.053936575,0.08865211600000045
12642.0,1.4126479325,0.111599677,9.4217389875,0.03829426911800759,0.1981262860278923,0.05172806837060794,9.52770666097989,0.20831771244866068,-0.27174227149999974,0.1783829635,-0.023928226000000663
12652.0,1.140905661,0.218099896,9.336715332,0.07373317957975244,0.22397461224992835,0.07277848447891155,9.40869207077907,0.24677503217808106,-0.2717422715000002,0.106500219,-0.0850236554999988
12662.0,0.871615052,0.1438635555,9.2385507655,0.10490999600812716,0.25115287936198405,0.06425080575366725,9.28069123331849,0.2796641595096448,-0.2692906089999999,-0.0742363405,-0.09816456650000127
12672.0,0.6729323229999999,-0.070411747,9.106847455999999,0.13262233387129313,0.26554137371542524,0.0312099776841626,9.13194756403624,0.29845429684155966,-0.19868272900000006,-0.2142753025,-0.13170330950000064
12682.0,0.5220079795,-0.1805404265,8.989559922,0.16193339332928589,0.28632649977742575,-0.020484929430657446,9.006512908306473,0.329582949625293,-0.15092434349999995,-0.11012867949999999,-0.11728753399999903
12692.0,0.4478697055,-0.32303105099999996,8.9476855265,0.20056974698068436,0.31457116306245,-0.08177042078518634,8.96470928776569,0.38192884383055525,-0.074138274,-0.14249062449999997,-0.04187439549999894
12702.0,0.33646616149999997,-0.5504472644999999,8.979949405,0.25066418717142563,0.37079519958619533,-0.1281350923644157,9.003093523072495,0.4655536667901084,-0.11140354400000002,-0.22741621349999996,0.032263878499998455
12712.0,0.0444241245,-0.6162498859999999,9.149996715999999,0.31168438847965135,0.4483349422645474,-0.1489184730971642,9.170832968037493,0.5659753440803584,-0.292042037,-0.06580262149999994,0.17004731099999937
12722.0,-0.46797333799999996,-0.44512384349999995,9.452826068,0.39322268047432246,0.5106868297920448,-0.15877783804168016,9.474864376495919,0.6638038237428661,-0.5123974625,0.1711260424999999,0.3028293520000016
12732.0,-1.0652963895,-0.31459733199999995,9.813122389,0.48675138443019456,0.5381338776089076,-0.17210168155140484,9.87578852043098,0.7457439032723842,-0.5973230515000001,0.1305265115,0.36029632099999986
12742.0,-1.6793888125,-0.22123802399999998,10.2464782525,0.5698866526904405,0.530937885102935,-0.20247739185311417,10.385548113882532,0.8047750797359047,-0.614092423,0.09335930799999997,0.4333558634999992
12752.0,-2.3485946085,0.022947561,10.791139593499999,0.6277094108090127,0.4837755980555442,-0.26616271092913524,11.04378182290987,0.8360027047691555,-0.669205796,0.24418558499999998,0.5446613409999994
12762.0,-3.2859142154999996,0.852590151,11.242441626499998,0.6450300583058044,0.3987728274956644,-0.3663515913106178,11.743791377679829,0.8421977395616176,-0.9373196069999996,0.8296425900000001,0.45130203299999927
12772.0,-3.8677427599999996,1.4570720569999998,11.384932251,0.588806021782059,0.22797141623699532,-0.49318815871154964,12.111943502043038,0.8011854078808504,-0.5818285445,0.6044819059999997,0.14249062450000238
12782.0,-3.8174346454999997,1.307422578,11.339429395,0.46729794458746576,0.016133823605435582,-0.632814498871096,12.03598022905978,0.7868175514446013,0.050308114499999945,-0.1496494789999998,-0.04550285600000059
12792.0,-3.4714560335,0.935162144,11.278432032,0.3420618441106127,-0.13335188149862676,-0.7900285219029893,11.837591153969537,0.8711682357132857,0.3459786119999997,-0.372260434,-0.06099736300000025
12802.0,-3.0201540005,0.7459918655,11.122800496499998,0.26718547387080394,-0.21515720886885298,-0.9571001645501465,11.549654753933943,1.016720918914192,0.45130203300000016,-0.1891702785,-0.1556315355000013
12812.0,-2.469510603,0.6622430745,11.0916153495,0.2714493132334261,-0.23034506401970764,-1.1063188342786536,11.3824856498621,1.1621897182701373,0.5506433975,-0.08374879099999999,-0.031185146999998636
12822.0,-1.8697358889999998,0.7077459304999999,11.067687123499999,0.32953736139830136,-0.18557911403530505,-1.2115709148201717,11.246800205411386,1.2692275453052817,0.599774714,0.045502855999999925,-0.023928226000000663
12832.0,-1.2975178615,0.7639380349999999,11.079651236499998,0.3780330799942158,-0.08112639429120043,-1.2749891985206376,11.181494776849254,1.332324268999444,0.5722180274999997,0.056192104500000006,0.011964112999999443
12842.0,-0.7959077139999999,0.8621026015,11.268821514999999,0.4025479746677281,0.08940972692116551,-1.3149589837205597,11.329740876191506,1.378098726523109,0.5016101475000001,0.09816456650000005,0.18917027850000068
12852.0,-0.457186023,0.9495779194999999,11.7465034365,0.4153377474263426,0.28552713898001236,-1.3365417252507217,11.793687305865575,1.4284169471367507,0.33872169099999994,0.08747531799999997,0.47768192150000033
12862.0,-0.29674922899999995,1.0345035084999998,12.474254933,0.41640414359931116,0.4584613425846185,-1.3405385292377885,12.520594784094154,1.4766931847280194,0.16043679400000005,0.08492558899999991,0.7277514964999998
12872.0,-0.157887065,1.075201106,13.363718087999999,0.3966854137102792,0.5514559757893803,-1.3442700431785526,13.407831550223783,1.5061623284598444,0.13886216399999995,0.04069759750000013,0.8894631549999996
12882.0,-0.020201699,1.097952534,14.171786048,0.3369986439505771,0.5485255679752818,-1.3432036470055841,14.214268453418452,1.4895114709448314,0.137685366,0.022751428000000073,0.8080679600000007
12892.0,0.1485707475,1.2176917305,14.7547913905,0.2170910336800627,0.4808434449121938,-1.333344282061068,14.805698747263287,1.433926744964417,0.16877244649999998,0.11973919649999987,0.5830053424999999
12902.0,0.30900754150000004,1.3589074904999998,15.010941088500001,0.04841892410882669,0.3875817763318768,-1.3101628189360794,15.07549228353285,1.3671468968910998,0.16043679400000005,0.1412157599999999,0.25614969800000154
12912.0,0.536423755,1.4618773155,14.941510006499998,-0.12984376970211814,0.30684284513461907,-1.2760555946936063,15.02243512233757,1.3188365391092323,0.2274162134999999,0.10296982500000018,-0.06943108200000303
12922.0,0.8405279714999999,1.4259849765000001,14.79431219,-0.27293458842687324,0.2836613820096304,-1.242215405826688,14.886624654341903,1.3030948483040379,0.30410421649999997,-0.035892338999999884,-0.14719781649999852
12932.0,1.0654925224999998,1.3529254339999999,14.7296863665,-0.36006666067418613,0.31723628083024535,-1.2153024287609355,14.830014902248866,1.3066165663102143,0.2249645509999999,-0.07305954250000024,-0.06462582350000012
12942.0,1.162480291,1.337430927,14.7296863665,-0.41362557943013617,0.37505729361956547,-1.1971824204667305,14.835893716487574,1.320984421305084,0.09698776850000024,-0.01549450699999988,0.0
12952.0,1.2307345749999998,1.307422578,14.835009787499999,-0.47011665132943664,0.4280838869536572,-1.1891888124925962,14.943278649171518,1.34849379378776,0.06825428399999978,-0.030008349000000045,0.10532342099999958
12962.0,1.3408632544999999,1.3002637235,14.9870128625,-0.5551176765600645,0.4637898327909572,-1.1897211379144546,15.102951849180307,1.392369573723217,0.11012867950000005,-0.007158854499999867,0.15200307500000143
12972.0,1.4353993605,1.4128440654999999,15.088805889499998,-0.6641012710423463,0.4592607033820319,-1.1934526518552186,15.222633242923257,1.4409302981377246,0.09453610600000006,0.11258034199999978,0.1017930269999976
12982.0,1.682036608,1.6163320529999998,15.122246566,-0.786406963705101,0.4003715490904912,-1.1966500950448722,15.301114915557825,1.4868438855024078,0.24663724750000005,0.20348798749999997,0.03344067650000149
12992.0,2.0675360195,1.7180270135,15.0899826875,-0.933227551041368,0.3214983748636155,-1.1841256123325608,15.327553605193991,1.5415668434565453,0.3854994114999999,0.10169496050000015,-0.03226387850000023
13002.0,2.480494051,1.7360712495,14.888848295999999,-1.09816814667184,0.23889543202522784,-1.1484196664952608,15.193570933183842,1.6068329210593957,0.4129580315000001,0.018044235999999936,-0.20113439150000012
13012.0,2.858834608,1.836589412,14.595531394499998,-1.2519176911385248,0.17760994067069893,-1.0980581909289644,14.985844409708921,1.6746865339748969,0.378340557,0.10051816250000001,-0.2933169015000008
13022.0,3.1580354994999995,1.9694695195,14.252004444999999,-1.3747557092231375,0.12698142972884746,-1.0381043857937073,14.729956860243735,1.7273500685563783,0.2992008914999995,0.13288010750000012,-0.3435269494999993
13032.0,3.4837143459999997,1.927595124,13.8414000095,-1.4661533661623247,0.07981739735220468,-0.9650937725242805,14.402647077172354,1.7570949034683194,0.32567884650000023,-0.04187439550000005,-0.4106044354999998
13042.0,3.822436037,1.90837409,13.428343911499999,-1.5356995008665426,0.057168259649074266,-0.8958129278663656,14.091604916753049,1.778797899876645,0.3387216910000004,-0.01922103400000008,-0.4130560980000002
13052.0,4.1828304245,1.8868975264999999,12.8932930875,-1.6164384320638003,0.06995803240768872,-0.8185384752343167,13.685520058653596,1.8132215988097407,0.3603943874999995,-0.021476563500000045,-0.5350508239999989
13062.0,4.534693026499999,1.8402178725,12.3760903665,-1.7070349828763218,0.11285822542170934,-0.7364696031470392,13.30854820867514,1.8625501035323746,0.35186260199999975,-0.04667965399999985,-0.5172027210000003
13072.0,4.860371873,1.7360712495,11.873401487499999,-1.7909713572632333,0.16908226194545464,-0.6498681109923325,12.946614268238518,1.9127194712049758,0.3256788465000007,-0.1041466230000001,-0.5026888790000008
13082.0,5.061506264499999,1.6558528524999998,11.507025043499999,-1.8565206879803844,0.22317525145251493,-0.5606032463990825,12.679602505064631,1.9521148167137208,0.20113439149999923,-0.08021839700000011,-0.36637644400000013
13092.0,5.166829685499999,1.5875985685,11.189779915999999,-1.8962234378047513,0.24822247154788554,-0.4593479698446316,12.426897150221539,1.9667939085887456,0.10532342099999958,-0.06825428399999978,-0.31724512749999967
13102.0,5.171634944,1.5636703425,10.896561081,-1.913544085301543,0.22130949448213297,-0.3437024536074873,12.16247985922196,1.9567218083714055,0.0048052585000011305,-0.023928225999999997,-0.29321883499999934
13112.0,5.152413909999999,1.5791648495,10.410543507,-1.9258015326382991,0.14563376344491086,-0.21313611759504353,11.72265101557654,1.9430254091984074,-0.01922103400000097,0.01549450699999988,-0.4860175739999999
13122.0,5.223021789999999,1.4487364045,9.79880468,-1.9383242700213585,0.05024104784790877,-0.0745761736084657,11.19800727564187,1.9404089116247556,0.07060787999999985,-0.13042844499999995,-0.6117388269999999
13132.0,5.3045150515,1.1889582459999999,9.207365618499999,-1.93725787384839,-0.027567475535250435,0.06478313117552553,10.69238435874138,1.9385367908760145,0.08149326150000125,-0.2597781585000001,-0.5914390615000009
13142.0,5.3259916149999995,1.017734137,8.563362912999999,-1.8972898339777198,-0.0840568021052989,0.2012120281454183,10.135736472324508,1.9097802335257754,0.02147656349999938,-0.17122410899999996,-0.6440027055000002
13152.0,5.2937277365,0.8549437469999999,8.06302763,-1.8226804991134662,-0.11656530475294528,0.33497755267676765,9.683330869120772,1.8568687710546423,-0.03226387849999934,-0.16279039000000006,-0.5003352829999983
13162.0,5.170360079499999,0.7424614715,7.6080971365,-1.7430079640891771,-0.1352176384690087,0.4730051712414872,9.228597641395396,1.811103107129084,-0.12336765700000107,-0.1124822754999999,-0.4549304935000009
13172.0,4.988446722,0.692153357,7.099328134499999,-1.6806560765616796,-0.14427764261611126,0.6136961622447501,8.704259700235406,1.795005254977404,-0.18191335749999915,-0.050308114499999945,-0.5087690020000002
13182.0,4.7633841045,0.601147645,6.6384155845,-1.6409515814080606,-0.14880677202503653,0.746395290603131,8.192665505842697,1.808859164711465,-0.2250626174999999,-0.09100571200000007,-0.46091254999999975
13192.0,4.490465035,0.4527730305,6.1835831575,-1.6068443571655875,-0.15440229760693036,0.8676345870929171,7.655454285241561,1.8326425277126703,-0.27291906950000033,-0.14837461449999995,-0.4548324269999995
13202.0,4.201953392,0.29596469699999994,5.7956320835,-1.5572839877259566,-0.16772614111665507,0.9728884129636872,7.1647301873626175,1.8438485135499998,-0.28851164299999965,-0.15680833350000006,-0.38795107400000006
13212.0,3.9685551219999997,0.09120184499999999,5.477210158,-1.4893348292873132,-0.18904359260051382,1.0688151993117994,6.764434835799826,1.8428840560142412,-0.23339827000000035,-0.20476285199999994,-0.31842192550000004
13222.0,3.6668045015,-0.094339973,5.046305957,-1.4179229376127132,-0.21515720886885298,1.1863247271900739,6.238554247129699,1.8612265955221854,-0.30175062049999957,-0.18554181799999997,-0.4309042009999997
13232.0,3.3950622299999997,-0.3660822445,4.642860376,-1.339849124183251,-0.2356735542260463,1.309696816025797,5.763385830077802,1.8883970582598015,-0.2717422715000004,-0.27174227149999997,-0.4034455810000006
13242.0,3.0802687649999996,-0.7263785654999999,4.410638904,-1.2239383178998033,-0.2465993153435308,1.4141495357699014,5.428574124623406,1.8864398049949873,-0.31479346500000016,-0.3602963209999999,-0.23222147199999998
13252.0,2.747431064,-1.0125366125,4.314827933499999,-1.064327957804922,-0.26871612762480296,1.5212673732818014,5.214532379686315,1.8759682246836105,-0.33283770099999943,-0.286158047,-0.09581097050000054
13262.0,2.385957945,-1.2698631084999998,4.2310791425,-0.885531193242867,-0.29882480255095717,1.6342477717511503,5.0206950056477675,1.8826118921061117,-0.36147311900000023,-0.2573264959999999,-0.08374879099999966
13272.0,1.969371453,-1.4650154434999998,4.191558343,-0.7189918760175681,-0.3225403364270561,1.7480275310179128,4.857350668045054,1.9174414816620402,-0.416586492,-0.19515233499999995,-0.03952079949999998
13282.0,1.391171369,-1.6482036654999999,4.2873693135,-0.5761680926683681,-0.32973458360377667,1.8522149607157143,4.799319611281836,1.9675860406428423,-0.5782000839999999,-0.18318822200000007,0.09581097050000054
13292.0,0.7410885405,-1.8133476514999998,4.3819054195,-0.44160495266885724,-0.3478545918979818,1.9369489505707869,4.79984760544587,2.016876046871361,-0.6500828285000001,-0.1651439859999999,0.09453610599999962
13302.0,0.097085835,-2.0144820429999997,4.612950093499999,-0.29824709856854703,-0.3851592593301087,1.990242579280434,5.034567719879111,2.0489910959379762,-0.6440027054999999,-0.2011343914999999,0.23104467399999962
13312.0,-0.5181833859999999,-2.3508501379999998,4.935000479499999,-0.14183418166331918,-0.4467117860601927,2.007828516823529,5.490832370918481,2.061805933608438,-0.6152692209999999,-0.3363680950000001,0.3220503859999999
13322.0,-1.0401913655,-2.7232086384999996,5.308437711499999,0.030033625768318424,-0.5151932699206941,1.9758523395977405,6.056184797588092,2.04213579174898,-0.5220079795,-0.37235850049999986,0.3734372319999997
13332.0,-1.474724027,-3.1301846134999995,5.685503404,0.1944418959769323,-0.5874045223927076,1.8937817221812112,6.655660420070936,1.9923004128660275,-0.43453266150000003,-0.40697597499999993,0.3770656925000013
13342.0,-1.7727481204999997,-3.2414900909999997,5.9788203055,0.32793863980347454,-0.6335021585963817,1.7749405080836653,7.028242038678419,1.9129251275621657,-0.2980240934999998,-0.1113054775000002,0.2933169014999999
13352.0,-1.9990856025,-3.1780410655,6.2530142395,0.4225337399323152,-0.6377659979590039,1.6369128895189458,7.2935913883022625,1.8068658050356416,-0.22633748200000015,0.06344902549999976,0.2741939339999995
13362.0,-2.146283419,-3.045160958,6.4779787905,0.483552195911289,-0.6007283659024322,1.4964871885619861,7.472867387085739,1.683499688535936,-0.14719781650000008,0.13288010750000012,0.22496455100000023
13372.0,-2.2193429614999998,-2.8848222304999998,6.7533495225,0.5203245379215575,-0.5237192033166865,1.3616570131869201,7.671728114016917,1.5489122797134354,-0.0730595424999998,0.1603387275000001,0.27537073199999984
13382.0,-2.2587656945,-2.6584847485,7.105310190999999,0.5448394325950698,-0.4131386325688297,1.2324223633937479,7.915490921666553,1.4093964732552695,-0.03942273300000032,0.22633748199999992,0.3519606684999994
13392.0,-2.3402589559999996,-2.4945175605,7.496791658999999,0.5576292053536843,-0.27404461783114165,1.1263709220548164,8.240225422840872,1.2863756206008474,-0.08149326149999947,0.16396718799999999,0.3914814680000003
13402.0,-2.4670589405,-2.317311395,7.967216659499999,0.5552311229614441,-0.12455891272707932,1.045899026233114,8.656376448417209,1.1906726232345122,-0.1267999845000003,0.1772061654999999,0.4704250004999997
13412.0,-2.6598576795,-2.200023861,8.4891265725,0.5421743148272745,-0.006250024051391694,0.9771522523263093,9.164072120410777,1.1175055143870418,-0.1927987390000001,0.11728753399999992,0.5219099130000009
13422.0,-2.8417710369999996,-2.2024755235,8.902182670499998,0.525120702706038,0.06303082060652322,0.9171967018618,9.600802953779395,1.0587607976606324,-0.1819133574999996,-0.0024516624999999515,0.41305609799999843
