timestamp,ax,ay,az,gx,gy,gz,acc_mag,gyro_mag,dax,day,daz
142972.0,-0.1552392695,1.0331305775,10.1456658905,0.12546473860886437,0.15936426867035025,0.25884105471701907,10.19931342702123,0.32884200213787335,0.0,0.0,0.0
142982.0,-0.41384063,0.9075073909999999,9.630914831999998,0.09055815356897778,0.1918727713179966,0.26736873344226336,9.682425018196422,0.34132386259034225,-0.2586013605,-0.12562318650000004,-0.5147510585000017
142992.0,-0.26056269049999997,0.9744868105,9.7985104805,0.075103263042568,0.1817481163271775,0.25937338013887734,9.85029568571357,0.3254956654592884,0.15327793950000002,0.06697941950000008,0.16759564850000075
143002.0,-0.11454167199999998,0.8919148175,9.88706453,0.07776838081036333,0.19693597147803216,0.24871639972619997,9.92787373291405,0.32663671779000114,0.1460210185,-0.08257199299999995,0.08855404950000079
143012.0,0.004020726499999999,0.9409480674999999,9.899028643,0.08203047484373349,0.22225022694895794,0.23805767398427055,9.943649607005868,0.335850589287488,0.11856239849999999,0.04903324999999992,0.011964112999999443
143022.0,0.004020726499999999,1.1098185805,9.924133667,0.08363094176781229,0.23663872130239919,0.23539255621647523,9.985997320665946,0.34409544368202877,0.0,0.1688705130000001,0.025105024000000142
143032.0,0.08776951749999999,1.2055314844999998,9.9385494425,0.08922646734970612,0.24010319986760792,0.24658360738026286,10.011781792934762,0.35554800588814484,0.08374879099999999,0.09571290399999977,0.014415775499999839
143042.0,0.20388025349999997,1.246229082,9.9169748125,0.10015048313793862,0.25582512576957284,0.2668346626911531,9.997051741105935,0.38298479272848646,0.11611073599999998,0.04069759750000013,-0.021574629999999928
143052.0,0.299691224,1.3432168505,9.900205441,0.1132072912721082,0.28220403208421513,0.286553392580185,9.99540464969857,0.4178131799273095,0.09581097050000001,0.09698776850000002,-0.016769371499998798
143062.0,0.460128018,1.520423016,10.070252752,0.11587240903990355,0.33896039402981876,0.3161314874137329,10.19477289740653,0.47776529931754136,0.16043679400000005,0.17720616550000012,0.17004731099999937
143072.0,0.5475052694999999,1.705964834,10.219902231,0.08176518479743035,0.4223626976656198,0.3632937744611237,10.375764051199974,0.5630791777241879,0.08737725149999986,0.18554181799999991,0.1496494790000007
143082.0,0.5402483484999999,1.8639499654999998,10.373082104,0.0199456226917912,0.5047003504577043,0.42804548971011336,10.553056907279023,0.6620749299572244,-0.007256920999999972,0.15798513149999982,0.15317987299999913
143092.0,0.44934070299999995,1.9537788794999997,10.569411236999999,-0.055730108345430934,0.5923664934561275,0.5101161071266427,10.757862839531589,0.7837233888916052,-0.09090764549999997,0.08982891399999993,0.196329132999999
143102.0,0.3307783045,1.87110882,10.796827450499999,-0.1316711294289562,0.6696409460881765,0.5991139363443375,10.962752642419694,0.9081265284777071,-0.11856239849999994,-0.08267005949999984,0.22741621349999974
143112.0,0.1344491715,1.7071416320000001,11.054252013000001,-0.18096795415153605,0.7034811349550945,0.6787864713686266,11.186102837822439,0.9941761319708754,-0.19632913300000002,-0.16396718799999976,0.25742456250000245
143122.0,-0.08698498549999999,1.4138247304999998,11.369045477999999,-0.18496475813860305,0.676835193264897,0.7414053942716792,11.456948190382466,1.0207839140828712,-0.22143415699999996,-0.29331690150000034,0.3147934649999975
143132.0,-0.28449091649999997,1.1337468065,11.585772442999998,-0.15298858091281495,0.6008941721813718,0.7771113401089792,11.644588442868992,0.9941737006063007,-0.19750593099999997,-0.28007792399999976,0.21672696499999944
143142.0,-0.45090976699999996,0.9505585845,11.716200888,-0.10795559555285725,0.5012358718924955,0.7851049480831132,11.763343253026097,0.9377001596393114,-0.1664188505,-0.18318822200000007,0.1304284450000015
143152.0,-0.5730025595,0.8679865915,11.8131886565,-0.05972691233249795,0.3861244264064615,0.7832391911127313,11.858885229661244,0.8752845292928572,-0.12209279250000005,-0.08257199299999995,0.09698776850000002
143162.0,-0.6975470144999999,0.8703401874999999,11.815640319,-0.018690730959607275,0.2795389143164198,0.7800417479230777,11.868168351830615,0.82882837580762,-0.12454445499999989,0.002353595999999847,0.0024516625000003955
143172.0,-0.800418773,0.9075073909999999,11.868302029499999,0.011417943966546903,0.18974172430131153,0.7792423871256643,11.929829543640775,0.8020916339661958,-0.10287175850000008,0.03716720350000002,0.052661710499998904
143182.0,-0.924963228,0.9625226975,11.92096374,0.024474752100716486,0.1217943111919203,0.786436634302385,11.995473454880788,0.7961880729463165,-0.124544455,0.05501530650000008,0.05266171050000068
143192.0,-1.0374455034999999,0.9482049884999999,11.978430709,0.013283700936928843,0.06956707865524198,0.8029579210017633,12.060604799232205,0.8060753426589108,-0.1124822754999999,-0.014317709000000067,0.057466969000000034
143202.0,-1.147574183,0.9709564165,12.051392185000001,-0.018158405537749004,0.027733281814189895,0.8229419409370983,12.144782273260798,0.8236093131850666,-0.11012867950000005,0.022751428000000073,0.07296147600000147
143212.0,-1.2757470985000001,0.942222932,12.134062244499999,-0.06479011249253351,-0.015168656529082718,0.8442593924209572,12.237270172155153,0.8468776585249467,-0.1281729155000002,-0.028733484500000017,0.08267005949999806
143222.0,-1.43373223,0.8834810985,12.264490689499999,-0.10502518773875878,-0.08018391649512349,0.8695736478918827,12.379574258898392,0.8795556148601716,-0.15798513149999982,-0.05874183349999995,0.13042844499999973
143232.0,-1.652812791,0.8261121959999999,12.329116512999999,-0.10555751316061705,-0.17424669120210587,0.8946208679872535,12.46681055738004,0.9175242751109111,-0.21908056099999995,-0.05736890250000015,0.06462582350000012
143242.0,-1.8754237459999998,0.749424193,12.3566731995,-0.08077732844080156,-0.2779000501487971,0.9119415154840451,12.520631909267037,0.9567605459706592,-0.22261095499999994,-0.0766880029999999,0.027556686500000538
143252.0,-2.03586054,0.6261546025,12.3196040625,-0.060793308505466485,-0.386883644631079,0.9108751193110767,12.50237745316176,0.9914979898224887,-0.160436794,-0.12326959049999997,-0.037069136999999586
143262.0,-2.1340251064999998,0.5268132379999999,12.2417392615,-0.05812819073767114,-0.4844091525740182,0.8948879033628085,12.437514843788327,1.0192425978347828,-0.09816456649999994,-0.09934136450000008,-0.07786480100000048
143272.0,-2.1184325329999996,0.44777163899999994,12.0669847585,-0.07624819903187627,-0.5526218557297126,0.8674408555459457,12.25970542058156,1.0313381313400751,0.015592573500000206,-0.07904159899999996,-0.17475450299999906
143282.0,-2.0873454525,0.42148981699999993,11.803578139499999,-0.11888135667034176,-0.5704748286483625,0.8293368273164056,11.994128630258613,1.0135945344310027,0.03108708049999942,-0.02628182200000001,-0.2634066190000013
143292.0,-2.0873454525,0.436984324,11.633628895,-0.17643707941335876,-0.5427642361144486,0.7840385519101447,11.827480188276498,0.9697626049081154,0.0,0.015494507000000046,-0.1699492444999997
143302.0,-2.081363396,0.436984324,11.5258538115,-0.23212879051524585,-0.4918686897970419,0.735010507892372,11.720423839166374,0.9143626359934728,0.005982056500000166,0.0,-0.10777508349999998
143312.0,-2.1459892194999997,0.42864867149999997,11.546251643499998,-0.2691664225718175,-0.43458000242958006,0.6950407226924498,11.7518056667397,0.8627815179711761,-0.06462582349999968,-0.008335652500000013,0.020397831999998672
143322.0,-2.313584868,0.43816112199999996,11.6168595235,-0.2784917167652232,-0.3983417311704218,0.6683947810022524,11.853104458284486,0.8264292797146885,-0.1675956485000003,0.009512450499999991,0.07060788000000251
143332.0,-2.5170728555,0.41668455849999997,11.693449459999998,-0.2699657833692309,-0.3860842838336656,0.6505418080836024,11.968543856909307,0.8032105841422905,-0.20348798749999997,-0.02147656349999999,0.07658993649999779
143342.0,-2.6583866819999997,0.34127141999999994,11.8335864885,-0.25477792821837625,-0.40047277818710686,0.6430805255313267,12.133311794969812,0.7992764234567382,-0.1413138264999998,-0.07541313850000003,0.14013702850000165
143352.0,-2.7589048445,0.21319657099999997,11.944891966,-0.24465152789830513,-0.43751041024367854,0.6308230781945705,12.261217427250163,0.805734128082856,-0.10051816250000023,-0.12807484899999996,0.1113054775000002
143362.0,-2.8007792400000002,0.076688003,11.969996989999999,-0.250247053480199,-0.49026996820221513,0.596183528530239,12.293537869207062,0.8114327015762237,-0.04187439550000027,-0.13650856799999997,0.025105023999998366
143372.0,-2.7960720479999996,0.05511337299999999,12.020305104499998,-0.2776923559678098,-0.543563596911862,0.5356956526438715,12.341344788423953,0.8121233038844886,0.004707192000000582,-0.02157463000000001,0.050308114499999945
143382.0,-2.8140182174999997,0.11973919649999999,12.077772073499998,-0.32938726308262983,-0.5869961153477409,0.45815590996551947,12.401839148409271,0.8142280063659915,-0.017946169500000053,0.0646258235,0.057466969000000034
143392.0,-2.8630514674999996,0.2119217065,12.0885593885,-0.3999997939598164,-0.6293639829399033,0.38248017892829733,12.424783402721001,0.8380870751078893,-0.04903324999999992,0.09218251000000001,0.01078731500000174
143402.0,-2.8821744349999996,0.30175062049999996,12.0465869265,-0.47540848962148347,-0.6703984189835419,0.3267884678264103,12.390247757347728,0.8844421828950413,-0.019122967499999977,0.08982891399999995,-0.04197246200000038
143412.0,-2.8761923785,0.38677427600000003,11.934104650999998,-0.5417571811360479,-0.7087694825886373,0.2886844395968701,12.281894428781603,0.9376533092922992,0.005982056499999722,0.08502365550000007,-0.11248227550000145
143422.0,-2.8223538699999997,0.436984324,11.827604432,-0.5905199351075174,-0.7378135066710749,0.26203849790667266,12.167533162757016,0.9806868709077532,0.05383850850000016,0.05021004799999995,-0.10650021899999906
143432.0,-2.7182072469999996,0.34127141999999994,11.6839370095,-0.6318214065267113,-0.7623284013445872,0.23858999940612882,12.00081250839775,1.0184635825883035,0.1041466230000001,-0.09571290400000004,-0.14366742250000009
143442.0,-2.651129761,0.15572960199999997,11.607347072999998,-0.657135661997637,-0.7959033001652022,0.20981301069924632,11.907277051940994,1.053238264089192,0.06707748599999963,-0.18554181799999997,-0.07658993650000134
143452.0,-2.657209884,-0.0226533615,11.506730844,-0.6528718226350149,-0.8606532700849397,0.16424769991743038,11.809577988170258,1.0926769765245503,-0.006080122999999826,-0.17838296349999996,-0.10061622899999811
143462.0,-2.6691739969999997,-0.1113054775,11.414548334000001,-0.6256935555229592,-0.9379277227169888,0.09949598466844076,11.723002704290597,1.1318570092680353,-0.011964112999999887,-0.088652116,-0.09218250999999889
143472.0,-2.6691739969999997,0.025203090499999997,11.2206708635,-0.6137013982325061,-0.9930853630677655,0.02781880294753762,11.533801613042836,1.1677421934354357,0.0,0.136508568,-0.19387747050000037
143482.0,-2.6559350194999998,0.15572960199999997,10.917743445,-0.6323554772778215,-1.001878331839313,-0.03240203756327473,11.237231174430203,1.1851934582550807,0.013238977499999915,0.13052651149999997,-0.30292741850000127
143492.0,-2.5590453175,0.24546044949999998,10.640019117,-0.692841607834937,-0.9555136602600836,-0.0718394973413386,10.946185206701596,1.182453703900994,0.09688970199999991,0.08973084750000002,-0.2777243279999997
143502.0,-2.4823573145,0.2693886755,10.437707927499998,-0.7757115860488798,-0.872910717421696,-0.1075454431786386,10.732213885081475,1.1727180426976547,0.07668800299999967,0.023928226000000025,-0.20231118950000138
143512.0,-2.3507520715,0.15572960199999997,10.312084740999998,-0.8543177249002003,-0.7921717862244383,-0.1464488322055922,10.57777758870764,1.174241105745772,0.1316052430000001,-0.11365907350000004,-0.12562318650000037
143522.0,-2.2369949315,0.052759777,10.2772711335,-0.9006823964794297,-0.7450077538477955,-0.18881495446850258,10.518043157788341,1.1840255147809142,0.11375714000000015,-0.10296982499999996,-0.03481360749999851
143532.0,-2.1710942435,-0.043051193499999994,10.1707709145,-0.9161372870058395,-0.7410109498607286,-0.23704538301811384,10.400004068011695,1.201913170768223,0.06590068800000015,-0.0958109705,-0.10650021899999906
143542.0,-2.0742045415,-0.07060788,10.04985492,-0.9065449574368787,-0.7708560800698315,-0.2895379056010953,10.261914727074354,1.2246938616710412,0.09688970199999991,-0.027556686500000004,-0.12091599450000068
143552.0,-1.9951629424999997,-0.0442279915,9.888241328000001,-0.8852275059530199,-0.8100247591430884,-0.34496258132742724,10.087613585141167,1.2485059191836874,0.07904159900000018,0.026379888499999997,-0.16161359199999836
143562.0,-1.898175174,-0.0538385085,9.701522712,-0.8633777290473029,-0.8324086067999156,-0.3913272529066566,9.885621402200231,1.2615316922522892,0.0969877684999998,-0.009610516999999999,-0.18671861600000206
143572.0,-1.8119747204999999,-0.0442279915,9.4046754165,-0.8572481327142989,-0.8214828456824311,-0.4283648849632283,9.577741288669403,1.2622222076410385,0.08620045350000005,0.009610516999999999,-0.2968472954999992
143582.0,-1.7054745015,0.06472388999999999,9.125676224,-0.8687062192536417,-0.7807154450143474,-0.4624721092057014,9.283899988823785,1.2562036273021493,0.10650021899999995,0.10895188149999999,-0.2789991925000006
143592.0,-1.6312381609999997,0.10061622899999999,8.810882759,-0.9004153611038747,-0.6938486628133378,-0.4875193293010721,8.961178301779531,1.2368706018989395,0.07423634050000016,0.035892338999999995,-0.3147934649999993
143602.0,-1.5139506269999998,-0.0812971285,8.5522813985,-0.9475793934805173,-0.573139946416158,-0.5083044553630726,8.685630250202063,1.2185111917700104,0.11728753399999992,-0.18191335749999998,-0.25860136050000015
143612.0,-1.4445195449999997,-0.268113811,8.3404577585,-0.9998066260171957,-0.42791808067471776,-0.544809761997786,8.46886989821303,1.2163654261628398,0.06943108200000014,-0.1868166825,-0.21182364000000042
143622.0,-1.4086272059999998,-0.4249221445,8.1141202765,-1.0522991486001771,-0.2832285403551358,-0.6058299633060117,8.246437854969761,1.2468287166470469,0.035892338999999884,-0.1568083335,-0.22633748199999992
143632.0,-1.3594958895,-0.6092871645,7.9525066845,-1.0946670161923395,-0.14280283939817606,-0.6767077842295014,8.090848069850837,1.2948443738598174,0.0491313164999998,-0.18436502,-0.16161359199999925
143642.0,-1.2888880095,-0.7169641814999999,7.877093545999999,-1.111720628313576,-0.017566738921322926,-0.7534499114396921,8.013979827215794,1.343100187917023,0.07060788000000007,-0.10767701699999987,-0.07541313850000098
143652.0,-1.3367444614999997,-0.6440027055,7.8328655545,-1.0994631809768198,0.07516260423713579,-0.8283262816795008,7.9721645765071125,1.3786200101261998,-0.04785645199999977,0.0729614759999998,-0.044227991499999675
143662.0,-1.284082751,-0.6020302435,7.807662463999999,-1.056030662540941,0.11406599326408941,-0.8858820044225179,7.935420724653415,1.383111975512337,0.05266171049999979,0.041972462000000044,-0.02520309050000069
143672.0,-1.205041152,-0.5074941374999999,7.884350467,-0.9832853393178174,0.11886215804856982,-0.9162577147242271,7.992037084754642,1.349261453879485,0.07904159899999996,0.09453610600000006,0.076688003000001
143682.0,-1.1596363625,-0.44522191,7.9477994925,-0.8996160003064612,0.09434900870430947,-0.9234519619009478,8.044283424604055,1.2926616763057495,0.04540478950000004,0.062272227499999944,0.06344902549999976
143692.0,-1.132079676,-0.40217071649999997,7.977709774999999,-0.8167460220925185,0.04132241537021775,-0.9157253893023688,8.067663784030227,1.2277355559032068,0.027556686499999872,0.04305119350000003,0.029910282499999497
143702.0,-1.096187337,-0.29557243099999997,7.9142607494999995,-0.7272158674529654,-0.022362903705803346,-0.9008028241978174,7.995280667421419,1.1579243262926502,0.035892339000000106,0.1065982855,-0.06344902549999976
143712.0,-0.9836069949999999,-0.23692866399999998,7.7956983509999995,-0.635552920467475,-0.060732221981646684,-0.8872136906417895,7.861076942265727,1.0930526292744507,0.112580342,0.058643766999999986,-0.11856239849999994
143722.0,-0.9178043735,-0.21662889849999997,7.6820392774999995,-0.5731992876107258,-0.0679282144876193,-0.8752232786805885,7.739704155116898,1.0484214101139477,0.06580262149999994,0.02029976550000001,-0.11365907350000004
143732.0,-0.88063717,-0.24173392249999998,7.6149617915,-0.5502848598612922,-0.05593605719716627,-0.872291125537238,7.669524118253865,1.0328766030743208,0.03716720350000002,-0.025105024000000004,-0.06707748599999963
143742.0,-0.8470984269999999,-0.29920089149999995,7.61976705,-0.5502848598612922,-0.02502627614434669,-0.8968060202107504,7.672545002459482,1.0524736478299397,0.03353874300000004,-0.05746696899999998,0.004805258500000242
143752.0,-0.7932599185,-0.4249221445,7.5563180245,-0.571867601391454,0.012011355912224976,-0.9588926176919447,7.609714989049767,1.116535659285531,0.05383850849999994,-0.12572125300000003,-0.06344902549999976
143762.0,-0.703529071,-0.5026888789999999,7.547884305499999,-0.6219620415821954,0.07409620806416727,-1.040963235108474,7.597249946660016,1.2148792063683045,0.08973084750000004,-0.07776673449999993,-0.008433719000001005
143772.0,-0.6543977544999999,-0.422470482,7.4641355145,-0.6864467214556298,0.15350345304215327,-1.125964260339102,7.5046676614008785,1.3276173872972696,0.04913131650000002,0.08021839699999994,-0.08374879099999966
143782.0,-0.569374099,-0.3099882065,7.3276269465,-0.7421366872282648,0.25022960018767904,-1.19790847743556,7.356248787245716,1.4312115272216788,0.0850236554999999,0.1124822755,-0.136508568
143792.0,-0.5047482755,-0.1830901555,7.2809472925000005,-0.7685173388721591,0.34961911977174814,-1.2466712314070296,7.3007182045894865,1.505669813828728,0.06462582350000001,0.12689805099999998,-0.04667965399999918
143802.0,-0.4916073645,-0.0669794195,7.3468479805,-0.754394134565021,0.42156333686820635,-1.2698544398612703,7.3635819607066315,1.536019679461479,0.013140911000000033,0.11611073599999999,0.06590068799999926
143812.0,-0.4497329689999999,-0.06452775699999999,7.383917117499999,-0.7154907455380674,0.44581294149541556,-1.26505827507679,7.397881830155068,1.5202133485454197,0.04187439550000005,0.002451662500000007,0.037069136999999586
143822.0,-0.325188514,-0.1160126695,7.4174558605,-0.6616647914065623,0.4404827059598249,-1.235480180243242,7.42548705147264,1.4690937976217355,0.12454445499999994,-0.05148491250000001,0.03353874300000026
143832.0,-0.241439723,-0.142392558,7.480904885999999,-0.5870554565423087,0.4173012428348362,-1.1955103950433197,7.486154332752883,1.3957147061574697,0.08374879099999999,-0.026379888500000004,0.06344902549999976
143842.0,-0.241439723,-0.1267999845,7.4772764254999995,-0.4985899527464721,0.3730676182722919,-1.1507444450589173,7.482247932222613,1.3084281281816916,0.0,0.015592573500000012,-0.003628460499999875
143852.0,-0.25820909449999996,-0.20819517949999997,7.418632658499999,-0.41598700990808446,0.3261706212712043,-1.1102423344371368,7.426043878877387,1.2296627618046891,-0.016769371499999963,-0.08139519499999998,-0.0586437670000004
143862.0,-0.26419115099999996,-0.3566678605,7.4198094564999995,-0.3613616949791659,0.29392915399911307,-1.0955868047081405,7.433073475874376,1.1904986639301378,-0.005982056499999999,-0.14847268100000002,0.0011767980000003675
143872.0,-0.3060655465,-0.499158485,7.328901811,-0.3413776750438309,0.2782072280971481,-1.118502977786826,7.352253876681688,1.2020760750059984,-0.04187439550000005,-0.1424906245,-0.09090764549999975
143882.0,-0.30724234449999993,-0.648807964,7.161306162499999,-0.3384472672297324,0.2750097849074945,-1.1736606181376028,7.197197759229917,1.2520607737076026,-0.0011767979999999234,-0.14964947899999997,-0.16759564850000075
143892.0,-0.2821373205,-0.8056162975,6.900253139499999,-0.33658151025935046,0.29952467958100687,-1.2461389059851713,6.952849234349622,1.325090306257083,0.02510502399999992,-0.1568083335,-0.26105302299999966
143902.0,-0.197113665,-0.8797545714999999,6.6620496110000005,-0.33524807871082685,0.3581467984969924,-1.325012080212047,6.722776727099461,1.412910972517661,0.08502365550000002,-0.07413827399999995,-0.23820352849999882
143912.0,-0.1085596155,-0.848667491,6.453756364999999,-0.3344487179134134,0.45540527106437645,-1.3916278071021666,6.510222186621264,1.5019580085099349,0.0885540495,0.031087080499999864,-0.2082932460000011
143922.0,-0.027164420499999998,-0.7612902395,6.373537968,-0.33871255727603555,0.5822418384653083,-1.4361267217110143,6.418900759790311,1.5862508363207755,0.081395195,0.08737725150000009,-0.08021839699999944
143932.0,0.08178746099999999,-0.6822486405,6.3663791135,-0.34457511823348447,0.716537943089264,-1.4622403379793532,6.4033534505796235,1.6644234563374147,0.10895188149999999,0.07904159899999996,-0.007158854500000089
143942.0,0.17642163349999998,-0.548191735,6.4562080275,-0.34777256142313806,0.8319164239508532,-1.463572024198625,6.481840854683533,1.7190327980974784,0.09463417249999999,0.13405690550000005,0.08982891399999993
143952.0,0.314008933,-0.469150136,6.5686903029999995,-0.337647906432319,0.9123883197725557,-1.4401235256980813,6.592904955847524,1.7379339239581544,0.1375872995,0.07904159899999996,0.11248227549999967
143962.0,0.448163905,-0.3327396345,6.5711419655,-0.3141976626025232,0.9699440425155728,-1.3990890896544426,6.5948065385473775,1.7311735607923422,0.13415497199999998,0.1364105015,0.0024516625000003955
143972.0,0.5330894939999999,-0.26929060899999996,6.556726189999999,-0.2904838740556762,1.0285661614315582,-1.3556548258893115,6.583871214668515,1.7263050821003292,0.08492558899999997,0.06344902550000003,-0.014415775500000727
143982.0,0.6085026325,-0.29321883499999996,6.628510867999999,-0.2723638657614711,1.0743967622596773,-1.3274101626042873,6.662837913843641,1.7293143779867646,0.07541313850000009,-0.023928225999999997,0.07178467800000021
143992.0,0.5402483484999999,-0.3231291175,6.7817888075,-0.22972896279375363,1.0658708288636851,-1.3178178330353265,6.810942675883095,1.7104092671740225,-0.06825428400000011,-0.02991028250000005,0.15327793950000057
144002.0,0.534266292,-0.26085688999999995,6.884758632499999,-0.14659369453350773,0.9965899842057702,-1.3207482408494249,6.910382638871104,1.6610410059968692,-0.005982056499999944,0.062272227500000055,0.10296982499999885
144012.0,0.5810440124999999,-0.201036325,7.0151870775,-0.022689280275926284,0.8716191737752201,-1.3191495192545981,7.042079059535941,1.5812622305239805,0.04677772049999995,0.059820564999999964,0.1304284450000015
144022.0,0.6995083445,-0.0106892485,7.1073695875,0.13292602116114013,0.7104100920855119,-1.2837106087928531,7.141717485127687,1.4731818466048225,0.11846433200000006,0.1903470765,0.09218250999999977
144032.0,0.9616400989999999,0.310086273,7.078636103,0.27068660435030456,0.5659875871414851,-1.2088342385530446,7.150384203341998,1.3619447135882783,0.2621317544999999,0.32077552150000005,-0.028733484500000017
144042.0,1.2238699199999998,0.621349344,6.934968680499999,0.35195786096942056,0.4745899302022981,-1.098518957851491,7.069492427882354,1.2473387024007223,0.2622298209999999,0.31126307099999995,-0.14366742250000097
144052.0,1.469232303,0.7506009909999999,6.6944115559999995,0.38046955962999984,0.4468775923391321,-0.9666191902905236,6.894722002298222,1.1308445195418215,0.24536238300000024,0.12925164699999991,-0.24055712449999955
144062.0,1.652420525,0.748247395,6.4705257365,0.376738045689236,0.4919105776990898,-0.8373845404973514,6.719975525422279,1.0416911443349979,0.18318822199999985,-0.002353595999999847,-0.22388581949999953
144072.0,1.6906664599999999,0.609385231,6.259878894499999,0.3620825159602396,0.5923664934561275,-0.7403931033055224,6.512740376564722,1.0149796837158798,0.03824593499999995,-0.13886216400000007,-0.21064684200000094
144082.0,1.6380047495,0.38196901749999995,6.1665195865,0.35195786096942056,0.716537943089264,-0.7004233181056004,6.391785642557376,1.0620234386918315,-0.05266171049999979,-0.22741621350000002,-0.09335930799999925
144092.0,1.6380047495,0.0072569209999999995,6.154457407,0.3535565825642473,0.8876063897234882,-0.7201420479946323,6.368709303843607,1.1964330024879695,0.0,-0.3747120964999999,-0.012062179499999992
144102.0,1.7050822355,-0.23692866399999998,6.32332792,0.3652817044791452,1.0810586840145398,-0.800879233862638,6.553465999415426,1.394104066826736,0.06707748599999985,-0.24418558499999998,0.1688705129999999
144112.0,1.7972647454999997,-0.0812971285,6.623803676,0.36341594750876327,1.2734445821326226,-0.9047996281848844,6.863785029173818,1.6038686423239676,0.09218250999999977,0.15563153549999997,0.300475756
144122.0,1.9145522794999998,0.23231953849999998,6.948207658,0.3303751194392586,1.4333219776030592,-0.9807423945976617,7.210899559527739,1.7678844010810222,0.11728753400000014,0.31361666699999996,0.32440398200000065
144132.0,2.0498840494999997,0.565059173,7.320468092,0.28161236546778906,1.5476340622916798,-0.9977960067188982,7.623028897451201,1.8628133524789836,0.13533176999999985,0.3327396345,0.3722604339999993
144142.0,2.0797943319999996,0.9889025859999999,7.6281027025,0.24404066266010713,1.613185138338083,-0.9479668565744601,7.968150577637487,1.8869454938471613,0.02991028249999994,0.42384341299999995,0.30763461050000007
144152.0,2.060573298,1.4593275865,7.8807220065,0.23418129771559115,1.625175550299284,-0.8333877365102844,8.275347646164716,1.8413504742052975,-0.019221033999999637,0.4704250005,0.25261930400000043
144162.0,2.1085278165,1.696354317,8.108138219999999,0.2445729880819654,1.6150491499792128,-0.6580554505134381,8.547830889552246,1.7610328444689392,0.0479545185000001,0.2370267305,0.22741621349999885
144172.0,2.138438099,1.6556567195,8.425383347499999,0.2669568357387927,1.6025264125961534,-0.43502680671809063,8.848796597753308,1.6818457651578234,0.02991028249999994,-0.040697597499999905,0.31724512749999967
144182.0,1.9924170804999999,1.462956047,8.867172929999999,0.3386340174596958,1.573480643184464,-0.20826664898197936,9.20525512892754,1.6229261626257896,-0.14602101850000015,-0.1927006725,0.4417895825000002
144192.0,1.7948130829999998,1.0427410945,9.225115655,0.4524137767264581,1.491944096519045,-0.0244084295891407,9.455761304157011,1.559221338984602,-0.19760399750000013,-0.42021495250000007,0.3579427250000009
144202.0,1.5710253299999999,0.6811699089999999,9.627286371499999,0.5880433128989375,1.3683049723077665,0.09949598466844076,9.778382070225026,1.492632870485056,-0.22378775299999987,-0.3615711855000001,0.4021707164999988
144212.0,1.375872995,0.5471130034999999,9.926585329499998,0.7052875507309085,1.2257482243341216,0.16105025672777673,10.036406500377197,1.42331529320328,-0.19515233499999995,-0.13405690549999993,0.2992989579999996
144222.0,1.270549574,0.5590771164999999,10.1264448565,0.7764324070299534,1.0847884526260516,0.1746393902838046,10.221142248981804,1.345404097762397,-0.10532342100000003,0.011964112999999998,0.19985952700000098
144232.0,1.3136007675,0.7279476295,10.25579457,0.7897562505396781,0.9694117170937144,0.17250659793786755,10.36517134396305,1.2622331554974984,0.043051193500000196,0.1688705130000001,0.12934971350000168
144242.0,1.43569356,0.908684189,10.353959136499999,0.7663077520391343,0.8964011038242876,0.17916851969272987,10.492444555673185,1.1928385759278397,0.12209279249999994,0.1807365595,0.09816456649999772
144252.0,1.6021124104999998,1.085792288,10.677186320499999,0.749786465339756,0.8431074751146408,0.21407510473261648,10.851175825284129,1.1484067696888374,0.16641885049999972,0.1771080989999999,0.3232271840000003
144262.0,1.7313640575,1.163657089,11.065039328,0.7476554183230709,0.7663670932337021,0.29401467513246077,11.259965126525458,1.110293553675138,0.12925164700000025,0.07786480100000004,0.3878530075000004
144272.0,1.8439443995,1.186408517,11.436122964,0.753783269326823,0.6587151849706918,0.41552100699780203,11.644423754114486,1.083860055212145,0.112580342,0.022751428000000073,0.3710836360000016
144282.0,1.8559085124999999,1.2031778885,11.780924778,0.7804292110170205,0.5137603546048068,0.550351182372868,11.98675193966404,1.0843919398960504,0.011964112999999887,0.016769371499999908,0.34480181399999843
144292.0,1.781672172,1.209159945,11.913804885499998,0.841182376949691,0.3283016682878894,0.6766536790226896,12.106823297249994,1.1283749279500517,-0.07423634049999994,0.005982056499999944,0.13288010749999835
144302.0,1.7074358314999998,1.1361004024999999,11.952050820499998,0.9336446847325945,0.1545681038858698,0.7853719834586684,12.126729982112469,1.2297938235615358,-0.07423634050000016,-0.07305954250000002,0.03824593500000084
144312.0,1.597307152,0.9529121805,11.964014933499998,1.0319695534729472,0.042388811543186286,0.8677078909215009,12.107728320811736,1.3489532811059979,-0.11012867949999983,-0.18318822199999985,0.011964112999999443
144322.0,1.4883552704999998,0.73746008,12.059825903999998,1.0985852803630667,-0.012503538761287377,0.9300597784489982,12.173678557264774,1.439464187884003,-0.10895188150000013,-0.21545210050000008,0.09581097050000054
144332.0,1.3100703734999999,0.5004333495,12.210652180999999,1.1076452845101694,-0.030623547055492504,0.9748257284334009,12.290921226912742,1.4758391100481056,-0.17828489699999994,-0.2370267305,0.15082627700000018
144342.0,1.1639512885,0.3160683295,12.385406684,1.071407013251011,-0.04900884539600077,1.009199988051429,12.443993752770274,1.4726844437466926,-0.14611908499999982,-0.18436501999999994,0.17475450300000084
144352.0,1.074220441,0.274193934,12.550648736499998,1.0183804199169193,-0.06739414373650904,1.034779533568658,12.599520450251813,1.4534129947722043,-0.08973084750000004,-0.04187439550000005,0.16524205249999824
144362.0,1.0526458109999999,0.30175062049999996,12.732562093999999,0.9544298107945952,-0.08444775585774564,1.0521001810654498,12.779563925187494,1.4230187905297556,-0.02157463000000015,0.027556686499999983,0.18191335750000093
144372.0,0.9988073024999999,0.36039438749999997,12.951642654999999,0.888880480077444,-0.11828969005391568,1.0822106013208561,12.995097060233304,1.4054468130267355,-0.05383850849999994,0.05864376700000001,0.21908056100000017
144382.0,0.9377118729999999,0.44178958249999994,13.149148585999999,0.8369202829163209,-0.16918349104207034,1.1299069591193571,13.189942764420035,1.4162444527214466,-0.06109542950000002,0.08139519499999998,0.19750593100000025
144392.0,0.7916908544999999,0.5135742605,13.3406724605,0.8113389920698401,-0.21954496660836673,1.1831988424997517,13.374007425917267,1.4513546958992227,-0.14602101850000004,0.07178467800000005,0.1915238745000014
144402.0,0.5857512045,0.542307745,13.492773602,0.8097402704750132,-0.2741685362080333,1.2434196830105642,13.516365696395175,1.5089533458571522,-0.20593964999999992,0.028733484500000017,0.15210114149999931
144412.0,0.286550313,0.5100438665,13.551417369,0.8148034706350488,-0.30774343502864815,1.3193624494233416,13.564039536084724,1.5809263077419238,-0.29920089149999995,-0.03226387850000001,0.058643766999999514
144422.0,-0.071392412,0.34480181399999993,13.586132909999998,0.7932189837756348,-0.29948279167895897,1.3905073057223862,13.590695074778695,1.6286180847581189,-0.357942725,-0.16524205250000007,0.03471554099999885
144432.0,-0.40423011299999995,0.1628884565,13.570540336499999,0.7255386060417989,-0.26564260281204094,1.4429998283053678,13.57753658283013,1.6368325405413815,-0.33283770099999993,-0.18191335749999993,-0.015592573499999318
144442.0,-0.705882667,0.037167203499999996,13.481986286999998,0.6216182117195524,-0.21954496660836673,1.4768417625015378,13.500503915907844,1.6173035537502327,-0.3016525540000001,-0.125721253,-0.08855404950000079
144452.0,-0.92378643,-0.08492558899999998,13.3502829775,0.5073061270309318,-0.1713145380587554,1.4877657782897704,13.382475454983856,1.5811879042427486,-0.21790376300000003,-0.12209279249999998,-0.13170330949999887
144462.0,-1.1296280134999999,-0.24291072049999998,13.365875551,0.41057997988540607,-0.14679964338524304,1.4840360096782583,13.41572563493445,1.5467672524340896,-0.20584158349999981,-0.1579851315,0.015592573500001095
144472.0,-1.4385374884999997,-0.33754489299999996,13.444819083499999,0.35195786096942056,-0.17184860880986566,1.4549919855958209,13.52577121086469,1.5067872969985265,-0.3089094749999999,-0.09463417249999997,0.07894353249999853
144482.0,-1.8873878589999997,-0.3195987235,13.5107197715,0.3194493583217741,-0.2349998571347765,1.419818365180379,13.64565590282726,1.4741631576894882,-0.4488503705,0.017946169499999942,0.06590068800000104
144492.0,-2.380662354,-0.18544375149999998,13.436483431,0.29786661679161225,-0.3367874591110858,1.401433066839871,13.647015410713829,1.4717897114892429,-0.4932744950000003,0.13415497200000004,-0.07423634050000061
144502.0,-2.6894737624999996,-0.14356935599999998,13.262905726,0.28480980865744265,-0.45296530077008834,1.3971692274772487,13.533608150671489,1.4961203297257202,-0.30881140849999955,0.041874395499999995,-0.17357770499999958
144512.0,-2.9037490649999995,-0.20819517949999997,12.987534993999999,0.2709536397258597,-0.54169783994148,1.3947711450850087,13.309814765263638,1.520604804622063,-0.21427530249999993,-0.06462582349999998,-0.27537073200000073
144522.0,-3.0330987785,-0.3243059155,12.6440080445,0.24430769803566227,-0.5877954761451543,1.3729213681792913,13.006759856180446,1.5133085793384937,-0.12934971350000035,-0.11611073600000002,-0.3435269494999993
144532.0,-3.1743145384999996,-0.4368862575,12.336373433999999,0.2056695990550118,-0.5973878057141152,1.318563088625928,12.745715040531298,1.4621151777743508,-0.1412157599999997,-0.112580342,-0.30763461050000096
144542.0,-3.3119999044999995,-0.5266171049999999,12.0897361865,0.17689261034812928,-0.5798018681710202,1.2266331062648828,12.546250037435653,1.36824339184058,-0.13768536599999992,-0.08973084749999993,-0.24663724749999894
144552.0,-3.3670152109999996,-0.5829072759999999,11.873009221499998,0.15610748428612883,-0.547560400898929,1.1067254959943682,12.35495529321507,1.2446016482259374,-0.05501530650000008,-0.056290171,-0.21672696500000121
144562.0,-3.413694865,-0.5325991615,11.6862906055,0.14251835073010097,-0.5131861412809007,0.9785572423741647,12.186318665386828,1.1141121005089831,-0.046679654000000514,0.050308114499999945,-0.1867186159999985
144572.0,-3.4688082379999994,-0.3423501514999999,11.625293242499998,0.13399067200485668,-0.4609589087442224,0.8610459691666386,12.136608965949462,0.9858178212799226,-0.0551133729999993,0.19024901000000005,-0.060997363000002025
144582.0,-3.5490266349999997,-0.096889702,11.572631531999999,0.10734473031465926,-0.4036702213767605,0.7664526143670498,12.104989807750096,0.872881520495637,-0.08021839700000033,0.24546044949999993,-0.052661710499998904
144592.0,-3.5932546265,0.16406525449999998,11.4517155375,0.04685859975754376,-0.36583322852277544,0.7009032836498988,12.00334057545718,0.7920196288564101,-0.04422799150000012,0.2609549565,-0.1209159944999989
