timestamp,ax,ay,az,gx,gy,gz,acc_mag,gyro_mag,dax,day,daz
140722.0,-2.393999398,-0.08776951749999999,9.461455919999999,0.3470046165522606,0.18491239826104322,-0.1155442871405286,9.760024832546767,0.409823475694164,0.0,0.0,0.0
140732.0,-1.8576737094999998,-0.057859234999999995,9.3417167235,0.3454058949574338,0.19050792384293705,-0.12193917351983583,9.524808168365483,0.4128772981855417,0.5363256885000003,0.029910282499999996,-0.11973919649999942
140742.0,-1.4051948785,-0.10100849499999999,9.7139771575,0.3392780439536817,0.2669830156775726,-0.1488521505855884,9.815606327632368,0.4566689003022672,0.45247883099999986,-0.043149259999999995,0.3722604340000011
140752.0,-1.5787725835,0.037853669,10.061132567499998,0.34380717336260697,0.3602446842578896,-0.19042065738033734,10.18431854919499,0.5331412868544435,-0.17357770500000003,0.13886216399999998,0.3471554099999974
140762.0,-1.9306351854999997,0.24742177949999997,10.48134752,0.35766334229418995,0.4108714498704891,-0.2218627638550152,10.660544807441678,0.5881849205182966,-0.35186260199999975,0.20956811049999996,0.42021495250000207
140772.0,-2.258667628,0.2629162865,10.948242126499999,0.3845763193599426,0.40021272412855974,-0.25117382331300797,11.181892062077477,0.6092269359479416,-0.3280324425000003,0.015494507000000018,0.4668946064999986
140782.0,-2.4598020194999997,0.128859381,11.364828618499999,0.41601842583462034,0.31760978129017214,-0.2959397732974105,11.628695552085134,0.6012716966766598,-0.20113439149999968,-0.1340569055,0.4165864920000004
140792.0,-2.4705893344999996,0.015102240999999999,11.653340261499999,0.4378682027403374,0.20223130042858295,-0.36441951182866,11.912362443601404,0.6045061144815062,-0.010787314999999964,-0.11375713999999999,0.28851164299999965
140802.0,-2.405963511,-0.09620323649999998,11.823289506,0.4341384341288255,0.09831090610633658,-0.44036227824143725,12.06598898647211,0.6261470676648311,0.06462582349999968,-0.11130547749999999,0.16994924450000148
140812.0,-2.3197630575,-0.060310897499999995,11.9538160175,0.40322865307600597,0.033028610764740694,-0.505112248161175,12.176972342398523,0.6471650632048791,0.08620045350000005,0.03589233899999999,0.1305265114999994
140822.0,-2.259844426,0.0283412185,12.0507057195,0.35579758532380806,0.0053162729015747276,-0.557072445322298,12.260799663658947,0.6610218557787491,0.059918631499999986,0.088652116,0.09688970200000036
140832.0,-2.1916882085,0.10247949249999999,12.080714068499999,0.3089005883227204,-0.00507541746479951,-0.5997056029607636,12.278340753314954,0.6746051760482555,0.0681562174999999,0.07413827399999999,0.030008348999999157
140842.0,-2.0694973494999997,0.107284751,12.087872922999999,0.2566733557860421,-0.007740535232594852,-0.646070274539993,12.2642162856002,0.6952322828381441,0.12219085900000026,0.004805258500000006,0.007158854500000089
140852.0,-1.9402457025,0.034323275,12.1297473185,0.2140401981475766,0.01117883385902368,-0.6911032598999506,12.28399371067628,0.7235757656208782,0.1292516469999998,-0.072961476,0.041874395500000716
140862.0,-1.8767966769999997,-0.038736267500000005,12.2231066265,0.1823310562973436,0.045019022725941736,-0.7385325823228965,12.366414268817225,0.7620378610346272,0.0634490255000002,-0.0730595425,0.09335930800000014
140872.0,-1.8038352009999998,-0.07825706699999999,12.340492227,0.1463580750844885,0.05807583086011132,-0.7939572580492285,12.471876122121706,0.8094205432786953,0.07296147599999991,-0.03952079949999998,0.11738560050000046
140882.0,-1.6636981725,-0.1189546645,12.424241018,0.10159387042933793,0.04581838352335514,-0.8605729849393481,12.535701284520934,0.8677594719649713,0.14013702849999987,-0.040697597500000016,0.08374879099999966
140892.0,-1.4410872174999998,-0.148864947,12.414630501,0.046434484749309134,0.023169245820224723,-0.9303861550191213,12.498877694307065,0.9318322664391249,0.22261095500000017,-0.029910282499999996,-0.009610517000000485
140902.0,-1.1549291705,-0.1417060925,12.365597250999999,-0.022579324533050643,0.009046041513086609,-0.9983335681285125,12.420222919877974,0.9986298463473003,0.2861580469999998,0.007158854500000006,-0.049033250000000805
140912.0,-0.8089505584999999,-0.08659271949999998,12.1297473185,-0.1099784321559187,0.019971802630571113,-1.051093126087049,12.157000835560792,1.0570198144534633,0.34597861200000013,0.05511337300000001,-0.23584993249999897
140922.0,-0.46307001299999995,-0.0196133,11.965780130499999,-0.20856859094257438,0.07379775676207624,-1.0897312250676996,11.974753135240212,1.1119627282055973,0.3458805454999999,0.06697941949999998,-0.16396718800000087
140932.0,-0.18887607899999997,0.0187307015,11.778963447999999,-0.3015649694765883,0.16172918980680256,-1.108383558783763,11.780492558535789,1.1600051185374742,0.274193934,0.0383440015,-0.18681668249999994
140942.0,-0.05246557749999999,0.103754357,11.729930198,-0.36977941796153463,0.267782376474986,-1.1113139665978615,11.730506385206532,1.2014420300014625,0.13641050149999998,0.0850236555,-0.04903324999999903
140952.0,-0.0571727695,0.195936867,11.824466304,-0.4148106579922403,0.36317509207198806,-1.0955937860251486,11.826227773717767,1.22649491375316,-0.004707192000000006,0.09218250999999998,0.09453610599999962
140962.0,-0.142196425,0.20544931749999998,12.049528921499999,-0.44065898421427635,0.4116708106679025,-1.075075695338703,12.052119169482557,1.2326560539877787,-0.08502365549999999,0.009512450499999991,0.225062617499999
140972.0,-0.24036099149999998,0.23065240799999998,12.304501821499999,-0.43879322724389436,0.40580999503970555,-1.0673473774108722,12.309010480735154,1.223295415022514,-0.0981645665,0.025203090499999997,0.2549729000000003
140982.0,-0.277528195,0.246146915,12.491318503999999,-0.4225389759200712,0.34532211915333805,-1.0772067423553882,12.496825523754293,1.2075433399775108,-0.037167203499999996,0.015494507000000018,0.18681668249999994
140992.0,-0.232025339,0.301260288,12.631357466,-0.40868280698848825,0.2584553369523283,-1.0897312250676996,12.637079763653384,1.1921975259220599,0.04550285599999998,0.05511337299999999,0.140038962000002
141002.0,-0.138666031,0.38020382049999996,12.722363178,-0.41214728555369695,0.18277960591510617,-1.096126111447007,12.728798374010264,1.185228341512174,0.093359308,0.07894353249999997,0.0910057119999994
141012.0,-0.13140911,0.5167123885,12.818076082,-0.4446557882013433,0.1225605107335458,-1.0910629112869712,12.829159539524046,1.184549756303308,0.0072569209999999995,0.13650856800000005,0.0957129039999991
141022.0,-0.1254270535,0.498766219,12.967725561,-0.5118038405133212,0.06553711341238708,-1.0721435421953527,12.977919937816615,1.1898445526495514,0.005982056499999999,-0.017946169499999998,0.1496494790000007
141032.0,-0.034519408,0.2868445125,13.016856877499999,-0.6135931878188825,-0.019997982569351026,-1.0553569654496713,13.020062762260366,1.2209319571408233,0.0909076455,-0.21192170650000003,0.04913131649999869
141042.0,0.11042287899999999,0.09777230049999999,12.919869109,-0.731635041119015,-0.11725645513673505,-1.0574897577956084,12.920710910342518,1.2912488131677295,0.144942287,-0.189072212,-0.09698776849999824
141052.0,0.30430034949999996,0.0785512665,12.710399064999999,-0.8336896784708794,-0.1993270725532644,-1.076941452309085,12.71428383337919,1.3764347618187844,0.19387747049999998,-0.019221033999999998,-0.20947004400000147
141062.0,0.5820246775,0.1599464615,12.3248996535,-0.9069673271158614,-0.2504879089169742,-1.1134467589437984,12.339671270524581,1.4577714532709636,0.277724328,0.081395195,-0.38549941149999967
141072.0,0.9076054574999999,0.253403836,11.949010759,-0.9602592104962562,-0.24649110492990717,-1.1592773597719177,11.986109430890453,1.5253785146750323,0.3255807799999999,0.0934573745,-0.3758888944999992
141082.0,1.224850585,0.2868445125,11.660499116,-1.0012953918691467,-0.18547090362168142,-1.203510984334462,11.728161764068698,1.5765248514636034,0.3172451275000001,0.03344067649999999,-0.28851164299999965
141092.0,1.452364865,0.26409308449999996,11.490549871499999,-1.0335368591412382,-0.08634667408391547,-1.231755647619486,11.584983608438806,1.6102410262974263,0.22751428000000007,-0.022751428000000018,-0.16994924450000148
141102.0,1.6115267945,0.22467035149999998,11.348059247,-1.065246000991471,0.020771163427984515,-1.2482769343188644,11.464115493558882,1.6411507513360788,0.15916192949999997,-0.03942273299999999,-0.14249062449999883
141112.0,1.6689937635,0.22584714949999998,11.3050080535,-1.0998855506558025,0.10204242004710046,-1.2480098989433093,11.42977489748766,1.6666402094906314,0.057466969000000034,0.0011767980000000067,-0.043051193500000196
141122.0,1.6881167309999998,0.2748803995,11.3397235945,-1.132661088679004,0.13934708747922728,-1.2290905298516908,11.467982757711638,1.677200728346956,0.019122967499999755,0.04903325,0.03471554100000063
141132.0,1.6522243919999997,0.1911316085,11.235478904999999,-1.1409217320286933,0.1225605107335458,-1.1907194662465956,11.357920714549277,1.6536433487016478,-0.035892339000000106,-0.08374879099999999,-0.10424468950000154
141142.0,1.6127035925,0.14798234849999997,11.1229966295,-1.1249345160804252,0.046884779696323674,-1.1281022886727947,11.240274270345823,1.5938289185935455,-0.03952079949999976,-0.04314926000000002,-0.11248227549999967
141152.0,1.7048861025,0.15396440499999997,10.9398084075,-1.090827291837952,-0.061566489364099974,-1.0612195264071203,11.072928684558223,1.5231157199828558,0.09218251,0.005982056499999999,-0.18318822200000007
141162.0,1.904843696,0.092967042,10.692092428499999,-1.0556536714225102,-0.1598913581044525,-1.0025974074911346,10.860843101558745,1.4646403933704188,0.19995759349999997,-0.06099736299999997,-0.24771597900000053
141172.0,2.1214725944999997,0.0175539035,10.4777190595,-1.0223458079774503,-0.22624004961901698,-0.9405125553391923,10.690348488171573,1.40745848176468,0.21662889849999978,-0.0754131385,-0.2143733689999987
141182.0,2.3129964689999998,0.035500073,10.245497587500001,-0.985840501342737,-0.25768215609369477,-0.8714987460568325,10.503401055670388,1.340817531223181,0.19152387450000008,0.0179461695,-0.2322214719999991
141192.0,2.356145729,0.05226944449999999,10.0815303995,-0.9304158256164051,-0.28432809778389223,-0.804615983791158,10.353328449689785,1.2625066166634835,0.0431492600000003,0.01676937149999999,-0.16396718800000087
141202.0,2.335747897,0.023535959999999998,9.923545267999998,-0.8595380046929154,-0.3163042750096804,-0.7220130409527702,10.194754674135037,1.1662576075665034,-0.020397832000000005,-0.028733484499999993,-0.15798513150000204
141212.0,2.2795557924999996,0.058251501,9.7918419585,-0.7814641912634531,-0.3344242833038855,-0.6271526507776264,10.053851838411493,1.0563362773604643,-0.05619210450000045,0.034715541,-0.13170330949999887
141222.0,2.1754091695,0.12650578499999998,9.5643276785,-0.7313680057434598,-0.3618695857914963,-0.5173696954979311,9.8094226491728,0.966188469588463,-0.10414662299999966,0.06825428399999998,-0.2275142799999994
141232.0,2.2675916794999997,0.03667687099999999,9.414776265999999,-0.7228420723474674,-0.38664977051131183,-0.39986016761965687,9.684076071398906,0.9120783191375901,0.09218250999999977,-0.08982891399999998,-0.14955141250000104
141242.0,2.393214866,-0.184757286,9.302195924,-0.7422937668609443,-0.39411105306358757,-0.2956727379218554,9.606896567469418,0.8909241979078276,0.12562318650000037,-0.221434157,-0.11258034199999933
141252.0,2.4579387559999994,-0.378732823,9.174121074999999,-0.7689397085511418,-0.40050593944289475,-0.20374275556081006,9.505230085496274,0.8906090013913304,0.06472388999999934,-0.193975537,-0.12807484900000077
141262.0,2.4339124635,-0.497197155,9.032905314999999,-0.7939869286465124,-0.43647892065574995,-0.1248695813339343,9.368271629317544,0.9146154948287518,-0.024026292499999435,-0.118464332,-0.1412157599999997
141272.0,2.413612698,-0.6540054885,8.956217312,-0.7934546032246541,-0.5044263337651411,-0.06678153316905903,9.298767551385692,0.9425899992820552,-0.0202997654999999,-0.15680833349999995,-0.07668800299999923
141282.0,2.4064538435,-0.7162777159999999,8.838929777999999,-0.7516190610543501,-0.5832995079920169,-0.035871752116239455,9.188620869736067,0.9520799922085542,-0.007158854500000089,-0.062272227499999944,-0.1172875340000008
141292.0,2.4830437799999996,-0.7450112004999999,8.678492984,-0.6868690911346125,-0.646984827068038,-0.027611108766550294,9.057416219629324,0.944002589053476,0.07658993649999957,-0.028733484500000017,-0.16043679399999888
141302.0,2.5692442334999996,-0.693526288,8.491774368,-0.6367746509438711,-0.6472501171143411,-0.02121622238724307,8.899001436146746,0.9082206770832748,0.08620045350000005,0.05148491249999987,-0.18671861600000028
141312.0,2.6446573719999997,-0.5319126959999999,8.399591857999999,-0.6181223172278077,-0.5774369470345679,-0.011356857442727101,8.822147534042934,0.8459536660282592,0.07541313850000009,0.16161359200000014,-0.09218251000000066
141322.0,2.703301139,-0.4576763555,8.4067507125,-0.6322437762056938,-0.4567299759666401,0.008360127117052838,8.84255405618884,0.7800027918044501,0.0586437670000004,0.07423634049999989,0.007158854500000089
141332.0,2.6637803394999997,-0.3643170475,8.566010708499999,-0.6759450753463799,-0.3272282907979128,0.04060333971839608,8.978028295029064,0.7520829278609069,-0.039520799500000425,0.09335930800000003,0.1592599959999994
141342.0,2.612295427,-0.38706847549999995,8.7168369855,-0.7444248138776294,-0.2358323791879778,0.08776737209503885,9.108081929497107,0.7858042543755247,-0.05148491249999987,-0.022751427999999962,0.15082627700000195
141352.0,2.5823851445,-0.322442652,8.682121444499998,-0.7737358733356222,-0.18706962521650822,0.1509186204199497,9.063769363537988,0.8102090325061452,-0.02991028249999994,0.06462582349999996,-0.0347155410000024
141362.0,2.5919956615,-0.43374812949999997,8.782639607,-0.8206328703367098,-0.21691301009635927,0.224995629862345,9.167406253435303,0.8781301698969715,0.00961051700000004,-0.11130547749999997,0.100518162500002
141372.0,2.7798910754999997,-0.6576339489999999,9.008879022499999,-0.9450713553454015,-0.2853944939568608,0.28148495643239346,9.450935299988167,1.0265688796047896,0.18789541399999976,-0.22388581949999997,0.2262394154999985
141382.0,2.8504989554999995,-0.9688970199999999,8.673687725499999,-1.0236774941967222,-0.3229661967645427,0.32891602418459137,9.181337837709753,1.12267917382609,0.07060787999999985,-0.31126307099999995,-0.3351912969999997
141392.0,2.6865317675,-1.0011608985,8.318196662999998,-0.9978309133039381,-0.353341907066252,0.3955317510747109,8.798418710587505,1.1300276106991431,-0.16396718799999954,-0.03226387850000012,-0.3554910625000005
141402.0,2.4973614889999998,-1.0443101584999999,7.9913410185,-0.949867520129882,-0.3967761708313829,0.47467021534788983,8.437353221706864,1.1335746331299579,-0.18917027850000023,-0.043149259999999856,-0.3268556444999984
141412.0,2.3513404705,-1.186800783,7.8106044589999994,-0.8899137149946248,-0.43488019906092307,0.542352338410978,8.242744695894157,1.129253411175126,-0.14602101849999993,-0.14249062450000016,-0.18073655950000056
141422.0,2.2722988715,-1.3291933409999999,7.616726988499999,-0.8206328703367098,-0.45006805421177776,0.5921797432261641,8.058822936168978,1.1075542467917536,-0.07904159899999996,-0.14239255799999984,-0.19387747050000037
141432.0,2.1885500804999998,-1.433339964,7.409610540499999,-0.7292369587267749,-0.43434612830981284,0.6334812146453579,7.857896873155359,1.059123010069821,-0.0837487910000001,-0.1041466230000001,-0.20711644799999984
141442.0,2.1550113375,-1.4501093354999999,7.281535691499999,-0.6309120899864222,-0.41009826901185564,0.6662567526685593,7.730954208650195,1.0050515986823807,-0.033538742999999815,-0.016769371499999908,-0.12807484899999988
141452.0,2.0975443685,-1.5218940134999999,7.300658659,-0.5408478645957588,-0.383185291946103,0.6982329298943475,7.746965252367206,0.9627443092485446,-0.057466969000000034,-0.07178467799999999,0.01912296750000042
141462.0,2.0257596904999997,-1.6225102425,7.281535691499999,-0.4606430041496114,-0.3594715033992561,0.7520571386966006,7.730265444165577,0.9523663574972702,-0.07178467800000021,-0.10061622900000011,-0.01912296750000042
141472.0,1.986238891,-1.6284922990000001,7.2024940925,-0.400422163638799,-0.34774638148435816,0.8221373441519289,7.64676750349588,0.9783533449719631,-0.03952079949999976,-0.005982056500000166,-0.07904159899999907
141482.0,1.9012152354999998,-1.7505850914999999,7.164150090999999,-0.3775059905601135,-0.3384210872909525,0.8815588238653279,7.616049767474913,1.0169491458115216,-0.08502365550000013,-0.12209279249999971,-0.03834400150000139
141492.0,1.755194217,-1.9062166269999998,7.051667815499999,-0.39269559104022017,-0.34534829909211795,0.9279234954445572,7.512681781401368,1.0651372157174361,-0.14602101849999993,-0.15563153549999997,-0.11248227549999967
141502.0,1.6427119414999998,-2.0630249605,6.8888774255,-0.4265357799071382,-0.36799743679524843,0.9449771075657939,7.3763952371030275,1.1001529979290505,-0.11248227550000012,-0.15680833350000012,-0.16279038999999962
141512.0,1.6390834810000001,-2.298874893,6.724812171,-0.4441217174502331,-0.3863844804650087,0.9305868678831006,7.2934572848946315,1.1011489387597115,-0.003628460499999653,-0.23584993249999986,-0.16406525449999965
141522.0,1.6726222239999997,-2.4257729439999998,6.538093554999999,-0.4366604348979573,-0.3903812844520757,0.8970137143917376,7.171381095297729,1.0713092394180999,0.03353874299999959,-0.12689805099999996,-0.18671861600000117
141532.0,1.6666401674999998,-2.4341085964999998,6.248405113999999,-0.42280601129562634,-0.36000382882111437,0.8565116037699573,6.909785856026289,1.0207741216087738,-0.005982056499999944,-0.008335652500000013,-0.289688441
141542.0,1.6163320529999998,-2.355165064,6.037758272,-0.41108088938072845,-0.28059832917238037,0.8314643836745866,6.6793605034723,0.9690489880639381,-0.050308114499999945,0.07894353249999986,-0.21064684199999917
141552.0,1.454718461,-2.2701414085,5.955088212499999,-0.39802408124655886,-0.16815025612488968,0.8327960698938582,6.537034758513757,0.9382147792044684,-0.16161359199999992,0.08502365550000013,-0.08267005950000073
141562.0,1.1111915115,-2.2018871245,6.043740328499999,-0.37697366513825525,-0.04984136744920207,0.8607736978033274,6.527622127743442,0.9410232010673221,-0.34352694949999996,0.068254284,0.08865211600000045
141572.0,0.7615844390000001,-2.2210100919999998,6.178974031999999,-0.3441981271150537,0.021837559600953054,0.9124686049181474,6.610039090249249,0.9754733131562883,-0.3496070724999999,-0.019122967499999977,0.13523370349999997
141582.0,0.5449555405,-2.424596146,6.3836388175,-0.299166887084348,0.02210284964725619,0.969224966863751,6.850291056926887,1.014586811801882,-0.2166288985000001,-0.20358605400000007,0.20466478550000033
141592.0,0.5077883369999999,-2.7166381829999997,6.603896176499999,-0.23308348561608672,-0.04158072409951291,1.004930912701051,7.158869793655845,1.032445159408359,-0.03716720350000002,-0.29204203699999987,0.22025735899999965
141602.0,0.550937597,-2.9417008005,6.674602123,-0.1472830995880455,-0.1518960048010665,1.0091947520636733,7.314878627551286,1.0311346930889518,0.04314926000000008,-0.22506261750000034,0.0707059465000004
141612.0,0.5928119924999999,-2.9968141734999993,6.593206928,-0.051623348615488285,-0.2853944939568608,0.9878773005798144,7.266546555577106,1.0295710506342095,0.04187439549999994,-0.0551133729999993,-0.08139519499999981
141622.0,0.645473703,-2.983575196,6.459051956,0.04163831996482872,-0.4034380925862453,0.94124559362503,7.144068128297658,1.024909416366957,0.052661710500000014,0.013238977499999471,-0.13415497200000015
141632.0,0.7029406719999999,-2.8171563455,6.190938145,0.12131085498911787,-0.46312486234594735,0.891683478856147,6.837997556197191,1.0120772639112807,0.05746696899999992,0.16641885049999994,-0.2681138110000001
141642.0,0.7077459304999999,-2.5287427689999995,5.9587166730000005,0.1735380875257962,-0.4394093284698484,0.8567768938162604,6.511662512983707,0.9783980128484898,0.00480525850000002,0.28841357650000043,-0.2322214719999991
141652.0,0.6131117580000001,-2.346731345,5.859375308499999,0.19485553900965494,-0.33895341271281076,0.8503820074369532,6.34155604242861,0.9359528063128538,-0.09463417249999984,0.1820114239999997,-0.09934136450000164
141662.0,0.529362967,-2.321626321,5.841429139,0.1953878644315132,-0.2179794062693278,0.8597090469596108,6.308127163520827,0.9081800947768225,-0.0837487910000001,0.025105023999999698,-0.017946169499999165
141672.0,0.4982758865,-2.3886057405,5.9084085585,0.18046529932696168,-0.10739709019221909,0.8762285883297372,6.392418003914712,0.9010429502799795,-0.031087080499999975,-0.06697941949999997,0.06697941949999997
141682.0,0.48866536949999995,-2.568165502,6.052075981,0.1695412835387292,-0.019730947193795898,0.8730311451400836,6.592563353416378,0.8895599684595356,-0.00961051700000004,-0.17955976149999975,0.14366742250000009
141692.0,0.5688837664999999,-2.7142845870000003,6.243599855499999,0.18206402092178847,0.02503500279060666,0.8354611876616537,6.831801278917047,0.8554352431177686,0.080218397,-0.14611908500000048,0.19152387449999964
141702.0,0.566432104,-2.7573357804999996,6.471114135499999,0.19272274666371786,0.05274734065377263,0.7739069156023176,7.056845193819637,0.7992848384929777,-0.0024516624999999515,-0.04305119349999931,0.2275142799999994
141712.0,0.462285481,-2.5897401319999998,6.5177937895,0.20844467256568278,0.09165072968072623,0.7110227026529619,7.028662582574266,0.7465938128995889,-0.104146623,0.16759564849999986,0.04667965400000096
141722.0,0.284000584,-2.2749466669999996,6.667345202,0.21910339830761213,0.15400261720822367,0.6801129216001424,7.05049861442715,0.7309423310935057,-0.178284897,0.31479346500000016,0.14955141250000015
141732.0,0.0014709974999999999,-2.0618481625,6.7176533165,0.23482357888032507,0.25285981137043445,0.6968994983458239,7.02695425413612,0.7776561632232569,-0.2825295865,0.21309850449999956,0.050308114499999945
141742.0,-0.41040830249999993,-1.9924170804999999,6.879266908499999,0.2580067873345658,0.34985299389151536,0.7749733117752862,7.173735010147239,0.8885652781926128,-0.41187929999999995,0.06943108200000014,0.16161359199999925
141752.0,-0.7838455344999999,-2.057042904,7.124727358,0.2929133723744523,0.39008806913774063,0.8908841180587336,7.457048964348163,1.015697522498048,-0.373437232,-0.0646258234999999,0.24546044950000123
141762.0,-0.9801746674999999,-2.334767232,7.3641076844999995,0.32835228283619716,0.3602446842578896,0.991074743769468,7.787294934400625,1.1044548890369064,-0.196329133,-0.27772432800000013,0.23938032649999919
141772.0,-0.9251593609999998,-2.6975152154999997,7.557985155,0.37764736222952505,0.2800398238117422,1.0211851640248741,8.078096792209184,1.1242148248194999,0.05501530650000008,-0.3627479834999998,0.19387747050000037
141782.0,-0.823366334,-2.922577833,7.677724351499999,0.46478117980608996,0.22754555589950873,0.9940051515835666,8.256321488866798,1.1206447994285373,0.10179302699999981,-0.22506261750000034,0.11973919649999942
141792.0,-0.9813514655,-2.7945029839999997,7.8154097175,0.5657711663142378,0.23793724626588295,0.9508379231939907,8.357806331736656,1.131726071970168,-0.15798513149999993,0.12807484900000032,0.13768536600000036
141802.0,-1.3237016169999998,-2.5287427689999995,7.957900341999999,0.6299888108121172,0.2829702316258407,0.9340513464483093,8.454283163924774,1.1616410682894898,-0.3423501514999998,0.26576021500000024,0.14249062449999972
141812.0,-1.6565393179999999,-2.393410999,8.220032096499999,0.6417121873977631,0.34612147995075143,0.9628300804844439,8.720175823325139,1.2077401931805536,-0.3328377010000001,0.13533176999999963,0.2621317544999995
141822.0,-1.9749612435,-2.4460727095,8.480987053,0.6171972927242507,0.39781464173631953,1.0249149326363862,9.044936981905478,1.2608091078616892,-0.31842192550000004,-0.052661710500000236,0.2609549565000009
141832.0,-2.271808539,-2.7142845870000003,8.722819042,0.5806919860895374,0.4122048814190128,1.0925970556994742,9.413608601199481,1.3041795785463879,-0.2968472954999999,-0.2682118775000002,0.24183198899999958
141842.0,-2.4609788175,-3.1176321015,8.925130231499999,0.5599086053567889,0.35305043708116896,1.1328321309456995,9.769032516565918,1.3120407365546098,-0.18917027850000023,-0.4033475144999996,0.2023111894999996
141852.0,-2.4956943584999998,-3.4612571174999998,8.9598457725,0.5710996565205766,0.23580619924919788,1.1157785188244629,9.924093280067417,1.2754297645705095,-0.03471554099999974,-0.34362501599999984,0.03471554100000063
141862.0,-2.3699731054999997,-3.6971070499999996,8.878450577499999,0.6108024063449435,0.11989539296575047,1.040636858538351,9.905163184777072,1.2125920815343274,0.12572125300000003,-0.23584993249999986,-0.0813951950000007
141872.0,-2.3807604205,-3.5199008845,8.677316185999999,0.667293478244244,0.08339008633103707,0.9391145466083448,9.661963496533238,1.15506303908358,-0.010787315000000408,0.17720616549999946,-0.20113439150000012
141882.0,-2.672900524,-3.005149826,8.53963082,0.7160562322157136,0.13002004795656957,0.8740975413130521,9.439312328226096,1.137404172796599,-0.29214010349999997,0.5147510585000004,-0.13768536599999948
141892.0,-3.0607535314999996,-2.68309944,8.5444360785,0.754692585867112,0.2056957789937917,0.8610407331788826,9.464387073925627,1.1632982407155434,-0.3878530074999995,0.3220503859999999,0.0048052585000011305
141902.0,-3.3228852859999995,-2.830395323,8.781462809,0.8031883044630265,0.2605863839690134,0.879960102270501,9.806466915980788,1.2195681602617165,-0.2621317544999999,-0.14729588299999996,0.23702673050000023
141912.0,-3.4641991125,-3.249335411,9.244728955,0.8658072273660791,0.27151214508649785,0.9050073223658717,10.393453206496853,1.2815534532061679,-0.14131382650000024,-0.41894008800000027,0.4632661459999987
141922.0,-3.4989146535,-3.5426523125,9.559620486499998,0.9481448801581636,0.2054287436182366,0.8932822004509738,10.778642447249519,1.3187618329771449,-0.03471554100000018,-0.2933169014999999,0.31489153149999893
141932.0,-3.3408314554999996,-3.595314023,9.719959214,1.0219548542250037,0.08312305095548193,0.8205386225571021,10.888757728035928,1.3132344789800878,0.15808319800000037,-0.05266171049999979,0.160338727500001
141942.0,-3.1768642675,-3.4217363179999998,9.7475159005,1.0507318429318862,-0.019198621771937627,0.7115550280748202,10.808090128905237,1.2691400832089175,0.16396718799999954,0.17357770500000003,0.027556686500000538
141952.0,-3.1552896374999997,-3.0674220535,9.64582094,1.0262186935876259,-0.057035614625922694,0.6079016691281289,10.602206956919655,1.194119888341709,0.021574630000000372,0.3543142644999997,-0.10169496049999971
141962.0,-3.272675238,-2.5717939624999997,9.473420033,0.9681289000934987,-0.04584456346213506,0.5226336085219461,10.34747382314232,1.1011453945560288,-0.11738560050000046,0.4956280910000004,-0.1724009070000001
141972.0,-3.3791754569999997,-2.2174796979999996,9.290231810999998,0.9025795693763475,0.003984586682303054,0.4672089327956141,10.131359735116982,1.0163414499422123,-0.10650021899999951,0.35431426450000014,-0.18318822200000184
141982.0,-3.423501515,-2.1875694154999996,9.289055012999999,0.8594123409867718,0.08179136473621026,0.44615851668731044,10.138656992194711,0.9717699425267258,-0.044326058000000224,0.02991028249999994,-0.0011767979999994793
141992.0,-3.3480883765,-2.472452598,9.5320638,0.87779763932728,0.1404134836521958,0.4378978733376213,10.40110368727674,0.9909587223863073,0.07541313850000009,-0.2848831825000002,0.24300878700000084
142002.0,-3.2319776404999994,-2.8662876619999995,9.8408752085,0.9505429625504037,0.1521368602378417,0.4045900098925615,10.747283810307389,1.0442081325109422,0.11611073600000044,-0.3938350639999997,0.30881140850000044
142012.0,-3.0894870159999996,-2.9524881155,10.069566286499999,1.0398078271436537,0.1055068986123092,0.33424451439093006,10.938842776656895,1.0972927678812174,0.14249062449999972,-0.0862004535000005,0.22869107799999888
142022.0,-2.894334681,-2.875898179,10.2311798785,1.1008280284518794,0.0167743594409175,0.2257949906597584,11.014763060903224,1.1238714807160761,0.1951523349999995,0.07658993650000001,0.16161359200000192
142032.0,-2.7051644025,-2.5466889384999996,10.2694258135,1.101892679295596,-0.0509077636221706,0.12267395713492543,10.920835386224425,1.1098684502414597,0.18917027850000023,0.32920924050000044,0.038245934999999065
142042.0,-2.7267390325,-1.9696656524999998,10.159297134,1.0432723057088624,-0.055703928406651025,0.05632352029110901,10.701682428052978,1.0462754754064545,-0.021574629999999928,0.5770232859999997,-0.11012867950000071
142052.0,-2.8488318249999995,-1.330370139,9.939039775,0.9422823192007146,-0.01866455102082736,0.04593182992473477,10.424501864497303,0.9435857499683435,-0.12209279249999971,0.6392955134999998,-0.22025735899999965
142062.0,-2.8715832530000003,-1.1604208945,9.814593386499999,0.815978077221641,0.049548152134867025,0.07737393639941262,10.291686468875339,0.8211345613967582,-0.02275142800000074,0.16994924449999993,-0.12444638850000089
142072.0,-2.7961701144999997,-1.7015518415,9.9091294925,0.7408364169355292,0.13455092269474686,0.12000883936713011,10.435741146543847,0.7624596179353543,0.07541313850000053,-0.5411309469999999,0.0945361060000014
142082.0,-2.6405385789999998,-2.0223273629999996,10.2431439915,0.7560242720863838,0.19796920639521282,0.1549154244070167,10.769598450310413,0.7967203369964287,0.15563153549999997,-0.32077552149999966,0.33401449900000024
142092.0,-2.616610353,-2.054689308,10.505275745999999,0.7805391667598961,0.21022665373196897,0.1565141460018435,11.019492565056348,0.8233670595088562,0.023928225999999775,-0.032361945000000336,0.2621317544999986
142102.0,-2.7195801779999997,-2.021150565,10.768682365,0.8135799948294007,0.14627429928039276,0.1152126745826497,11.289184462539016,0.8346152041516289,-0.10296982499999974,0.033538742999999815,0.2634066190000013
142112.0,-2.8393193745,-1.9133754815,10.864395269,0.8487536152448425,0.02236988502281132,0.04753055151956158,11.391129215520557,0.8503777187079149,-0.11973919650000031,0.1077750835000002,0.0957129039999991
142122.0,-2.9218913675,-1.6811540095,10.8584132125,0.8833931649091739,-0.11272732572780976,-0.04413239546592861,11.36964667263339,0.8916493717283447,-0.08257199299999973,0.23222147199999998,-0.0059820564999988335
142132.0,-2.9518016499999997,-1.290947406,10.767505566999999,0.9241623109065095,-0.21904580244229632,-0.14378895042555284,11.239166086564289,0.9605895599745666,-0.02991028249999994,0.3902066035,-0.09090764550000152
142142.0,-2.9350322785,-0.9868431894999999,10.6261917405,0.9593359313219512,-0.2901906587413412,-0.21546787747570795,11.068162668770722,1.0251645983791946,0.016769371499999686,0.30410421649999997,-0.14131382649999935
142152.0,-2.69682875,-0.9341814789999999,10.575883626,0.9798540220083966,-0.3213674751697159,-0.23305381501880282,10.954218128795322,1.0572157013768797,0.23820352850000015,0.052661710500000014,-0.050308114499999945
142162.0,-2.2970116294999996,-1.129333814,10.791433793,0.9825173944469399,-0.3040468276729242,-0.2202640422601884,11.090838588592135,1.051808514950117,0.3998171205000003,-0.19515233500000007,0.21555016699999996
142172.0,-1.8719914185,-1.31605243,10.9864880615,0.9657308177012583,-0.2504879089169742,-0.2242608462472554,11.222266517728428,1.022581601600124,0.42502021099999965,-0.18671861600000006,0.19505426849999985
142182.0,-1.680467544,-1.3004598565,11.115837775,0.9196331814975841,-0.19159875462543352,-0.2586351058652837,11.31711166530234,0.9743343313623574,0.19152387449999986,0.015592573499999984,0.1293497134999999
142192.0,-1.7463682319999998,-1.086184554,11.198409768,0.8508846622615275,-0.1428377459832159,-0.308729546056025,11.385691907790443,0.9163630627417491,-0.06590068799999971,0.21427530250000015,0.08257199300000018
142202.0,-1.9821200979999998,-0.7498164589999999,11.249894680499999,0.778408119743211,-0.11698941976117991,-0.34763293508297854,11.447757646256537,0.8604965907966313,-0.23575186599999998,0.336368095,0.051484912499999425
142212.0,-2.2167932324999997,-0.40148425099999996,11.248717882499998,0.7176549538105405,-0.11166092955484123,-0.3649535825797703,11.472097272928524,0.8128271116022578,-0.23467313449999994,0.348332208,-0.0011767980000012557
142222.0,-2.393999398,-0.2793914585,11.300202795,0.6531702739371059,-0.11752349051229018,-0.36521887262607344,11.55438773422603,0.7575143579494229,-0.17720616550000035,0.12209279249999994,0.05148491250000298
142232.0,-2.336532429,-0.46728687249999995,11.4091546765,0.603608159168223,-0.12818221625421955,-0.35829166082490793,11.655322871773278,0.7135449562536093,0.057466969000000034,-0.18789541399999993,0.10895188149999946
142242.0,-2.1497157464999996,-0.7426576045,11.666481172500001,0.5849558254521595,-0.11592476891746338,-0.3886673711266172,11.886109584576811,0.7118105050906879,0.18681668250000039,-0.275370732,0.257326496000001
142252.0,-2.0336050105,-0.921040568,11.8029897405,0.5892196648147816,-0.09061051344653762,-0.45927990200380386,12.012261730456123,0.7525477439578917,0.11611073599999955,-0.17838296350000005,0.13650856799999822
142262.0,-2.1138234075,-0.7594269759999999,11.763468941,0.583889429279191,-0.08634667408391547,-0.54294924101516,11.975983477603961,0.801982850233265,-0.08021839699999989,0.16161359200000014,-0.03952079949999998
142272.0,-2.1724671745,-0.4445354445,11.692861060999999,0.5468517972226193,-0.10739709019221909,-0.6100990386563898,11.901269897685156,0.8263182559261386,-0.05864376699999996,0.3148915314999999,-0.07060788000000073
142282.0,-2.220421693,-0.1632807225,11.541936717499999,0.49116183144998427,-0.1207209337019438,-0.6535315570922687,11.75471123762127,0.8263879141315035,-0.0479545185000001,0.281254722,-0.15092434349999984
142292.0,-2.1569726675,-0.092574776,11.4138618685,0.4455965206681683,-0.12045389832638866,-0.6692534829942336,11.616253437778113,0.8129979245690079,0.0634490255000002,0.0707059465,-0.128074848999999
142302.0,-2.028799752,-0.21947282699999998,11.383951586,0.42054930057279766,-0.10313325082959691,-0.66792005144571,11.565403169275966,0.7959996085188671,0.12817291549999998,-0.12689805099999998,-0.029910282499999497
142312.0,-1.898371307,-0.39422733,11.490549871499999,0.41548610041276207,-0.07782074068792316,-0.6748490085761274,11.652980955806477,0.7963076991299298,0.13042844499999995,-0.174754503,0.10659828549999872
142322.0,-1.7930478859999999,-0.4684636705,11.6198015185,0.4101558648771714,-0.04531223804027679,-0.6998962286714981,11.766659095146858,0.8124873927132317,0.10532342100000003,-0.0742363405,0.12925164700000025
142332.0,-1.8372758774999998,-0.45532275949999995,11.782591908499999,0.3797801545754621,-0.023994786556418044,-0.7395989784958651,11.93366555370192,0.8317543895786647,-0.0442279914999999,0.013140911000000033,0.16279038999999962
142342.0,-1.850514855,-0.39305053199999995,11.921454072499998,0.32195739645689,-0.03411944154723715,-0.7859636500750945,12.070623892409536,0.8500350349627713,-0.013238977500000138,0.0622722275,0.13886216399999896
142352.0,-1.8277634269999998,-0.3260711125,12.040016471,0.2580067873345658,-0.06902602658712374,-0.8363251256413909,12.182324824820467,0.8779361084020856,0.022751428000000073,0.06697941949999997,0.11856239850000172
142362.0,-1.7439165694999998,-0.2697809415,12.0112829865,0.20418083320306063,-0.11778878055859332,-0.8872189266295455,12.140220168496024,0.9179986019829547,0.08384685749999998,0.056290171,-0.028733484500000017
142372.0,-1.508066637,-0.2327118045,11.881933272999998,0.1548857538097328,-0.15962432272889737,-0.9301191196435661,11.979514099896146,0.9563425630318828,0.23584993249999986,0.037069136999999974,-0.12934971350000168
142382.0,-1.2088657455,-0.24340105299999998,11.649711800999999,0.12344364733505495,-0.1785436918205159,-0.9591648890552558,11.71479344715917,0.9834192739379587,0.29920089149999995,-0.01068924849999997,-0.2322214719999991
142392.0,-0.86886919,-0.2146675685,11.537229525499999,0.1122508508420153,-0.17188177006565358,-0.9738204187842521,11.5718918487154,0.9952234947170383,0.3399965555000001,0.02873348449999999,-0.11248227549999967
142402.0,-0.5276958365,-0.1883857465,11.4330829025,0.10479131361899155,-0.16175536974558247,-0.9860778661210083,11.446804651988328,1.0047365710002225,0.3411733535,0.026281821999999982,-0.10414662299999833
142412.0,-0.22123802399999998,-0.0854159215,11.338448729999998,0.09599659951819212,-0.15536048336627525,-1.0047301998370717,11.340928610380532,1.021192930535411,0.3064578125,0.102969825,-0.09463417250000283
142422.0,0.042168594999999996,0.10493115499999998,11.210373881,0.07254810101764829,-0.148965596986968,-1.0311091061517141,11.210944263954795,1.0443370934884664,0.26340661899999995,0.1903470765,-0.12807484899999722
142432.0,0.3019467535,0.393442798,11.1445712595,0.02005557843466684,-0.12898157705163296,-1.0580220832174665,11.15560117767396,1.0660437148733175,0.2597781585,0.288511643,-0.06580262150000138
142442.0,0.5916351945,0.6304695284999999,11.043955030499998,-0.05482079180514189,-0.08155050929943505,-1.0700124951786676,11.077746465118448,1.0745150276378725,0.289688441,0.23702673049999995,-0.10061622900000167
142452.0,0.9100571199999998,0.7728620865,10.960206239499998,-0.13502565225128932,-0.018931586396382493,-1.0620188872045335,11.025046057898647,1.070735470836997,0.3184219254999998,0.14239255800000006,-0.08374879099999966
142462.0,1.167383616,0.9105474525,10.851254357999998,-0.20990202249109804,0.05461135229490257,-1.0380380632821316,10.951785348160064,1.0604547513533287,0.2573264960000001,0.13768536600000003,-0.10895188149999946
142472.0,1.399605088,1.0266581885,10.675323057,-0.27358559623786716,0.1055068986123092,-0.9951361249388588,10.815518656527084,1.037437560184682,0.23222147199999998,0.11611073599999988,-0.17593130099999854
142482.0,1.5887753664999997,1.1523794415,10.530478836499999,-0.30396305186882844,0.1364149343358768,-0.9370480767739835,10.711823844162273,0.994515796454282,0.1891702784999998,0.12572125300000003,-0.14484422050000134
142492.0,1.6977272479999999,1.2062179499999999,10.4047575835,-0.2970340947384109,0.13535028349216024,-0.8621717065341749,10.611136599012598,0.9218942478541271,0.10895188150000013,0.05383850849999994,-0.12572125299999826
142502.0,1.7875561619999998,1.3043825164999998,10.240692329,-0.2661260590148434,0.11350050658644324,-0.765180269342346,10.477048733249955,0.8180502972757703,0.08982891399999993,0.09816456649999994,-0.16406525450000053
142512.0,1.861694436,1.43373223,10.06358423,-0.2264215638612244,0.08791921573996235,-0.6511334747000286,10.334274131968767,0.694961376590545,0.07413827400000028,0.12934971350000013,-0.1771080989999998
142522.0,1.928771922,1.4935527949999998,9.9067758965,-0.1885845710072393,0.06766816042907214,-0.530958829053959,10.202699140032566,0.567503655061525,0.06707748599999985,0.05982056499999988,-0.15680833350000078
