timestamp,ax,ay,az,gx,gy,gz,acc_mag,gyro_mag,dax,day,daz
91622.0,-0.4925880294999999,1.0118501469999999,9.972088185499999,0.3959488847659376,0.06459638094556212,0.3835867176740618,10.035388705285873,0.5550558366098083,0.0,0.0,0.0
91632.0,-0.14788428199999998,1.347041444,9.897851845,0.3772965510498742,0.05846678461255805,0.3849184038933334,9.990188264406541,0.5421560937523925,0.34470374749999994,0.33519129700000017,-0.07423634049999883
91642.0,0.0640374245,1.428436639,9.9601240725,0.3559790995660155,0.12641419772194928,0.4094332985668458,10.06223650899581,0.5570792535078318,0.21192170649999997,0.08139519500000003,0.06227222749999939
91652.0,0.119052731,1.6079964005,10.0319087505,0.3463867699970546,0.175443987068974,0.4624598919009375,10.160660370031959,0.6038489369409186,0.0550153065,0.17955976149999997,0.07178467800000021
91662.0,0.0412859965,1.6786042804999999,10.058288638999999,0.3383931620229206,0.19809312477210442,0.5197485792683993,10.197479453740339,0.6510678949521062,-0.07776673449999999,0.07060787999999985,0.026379888499999282
91672.0,-0.104735022,1.5972090854999998,10.1313481815,0.3439886876048144,0.19462864620689568,0.5650468546746602,10.257010395939961,0.6895552734205853,-0.1460210185,-0.08139519500000003,0.07305954250000113
91682.0,-0.18975867749999997,1.4296134369999998,10.2976689655,0.3791605626910041,0.16638398292187143,0.586631341534074,10.398162773199857,0.7180408713598216,-0.08502365549999998,-0.16759564850000008,0.16632078399999983
91692.0,-0.2735074685,1.4093136714999999,10.484485648,0.4372503561851314,0.12375082528340593,0.5874307023314874,10.582315940431947,0.7426822811835576,-0.08374879100000004,-0.0202997654999999,0.18681668249999994
91702.0,-0.34176175249999996,1.519442351,10.775350887,0.49720416132038864,0.07791847912603485,0.5799694197792117,10.887317984308899,0.7678852748312477,-0.06825428399999994,0.11012867950000005,0.2908652390000004
91712.0,-0.24477398399999997,1.543370577,11.0698445865,0.53184371098472,0.04114788244501832,0.576504941214003,11.179595977067146,0.7854354387140094,0.09698776849999999,0.023928225999999997,0.29449369950000026
91722.0,0.012552512,1.6211373115,11.3726739385,0.5310443501873067,0.03981445089649465,0.5850326199392473,11.487643633910832,0.7911109016813179,0.25732649599999996,0.07776673450000016,0.30282935199999983
91732.0,0.232809871,1.842669535,11.628921703,0.48841119254884113,0.07258998891969615,0.6202062403546891,11.776308904990415,0.7927613638877976,0.220257359,0.2215322234999999,0.2562477644999994
91742.0,0.40756437399999995,2.099996031,11.746209237,0.40953801832196546,0.12055338209375233,0.6881536534640802,11.939410516794952,0.8098209414193276,0.17475450299999995,0.2573264959999999,0.1172875340000008
91752.0,0.47827032049999996,2.2125763729999997,11.868302029499999,0.33039780871953456,0.16665101829742657,0.7742210748676767,12.082252677760998,0.858110451326343,0.0707059465,0.11258034199999978,0.12209279249999838
91762.0,0.4231569475,2.170603911,12.080223735999999,0.2811027293262067,0.18903312062500185,0.870147861215789,12.2809766978235,0.9337609787875488,-0.055113372999999966,-0.04197246199999949,0.21192170650000008
91772.0,0.20407638649999998,2.1155886045,12.2729244085,0.25339039146304076,0.1799731164778993,0.9639418552179642,12.455602588866274,1.0128084287670651,-0.219080561,-0.05501530650000008,0.1927006725000009
91782.0,-0.0173577705,2.0760678049999997,12.396193999,0.22248061041022116,0.12987867628715802,1.0452131118370802,12.568849767739204,1.076492703978416,-0.221434157,-0.039520799500000425,0.12326959049999964
91792.0,-0.194563936,1.971921182,12.4357147985,0.17798169580137374,0.07552039673379464,1.112095874102755,12.592590314261953,1.1287772355781867,-0.17720616549999998,-0.10414662299999966,0.03952079949999998
91802.0,-0.33577969599999996,1.8988616394999998,12.415415032999999,0.11376405130349439,0.03688404308239617,1.159792231901256,12.564272918551747,1.1659419853412882,-0.14121575999999997,-0.07305954250000024,-0.020299765500000788
91812.0,-0.5081806029999999,1.8689513569999998,12.302834691,0.0423521596288944,0.015566591598537426,1.1845724166210714,12.454355388143163,1.1854314971430073,-0.17240090699999994,-0.02991028249999994,-0.11258034199999933
91822.0,-0.644689171,1.7659815319999999,12.111310816499998,-0.018401006303776217,0.00890466984367507,1.178177530241764,12.25635200997587,1.178354862910405,-0.1365085680000001,-0.10296982499999996,-0.1915238745000014
91832.0,-0.625468137,1.5948554894999998,12.023933564999998,-0.0509095089514226,0.015034266176679155,1.1424715844044642,12.145359311207063,1.1437041262637784,0.01922103399999997,-0.17112604250000008,-0.08737725149999953
91842.0,-0.5452497399999999,1.590050231,12.03472088,-0.055972709111458144,0.03368659989274255,1.1176913996846487,12.151545731946253,1.119598944312935,0.08021839700000011,-0.004805258499999798,0.01078731500000174
91852.0,-0.6434143065,1.8114843879999998,12.153185211999999,-0.05890311692555662,0.044877651056530195,1.1326122194599482,12.304282524997223,1.1350304050631803,-0.09816456650000005,0.2214341569999998,0.1184643319999985
91862.0,-0.6794047119999999,1.9335771805,12.326762917,-0.07275928585713962,0.03821572930166784,1.1904349775785203,12.49597517153281,1.1932685328486927,-0.03599040549999988,0.12209279250000016,0.17357770500000136
91872.0,-0.9056441275,1.9647623275,12.536331027500001,-0.09940522754733704,0.03022212132753381,1.2738372812143215,12.72163817754214,1.2780673671183254,-0.22623941550000015,0.03118514699999997,0.20956811050000113
91882.0,-1.28270982,1.809130792,12.793657523499999,-0.13591053418205043,-0.01933999344134917,1.3375226002903424,12.984451144869201,1.3445491493193549,-0.3770656925,-0.15563153549999997,0.25732649599999746
91892.0,-1.5939728909999997,1.8629693004999999,12.9001577425,-0.1769467155549411,-0.1128686973972213,1.3910815190462926,13.131088072708637,1.4068252470118552,-0.3112630709999997,0.05383850849999994,0.10650021900000084
91902.0,-1.768727394,1.623588974,13.039019906499998,-0.21051986904630404,-0.2564918415438347,1.4123989705301512,13.258223028478728,1.4508540698486707,-0.17475450300000017,-0.23938032649999985,0.13886216399999896
91912.0,-1.8752276129999998,1.4104904695,13.134830876999999,-0.21585010458189471,-0.42729325280250374,1.4094668173868008,13.3427787260563,1.488545431235821,-0.10650021899999995,-0.2130985045,0.09581097050000054
91922.0,-1.9758438419999997,1.3649876135,13.077363907999999,-0.21611539462819787,-0.5767789579065661,1.3934796014385329,13.296036885299271,1.5235370785459665,-0.10061622899999989,-0.045502855999999925,-0.057466969000000034
91932.0,-2.09077778,1.406862009,13.021073736999998,-0.23903156770688339,-0.659915971496064,1.3849519227132885,13.262691043001052,1.5526483851868198,-0.11493393800000007,0.04187439549999983,-0.056290171000000555
91942.0,-2.2164009664999997,1.3075206445,12.974394083,-0.28592856470797107,-0.6644451009049892,1.3814891894773316,13.227129140561123,1.5594084830073665,-0.12562318649999993,-0.09934136449999986,-0.046679653999998294
91952.0,-2.370855704,1.1651280865,13.029507456,-0.35014620920585043,-0.6015608879556336,1.3756266285198826,13.294605852491456,1.5416959787299753,-0.15445473750000005,-0.14239255800000006,0.0551133729999993
91962.0,-2.612687693,1.0597065989999999,13.2233849265,-0.424755544070104,-0.49497537586559187,1.358040690976788,13.520614777868099,1.5065498376357436,-0.24183198900000002,-0.10542148750000013,0.19387747050000037
91972.0,-2.8389271085,0.942419065,13.534647997499999,-0.4964344711202591,-0.3913220169189006,1.328994921565098,13.861253811891707,1.4716683072580414,-0.22623941550000026,-0.11728753399999992,0.31126307099999906
91982.0,-3.120279897,0.9184908389999998,13.926129465499999,-0.5707767706089576,-0.3233728584802574,1.2999508974826606,14.300938918365345,1.4561004303736944,-0.2813527885,-0.023928226000000108,0.3914814680000003
91992.0,-3.3716243365,0.9160391765,14.312805675,-0.6555125057932824,-0.33536501577071043,1.2687758263835378,14.733071123485221,1.4669554992124016,-0.25134443949999996,-0.0024516624999998404,0.3866762095000009
92002.0,-3.5272558719999996,0.8012033049999999,14.491188638499999,-0.7525056883143632,-0.4254292411613738,1.2242751664454383,14.935796225146246,1.4987009486070333,-0.15563153549999953,-0.11483587150000008,0.17838296349999894
92012.0,-3.6098278649999997,0.7389310775,14.5078599435,-0.8492300901306369,-0.5757143070628495,1.17018392226763,14.968462729767463,1.5562676894653444,-0.08257199300000018,-0.062272227499999944,0.016671305000000913
92022.0,-3.6051206729999996,0.7508951905,14.363015723,-0.9315677429227214,-0.7355917025332861,1.1059662777697508,14.8275742895847,1.6223671039730279,0.004707192000000138,0.011964112999999998,-0.14484422049999957
92032.0,-3.5452020414999996,0.771194956,14.055381112499997,-1.007775799381802,-0.8453729124837295,1.048677590402289,14.51609235961377,1.6822580395387636,0.059918631499999986,0.02029976550000001,-0.30763461050000274
92042.0,-3.3895705059999997,0.7892391919999999,13.553770965,-1.0978400247724653,-0.8869414192784784,0.9929858793004019,13.99345540204459,1.7256705240903087,0.15563153549999997,0.018044235999999936,-0.5016101474999974
92052.0,-3.259142061,0.7963980465,13.024702197499998,-1.198562975905058,-0.8360476182903238,0.9482199293159993,13.449874503347962,1.742024644375432,0.13042844499999973,0.007158854500000089,-0.5290687675000019
92062.0,-3.2423726895,0.6946050195,12.568594905999998,-1.288094875873863,-0.7078793646701201,0.9226403837987703,12.998655111274363,1.7353809040077104,0.01676937150000013,-0.10179302700000004,-0.4561072915000004
92072.0,-3.212462407,0.49709908849999995,12.2034933265,-1.3696314225392823,-0.5405406866474078,0.8925299635433642,12.629024965930894,1.7218258342094153,0.02991028249999994,-0.19750593100000002,-0.36510157949999744
92082.0,-3.327396345,0.29596469699999994,11.9053711665,-1.4533007615506384,-0.3830613735692115,0.8435001741963395,12.365153624226398,1.723459214287838,-0.11493393800000007,-0.2011343915,-0.29812216000000014
92092.0,-3.5116632985,0.018240369,11.724634607,-1.5049956686654584,-0.2959275559926466,0.7838134044366374,12.239247056120536,1.7224832463835817,-0.18426695349999989,-0.27772432799999996,-0.18073655949999967
92102.0,-3.702010375,-0.20564545049999997,11.4732901675,-1.528177131790447,-0.2674158573320672,0.7004111008008365,12.057510445177774,1.7021786912674477,-0.19034707650000016,-0.22388581949999997,-0.2513444395000004
92112.0,-3.8313600884999994,-0.35882532349999996,11.190760581,-1.534304982794199,-0.2815390616392053,0.6052836752501375,11.833900376536853,1.673237685142223,-0.12934971349999946,-0.153179873,-0.2825295865000008
92122.0,-3.836165347,-0.40668177549999995,10.807712831999998,-1.5420333007220302,-0.3119165172701666,0.5136207282646473,11.475548409336474,1.6549818327657666,-0.0048052585000006864,-0.047856451999999994,-0.38304774900000105
92132.0,-3.7631058045,-0.3792231555,10.314438336999999,-1.5582875520458532,-0.31457988970871,0.4390113934003937,10.986009908301751,1.6492275784152886,0.07305954250000024,0.027458619999999934,-0.49327449499999965
92142.0,-3.666118036,-0.36843584049999994,9.7314329945,-1.569745638585196,-0.281006736217347,0.39264672182116434,10.405621295669599,1.6423268870153946,0.09698776850000002,0.010787315000000075,-0.5830053424999981
92152.0,-3.45782479,-0.411487034,9.125774290499999,-1.5665481953955425,-0.2239833388961883,0.36333566236317155,9.767580573439844,1.6236547010202016,0.20829324599999977,-0.04305119350000003,-0.6056587040000014
92162.0,-3.180100462,-0.482094914,8.582289747499999,-1.5409669045490615,-0.1269901563751074,0.3441510032252499,9.165214223604426,1.5840282237866332,0.27772432800000013,-0.07060788000000001,-0.5434845429999999
92172.0,-3.016133274,-0.5755522885,8.207577651,-1.504461597914348,0.005707226654021458,0.34308460705228133,8.763141631887631,1.543095693607915,0.16396718799999999,-0.09345737449999997,-0.3747120964999997
92182.0,-3.016133274,-0.8064988959999999,7.9944791465,-1.454634193099162,0.13733995883943378,0.35560734443534064,8.58249364809567,1.5037551274870593,0.0,-0.23094660749999996,-0.21309850449999956
92192.0,-3.2315853745,-1.067551919,7.917889209999999,-1.3866850346605188,0.23486546678237294,0.36360269773872667,8.618339786425068,1.4526748069135176,-0.21545210049999985,-0.2610530230000001,-0.07658993650000046
92202.0,-3.702010375,-1.2961449305000001,7.8795452085,-1.3112763389988518,0.276699263623425,0.34495036402266327,8.801823969511307,1.3838348432335938,-0.47042500050000013,-0.2285930115000001,-0.038344001499999614
92212.0,-4.1090844165,-1.6133900579999998,7.824529902,-1.250523173066181,0.2500533219332276,0.282863766541469,8.98392288526947,1.3062720928686253,-0.40707404150000004,-0.31724512749999967,-0.05501530649999964
92222.0,-4.230000411,-1.9892789524999999,7.752647157499999,-1.1948332072935461,0.18290526962124976,0.16961807802581694,9.052826750612898,1.2205945368138333,-0.12091599449999979,-0.37588889450000007,-0.07188274450000076
92232.0,-4.1210485294999994,-2.170015512,7.513266831,-1.1537970259206554,0.12774762927047295,0.02359510615771134,8.839750379881748,1.1610873192151265,0.10895188150000035,-0.18073655950000012,-0.23938032649999919
92242.0,-3.9534528809999996,-2.074302608,7.221126727499999,-1.1388762061453557,0.11788826432595699,-0.1189616418159335,8.489828750125508,1.1511248967915548,0.16759564849999986,0.09571290399999999,-0.2921401035000013
92252.0,-3.7272134654999998,-1.9377940399999998,6.867989260999999,-1.1407402177864858,0.15172845319287506,-0.2372705304916211,8.050865943988594,1.1749923713044426,0.22623941549999982,0.13650856800000022,-0.3531374664999998
92262.0,-3.4734173635,-1.9174942744999999,6.565159909,-1.143138300178726,0.21221632907924254,-0.3491845327880015,7.670901974640561,1.2139731387480333,0.2537961019999999,0.0202997654999999,-0.30282935199999894
92272.0,-3.2866987475,-1.797755078,6.197606667,-1.1399408569890723,0.27030437724411777,-0.45310492711024786,7.241867188518144,1.2561185010825588,0.18671861599999984,0.11973919649999987,-0.3675532420000005
92282.0,-3.1297923474999996,-1.6433003405,5.779843377,-1.1239536410408044,0.31054119781959505,-0.5402387446868128,6.775147644901012,1.2851324927854302,0.15690640000000045,0.15445473750000005,-0.4177632899999999
92292.0,-2.946702192,-1.5260128064999998,5.4075829429999995,-1.0719934438796812,0.3606356380103363,-0.6055227853576607,6.344582112272183,1.282920827920196,0.18309015549999952,0.11728753400000014,-0.3722604340000002
92302.0,-2.8186273429999997,-1.4110788684999997,5.110637581,-0.9800634615186359,0.4133951959688729,-0.6441591390090592,6.004533300445923,1.2435276325932312,0.12807484900000032,0.11493393800000007,-0.29694536199999977
92312.0,-2.7359572835,-1.2793755589999998,4.998155305499999,-0.8553596864636409,0.46562242850555124,-0.6673406021340478,5.839847646642937,1.1805879545426587,0.08267005949999984,0.13170330949999998,-0.11248227550000056
92322.0,-2.749196261,-1.2375011635,5.002960563999999,-0.7330539938008864,0.4802779582345476,-0.6859929358501112,5.841156017099648,1.1129336831229573,-0.013238977499999915,0.04187439549999983,0.004805258500000242
92332.0,-2.6246518059999997,-1.2698631084999998,4.9646165625,-0.635261450482392,0.4666870793492678,-0.7222329524385215,5.757496593982289,1.069099798002322,0.12454445500000011,-0.03236194499999989,-0.038344001499999614
92342.0,-2.3409454215,-1.345276247,4.914308448,-0.5582540332258983,0.4578941105777203,-0.7733937888022312,5.607158029632158,1.0580418397552216,0.28370638449999985,-0.07541313850000009,-0.050308114499999945
92352.0,-1.99859527,-1.2722167045000001,4.8377185115,-0.49830022809064106,0.4613585891429291,-0.8234882289929726,5.386690894508891,1.0673742213399766,0.3423501514999998,0.0730595424999998,-0.07658993649999957
92362.0,-1.5855391719999998,-1.208767679,4.780251542499999,-0.44767171714878956,0.4792115620615791,-0.8581277786573039,5.179368550056572,1.0800171165549939,0.4130560980000002,0.0634490255000002,-0.05746696900000092
92372.0,-1.2730993029999997,-1.1225672254999999,4.636584119999999,-0.39331343759542614,0.4946664525879889,-0.8613252218469576,4.937494436746437,1.0683030924315566,0.3124398690000001,0.08620045350000005,-0.14366742250000009
92382.0,-1.1079553169999998,-1.1357081365,4.496545158,-0.3157736949170741,0.477080515044894,-0.8448056804768312,4.7682613512384275,1.0203016622563175,0.1651439859999999,-0.013140911000000033,-0.14003896199999932
92392.0,-0.9187850384999999,-1.3188963585,4.4211320195,-0.18414096273166172,0.43657665909386156,-0.8370773625490003,4.7042599721193294,0.961876075340941,0.1891702784999999,-0.18318822200000007,-0.07541313850000009
92402.0,-0.7895333914999999,-1.3895042385,4.460652819,-0.015203563114122605,0.39900670161543167,-0.8445386451012762,4.7383022884526484,0.9341750474803374,0.12925164700000003,-0.07060788000000007,0.03952079949999998
92412.0,-0.568001168,-1.3871506424999998,4.4882095054999995,0.14147638916666036,0.36809692056261206,-0.8674548181799617,4.731895687470095,0.9528844490298626,0.2215322234999999,0.002353596000000291,0.02755668649999965
92422.0,-0.29508209849999995,-1.2614293895,4.600691781,0.2629827210320016,0.37875564630454145,-0.8970311676842575,4.779606930837562,1.0086033248834494,0.27291906950000006,0.1257212529999998,0.11248227550000056
92432.0,-0.04246279449999999,-1.1177619669999999,4.79937451,0.3525146210008067,0.41925775692632183,-0.9194150153410849,4.92800066873232,1.0702184801230452,0.25261930399999993,0.14366742250000009,0.19868272899999972
92442.0,0.19211227349999999,-0.9729177465,4.9202905045,0.41033737911937884,0.4562953889828935,-0.9231447839525967,5.0192364674078505,1.108502836644317,0.23457506799999997,0.1448442204999999,0.12091599449999979
92452.0,0.5021985465,-0.921432834,5.053170612,0.45243821133598605,0.49599813880726057,-0.9175492583707029,5.1609858633463075,1.1369305740957976,0.31008627299999997,0.05148491249999998,0.13288010750000012
92462.0,0.7954173815,-0.8448428975,5.1130892435,0.505997130091936,0.5319711200201157,-0.9028937286417066,5.243103083503501,1.1637196627269197,0.293218835,0.07658993650000001,0.05991863150000043
92472.0,1.0085158859999999,-0.721573307,5.241164092499999,0.5811405357073,0.5719409052200377,-0.8850407557230565,5.385867931373793,1.2033859981722086,0.2130985044999999,0.12326959049999997,0.128074848999999
92482.0,1.1905273099999998,-0.6377264495,5.4482805405,0.6781319728991289,0.5865964349490341,-0.874116739934824,5.613181909419887,1.2522134104046585,0.18201142399999992,0.08384685749999998,0.20711644800000073
92492.0,1.4059794104999999,-0.4965106895,5.885166797999999,0.7905800459466195,0.5687434620303842,-0.8770471477489226,6.071119271420984,1.3106096421230031,0.21545210050000008,0.14121576000000002,0.43688625749999943
92502.0,1.6489881974999998,-0.25467870049999997,6.426297744999999,0.9064908522300669,0.4912019740227801,-0.8631909788173395,6.639376930358356,1.344657469533526,0.24300878699999995,0.24183198900000002,0.5411309470000001
92512.0,1.9303409859999998,0.0697252815,6.6752885885,0.9874950734736277,0.3736924461445059,-0.8069669422935942,6.949140643048609,1.3289048914030015,0.2813527885,0.324403982,0.24899084350000056
92522.0,2.291814105,0.246931447,6.739914411999999,1.0165390975560653,0.29002310713314977,-0.7201001600925844,7.123189827070437,1.2790658232071686,0.361473119,0.1772061655,0.06462582349999924
92532.0,2.4821611815,0.28880584249999997,6.708827331499999,1.0506463217985385,0.26764100480557446,-0.6047234245602473,7.159112871682427,1.2414426370855838,0.19034707650000016,0.04187439549999997,-0.031087080499999864
92542.0,2.577972152,0.26007235799999995,6.744719670499999,1.1220582134731385,0.2798967068130786,-0.4858804651334494,7.225290408109061,1.2543670225678107,0.09581097050000009,-0.028733484500000017,0.035892339000000106
92552.0,2.646226436,0.15474893699999998,6.9566413769999995,1.2219818038083177,0.31187288403886676,-0.3811607100137896,7.444549740063286,1.3174929644956614,0.068254284,-0.10532342099999997,0.21192170650000008
92562.0,2.612687693,0.058937966499999994,7.472569233499999,1.3285673158983597,0.32599608834600485,-0.2932275316398113,7.9163692191875175,1.3990521605007602,-0.03353874300000026,-0.09581097049999998,0.5159278564999994
92572.0,2.4582329554999998,0.0481506515,8.0160537765,1.4071734547496801,0.2894907817112915,-0.21328970656921903,8.384649420010717,1.4523892533946774,-0.15445473750000005,-0.010787314999999992,0.5434845430000008
92582.0,2.269062677,0.0338329425,8.5008945525,1.4348857926128462,0.22074226247523485,-0.1424101403164773,8.798579333783199,1.458734051275228,-0.1891702784999998,-0.014317709000000005,0.4848407760000004
92592.0,2.0212486315,-0.0475622525,8.857562413,1.4284909062335391,0.13707292346387867,-0.08325569597863351,9.085379469146783,1.4374653966102067,-0.2478140455000002,-0.081395195,0.3566678605
92602.0,1.826194363,-0.0954187045,9.007211891999999,1.4149000273482593,0.05153957281139255,-0.04488463237353817,9.190971474659664,1.4165496973911622,-0.19505426849999985,-0.04785645200000001,0.14964947899999892
92612.0,1.8657151625,-0.16367298849999998,9.1065532565,1.4180992158671646,-0.009213593121278067,-0.023034855467821164,9.297149785187807,1.4183162132993103,0.03952079949999998,-0.06825428399999997,0.09934136450000075
92622.0,1.9554460099999997,-0.10865768199999999,9.19275371,1.438350271178055,-0.021738075833589377,-0.008379325738824777,9.399058269986483,1.438538932263833,0.08973084749999982,0.055015306499999986,0.08620045350000005
92632.0,2.1805086274999996,0.029027683999999998,9.4046754165,1.4479426007470158,0.0011780972450961724,0.018266615951372654,9.654189772878912,1.4480582972482379,0.2250626174999999,0.13768536599999998,0.21192170650000008
92642.0,2.4439152464999996,0.17387190449999998,9.702699509999999,1.4220960198542316,0.0566010276421761,0.07049384848805096,10.007263909411195,1.4249667184499621,0.26340661899999995,0.14484422049999998,0.2980240934999987
92652.0,2.5515922634999995,0.5174969205,10.007980524499999,1.3661390187060416,0.1365405980420204,0.15496254829682055,10.341087966004897,1.3816629635042779,0.10767701699999987,0.34362501599999995,0.3052810145000002
92662.0,2.4211638184999997,0.713727987,10.374356968499999,1.3149781823423317,0.21994290167782143,0.2767359155377169,10.677018515732987,1.361662684728968,-0.13042844499999973,0.1962310665,0.36637644400000013
92672.0,2.162562458,0.7771770124999999,10.7597583135,1.3011220134107488,0.2532507651228812,0.40437009840681026,11.00241243811746,1.3858461748343136,-0.2586013604999997,0.06344902549999998,0.3854013450000018
92682.0,1.8716972189999999,0.7497183924999999,11.200273031499998,1.321373068721639,0.23113395284160906,0.517085206829856,11.380309491741043,1.437646271522068,-0.29086523900000016,-0.02745861999999999,0.44051471799999753
92692.0,1.5951496889999999,0.7269669645,11.5809671845,1.3541468614155885,0.17917375568048588,0.6106121654564762,11.71288967019911,1.4962166198815552,-0.27654753,-0.022751427999999962,0.3806941530000021
92702.0,1.2875150784999998,0.7736466184999999,12.0310924195,1.3693364618956951,0.12001931134264206,0.6886859788859384,12.124496235894988,1.53745743306482,-0.30763461050000007,0.04667965399999996,0.4501252349999998
92712.0,1.050488348,0.6838177045,12.359124862,1.3538815713692856,0.040346776318352914,0.7627629883283338,12.42252388916109,1.554487229930249,-0.23702673049999978,-0.08982891399999993,0.32803244249999963
92722.0,0.8756357784999999,0.538973484,12.604487245,1.3179085901564302,-0.024136158225829582,0.8059302167179097,12.646356358351289,1.5449883884227054,-0.17485256950000017,-0.1448442205,0.2453623829999998
92732.0,0.6422375085,0.433650063,12.769729297499998,1.2827349697409884,-0.06650402581799193,0.81072638150239,12.793221163018092,1.518917066106762,-0.2333982699999998,-0.10532342100000003,0.16524205249999824
92742.0,0.5357372895,0.41933235399999996,12.912219922,1.2432992552921767,-0.09314996750818937,0.7974025379926654,12.930130601837154,1.4799732302491158,-0.10650021900000006,-0.014317709000000012,0.14249062450000238
92752.0,0.568001168,0.4767012565,12.975570881,1.196135222915534,-0.0926176420863311,0.7827470082636689,12.996742249604443,1.4324839887658605,0.03226387850000001,0.05736890250000004,0.06335095899999921
92762.0,0.6314501935,0.7304973585,12.924184035,1.1468401435222062,-0.05397954310568062,0.7958038163978386,12.960204038061883,1.3969466060165998,0.06344902549999998,0.25379610199999997,-0.051386845999999764
92772.0,0.662537274,0.9950807755,13.0929564815,1.1140646054990044,0.027824038935293602,0.8498968059048988,13.147419929996223,1.4015130049541726,0.031087080499999975,0.264583417,0.16877244650000023
92782.0,0.507003805,1.1626764239999998,13.471198972,1.0890173854036338,0.11549018193371678,0.9423591136878023,13.530782352414946,1.4447621074020838,-0.15553346899999998,0.16759564849999986,0.3782424904999999
92792.0,0.16102519299999998,1.1543407714999998,14.139227969999999,1.0362578274450973,0.14506653143801268,1.0348214214707059,14.187184333656843,1.4716419258159714,-0.345978612,-0.008335652500000013,0.6680289979999987
92802.0,-0.17416610400000002,1.092068544,14.615635027,0.9480593590248159,0.09124232263575957,1.0969062736226483,14.657412281130872,1.4527026821711444,-0.335191297,-0.06227222749999983,0.4764070570000012
92812.0,-0.5213215139999999,0.9914523149999999,14.820397879,0.8316144819902582,-0.021205750411731106,1.116357968136125,14.862669582068552,1.392223920038536,-0.34715540999999994,-0.10061622900000011,0.204762852
92822.0,-0.7368716809999999,1.0465656879999998,14.653979028499998,0.7167683265505272,-0.13844824291445018,1.1176913996846487,14.709771615537626,1.3349752113208586,-0.21555016699999996,0.055113372999999966,-0.16641885050000127
92832.0,-0.8732821825,1.0621582615,14.4468625805,0.6360311406825215,-0.17948442428734085,1.1214211682961606,14.51215491795053,1.3016665115083792,-0.13641050150000011,0.015592573500000206,-0.20711644799999895
92842.0,-1.050488348,1.0201857994999999,14.311628876999999,0.571281170762784,-0.15443720419197024,1.140073502012224,14.386348596769281,1.2845157126703999,-0.1772061655,-0.041972462000000155,-0.13523370350000086
92852.0,-1.3330179345,1.0645118574999999,14.365467385499999,0.5025326515267273,-0.0934170028837445,1.1627226397153545,14.466401608980753,1.2701140654228291,-0.28252958649999993,0.044326058,0.05383850850000016
92862.0,-1.5891676325,1.009496551,14.536593428,0.4172645909205443,-0.05051680986972388,1.183507765777355,14.65800414591425,1.2559268762833327,-0.256149698,-0.05501530649999986,0.17112604250000096
92872.0,-1.8884665904999998,1.0190090015,14.481578121499998,0.3162763497416485,-0.04785169210192853,1.1984285855526544,14.639699119096681,1.24038364569703,-0.29929895799999984,0.009512450499999936,-0.055015306500001415
92882.0,-2.1889423464999997,0.9460475254999999,14.3211413275,0.21288828084126032,-0.08195891634440172,1.1976292247552411,14.51831820284409,1.2191613691696994,-0.300475756,-0.07296147600000003,-0.16043679399999888
92892.0,-2.4080229075,0.8095389574999999,14.112848081499997,0.13561382820921142,-0.14457783924745427,1.1805756126340043,14.339679515883647,1.197101766413021,-0.21908056100000017,-0.136508568,-0.20829324600000199
92902.0,-2.564831241,0.7545236509999999,13.930934724,0.07939153701471806,-0.22957886447808212,1.151531588551567,14.185154476391046,1.176874874656053,-0.1568083334999999,-0.05501530650000008,-0.18191335749999737
92912.0,-2.6904544274999997,0.8107157554999999,13.675961824,0.018903661128350582,-0.3356303058170136,1.1187560505283651,13.96165236904915,1.168169572956214,-0.12562318649999993,0.056192104500000006,-0.2549729000000003
