timestamp,ax,ay,az,gx,gy,gz,acc_mag,gyro_mag,dax,day,daz
163502.0,-2.8680528589999996,1.5925018935,9.473027767,0.7383231428126572,0.3167440979811829,0.033889058085973894,10.024971050191224,0.8041121532949413,0.0,0.0,0.0
163512.0,-3.235606101,1.8547317144999997,9.907560428499998,0.7982769479479145,0.2610523868792959,0.006443755598363065,10.586261390027152,0.8399023492684292,-0.3675532420000005,0.2622298209999998,0.4345326614999987
163522.0,-3.9455094945,1.829528624,10.400736857,0.8243905642162536,0.20056625632218036,-0.046315802360173526,11.273399989611972,0.8497009939338391,-0.7099033934999999,-0.025203090499999803,0.49317642850000176
163532.0,-4.290213241999999,1.6535973229999998,10.564704045,0.8129324776769108,0.11103435635337525,-0.12678769818187607,11.521861191964788,0.8302186229921538,-0.3447037474999992,-0.1759313010000001,0.1639671879999991
163542.0,-4.4685962055,1.366262478,10.700035815,0.7697652492873351,0.09531417578066233,-0.2661470029658673,11.675863636103431,0.8200350957750855,-0.1783829635000007,-0.28733484499999995,0.13533177000000052
163552.0,-4.612263628,1.2370108309999999,10.793395122999998,0.6996850438320068,0.21362306445634993,-0.44147928896271366,11.802565392802668,0.8544576857942952,-0.14366742250000009,-0.12925164700000003,0.09335930799999836
163562.0,-4.7690719615,1.454914594,10.887931229,0.614684018601379,0.4036108801821927,-0.6178779711325286,11.975302513808705,0.9604745559025677,-0.1568083334999999,0.21790376300000003,0.0945361060000014
163572.0,-4.884005899499999,1.6966485164999998,11.1249579595,0.5440714877241923,0.5605561225092788,-0.7652326292199058,12.267714514755177,1.0935346025891743,-0.11493393799999918,0.24173392249999992,0.23702673050000023
163582.0,-4.869590124,1.8379623429999998,11.5858705095,0.5182249068314083,0.6367659242976113,-0.8670202311962151,12.701315247364981,1.1940485658927575,0.01441577549999895,0.14131382650000002,0.46091254999999975
163592.0,-4.873218584499999,1.9457374264999998,12.135337109,0.5035693771024119,0.6023916646795828,-0.9219108361714368,13.221216292545535,1.2109407190614525,-0.0036284604999989867,0.10777508349999998,0.5494665995000005
163602.0,-4.9785420055,2.0067347895,12.773357757999998,0.4897132081708289,0.429989786496835,-0.9602818997765321,13.855379223600352,1.160539344351145,-0.10532342100000047,0.06099736300000003,0.6380206489999978
163612.0,-5.1186790339999995,1.9600551354999998,13.1947495085,0.4761240746148011,0.13608157644874588,-1.0023827319931393,14.287900677824299,1.1180265968547467,-0.14013702849999987,-0.04667965400000007,0.42139175050000155
163622.0,-5.255089535499999,2.021150565,13.0906028855,0.4598698232909779,-0.2337676546828685,-1.0860520710044954,14.25008419408048,1.2023463193617543,-0.13641050149999945,0.06109542950000035,-0.1041466230000001
163632.0,-4.935490811999999,1.921711134,12.6967678215,0.43615428941487894,-0.49996352686779166,-1.2294099251048056,13.757178357168808,1.397012117456138,0.3195987234999995,-0.09943943100000019,-0.39383506399999924
163642.0,-4.3920062689999995,1.9085702229999997,12.268217216499998,0.42336451665626457,-0.48157822852728344,-1.4012777325364434,13.169719550327734,1.5410173223742636,0.5434845429999999,-0.013140911000000255,-0.42855060500000164
163652.0,-3.8832372669999997,1.6607561775,12.325684185499998,0.37540112348220833,-0.2073887483682262,-1.6573489497305476,13.029203098946873,1.7119408978216488,0.5087690019999997,-0.24781404549999975,0.057466969000000034
163662.0,-3.4845969445,1.7098874939999997,12.924282101499998,0.289333702078612,0.2024320132925623,-1.8878388760781706,13.494561828637101,1.9205802074363583,0.3986403224999999,0.0491313164999998,0.5985979159999992
163672.0,-3.5097019684999995,2.186294551,13.947802161999999,0.1854133077563656,0.5384410555572586,-2.055177554100883,14.547820349513424,2.132616150150528,-0.025105023999999698,0.4764070570000003,1.023520060500001
163682.0,-3.422324717,2.5286447025000003,15.016727011999999,0.08255930960708777,0.6479569754613989,-2.1476398618837864,15.607960810208388,2.2447764383127535,0.08737725149999953,0.34235015150000025,1.0689248500000001
163692.0,-3.2978783284999995,2.626809269,15.788902633,-0.022959806309985405,0.574946362191972,-2.16869027799209,16.34214107024072,2.2437263634322666,0.12444638850000045,0.0981645664999995,0.7721756210000006
163702.0,-3.1901032449999995,2.8255900644999996,16.2473635205,-0.11089298468396372,0.37456685609975504,-2.1457741049134045,16.796950297409193,2.181041974162234,0.10777508349999998,0.19878079549999983,0.45846088749999936
163712.0,-3.036923372,3.0063266239999997,16.3287587155,-0.18550231954821733,0.1371479726217144,-2.09434623317414,16.878662995823703,2.107013721208935,0.15317987299999958,0.18073655950000012,0.08139519500000247
163722.0,-2.81058589,3.0470242214999996,16.1671451235,-0.27370253329775074,-0.044579199754439164,-2.0565092403201546,16.690126754934624,2.075121836737914,0.22633748199999992,0.040697597499999905,-0.16161359200000192
163732.0,-2.671723726,3.205009353,15.837935882999998,-0.3922767120197415,-0.11039556584714533,-2.0658345345135602,16.378351738038468,2.1056449187221924,0.13886216399999984,0.15798513150000026,-0.3292092405000009
163742.0,-2.4909871665,3.3151380325,15.387908714499998,-0.539898405482674,-0.04377983895702576,-2.1044726334942108,15.93684071088058,2.173065122739743,0.18073655950000012,0.11012867950000027,-0.45002716850000013
163752.0,-2.43597186,3.378587058,15.058699473999999,-0.7027062087672089,0.13261884321278913,-2.156432830655334,15.624123631725551,2.271912482148742,0.05501530650000008,0.06344902549999976,-0.3292092404999991
163762.0,-2.3712479699999998,3.4492930045,14.9497475925,-0.863650000410614,0.31940921574897824,-2.223580882967312,15.524670439193912,2.406704284579292,0.06472389000000023,0.07070594649999995,-0.10895188149999946
163772.0,-2.1893346124999997,3.5031315129999996,14.846777767499999,-0.9734329556903094,0.4097387311859448,-2.2899295744818766,15.410773066929396,2.5217523675302833,0.18191335750000004,0.053838508499999715,-0.10296982500000063
163782.0,-2.008598053,3.6970089834999995,14.9030679385,-1.0171325095017434,0.38629023268540097,-2.318973598564314,15.485598972663011,2.5615263489942435,0.18073655949999967,0.19387747049999993,0.056290171000000555
163792.0,-1.814622516,3.9053022294999997,15.094591813,-1.0208622781132553,0.24479813555547267,-2.2816689311321867,15.696844981727967,2.51159292667819,0.19397553700000003,0.2082932460000002,0.19152387449999964
163802.0,-1.6709550935,4.1232059925,15.120873634999999,-1.0333867608255667,-0.017133897266828332,-2.2009317452641812,15.761780929410216,2.4315185204305436,0.14366742250000009,0.21790376300000025,0.02628182199999962
163812.0,-1.3872487089999999,4.3901430055,14.8276548,-1.0845475971892764,-0.3363563627858432,-2.0978107117393483,15.52601563368161,2.385411678441251,0.2837063845000001,0.2669370129999997,-0.29321883499999934
163822.0,-1.013811477,4.614028824999999,14.080682269499999,-1.1807396735836917,-0.5460611630714659,-1.975505019076594,14.852026423469608,2.3653644647255314,0.3734372319999999,0.22388581949999953,-0.7469725305000008
163832.0,-0.6103658959999999,4.508705404,13.371955674,-1.3073092056090687,-0.5279429001065127,-1.8571943850716541,14.124806883440195,2.331727267238767,0.40344558100000005,-0.10532342099999958,-0.7087265954999982
163842.0,-0.39128533499999996,4.253732503999999,13.014012948999998,-1.4266844904577247,-0.33928677059994167,-1.7594035870824118,13.69714851586679,2.2904246615540997,0.21908056099999995,-0.2549729000000003,-0.3579427250000027
163852.0,-0.46905206949999995,4.149585881,13.011659353,-1.5276744769658728,-0.15862599439675662,-1.6797310520581228,13.66537053819651,2.2760597357977232,-0.07776673449999999,-0.10414662299999922,-0.0023535959999971823
163862.0,-0.6259584694999999,4.106436620999999,13.0654978615,-1.5926914822611653,-0.10266899324856645,-1.6139146859654165,13.709919040486335,2.2697858254506724,-0.15690639999999995,-0.043149260000000744,0.05383850850000016
163872.0,-0.6606740105,4.0178825715,13.1217880325,-1.6073470119901618,-0.17647896731540663,-1.5486306452945686,13.739038964802953,2.238965412507278,-0.03471554100000007,-0.08855404949999901,0.05629017099999878
163882.0,-0.5864376699999999,3.968751255,12.982925868499999,-1.5804340349244093,-0.31983507608646483,-1.4540372904949799,13.588644515617647,2.171241731542729,0.07423634050000005,-0.049131316500000466,-0.13886216400000073
163892.0,-0.4331597305,3.8753919469999993,12.755411588499998,-1.5306048847799711,-0.4765150283672478,-1.3354613664437371,13.338171347191462,2.086450322158647,0.1532779394999999,-0.09335930800000058,-0.22751428000000118
163902.0,-0.284785116,3.8155713819999995,12.525641779,-1.4823762015596118,-0.6065490389578333,-1.201964622617195,13.09699925590831,2.0025133941210655,0.1483746145,-0.05982056499999988,-0.22976980949999692
163912.0,-0.2093719775,3.7401582435,12.1879988195,-1.4527981067260638,-0.7203287982245957,-1.0681990980858456,12.750683728158135,1.941789182586498,0.0754131385,-0.07541313849999964,-0.3376429595000001
163922.0,-0.1075789505,3.6168886529999997,11.859966376999997,-1.4416070555622762,-0.7992019724514715,-0.9602818997765321,12.399687867940923,1.9076414816352898,0.101793027,-0.12326959050000008,-0.3280324425000032
163932.0,-0.04893518349999999,3.5761910555,11.518793023499999,-1.4607917147001979,-0.8234498317494287,-0.8859396002878336,12.06126568133936,1.8965418620486796,0.05864376700000001,-0.040697597499999905,-0.34117335349999856
163942.0,0.033734876,3.513918828,11.1704608155,-1.5052906293090453,-0.8111923844126725,-0.8339794031267104,11.71016474701584,1.9024864278239473,0.08267005949999999,-0.06227222749999983,-0.34833220799999864
163952.0,0.1928968055,3.385843979,10.818500147,-1.5484578576986212,-0.7877438859121286,-0.7774883312274099,11.33759648507309,1.9033523772689402,0.1591619295,-0.12807484899999988,-0.3519606685000003
163962.0,0.359315656,3.159506497,10.526458109999998,-1.561781701208346,-0.7741530070268489,-0.7036783571605698,10.99626797540041,1.879797380265795,0.1664188505,-0.22633748199999992,-0.29204203700000164
163972.0,0.47905485249999996,2.9764163415,10.342093089999999,-1.5276744769658728,-0.7954704585107076,-0.6098843631583946,10.772531609230848,1.8271621423292757,0.11973919649999998,-0.1830901555000004,-0.18436501999999955
163982.0,0.419136221,2.8722697184999997,10.2092129825,-1.4453368241737883,-0.8650165932149256,-0.49637163926718736,10.613841822338072,1.756028771438191,-0.059918631499999986,-0.1041466230000001,-0.13288010749999835
163992.0,0.336564228,2.672312125,10.069174020499998,-1.3326234610799945,-0.9883886820506488,-0.3817925192030116,10.423185359001506,1.7025166676264947,-0.08257199299999995,-0.19995759349999975,-0.140038962000002
164002.0,0.31861805849999997,2.5058932744999995,9.833324088,-1.2169796901721022,-1.1226865320038564,-0.28799677987158434,10.15259972568739,1.6805971440683318,-0.017946169500000053,-0.16641885050000038,-0.23584993249999897
164012.0,0.419136221,2.4090035725,9.502938049499999,-1.135441398177431,-1.185572490282464,-0.21445384118029925,9.812482099688475,1.655536090940535,0.10051816250000001,-0.09688970199999947,-0.33038603850000037
164022.0,0.593890724,2.391057403,9.174905607,-1.1143909820691273,-1.1250846143960966,-0.15609875763986883,9.499934452081991,1.591241487834112,0.174754503,-0.017946169500000053,-0.32803244249999963
164032.0,0.777078946,2.209045979,9.071935781999999,-1.1484982063116007,-0.9606780895167348,-0.10573728207357247,9.369298514744019,1.501043268663097,0.18318822200000007,-0.18201142400000014,-0.10296982500000063
164042.0,0.7818842045,2.0522376455,9.191674978499998,-1.2025894504894088,-0.7917406898991957,-0.059105575118787966,9.450392117432848,1.441030247940894,0.004805258499999909,-0.1568083334999999,0.11973919649999942
164052.0,0.7028426054999999,2.0079115874999998,9.34966011,-1.2612115694053945,-0.6934158211588431,-0.007944738755078187,9.588630811739913,1.4392856709872774,-0.07904159900000007,-0.044326058000000224,0.15798513150000204
164062.0,0.6645966704999999,1.814034117,9.416737595999999,-1.2982492014619662,-0.6699673226582993,0.0711937255181007,9.612874464175608,1.4626605036985547,-0.03824593499999995,-0.1938774704999997,0.06707748599999874
164072.0,0.5975191845,1.535132991,9.519707421,-1.2668070949872883,-0.713134551047875,0.19509813977568213,9.661184806085878,1.466773461701676,-0.06707748599999996,-0.27890112600000005,0.10296982500000063
164082.0,0.4359055925,1.339980656,9.493327532499999,-1.186869269916696,-0.8058621488770819,0.33499151531078364,9.597334498877773,1.4731910202670917,-0.16161359199999997,-0.19515233499999995,-0.02637988850000106
164092.0,0.25752262899999995,1.156792434,9.380845256999999,-1.0832141656407528,-0.9476212813825652,0.4580983141002037,9.455408207771153,1.5103619059534623,-0.17838296350000005,-0.18318822200000007,-0.11248227549999967
164102.0,0.22045349199999997,1.016753472,9.0887051535,-0.9705008025469589,-1.1285490929613056,0.540167186187481,9.148057101495185,1.5834378585854822,-0.037069136999999974,-0.140038962,-0.2921401034999995
164112.0,0.208489379,1.1831723225,8.656526088,-0.8556563924364801,-1.3076111475696635,0.58173569298223,8.739497038051471,1.667456503677196,-0.01196411299999997,0.16641885049999994,-0.43217906549999974
164122.0,0.420313019,1.5039478439999998,8.0209571015,-0.7885065947952502,-1.419259859819741,0.6046518660609155,8.171552788516784,1.7325256358455707,0.21182364,0.3207755214999999,-0.6355689864999992
164132.0,1.0009647654999998,1.688312864,7.370874272999999,-0.7898400263437738,-1.385417925623571,0.6190403604143568,7.6277203892705465,1.7106843845887496,0.5806517464999998,0.1843650200000002,-0.6500828285000013
164142.0,1.5791648495,1.7565671479999998,6.852494754,-0.8561887178583383,-1.1946307491003147,0.6478190944504912,7.248170398171302,1.6061977855851186,0.5782000840000001,0.06825428399999978,-0.5183795189999989
164152.0,1.9681946549999998,1.6942949205,6.665776137999999,-0.9523807942527538,-0.9225740612871947,0.7016433032527444,7.153809963895662,1.5001584585705863,0.3890298054999999,-0.06227222749999983,-0.18671861600000117
164162.0,2.14177236,1.5961303539999998,6.588009403499999,-1.0237944312566059,-0.6899513425936344,0.7957060779597268,7.108916151539878,1.4687872736107317,0.17357770500000025,-0.09816456650000016,-0.07776673449999993
164172.0,2.129808247,1.4620734485,6.675386655,-1.0448448473649095,-0.5599173320030488,0.9116168842431742,7.157829903787179,1.495410818932258,-0.011964112999999887,-0.13405690549999982,0.08737725150000042
164182.0,2.0256616239999996,1.3339985995,6.688527565999999,-1.0291229214629445,-0.5167501036134732,1.0309921690918304,7.1147212369534305,1.5456615120373667,-0.10414662300000055,-0.12807484899999988,0.01314091099999981
164192.0,1.8951351125,1.166402951,6.5795756845,-1.0011435482242232,-0.5172841743645834,1.1431732067637659,6.945707244535688,1.6052153443889041,-0.1305265114999996,-0.16759564850000008,-0.10895188149999946
164202.0,1.727539464,0.9988073024999999,6.373734100999999,-0.956911668990931,-0.5298069117476427,1.2356355145466695,6.678809401192327,1.6502031483413175,-0.16759564850000008,-0.16759564850000008,-0.2058415835000007
164212.0,1.4546203944999998,0.8119906199999999,6.192899474999999,-0.9001553070453274,-0.5327390648909932,1.3025165314830922,6.413053341936163,1.6705208178438073,-0.2729190695000001,-0.18681668250000005,-0.18083462600000022
164222.0,1.184054921,0.49003830049999997,5.958324407,-0.847661039133094,-0.53433778648582,1.330228869346258,6.09456752616239,1.6653993371479967,-0.2705654734999998,-0.3219523194999999,-0.23457506799999894
164232.0,0.9901774505,0.175146769,5.67216636,-0.8068936384650105,-0.5346030765321231,1.3051816492508876,5.760607519149823,1.6249236692147053,-0.19387747050000004,-0.31489153149999993,-0.2861580469999998
164242.0,0.8764203105,0.08178746099999999,5.4291575729999995,-0.776249147458494,-0.5210139429760953,1.2601486638909298,5.500050336305749,1.5690739061024603,-0.11375713999999992,-0.09335930800000002,-0.24300878700000084
164252.0,0.777078946,0.0063743225,5.273526037499999,-0.724555985672926,-0.4994312014459334,1.2161838200331927,5.330475512418592,1.5011715376540828,-0.09934136449999997,-0.07541313849999999,-0.15563153550000042
164262.0,0.6897016945,-0.092967042,5.149079648999999,-0.6390226350204399,-0.5076918447956226,1.2001948587556726,5.195897663545766,1.4514022999582155,-0.08737725150000009,-0.0993413645,-0.1244463885
164272.0,0.614288556,-0.23065240799999998,5.059250735,-0.5177815932014017,-0.5452618022740525,1.2052580589157083,5.101624149518152,1.4205826972966378,-0.07541313849999998,-0.13768536599999998,-0.08982891399999904
164282.0,0.601147645,-0.32636531199999996,4.967068224999999,-0.38561653559413117,-0.5849645520984195,1.2236433572562164,5.013946505475556,1.4100307462933526,-0.013140911000000033,-0.09571290399999999,-0.09218251000000066
164292.0,0.5508395304999999,-0.418547822,4.9228402335000006,-0.25984636436616776,-0.6257336980957551,1.264412503253552,4.971213376252194,1.4345040161640603,-0.050308114500000056,-0.09218251000000005,-0.04422799149999879
164302.0,0.443064447,-0.46885593649999996,4.9838375965,-0.14127044031492503,-0.681158373822087,1.310510139457226,5.025412339467638,1.4837017534379748,-0.10777508349999992,-0.050308114499999945,0.06099736299999936
164312.0,0.371279769,-0.5706489634999999,4.8881246925,-0.038948767587505456,-0.7480411360877617,1.3731290623602788,4.935306668874847,1.5641502388435942,-0.07178467799999999,-0.10179302699999998,-0.09571290399999999
164322.0,0.30420228299999996,-0.7621728379999999,4.74445727,0.04845208536461458,-0.7842794073469199,1.4320182166518194,4.814906151818874,1.6334374693226774,-0.06707748600000002,-0.19152387449999997,-0.14366742250000009
164332.0,0.176127434,-0.8878940909999999,4.6462927034999995,0.1161324630984507,-0.7869445251147152,1.4666577663161509,4.733646868582137,1.6684883691799648,-0.12807484899999996,-0.12572125300000003,-0.09816456650000038
164342.0,0.0061781894999999995,-0.973996478,4.545774541,0.1614307385047115,-0.7746870777779591,1.4980998727908288,4.648954020721829,1.6942559371789812,-0.1699492445,-0.08610238700000006,-0.10051816249999934
164352.0,-0.26075882349999996,-0.9812533989999999,4.557738654,0.20433267684798415,-0.7365830495484189,1.5034301083264194,4.669457681064032,1.6865967278316119,-0.26693701299999995,-0.007256920999999861,0.011964112999999443
164362.0,-0.47748578849999995,-0.9764481405,4.736023551,0.26188839959100113,-0.6907507033910478,1.5023637121534508,4.859152469817347,1.6741621163050666,-0.216726965,0.004805258499999909,0.17828489700000016
164372.0,-0.6522402915,-1.0721610444999998,5.036499307,0.3471564601971841,-0.6617066793086102,1.5116907516761087,5.190498239341847,1.6862924615858736,-0.174754503,-0.09571290399999988,0.300475756
164382.0,-0.8964258765,-1.112858642,5.437591292,0.44947813292460365,-0.6800919776491184,1.5410018111341015,5.622226673477965,1.7433422704559933,-0.2441855850000001,-0.04069759750000013,0.4010919849999999
164392.0,-1.1478683825,-1.0661789879999999,5.825444299499999,0.5565959704365037,-0.7685574814449551,1.5785717686125313,6.032424118426431,1.841838349381308,-0.25144250599999995,0.04667965400000007,0.3878530074999995
164402.0,-1.3585152244999998,-0.9716428819999999,6.110327482,0.6549208391768562,-0.9191095827219858,1.611614342011288,6.3344893592636184,1.9674817706947065,-0.21064684199999983,0.09453610599999995,0.28488318250000066
164412.0,-1.4136285975,-0.8555321459999999,6.1714229115,0.7135412127635897,-1.0829837821794894,1.6150770752472448,6.388798151225027,2.0713447066495525,-0.05511337300000019,0.11611073599999999,0.06109542949999991
164422.0,-1.3262513459999998,-0.9500682519999999,6.2240846219999995,0.7297954640874129,-1.225008204731276,1.577507117768815,6.43434547549648,2.1264466199913836,0.0873772515000002,-0.09453610599999995,0.05266171049999979
164432.0,-1.2304403755,-0.7238288365,6.1174863365,0.739921864407484,-1.3688983842534446,1.5175515673043054,6.281842944508699,2.173552371411301,0.09581097049999987,0.22623941549999993,-0.10659828549999961
164442.0,-0.946733991,-0.47728965549999997,5.9415550354999995,0.7343263388255902,-1.4608266212852379,1.438413103031127,6.035411080020771,2.1776780855581648,0.28370638449999996,0.246539181,-0.17593130100000032
164452.0,-0.5828092094999999,-0.313224401,5.7356153855,0.7063469655868692,-1.4765485471872026,1.3717973761410072,5.773652219388014,2.1356380051829404,0.36392478150000007,0.16406525449999998,-0.20593964999999947
164462.0,-0.220061226,-0.2127062385,5.4758372269999995,0.6613157255561635,-1.4224573030093945,1.3408875950881876,5.484383668534185,2.063662474925107,0.3627479834999999,0.10051816249999998,-0.2597781585000005
164472.0,0.0636451585,-0.30243708599999997,5.310693241,0.6170821009936192,-1.3028149827851832,1.3432856774804278,5.319678711838878,1.9704145782195959,0.28370638449999996,-0.08973084749999996,-0.16514398599999947
164482.0,0.29223816999999996,-0.5215176469999999,5.2592083285,0.5925672063201067,-1.161057595608952,1.3526127170030853,5.293076236622814,1.8784972175986114,0.22859301149999997,-0.21908056099999995,-0.05148491250000031
164492.0,0.4610106165,-0.580161414,5.1909540445,0.5811108651100161,-1.024895734014614,1.3571418464120106,5.243579116112495,1.7972020182586228,0.16877244650000006,-0.05864376700000007,-0.068254284
164502.0,0.5795730149999999,-0.6532209565,5.167025818499999,0.5776463865448073,-0.877541075927237,1.3784592978958694,5.240301356484429,1.7331773492009923,0.11856239849999989,-0.07305954250000002,-0.023928226000000663
164512.0,0.557998385,-0.578984616,5.198112899,0.5944329632904888,-0.6830241307924689,1.4205601301124766,5.259939457253996,1.6845959736258116,-0.021574629999999928,0.07423634050000005,0.031087080500000752
164522.0,0.5508395304999999,-0.7070594649999999,5.3406035235,0.6178814617910325,-0.4522671690692906,1.4770494566825252,5.415293461173472,1.6637302036475494,-0.007158854500000089,-0.128074849,0.14249062449999972
164532.0,0.4227646815,-0.915352711,5.6781484165,0.636800830882651,-0.2036572344274623,1.529809014641062,5.766972342682103,1.6695230422562408,-0.12807484899999988,-0.2082932460000001,0.33754489300000046
164542.0,0.0636451585,-0.9596787689999999,6.0947349084999995,0.6538544430038876,-0.04750960756853765,1.586033051164807,6.170156209591321,1.716182867539001,-0.35911952300000005,-0.04432605799999989,0.41658649199999953
164552.0,-0.23084854099999996,-1.0374455034999999,6.379716157499999,0.66238037639988,-0.004609414554517024,1.6230706832213786,6.467639636828937,1.7530337853204356,-0.29449369949999993,-0.07776673449999993,0.28498124899999944
164562.0,-0.49778555399999996,-1.0902052805,6.456306093999999,0.6749048591121912,0.006581636609270617,1.6318653973221782,6.5665993018321664,1.7659344726719544,-0.266937013,-0.05275977700000012,0.07658993650000046
164572.0,-0.7181409795,-1.030286649,6.388051809999999,0.7031495223972155,0.045485025636224224,1.6150770752472448,6.510332017093225,1.762090263690755,-0.22035542550000004,0.059918631499999986,-0.068254284
164582.0,-0.969485419,-0.970466084,6.487393174499999,0.7559090803557521,0.12728860767719843,1.5908292159492876,6.630835286628456,1.7658817972125154,-0.25134443949999996,0.05982056499999999,0.09934136449999986
164592.0,-1.3334102005,-0.8830888325,6.853769618499999,0.8395784193671083,0.1984352093054953,1.5732432784061925,7.037896463600278,1.794258305710009,-0.36392478149999996,0.08737725149999997,0.36637644400000013
164602.0,-1.7189096119999998,-0.7561907815,7.3505745075,0.9496284100223588,0.19630241695955822,1.5628515880398184,7.586660684554203,1.8392481731034394,-0.3854994114999999,0.12689805100000007,0.49680488900000075
164612.0,-1.9451490274999998,-0.9847837929999999,7.822176305999999,1.0562121767831485,0.1238241291119897,1.5465973367159953,8.120335339152408,1.8769336427461545,-0.22623941550000004,-0.2285930114999999,0.47160179849999917
164622.0,-1.9606435345,-1.1656184189999999,8.143049893999999,1.1180317388887875,0.028164378139432494,1.504761794545691,8.45647981989327,1.8748589972803384,-0.015494507000000102,-0.180834626,0.32087358799999954
164632.0,-1.7559787489999998,-1.2218105235,8.239939596,1.0975136482023422,-0.04511152517629744,1.4128318121846457,8.513100896148453,1.7895991135489244,0.2046647855000001,-0.05619210450000023,0.09688970200000036
164642.0,-1.234068836,-1.4313786339999999,8.144226692,0.9797370849485129,-0.02725855225764744,1.3137093279761318,8.360633893225044,1.6390423980806879,0.5219099129999998,-0.2095681104999998,-0.0957129039999991
164652.0,-0.9060363935,-1.3139930334999999,7.9203408725,0.7964111909775325,0.13128541166426547,1.2263084750240116,8.079559342874282,1.4681073258947468,0.3280324425000001,0.11738560050000002,-0.22388581950000042
164662.0,-0.9383983384999999,-0.9955711079999999,7.668996433,0.6301389091277888,0.3641734204041288,1.1815425250396092,7.790074425969924,1.3877103672606101,-0.03236194499999989,0.3184219254999999,-0.2513444394999995
164672.0,-1.2208298585,-0.7465802645,7.621041914499999,0.5371442759230268,0.6101182372781617,1.1863386898240897,7.7542302968967745,1.4381125559530525,-0.28243152000000005,0.2489908434999999,-0.04795451850000099
164682.0,-1.8157993139999997,-0.5741793574999999,7.9801614375,0.55339852724685,0.7609373739307478,1.2308393497621892,8.204254119166718,1.5492711582956078,-0.5949694554999998,0.1724009070000001,0.3591195230000004
164692.0,-2.4323433994999997,-0.6256642699999999,8.5811129495,0.700219114583117,0.7305599182997864,1.2993190882934385,8.941098905834922,1.6468924360314023,-0.6165440855,-0.05148491249999998,0.600951512
164702.0,-2.9829867969999997,-0.842391235,9.3401476595,0.8997992598779205,0.5104616823185375,1.3350250341307386,9.841046261711428,1.6889350724489396,-0.5506433975,-0.2167269650000001,0.7590347099999999
164712.0,-3.3301422069999997,-0.9980227705,9.7494772305,1.0863225970385546,0.14753966298808865,1.3030506022342025,10.350758563376758,1.7028815604657144,-0.34715541000000005,-0.15563153549999997,0.40932957100000067
164722.0,-3.284639351,-1.3451781804999998,9.865686033,1.2363406275644753,-0.27586848689947574,1.1828759565881328,10.484756597325578,1.733158128419048,0.0455028559999997,-0.34715540999999983,0.11620880249999921
164732.0,-2.807055496,-1.5677891355,9.640623415499999,1.3104176370068705,-0.6046832819874515,0.996617909473802,10.162634656943174,1.7538767095716041,0.4775838550000002,-0.22261095500000017,-0.22506261750000078
164742.0,-2.232385806,-1.3379212594999998,9.070758984,1.2901665816959802,-0.7237915314605524,0.7970377641789984,9.43674987637529,1.680378881998509,0.5746696899999999,0.22986787600000014,-0.5698644314999992
164752.0,-1.7176347475,-0.8316039199999999,8.5093282715,1.1934404345504546,-0.5876296698662149,0.6246358859962506,8.720693885106158,1.46961855248271,0.5147510584999999,0.5063173394999999,-0.5614307125
164762.0,-1.510616366,-0.33479903099999997,8.354873534,1.0855232362411413,-0.27693488307244424,0.5289761350236933,8.49693850545708,1.238898453185891,0.20701838149999996,0.49680488899999997,-0.15445473750000005
164772.0,-1.614762989,-0.0283412185,8.6697650655,1.0354287960503998,0.03802374308394846,0.5273774134288666,8.818905205651918,1.162620115482016,-0.10414662299999988,0.3064578125,0.3148915315000007
164782.0,-1.9175923409999998,-0.0044129925,9.283857488499999,1.061275376943184,0.2154888214267319,0.5740091203836512,9.479830680320307,1.2256538369986005,-0.30282935199999983,0.023928226,0.6140924229999989
164792.0,-2.3174094614999996,-0.2389880605,9.917072879,1.1316208724448156,0.19630241695955822,0.611846113237636,10.187042573421818,1.301328591917096,-0.39981712049999985,-0.234575068,0.6332153905000002
164802.0,-2.613079959,-0.5934003915,10.486937310499998,1.2414038277245107,0.0055152404363020815,0.6001227366519903,10.823870151249817,1.3788622775363792,-0.2956704975000002,-0.354412331,0.5698644314999992
164812.0,-2.7914629225,-0.683131239,10.713176726,1.3543842261938597,-0.26894127509831023,0.514320605294697,11.091938022721639,1.4735032156887031,-0.17838296350000027,-0.08973084749999993,0.22623941550000204
164822.0,-2.7077141315,-0.6196822135,10.642568846,1.4042133763382978,-0.506625448622654,0.36856641413139857,10.999090576293243,1.537636417722078,0.0837487910000001,0.06344902549999998,-0.07060788000000073
164832.0,-2.366540778,-0.38147868499999993,10.344446686,1.3679733597498875,-0.5966896740133174,0.1972309321216192,10.61855067702474,1.5054201143352233,0.3411733534999999,0.23820352850000004,-0.29812216000000014
164842.0,-2.0840111915,0.043541526000000004,10.1062431575,1.2781761697347793,-0.4941009659103427,0.047745227017556874,10.318970358969892,1.3711855060838278,0.28252958649999993,0.4250202109999999,-0.2382035284999997
164852.0,-1.9738825119999996,0.5163201225,10.099084303,1.1809176971673954,-0.26361103956271953,-0.030593876458208602,10.303121002840781,1.2103691060743504,0.11012867950000049,0.47277859650000004,-0.007158854500000089
164862.0,-1.9918286815,0.715100918,10.386419148,1.1097710955390985,-0.03605326635844687,-0.0415196375756931,10.59983271270408,1.1111325766143214,-0.017946169500000275,0.19878079549999994,0.28733484500000017
164872.0,-2.0134033115,0.624095206,10.865179800999998,1.0719341026851132,0.09291609338842212,-0.030328586411905466,11.067764897619108,1.0763809474640702,-0.021574629999999928,-0.09100571199999996,0.47876065299999837
164882.0,-2.1318676434999997,0.40864310549999994,11.273430640499999,1.0644728201328377,0.08971690486951651,-0.03245963342859054,11.480509014988803,1.0687399756831597,-0.11846433199999984,-0.21545210050000008,0.40825083950000085
164892.0,-2.2803403244999996,0.41815555599999993,11.485352347000001,1.0724664281069716,-0.01633453646941493,-0.061238367464725045,11.717001519129921,1.0743375606148848,-0.14847268099999988,0.009512450499999991,0.21192170650000186
164902.0,-2.3820352849999997,0.534266292,11.415921264999998,1.0788613144862789,-0.14370342929220511,-0.11053344685805289,11.67402205319279,1.093988141782041,-0.10169496050000015,0.11611073600000005,-0.06943108200000303
164912.0,-2.4526431649999996,0.673128456,11.178894534500001,1.0916528325741452,-0.20418955984932058,-0.15636579301542397,11.46456468543713,1.1215389179355109,-0.07060787999999985,0.13886216400000007,-0.23702673049999667
164922.0,-2.6932983559999997,0.9868431894999999,11.0064936275,1.1121691779313387,-0.14450279008961853,-0.19207173885272397,11.374120514892258,1.13784572308818,-0.2406551910000001,0.3137147334999999,-0.17240090700000188
164932.0,-2.9374839409999995,1.3411574539999997,11.081906766,1.110837491712067,0.005782275811857213,-0.2267112885170554,11.542797442144137,1.1337510203072738,-0.24418558499999987,0.3543142644999998,0.07541313850000009
164942.0,-3.2164831334999997,1.5494507,11.321287092499999,1.0687366594954597,0.1683247890500891,-0.2552229871776348,11.870893085637135,1.111606969725427,-0.27899919250000016,0.2082932460000002,0.23938032649999919
164952.0,-3.4475278074999993,1.5805377805,11.614603994,0.9832015635137217,0.2770413481568159,-0.29439341158014354,12.218124798696172,1.0630638286886487,-0.23104467399999962,0.031087080500000086,0.2933169015000008
164962.0,-3.5432407115,1.4464808749999998,11.722379077499998,0.8856760555707825,0.2956936818728793,-0.37140082883663733,12.331302968380164,1.0048857669265203,-0.09571290400000088,-0.13405690550000027,0.1077750834999982
164972.0,-3.4427225489999995,1.2777084284999998,11.662460446,0.8227918426214268,0.2495960456692051,-0.47585354858074197,12.226931791425335,0.9827111488097361,0.10051816250000067,-0.1687724465,-0.05991863149999688
164982.0,-3.2331544384999997,1.274079968,11.417098063,0.807336952095017,0.17551903622680975,-0.6024230806061188,11.934265606572088,1.0225035229000565,0.2095681104999998,-0.003628460499999875,-0.24536238300000157
164992.0,-2.9937741119999997,1.469232303,11.142904129,0.8531675529231361,0.12862203922572213,-0.72206540083033,11.631235507113821,1.1250853058376065,0.23938032650000007,0.19515233500000018,-0.2741939339999995
165002.0,-2.737624414,1.7409745744999998,10.956185513000001,0.9477626530519767,0.14301053357916335,-0.8065341006390996,11.426442180156315,1.2526784562402435,0.25614969799999976,0.27174227149999974,-0.1867186159999985
165012.0,-2.59876225,2.0522376455,10.880772374499998,1.0500843257793964,0.22588051179310614,-0.8443710934930847,11.373497793173161,1.3662582626949389,0.13886216399999984,0.31126307100000017,-0.07541313850000364
165022.0,-2.5604182484999995,2.426949742,10.996883110499999,1.1230949390488232,0.3697689459860226,-0.8411736503034312,11.548907515581108,1.4510838795526235,0.0383440015000005,0.37471209650000015,0.11611073600000132
165032.0,-2.632300993,2.5418836799999998,11.390718174499998,1.136951107980406,0.538973380979117,-0.8123949162672965,11.964056239055536,1.4977101279349356,-0.07188274450000032,0.11493393799999962,0.39383506399999924
165042.0,-2.8034270355,2.4317550005,11.991669686499998,1.1095058054927953,0.6687403561941474,-0.797474096491997,12.552799583995277,1.5212434818268306,-0.17112604250000008,-0.11012867949999983,0.600951512
165052.0,-2.9052200624999998,2.2138512375,12.614195828499998,1.0551475259394318,0.6961856586817582,-0.8377091717382223,13.132378966245208,1.5164984105710748,-0.10179302699999981,-0.2179037629999998,0.6225261419999999
165062.0,-2.891981085,1.9864350239999997,13.0223486015,0.9752079555395876,0.6378305751413278,-0.9363010758541299,13.486698699072381,1.4948304598777817,0.013238977499999915,-0.2274162135000004,0.4081527730000012
165072.0,-2.7806756075,1.8559085124999999,13.191219114499999,0.8870094871193062,0.5464346635313927,-1.0586067685168847,13.608262746128384,1.4852693230852385,0.11130547749999975,-0.13052651149999983,0.1688705129999999
165082.0,-2.5723823615,1.8582621084999997,13.1708212825,0.8124001522550526,0.47475573648123753,-1.1731858885810602,13.54772388016519,1.503912279978991,0.2082932460000002,0.002353595999999847,-0.020397831999998672
165092.0,-2.3497714065,1.9624087315,13.055887344499999,0.757774837326134,0.4622329990981783,-1.2579216237653852,13.410021179869466,1.5395612560325387,0.22261095499999994,0.10414662300000033,-0.11493393800000185
165102.0,-2.2599424924999996,2.1707019775,13.008030892499999,0.7207372052695624,0.5030003997662618,-1.2946922204464018,13.3801403148384,1.564832089046372,0.08982891400000037,0.20829324599999977,-0.04785645199999955
165112.0,-2.2564120985,2.298874893,13.0056772965,0.6868952710733923,0.5728135698460349,-1.2850998908774407,13.398651546801956,1.5657018326475693,0.00353039399999977,0.12817291549999998,-0.0023535959999989586
165122.0,-2.3748764304999996,2.2964232305,13.031959118499998,0.6349350739122691,0.6452918576936034,-1.2589862746091018,13.444164391288128,1.550674230566738,-0.11846433199999984,-0.0024516624999999515,0.026281821999997845
165132.0,-2.5592414504999996,2.2054175185,13.095408144,0.5760476649499804,0.6964526940573132,-1.241932662487865,13.524174565969103,1.5359928403180179,-0.18436502,-0.09100571199999985,0.06344902550000242
165142.0,-2.6406366455,1.9121986834999998,13.188767452,0.5230210716158887,0.6868603644883524,-1.2525913882297943,13.58576654450058,1.5212867538786856,-0.08139519500000025,-0.29321883500000023,0.09335930800000014
165152.0,-2.6442651059999998,1.7014537749999998,13.308506648499998,0.48118727477483664,0.6069207940885082,-1.3066843777368549,13.67491982106073,1.5189858810152947,-0.003628460499999875,-0.21074490849999994,0.11973919649999765
165162.0,-2.5843464744999998,1.6331994909999998,13.4018659565,0.48038791397742325,0.4513072379806937,-1.404475175726097,13.746133943536885,1.5514513496014606,0.059918631499999986,-0.068254284,0.09335930800000192
165172.0,-2.390469004,1.7853006324999998,13.500030523,0.5427398015049206,0.21895155466268865,-1.52544918216958,13.825789833836666,1.6338609129325083,0.19387747049999993,0.15210114149999998,0.0981645664999995
165182.0,-2.0647901574999996,2.1264739859999997,13.568284807,0.6304059445033439,-0.048576003741506175,-1.638696616014484,13.888254123953473,1.756444671016417,0.32567884650000023,0.3411733534999999,0.068254284
165192.0,-1.6290806979999999,2.5729707604999996,13.4246173845,0.6906267850141562,-0.3009157069948463,-1.728226770654037,13.765697743856057,1.8852807190708973,0.43570945949999973,0.4464967744999999,-0.14366742250000009
165202.0,-0.9945904429999999,3.0146622765,13.1349289435,0.6908920750604594,-0.4488026905040819,-1.7844508071777825,13.513095764533496,1.9654567910850875,0.634490255,0.44169151600000056,-0.28968844099999913
165212.0,-0.23565379949999998,3.2697332429999997,12.8919201565,0.6317376307226156,-0.44986908667705044,-1.799905697704192,13.302191305013212,1.9598814121896972,0.7589366434999999,0.2550709664999995,-0.24300878700000084
165222.0,0.3880491405,3.4875389395,12.749429531999999,0.525686189383684,-0.33768804900511484,-1.7546074222979313,13.223519326616696,1.8625322532865332,0.62370294,0.21780569650000015,-0.1424906245000006
165232.0,0.8165997454999999,3.7449635019999996,12.671662797499998,0.39645153959051194,-0.1700823356068474,-1.6522857495705119,13.238679119504642,1.7076738629969588,0.4285506049999999,0.2574245624999998,-0.07776673450000082
165242.0,1.0081236199999999,3.8586225754999997,12.670485999499999,0.2685503213458635,-0.0008796459430051422,-1.5129246994572687,13.283316486363095,1.5365745003415288,0.19152387449999997,0.11365907350000004,-0.0011767979999994793
165252.0,1.1194290974999999,3.8287122929999997,12.769827364,0.17022545260551095,0.15073710617774225,-1.3637060297287615,13.378365005981191,1.382531198712048,0.11130547749999997,-0.02991028249999994,0.09934136450000075
165262.0,1.0584317344999998,3.7891914934999997,12.938599810499998,0.10174396874500945,0.26318517922523293,-1.227544168134424,13.52352080514834,1.2595566515487258,-0.06099736300000003,-0.03952079949999998,0.16877244649999845
165272.0,0.8860308275,3.8239070345,13.067851457499998,0.036194638027858404,0.31940921574897824,-1.1220250522173507,13.644634745974836,1.1671643057987566,-0.17240090699999988,0.03471554100000018,0.12925164700000025
165282.0,0.7148067184999999,3.7880146955,13.082267233,-0.04454429316939928,0.3479191690803056,-1.0508801959183058,13.638391398319751,1.1078723430254898,-0.17122410900000007,-0.035892339000000106,0.014415775500001615
165292.0,0.5269113045,3.7089730965,12.9158483825,-0.151129805259441,0.40281151938477927,-1.009578724499112,13.448169258047676,1.097427236379745,-0.18789541399999987,-0.07904159899999996,-0.1664188504999995
165302.0,0.26595634799999995,3.5486343689999997,12.573498231,-0.2745018940951642,0.5152578471030179,-0.9954555201919739,13.067379095627771,1.1540249700694276,-0.26095495650000006,-0.1603387275000001,-0.3423501514999998
165312.0,0.18456115299999998,3.5306881995,12.168875852,-0.39867334372830077,0.6255731278045715,-1.0143748892835924,12.672070134065466,1.2566775995615578,-0.08139519499999998,-0.01794616949999961,-0.404622379000001
