timestamp,ax,ay,az,gx,gy,gz,acc_mag,gyro_mag,dax,day,daz
130912.0,0.194563936,-0.8350362474999999,9.053695413,-0.04343949975288687,-0.06177941953284328,-0.06759834725899237,9.094203719469228,0.10135691080899929,0.0,0.0,0.0
130922.0,0.2495792425,-0.9702699509999999,8.9520004525,-0.03837629959285131,-0.05138772916646905,-0.07212747666791766,9.007886859728014,0.09651845403759667,0.0550153065,-0.13523370349999997,-0.10169496049999971
130932.0,0.115522337,-1.0468598875,8.9674949595,-0.025586526834236872,-0.0007609635538695276,-0.08465195938022897,9.029132122361505,0.08843756921060968,-0.1340569055,-0.07658993650000001,0.015494506999999658
130942.0,-0.030498681499999996,-0.93555441,8.946018396,0.006921975813409511,0.028017770482264972,-0.09930748910922535,8.994856161452171,0.10341608484726743,-0.1460210185,0.11130547749999997,-0.021476563500000267
130952.0,-0.14307902349999999,-0.8277793265,9.0716415825,0.04129623543143783,0.03467969223712733,-0.10623470091039086,9.110453952558546,0.11913803671368273,-0.11258034199999999,0.10777508349999998,0.12562318650000037
130962.0,-0.2603665575,-0.7368716809999999,9.174611407499999,0.056484090582292486,0.010164797563614976,-0.10730109708335939,9.207837156311642,0.12168525396986445,-0.117287534,0.09090764550000008,0.10296982499999885
130972.0,-0.3884414065,-0.6434143065,9.306314717,0.06527705935383991,-0.04179539959750821,-0.11076383031931614,9.336614070847277,0.13519088731274154,-0.128074849,0.09345737449999991,0.13170330950000064
130982.0,-0.5081806029999999,-0.5656475719999999,9.489502939,0.08979195402735228,-0.10947752266059631,-0.11929150904456043,9.519919680872553,0.185144233250944,-0.11973919649999992,0.07776673450000005,0.18318822200000007
130992.0,-0.6314501935,-0.49023443349999996,9.631895497,0.13189278624395948,-0.20940111299577566,-0.1275521523942496,9.665012675200646,0.2784135139813983,-0.12326959050000008,0.07541313849999998,0.14239255800000095
131002.0,-0.763153503,-0.348920607,9.679751949,0.18731746197029142,-0.337035295864869,-0.13021552483279294,9.716056126500078,0.40698489545091365,-0.13170330949999998,0.14131382649999996,0.04785645199999955
131012.0,-0.8864230934999999,-0.289100042,9.690539264,0.24114341610179654,-0.46094145545170245,-0.11769278744973362,9.735290235123973,0.5333561330863893,-0.12326959049999997,0.05982056499999999,0.010787314999999964
131022.0,-0.9749771429999999,-0.3645131805,9.5696232695,0.26645767157272227,-0.5496722492938422,-0.09690766138773314,9.626065645334366,0.6184903937971454,-0.08855404950000001,-0.07541313849999998,-0.12091599450000068
131032.0,-1.1725811405,-0.5141626595,9.482246018,0.26086040066157645,-0.5768522617351499,-0.0801210846420517,9.568296573442801,0.6381426711218229,-0.19760399750000002,-0.14964947899999997,-0.08737725149999953
131042.0,-1.4898262679999998,-0.7882585269999999,9.458317791999999,0.23954469450696975,-0.5659265006176653,-0.08784940256988259,9.60732581255964,0.6207833618096406,-0.3172451274999999,-0.2740958674999999,-0.023928226000000663
131052.0,-1.7842219009999998,-1.0493115499999999,9.4774407595,0.22888596876504036,-0.5350167195648458,-0.13527872499282848,9.700844595745435,0.5974378715373885,-0.29439563299999993,-0.261053023,0.01912296750000131
131062.0,-2.046451722,-1.227596447,9.566092875499999,0.23874533370955633,-0.4974467620864158,-0.2021614872585032,9.859264201240153,0.5876409468450242,-0.26222982100000025,-0.17828489700000016,0.08865211599999867
131072.0,-2.243957653,-1.3533177,9.655823723,0.26379255380492694,-0.460142094654289,-0.28742954786468616,10.00508603237574,0.6032685999631174,-0.1975059309999998,-0.12572125300000003,0.08973084750000027
131082.0,-2.372032502,-1.514931292,9.756439952,0.291770181714396,-0.40898125829057924,-0.3833563342127985,10.154293453855217,0.6319474563218622,-0.12807484900000032,-0.16161359199999992,0.10061622899999989
131092.0,-2.39478393,-1.6023085435,9.964733198,0.31015722538415635,-0.3322391310803886,-0.4880760893324583,10.372959579950297,0.6669322406790031,-0.02275142799999985,-0.08737725149999997,0.2082932460000002
131102.0,-2.3936071319999996,-1.6155475209999999,10.184990557,0.3112218762278729,-0.24004385867304012,-0.5882649697139408,10.586471628505397,0.7074855368995069,0.0011767980000003675,-0.013238977499999915,0.22025735900000143
131112.0,-2.3170171955,-1.5520984955,10.407601512,0.2973657072962899,-0.1521106802990618,-0.6815266382942577,10.774773670781244,0.7589746910414986,0.07658993649999957,0.06344902549999998,0.2226109549999986
131122.0,-2.2044368535,-1.4969851225,10.6530619615,0.28644169150805737,-0.079100067029635,-0.759333416348165,10.981267479376575,0.8154096519057557,0.11258034200000022,0.055113372999999966,0.24546044950000123
131132.0,-2.0308591485,-1.2898686745,10.948732458999999,0.28164552672357696,-0.03540051321820099,-0.8040993663325675,11.209946143370301,0.8527327776014886,0.17357770500000003,0.20711644799999984,0.29567049749999796
131142.0,-1.9351462444999998,-1.200137827,11.492217002,0.26912104401126563,-0.04259476039492161,-0.8597910774344546,11.715637985720479,0.9019318969737763,0.09571290399999999,0.08973084750000004,0.5434845430000017
131152.0,-1.768727394,-1.0983448,11.795046354,0.2494040594514857,-0.057782615545776274,-0.906155749013684,11.977390216027102,0.9416259644894792,0.16641885049999994,0.10179302700000004,0.30282935199999983
131162.0,-1.5915212284999998,-1.0300905159999998,11.6957049895,0.23208341195469398,-0.022076669708476274,-0.9583812362211103,11.848356067123172,0.9863288920997159,0.17720616550000012,0.06825428400000022,-0.09934136450000075
131172.0,-1.4310844345,-0.8888747559999999,11.748366699999998,0.19557810531998057,0.06745348493107685,-1.0100761433359304,11.868539131173266,1.0310453836986457,0.16043679399999977,0.1412157599999999,0.052661710499998904
131182.0,-1.214455536,-0.728437962,11.959111608499999,0.12922941380541614,0.16604538904698454,-1.0580377911807344,12.042668914238371,1.0787563581193222,0.2166288985,0.16043679399999988,0.2107449085000006
131192.0,-1.0109675485,-0.5835937415,12.178192169499999,0.054885368987465676,0.256376649813203,-1.1017390903214206,12.234010035818557,1.1325062531573957,0.20348798749999997,0.1448442205,0.21908056100000017
131202.0,-0.785904931,-0.5093574009999999,12.355300268499999,-0.018125244281961113,0.3325847062722835,-1.1377103262050239,12.390743974730482,1.1854644227812337,0.2250626175,0.07423634050000005,0.1771080989999998
131212.0,-0.6278217329999999,-0.43394426249999996,12.463075351999999,-0.08793841436173429,0.39786700161387933,-1.1659567348192998,12.486421223914148,1.2351058348028956,0.15808319800000015,0.07541313849999998,0.10777508349999998
131222.0,-0.49974688399999995,-0.43041386849999996,12.691668363499998,-0.14362838013436938,0.4333076574048762,-1.1872724409739066,12.708794155832864,1.272006480581708,0.12807484899999994,0.0035303939999999923,0.22859301149999922
131232.0,-0.35009740500000003,-0.460324151,12.949092926,-0.17906903592536622,0.3968023507701628,-1.207523496284797,12.962001161979767,1.2836007242455993,0.14964947899999992,-0.02991028250000005,0.25742456250000245
131242.0,-0.14307902349999999,-0.44237798149999996,13.019700805999998,-0.21370858558969769,0.30220725064132214,-1.2243118183597304,13.02799980669476,1.279038705618499,0.20701838150000004,0.017946169500000053,0.07060787999999718
131252.0,0.09522257149999999,-0.43394426249999996,13.028134524999999,-0.2635377357341358,0.20121900946242624,-1.2285739123931005,13.035707275118472,1.2725309764944055,0.23830159499999998,0.008433719000000006,0.008433719000001005
131262.0,0.35019547149999997,-0.42796220599999996,12.8497515615,-0.32748834485646,0.11781496049737324,-1.2224460613893482,12.86164467361368,1.2710245292440863,0.25497289999999995,0.005982056499999999,-0.17838296349999894
131272.0,0.6362554519999999,-0.5045521425,12.5492758055,-0.40023192275033165,0.08797157561752218,-1.2088569278333205,12.57552055014856,1.276424561842834,0.2860599804999999,-0.07658993650000007,-0.3004757559999991
131282.0,0.9164314425,-0.5835937415,12.2715514775,-0.4639172418263528,0.13406921182119644,-1.195800119699151,12.31955372198413,1.289624630307064,0.2801759905000001,-0.07904159899999996,-0.27772432800000146
131292.0,1.0707881135,-0.602716709,12.103955828999998,-0.5201395330208461,0.23665791992417112,-1.173950342793434,12.166166254235709,1.3056460133661039,0.15435667099999995,-0.019122967499999977,-0.16759564850000075
131302.0,1.0983448,-0.6290965974999999,12.0667886255,-0.5705010085871425,0.36375977737140613,-1.145970969554713,12.132992687757183,1.3308050343661955,0.027556686500000094,-0.02637988849999995,-0.037167203499999246
131312.0,1.0564704045,-0.7093149945,12.2272254195,-0.6123365507574465,0.4722110464318299,-1.1171939808478302,12.293262339032461,1.3586985370597824,-0.04187439550000005,-0.08021839700000011,0.16043679400000066
131322.0,0.9271206909999999,-0.7799228745,12.443952384499998,-0.6512399397844001,0.5377603771489808,-1.0942778077691446,12.502791024949262,1.382296496044842,-0.12934971350000002,-0.07060787999999996,0.21672696499999766
131332.0,0.844548698,-0.8146384155,12.592326998999999,-0.6912097249843223,0.5529482322998355,-1.0798893134157035,12.646880939624843,1.3963106963515874,-0.08257199299999995,-0.03471554100000007,0.14837461450000156
131342.0,0.75118939,-0.785904931,12.7036324765,-0.7277150316190357,0.5244365336392561,-1.0662984345304236,12.750067064851235,1.3934113522366196,-0.09335930800000003,0.028733484500000017,0.1113054775000002
131352.0,0.7236327034999999,-0.7368716809999999,12.7456049385,-0.7562267302796151,0.45675615590542007,-1.0487124969873287,12.787379301958243,1.3712413919089126,-0.027556686500000094,0.04903325000000014,0.04197246200000038
131362.0,0.7212791075,-0.6817583079999999,12.674898992,-0.7778094718097769,0.3677565813584732,-1.0279291162545803,12.713697432251784,1.3404740749501267,-0.002353595999999847,0.055113372999999966,-0.0707059465000004
131372.0,0.7822764704999999,-0.623114541,12.5851681445,-0.7916656407413599,0.2768929951703964,-1.0058123039733082,12.624843976574171,1.3096039891237945,0.060997362999999916,0.05864376699999996,-0.08973084749999849
131382.0,0.8624948674999999,-0.556037055,12.39364427,-0.799926284091049,0.21081133903138707,-0.9759689190934572,12.43605616320145,1.279390015468454,0.080218397,0.06707748599999996,-0.1915238745000014
131392.0,0.8852462955,-0.563293976,12.150635482999999,-0.8121837314278053,0.182831965792666,-0.9346657023450113,12.195856007178543,1.2516668552181516,0.022751428000000073,-0.007256920999999972,-0.24300878700000084
131402.0,0.8397434395,-0.6518480255,11.9267496635,-0.8271045512031048,0.1820326049952526,-0.8957623133180577,11.974031586242326,1.2327318969926775,-0.045502856000000036,-0.08855404950000001,-0.22388581949999775
131412.0,0.7236327034999999,-0.7882585269999999,11.710120765,-0.8271045512031048,0.18363132659007939,-0.8696504423789706,11.758908288010716,1.2141310862736614,-0.1161107360000001,-0.1364105014999999,-0.21662889850000155
131422.0,0.6410607104999999,-0.9618362319999999,11.5784174555,-0.809785649035565,0.16791114601736645,-0.8539285164770056,11.635971749087474,1.188756014324822,-0.08257199299999995,-0.17357770500000003,-0.13170330949999887
131432.0,0.6493963629999999,-1.0971680019999999,11.530561003499999,-0.7812739503749857,0.13300456097747987,-0.8552602026962773,11.60083317336842,1.1659970896582141,0.008335652500000013,-0.13533176999999996,-0.047856452000001326
131442.0,0.6734226554999999,-1.1259014864999999,11.4526962025,-0.7575584164988867,0.08370773625490004,-0.8600563674807578,11.52759309383366,1.1491730482226847,0.02402629249999999,-0.028733484500000017,-0.0778648009999987
131452.0,0.7907101894999999,-1.016949605,11.411998604999999,-0.7508964947440244,0.040807543240879415,-0.8619221244511397,11.484473051185706,1.1438621201974408,0.11728753400000003,0.1089518814999999,-0.04069759750000124
131462.0,1.0564704045,-0.923590297,11.4071933465,-0.7735456324471548,0.03254689989119026,-0.8515304340847654,11.49318096945884,1.1508849752877934,0.265760215,0.09335930800000003,-0.004805258499999354
131472.0,1.3186021589999999,-0.8385666414999999,11.394052435499999,-0.8265722257812465,0.06532243791439177,-0.8206206530319458,11.500710263669784,1.1665791535556516,0.2621317544999999,0.08502365550000002,-0.013140911000000699
131482.0,1.397643758,-0.6794047119999999,11.494570598,-0.8913221957009843,0.11541687810513301,-0.7678610950734093,11.599144454198777,1.1821112357253416,0.07904159900000018,0.15916192950000008,0.10051816250000023
131492.0,1.3845028469999998,-0.7607999069999999,11.714827956999999,-0.9502113499925249,0.12980711778782628,-0.7174996195071128,11.820865395306347,1.1977300202782974,-0.013140911000000255,-0.08139519500000003,0.22025735899999965
131502.0,1.4406949515,-1.007339088,11.872911155,-1.0045696295458881,0.10076134837613664,-0.6841917560620532,12.002347823489107,1.2196029472725196,0.05619210450000023,-0.24653918100000005,0.1580831980000017
131512.0,1.5305238654999997,-1.1378655994999998,11.860947042000001,-1.0626576777107635,0.04800179041760005,-0.6668711085652613,12.013297056117406,1.2554929658584268,0.0898289139999997,-0.13052651149999983,-0.011964112999999443
131522.0,1.7531348205,-1.2730993029999997,11.839372411999998,-1.1255436359893711,-0.0018256143975860686,-0.6490181356466114,12.035987813394266,1.2992599238729354,0.22261095500000017,-0.13523370349999997,-0.02157463000000348
131532.0,1.9326945819999999,-1.2671172464999998,11.7292437325,-1.2017516924484515,-0.028471556087783498,-0.6202411469397289,11.954750227422588,1.3526702629118035,0.17955976149999997,0.005982056499999944,-0.11012867949999716
131542.0,2.010559383,-1.1928809059999999,11.6143097945,-1.2752946311397366,-0.04499284278716182,-0.5824024087564919,11.847257315137853,1.4027092777340824,0.07786480100000004,0.07423634049999994,-0.11493393800000007
131552.0,2.0285055525,-1.1510065105,11.504181115,-1.3392452402620607,-0.0588490117187448,-0.5323079685657506,11.738221070096584,1.4423566802783054,0.017946169500000053,0.04187439549999983,-0.11012867950000071
131562.0,2.1122543435,-1.1905273099999998,11.376106265999999,-1.4015988731188103,-0.07803367085666647,-0.4840792853453913,11.63162789392847,1.4848910429441582,0.0837487910000001,-0.03952079949999976,-0.12807484900000077
131572.0,2.2032600555,-1.2755509655,11.147415187999998,-1.4575558742670003,-0.10388199707870249,-0.43478246062281145,11.434432671164883,1.5245643259608712,0.09100571199999985,-0.08502365550000013,-0.22869107800000066
131582.0,2.2978942279999997,-1.2695689089999997,10.910388457499998,-1.5055192674410567,-0.1419860253082427,-0.3814905772424166,11.22179572935296,1.5595779417983062,0.09463417249999972,0.005982056500000166,-0.23702673050000023
131592.0,2.3457506799999996,-1.306638046,10.510571336999998,-1.5404258524809433,-0.19447854789122415,-0.3258006114697815,10.848131593327079,1.5864676961777706,0.047856451999999994,-0.03706913700000025,-0.39981712049999985
131602.0,2.452250899,-1.4491286705,10.012589649999999,-1.5569453938510696,-0.2352476938885597,-0.26398104936414235,10.409873192051789,1.5965921305509876,0.1065002190000004,-0.14249062449999994,-0.49798168699999934
131612.0,2.5743436915,-1.6370240845,9.526572075999999,-1.5489517858769357,-0.2445729880819654,-0.20082805570997952,10.003132949952322,1.580948920563514,0.12209279250000016,-0.18789541399999998,-0.4860175739999999
131622.0,2.6414211775,-1.7770630465,9.0608542675,-1.5244368912034232,-0.22405664272477205,-0.13714448196321044,9.603860628156488,1.5469058870351522,0.06707748599999963,-0.140038962,-0.4657178084999991
131632.0,2.7551783174999995,-1.965056527,8.625144808,-1.4975239141376706,-0.1824881359300231,-0.07425852368460273,9.265288860823325,1.5104284562696908,0.1137571399999997,-0.1879934805000001,-0.43570945949999995
131642.0,2.7982295109999997,-2.2009064594999996,8.324669051999999,-1.460219246705544,-0.1310602641907582,-0.004180063558526419,9.053960043264311,1.466094988133583,0.043051193500000196,-0.23584993249999964,-0.30047575600000087
131652.0,2.716834316,-2.4032176489999997,8.070872949999998,-1.4018641631651134,-0.11773642068103349,0.07202799290055399,8.8484820135491,1.408642264197226,-0.08139519499999981,-0.20231118950000004,-0.2537961020000008
131662.0,2.6138644909999997,-2.6043520405,7.854244051499999,-1.3237903497356511,-0.1630364414165463,0.1506358770811266,8.677792734831268,1.3422715592409045,-0.10296982500000018,-0.20113439150000012,-0.2166288984999989
131672.0,2.542079813,-2.7898938585,7.628004635999999,-1.2307957165308894,-0.24590641963048906,0.23190538837099056,8.510706918006026,1.2763652189721293,-0.07178467799999977,-0.18554181800000036,-0.22623941550000026
131682.0,2.5660080389999997,-2.9370916749999996,7.3825441865,-1.1404644557646708,-0.3287763978444318,0.3131766449901065,8.349422939891827,1.227531142419379,0.023928225999999775,-0.1471978164999994,-0.24546044949999946
131692.0,2.658190549,-3.038884702,7.111978712999999,-1.075714485844933,-0.3810018850518581,0.39071813299771063,8.178082809620337,1.2062274872191043,0.09218251000000022,-0.10179302700000026,-0.2705654735000005
131702.0,2.7850885999999995,-3.165782753,6.849846958500001,-1.0405408654294914,-0.3849986890389252,0.46825787567606264,8.043587651285582,1.2042486127553167,0.1268980509999995,-0.12689805099999996,-0.2621317544999986
131712.0,2.7994063089999996,-3.2315853745,6.669110399,-1.0226878925108414,-0.34556297459011326,0.5436665713377297,7.921922319084001,1.2086677110297752,0.014317709000000178,-0.06580262150000005,-0.18073655950000056
131722.0,2.7407625419999997,-3.2327621724999998,6.566140574,-1.0069677119381284,-0.29973062843274223,0.6193423023749518,7.815160434252535,1.2195930919850695,-0.05864376699999996,-0.0011767979999999234,-0.10296982499999974
131732.0,2.670154662,-3.1717648095,6.394916465,-0.9925792175846873,-0.2568304354187216,0.6947509980366188,7.621336793510112,1.2384887262350344,-0.07060787999999985,0.060997362999999805,-0.17122410900000062
131742.0,2.5863078045,-3.077130637,6.355493731999999,-0.9731257777419584,-0.21686065021879944,0.762700156475262,7.519974840002652,1.2552744120735517,-0.08384685749999976,0.09463417250000017,-0.03942273300000032
131752.0,2.495400159,-3.0987052669999997,6.2955751005,-0.9491449538195562,-0.17182941018809375,0.8282494871924131,7.447366120401651,1.2713766957913029,-0.09090764550000019,-0.021574629999999928,-0.05991863149999954
131762.0,2.3780145585,-3.1357744039999997,6.254877503,-0.9198338943615635,-0.1257317739844195,0.8959298649262492,7.389961226607013,1.2901911467191194,-0.11738560050000002,-0.03706913700000003,-0.04069759749999946
131772.0,2.221206225,-3.1741184055,6.2357545355,-0.8803981799127517,-0.07989942782704841,0.9604145447996837,7.341213753400825,1.3053279172773251,-0.1568083334999999,-0.03834400150000006,-0.01912296750000042
131782.0,1.9614280665,-3.2172676654999997,6.2728236725,-0.8303019943927584,-0.05192179991757931,1.0195689891375275,7.3175356587994935,1.3159096469021696,-0.2597781585000001,-0.043149259999999856,0.037069137000000474
131792.0,1.6705628275,-3.3046449169999996,6.320778191,-0.7716816208060249,-0.05005604294719737,1.074461339442001,7.325550841261014,1.32380712389715,-0.29086523899999994,-0.08737725149999997,0.04795451849999921
131802.0,1.434712895,-3.4003578209999996,6.406880578,-0.7122601410926259,-0.08682838495746589,1.1160281009074982,7.3938456261047785,1.3267902618872383,-0.23584993249999986,-0.09571290399999999,0.08610238700000039
131812.0,1.2611351899999999,-3.4626300485,6.531425032999999,-0.6637644224967115,-0.136655789772652,1.1602617254700422,7.4993187545223385,1.3436760342588163,-0.17357770500000025,-0.06227222750000028,0.12454445499999878
131822.0,1.0971680019999999,-3.517645355,6.530248235,-0.6384501670257857,-0.17795726119184582,1.2074257578466852,7.498116328711256,1.3773758976030468,-0.16396718799999999,-0.05501530650000008,-0.0011767979999985911
131832.0,0.9271206909999999,-3.6613127775,6.4380657249999995,-0.6397818532450573,-0.20460320288204326,1.2471285076710523,7.4641445799089965,1.4165143151472548,-0.17004731099999992,-0.14366742250000009,-0.09218251000000066
131842.0,0.718827445,-3.8468545955,6.287239448,-0.646710810375475,-0.21872640718918138,1.270577006171596,7.405699362726794,1.442373752558735,-0.208293246,-0.18554181799999991,-0.1508262769999993
131852.0,0.590752596,-4.056422706,6.086105056499999,-0.6392495278231991,-0.2312508899014927,1.2791046848968404,7.337862669618993,1.4485253631978492,-0.128074849,-0.20956811050000024,-0.201134391500001
131862.0,0.5573119194999999,-4.1928332075,5.955578544999999,-0.6139352723522733,-0.22565536431959887,1.2721757277664227,7.304749324049102,1.4304782222748091,-0.033440676500000044,-0.13641050149999945,-0.13052651150000028
131872.0,0.4663062075,-4.1940100055,5.782000839999999,-0.5811597343290719,-0.20593663443056692,1.2588518842566983,7.1581209209643735,1.4017362807256812,-0.0910057119999999,-0.0011767980000003675,-0.17357770499999958
131882.0,0.34421341499999997,-4.0731920775,5.6479439345,-0.5459878592428822,-0.18461918294670818,1.2519246724555326,6.971990193806218,1.3782243542527566,-0.12209279250000005,0.12081792800000013,-0.1340569054999996
131892.0,0.21486370149999998,-4.061129898,5.606069538999999,-0.5012219092584795,-0.16623388460619992,1.250592986236261,6.925818228538446,1.3575124028661072,-0.1293497135,0.012062179499999992,-0.041874395500000716
131902.0,0.10591182,-4.159294464499999,5.6144051914999995,-0.45858700629076204,-0.17769197114554267,1.2404665859161896,6.98802500069785,1.3344039230019071,-0.10895188149999997,-0.0981645664999995,0.008335652500000457
131912.0,0.05687856999999999,-4.210779377,5.5869465715,-0.426612574394226,-0.19980703809756284,1.2215472168245713,6.996275446713727,1.309235939025677,-0.049033250000000014,-0.05148491250000031,-0.0274586199999991
131922.0,0.000588399,-4.150958812,5.561743481,-0.4012983189233002,-0.22245617580069324,1.2007638360918227,6.9399891897307615,1.2854419010552307,-0.056290170999999986,0.05982056499999988,-0.02520309050000069
131932.0,-0.0029419949999999998,-3.9821863654999996,5.4731894315,-0.37172022408975225,-0.2429742664871386,1.1925031927421337,6.768575881083994,1.2725078718312437,-0.0035303939999999996,0.16877244650000023,-0.0885540494999999
131942.0,-0.0042168595,-3.779875176,5.4133688665,-0.32935410182684194,-0.24350833723824886,1.2100908756144806,6.602426570045029,1.2775329201003482,-0.0012748644999999999,0.2023111894999996,-0.05982056499999988
131952.0,-0.072373077,-3.6111027294999998,5.375024865,-0.28192303407464403,-0.23311490154262263,1.2527240332529461,6.47581601689278,1.3050443126394629,-0.06815621749999999,0.16877244650000023,-0.038344001499999614
131962.0,-0.22800461249999998,-3.4973455894999996,5.476817892,-0.2256989975508987,-0.2384451370782133,1.3134771991856165,6.502226272427598,1.35389012614474,-0.15563153549999997,0.11375714000000015,0.10179302699999937
131972.0,-0.463854545,-3.512938163,5.612051595499999,-0.1577515844415075,-0.2888066126445097,1.3774278083079408,6.637094144769461,1.4161928502153296,-0.23584993250000003,-0.015592573500000206,0.13523370349999908
131982.0,-0.706863332,-3.6051206729999996,5.7113929599999995,-0.08713905356432089,-0.3666133906984169,1.4248588760601388,6.7909174918088695,1.4738457889422616,-0.24300878699999995,-0.09218250999999977,0.09934136450000075
131992.0,-0.9031924649999999,-3.6625876419999996,5.723357073,-0.036777577998024516,-0.44308848253305244,1.4456422567928873,6.854715242023043,1.5124686866914223,-0.196329133,-0.057466969000000034,0.011964113000000332
132002.0,-1.05519554,-3.6493486644999997,5.6610848455,-0.022122048269028128,-0.4774609968218288,1.4464416175903005,6.8175556419198795,1.5233685508119683,-0.152003075,0.013238977499999915,-0.06227222750000028
132012.0,-1.227596447,-3.551184098,5.523497545999999,-0.029848620867607024,-0.46174081624911584,1.4339188802072413,6.6803388144047835,1.5067245523229809,-0.1724009070000001,0.09816456649999994,-0.1375872995000007
132022.0,-1.4754104925,-3.4530195314999994,5.3941478325,-0.03384717018392603,-0.4076478267420556,1.4123343933478274,6.572443293415624,1.4703777814596344,-0.24781404549999997,0.09816456650000038,-0.12934971349999902
132032.0,-1.7866735634999997,-3.3800580554999997,5.305593782999999,-0.023188444441996664,-0.3412991352274911,1.3824910084679762,6.539596338557026,1.4241854486538874,-0.3112630709999997,0.07296147599999969,-0.08855404950000079
132042.0,-2.0619462289999997,-3.3931989664999995,5.340309324,-0.005335471523346666,-0.28480980865744265,1.3393237800784006,6.654646884211462,1.369282031667458,-0.27527266549999996,-0.01314091099999981,0.03471554100000063
132052.0,-2.2630806205,-3.4099683379999997,5.4982944555,0.024509658685756372,-0.25363299222906793,1.2825674181327968,6.854243932077934,1.3076351173671465,-0.20113439150000012,-0.01676937150000013,0.15798513150000026
132062.0,-2.370855704,-3.4159503944999994,5.664713306,0.055419439738575944,-0.2592285178109618,1.2266104169846068,7.0269944290605135,1.254927828125011,-0.10777508349999998,-0.005982056499999722,0.16641885050000038
132072.0,-2.4091997055,-3.3955525625,5.821521639499999,0.07940026366097803,-0.297332546040502,1.183177898548728,7.157103787486133,1.2225469252419492,-0.03834400150000006,0.02039783199999956,0.156808333499999
132082.0,-2.405571245,-3.31660903,5.873006552,0.09645387578221462,-0.35062617475014884,1.1591953292970738,7.160926925509247,1.2148974755251918,0.003628460499999875,0.07894353249999986,0.05148491250000031
132092.0,-2.337316961,-3.2004982939999995,5.954401747,0.11190876630862442,-0.3881961322285788,1.1522681174959084,7.152701592458044,1.2210412047312371,0.068254284,0.11611073600000044,0.0813951950000007
132102.0,-2.2834784525,-3.1154746384999994,6.001081401,0.11137644088676615,-0.39832253254864985,1.1567972469048338,7.136766357924058,1.2285135009299557,0.05383850850000016,0.08502365550000013,0.04667965400000007
132112.0,-2.3409454215,-3.0472203545,6.056194774,0.08366410302360018,-0.3786038026596179,1.1623927724867276,7.172382623364834,1.2253560621519148,-0.057466969000000034,0.06825428399999955,0.0551133729999993
132122.0,-2.4881432379999997,-3.0076995549999994,6.1759339705,0.05088856500039867,-0.3540889079861056,1.1602617254700422,7.306112084681443,1.21415644477856,-0.14719781649999986,0.039520799500000425,0.11973919650000031
132132.0,-2.6449515715,-3.0221153304999997,6.256054300999999,0.025041984107614643,-0.345030649168255,1.137877877813215,7.434188947254706,1.1893020283553792,-0.15680833350000034,-0.014415775500000283,0.08012033049999889
132142.0,-2.776654881,-2.9538610464999997,6.2573291655,0.011718140597889929,-0.37167659085845245,1.0957770455966078,7.45582159762612,1.1571551912633258,-0.13170330949999975,0.068254284,0.0012748645000009162
132152.0,-2.8412807045,-2.8963940774999997,6.230949276999999,0.03436727830102034,-0.42097167025178034,1.0512781309877606,7.4355029141604065,1.1329536467417864,-0.06462582350000012,0.057466969000000034,-0.02637988850000106
132162.0,-2.7886189939999997,-2.891588819,6.168677049499999,0.09139067562217908,-0.46973442422324985,1.0091772987711531,7.361403285576155,1.1168892090292877,0.052661710500000236,0.004805258499999798,-0.06227222749999939
132172.0,-2.7035953384999996,-2.7395857439999998,6.165146655499999,0.16253727725047593,-0.4963803659134473,0.9737383883094084,7.267997735752934,1.1049788608963387,0.08502365550000013,0.1520030750000001,-0.0035303940000002143
132182.0,-2.6198465475,-2.5612027805,6.301557157,0.22648788637280018,-0.47080082039621846,0.9505551798551677,7.289237149265109,1.0846683018825898,0.08374879099999966,0.17838296349999982,0.13641050150000122
132192.0,-2.5359996899999997,-2.39478393,6.4380657249999995,0.2632584830538167,-0.3961897402027128,0.9390970933158249,7.3222247151044275,1.0526987649921136,0.0838468575000002,0.16641885049999994,0.1365085679999991
132202.0,-2.5947415234999998,-2.278673194,6.636748454,0.25766295747192286,-0.3037274324198092,0.9374983717209981,7.481407965115968,1.0185989150971204,-0.05874183350000006,0.11611073599999999,0.1986827290000006
132212.0,-2.7814601394999996,-2.3960587944999996,6.8450416999999995,0.24354149849403678,-0.2421749056897252,0.9449596542732739,7.767381420341545,1.0054401497050003,-0.18671861599999984,-0.11738560049999958,0.20829324599999932
132222.0,-2.9334632144999997,-2.5970951195,7.076086373999999,0.2573976674256197,-0.24377362728455199,0.9390970933158249,8.088331587099026,1.0037840859616418,-0.1520030750000001,-0.20103632500000046,0.23104467399999962
132232.0,-3.0998820649999996,-2.7347804855,7.2604513939999995,0.29123785629253773,-0.3018634207786793,0.9143169085960094,8.354785907814563,1.0059405663788703,-0.16641885049999994,-0.13768536599999992,0.18436502000000043
132242.0,-3.1729416075,-2.76351397,7.390977905499999,0.32667676675428264,-0.3913935754182324,0.8842064883406032,8.504770561665906,1.0206506526913706,-0.07305954250000024,-0.028733484500000017,0.1305265114999994
132252.0,-3.1094925819999997,-2.856873278,7.416082929499999,0.35625486158783054,-0.4811925107625926,0.8498322287225749,8.533988227158787,1.039556913206079,0.0634490255000002,-0.09335930800000014,0.025105024000000142
132262.0,-2.938268473,-2.901199336,7.416082929499999,0.3738407991309254,-0.5318192763751921,0.8215875654375507,8.48814851565722,1.0476615930254787,0.17122410899999974,-0.04432605799999978,0.0
132272.0,-2.8042115674999994,-2.819804141,7.377738927999999,0.36611422653234654,-0.5422127120708184,0.792276505979558,8.381284483814408,1.0274902987024974,0.1340569055000005,0.08139519499999981,-0.038344001499999614
132282.0,-2.8101936239999996,-2.6641726055,7.323900419499999,0.3461284612677595,-0.5438114336656452,0.7722924860442228,8.284595417461205,1.0059679274636133,-0.005982056500000166,0.15563153549999997,-0.05383850850000016
132292.0,-2.9299328204999995,-2.6055288384999997,7.307131048,0.3503923006303816,-0.5597986496139132,0.7640318426945336,8.29261424482918,1.0098979894532998,-0.11973919649999987,0.0586437670000004,-0.016769371499999686
132302.0,-2.961019901,-2.7826369375,7.353810702,0.3988880192262961,-0.5949722700293549,0.7595027132856085,8.401740237647624,1.0440057593109162,-0.031087080500000308,-0.17710809900000024,0.04667965400000007
132312.0,-2.9849481269999996,-2.9179687074999996,7.400490356,0.46390502452158877,-0.6170873369813751,0.7435137520080884,8.496570732247159,1.0718289754733665,-0.023928225999999775,-0.13533176999999963,0.04667965400000007
132322.0,-2.998089038,-3.0568308715,7.5202295525,0.5166645824801254,-0.6402705454356159,0.7032786767618631,8.653704719888792,1.0823537126696154,-0.013140911000000255,-0.1388621640000003,0.11973919650000031
132332.0,-2.915517045,-3.1094925819999997,7.674684289999999,0.545710351891815,-0.6408028708574741,0.6430578362510507,8.778949977552632,1.0592221146789527,0.08257199299999973,-0.05266171049999979,0.15445473749999916
132342.0,-2.824511333,-3.0699717824999997,7.763238339499999,0.5526375636929804,-0.6184207685298987,0.5628529758049033,8.813084620691802,1.002325294565621,0.0910057120000003,0.03952079949999998,0.0885540494999999
132352.0,-2.6354391209999997,-3.108315784,7.8338462195,0.5326535437576454,-0.54354439829009,0.4802500329665157,8.830419750178086,0.8998891069206546,0.18907221200000013,-0.0383440015000005,0.07060788000000073
132362.0,-2.6281822,-2.9849481269999996,7.9260287295,0.4934831193551367,-0.4012529403627484,0.4154983177175261,8.867873951412312,0.7597159753910153,0.00725692099999975,0.12336765700000063,0.09218250999999977
132372.0,-2.8819783019999994,-2.8485376254999997,8.066067691499999,0.4625733383023171,-0.2749504437129267,0.3683342853408833,9.026705575177917,0.6521058085645798,-0.25379610199999947,0.1364105014999999,0.14003896199999932
132382.0,-3.0879179519999997,-2.8724658515,8.091270782,0.45644548729856504,-0.22698705053887053,0.32729984929724465,9.124415609449429,0.6057976521393585,-0.20593965000000036,-0.02392822600000022,0.02520309050000158
132392.0,-3.1561722359999997,-2.8844299644999998,8.336633164999999,0.5009444019074125,-0.24936915286644584,0.2740079659168498,9.369141472471243,0.6230655130799598,-0.068254284,-0.011964112999999887,0.24536238299999802
132402.0,-3.1501901795,-2.7467445985,8.6048450425,0.5744873405986975,-0.3604837943654128,0.21565113704716737,9.566172811623465,0.7116808859439638,0.005982056499999722,0.13768536599999992,0.26821187750000064
132412.0,-3.0113280154999997,-2.5444334090000003,8.719680914,0.6379056242991635,-0.5403469551004364,0.16155989286935912,9.569486560508166,0.8514693279166182,0.1388621640000003,0.2023111894999996,0.11483587150000041
132422.0,-2.7012417424999997,-2.5145231265000003,8.695752687999999,0.684537331253948,-0.7449903005552756,0.12185714304499211,9.446462211642356,1.0190441938958315,0.310086273,0.02991028249999994,-0.023928226000000663
132432.0,-2.2487629115,-2.554043926,8.487459442,0.7330330498498624,-0.8931425741108142,0.0962775975277632,9.144235494981,1.159444041619603,0.45247883099999964,-0.03952079949999954,-0.20829324599999843
132442.0,-1.9961436074999999,-2.406748043,8.185806888,0.7793977214290918,-0.9155264217676415,0.08108799704765655,8.762674240885353,1.2050828603829375,0.2526193040000002,0.14729588299999996,-0.30165255400000035
132452.0,-1.9614280665,-2.2966193635,7.995459811499999,0.8188334358779037,-0.8044117802686744,0.08402015019100703,8.546873004682395,1.1509239304075447,0.03471554099999996,0.11012867949999983,-0.19034707650000104
132462.0,-2.1014670285,-2.337316961,8.0289985545,0.8470780991629279,-0.5893749991182092,0.09174672278958593,8.622298535553846,1.036012382556163,-0.1400389620000002,-0.040697597499999905,0.03353874300000026
132472.0,-2.3876250755,-2.3756609624999996,8.3306511085,0.8582708956559676,-0.3674127514958303,0.07096334205683745,8.985781346185489,0.9362995547407407,-0.2861580469999998,-0.038344001499999614,0.30165255400000035
132482.0,-2.6186697494999995,-2.383996615,8.773617489,0.8739910762286804,-0.24031089404859526,0.02406634505574981,9.46135481633389,0.906746335029894,-0.23104467399999962,-0.008335652500000457,0.4429663804999997
132492.0,-2.5874846024999996,-2.3193707915,9.239237230999999,0.9049008572815,-0.26828852195806435,-0.02523047966683003,9.87107198065815,0.9441720550977214,0.03118514699999997,0.06462582350000012,0.46561974199999945
132502.0,-2.3361401629999996,-2.2164009664999997,9.6463112725,0.9531312858311113,-0.4417550509845288,-0.04468217418030683,10.169626604327435,1.0514767091048145,0.25134443949999996,0.10296982500000018,0.40707404150000137
132512.0,-2.0428232614999997,-2.070379948,9.859409776999998,1.0125510202152583,-0.7052875507309085,-0.016969836317140868,10.279472805431665,1.2340899777162098,0.2933169014999999,0.14602101849999993,0.2130985044999978
132522.0,-1.8657151625,-1.9698617854999998,9.958751141499999,1.0661116843004603,-0.9792099955144106,0.04591612196146682,10.321723345443976,1.4482936956892676,0.1771080989999998,0.10051816250000001,0.09934136450000075
132532.0,-1.8692455565,-2.046451722,10.002979132999998,1.1268648502331309,-1.1662674034261549,0.11199777810047612,10.37986681688186,1.6255914459927394,-0.0035303939999999923,-0.07658993650000023,0.044227991499999675
132542.0,-2.057239037,-2.094308174,10.107125756,1.1812231297864944,-1.210233992613144,0.14637203771850443,10.524844427859183,1.697462568849405,-0.1879934805000001,-0.047856451999999994,0.10414662300000188
132552.0,-2.348104276,-2.2104189099999996,10.327383114999998,1.1753605688290452,-1.1095110414805514,0.13251586878692145,10.819167595182272,1.6217421722967393,-0.29086523899999994,-0.11611073599999955,0.22025735899999788
132562.0,-2.616218087,-2.356537995,10.660220815999999,1.1047480379518588,-0.9168581079869131,0.060571651690463205,11.226672536709364,1.4369293450021594,-0.2681138110000001,-0.14611908500000048,0.33283770100000076
132572.0,-2.8556964799999998,-2.4965769569999994,11.1498668505,1.0048244476166794,-0.7090173193424204,-0.0452144996021651,11.777411840977056,1.2306185764199853,-0.23947839299999973,-0.14003896199999932,0.48964603450000155
132582.0,-3.0520256129999996,-2.4726487309999996,11.7076691025,0.9243525517949769,-0.5464748061041885,-0.17071938078382534,12.349022953373966,1.087293640509181,-0.19632913299999988,0.023928225999999775,0.5578022520000001
132592.0,-3.168136349,-2.428322673,12.193686676499999,0.8798536371861294,-0.4657376202361828,-0.2844973947213357,12.830426091705391,1.035370813465471,-0.11611073600000044,0.04432605799999978,0.4860175739999981
132602.0,-3.1394028645,-2.436756392,12.752763792999998,0.8465457737410697,-0.4625401770465292,-0.4049390757429604,13.357642622095987,1.0462116504248382,0.028733484500000017,-0.008433719000000117,0.5590771164999992
132612.0,-2.994558644,-2.3397686235,13.1849428585,0.8153689573126949,-0.5160990958024793,-0.5171201134148958,13.72168418474133,1.09480501685714,0.1448442205,0.09698776850000002,0.4321790655000015
132622.0,-2.7694960264999997,-2.0811672629999998,13.4661975805,0.773802195847198,-0.5997684348138353,-0.6181083545937918,13.904669816088632,1.157821208872781,0.22506261750000034,0.25860136050000015,0.2812547219999999
132632.0,-2.50854107,-1.7280297965,13.61947552,0.7290362458627954,-0.6972939427567745,-0.695916877976951,13.955965703502851,1.2255663961777805,0.26095495649999956,0.3531374664999998,0.15327793950000057
132642.0,-2.2379755964999997,-1.376069128,13.628987970499999,0.6808058173131841,-0.8124053882428086,-0.739616431788385,13.879892438905925,1.2924904417073282,0.2705654735000005,0.3519606685000001,0.009512450499999048
132652.0,-1.931517784,-1.1629706235,13.402748554999999,0.626979863181679,-0.9248517159610472,-0.7566700439096217,13.59106068155046,1.3494458124362012,0.3064578124999997,0.2130985045,-0.22623941550000026
132662.0,-1.6944910535,-1.2061198835,13.1059012595,0.5667607680001187,-0.995998317589344,-0.7564030085340665,13.26991608592644,1.3730899198902726,0.2370267305,-0.04314926000000008,-0.2968472954999992
132672.0,-1.4155899275,-1.3581229584999999,12.707260937,0.4966805625447903,-0.999728086200856,-0.7627978949133738,12.857794263957187,1.3520386296378184,0.27890112600000005,-0.15200307499999988,-0.39864032250000037
132682.0,-1.1606170274999998,-1.525718607,12.297833299499999,0.4148769805038161,-0.9368421279222483,-0.7918419189958114,12.446346974697434,1.2949168723438655,0.25497290000000006,-0.16759564850000008,-0.40942763750000033
132692.0,-0.9342795454999999,-1.607113802,11.973429317499999,0.3421316572806924,-0.8278602787692183,-0.8499317124899386,12.11687677014531,1.2348241283573789,0.22633748199999992,-0.08139519500000003,-0.32440398199999976
132702.0,-0.6673425325,-1.6119190604999998,11.7076691025,0.28697401692991564,-0.6869005070611482,-0.9290701767631175,11.83693984638428,1.1905283643594573,0.26693701299999995,-0.004805258499999798,-0.26576021499999847
132712.0,-0.3334261,-1.546116439,11.451519404499999,0.23448149434693416,-0.5091701386720617,-1.019401437529336,11.560231212166444,1.163363697277586,0.33391643249999997,0.06580262149999982,-0.25614969800000154
132722.0,-0.044914457,-1.3712638695000001,11.227633585,0.1862510657973229,-0.3069248756094628,-1.092946121549873,11.311151039008525,1.1504014792190738,0.288511643,0.17485256949999983,-0.22388581949999953
132732.0,0.20652804899999996,-1.2408354245,11.0923998815,0.15507599469820016,-0.08016646320260355,-1.1294514281845864,11.16349683194379,1.1428629640434818,0.25144250599999995,0.13042844500000017,-0.13523370349999908
132742.0,0.33224930199999997,-1.143847656,11.1259386245,0.14148511581292034,0.13833305118381858,-1.124920553446409,11.189516849934009,1.142191018443323,0.125721253,0.09698776850000002,0.03353874299999937
132752.0,1.222889255,-1.3438052495000001,12.916730980999999,0.12363214289427032,0.42238189628739176,-1.0974752509587984,13.043895503801899,1.1824310971617076,0.890639953,-0.1999575935000002,1.790792356499999
132762.0,0.3394081565,-0.7727640199999999,12.9527213865,-0.016526522687134306,0.46874656786662106,-1.033524641836474,12.980190809213852,1.1349756191751772,-0.8834810984999999,0.5710412295000002,0.03599040550000154
132772.0,0.4794471185,-1.031267314,13.1992605675,-0.0895371359565611,0.3504376791909335,-0.9405282633024603,13.248164451769277,1.0076789567033606,0.140038962,-0.25850329400000005,0.24653918099999927
132782.0,0.22329742049999998,-1.4144131295,13.0927603485,-0.1127185990815498,0.12500920767409385,-0.8480659555195568,13.170831400566852,0.8646089575603012,-0.256149698,-0.38314581550000004,-0.10650021899999906
132792.0,0.25203090499999997,-1.759116877,12.487003578,-0.07727968861980493,-0.168364931622885,-0.7862463934139176,12.612821655799552,0.8077761395522559,0.02873348449999999,-0.3447037475000001,-0.6057567705000011
132802.0,0.41599809299999996,-1.9567208745,11.759154015,-0.04450415059660341,-0.34209849602490455,-0.7446796319484206,11.928097674925969,0.8207068627967369,0.16396718799999999,-0.1976039974999999,-0.7278495629999995
132812.0,0.5380908855,-2.0416464635,10.984624797999999,-0.015460126514165772,-0.39912189334606324,-0.7289577060464556,11.18569819170072,0.8312139546858505,0.12209279249999999,-0.0849255889999998,-0.7745292170000013
132822.0,0.7440305355,-2.0775388025,10.2268649525,0.0223768663398193,-0.3197163936973293,-0.7364189885987314,10.462242382506838,0.8031389813194191,0.20593965000000003,-0.035892339000000106,-0.757759845499999
132832.0,0.9451649269999999,-2.009382585,9.807924864499999,0.057018161333402755,-0.12306665621662416,-0.7596004517237201,10.056159568135815,0.7716147476902333,0.2011343914999999,0.0681562174999999,-0.41894008800000115
132842.0,1.1031500585,-1.8441405324999998,9.743200974499999,0.08046665983394657,0.12261112528185365,-0.789178546557268,9.977362356087689,0.8026899462021164,0.15798513150000015,0.16524205250000024,-0.06472388999999978
132852.0,1.200137827,-1.6059370039999998,9.9383533095,0.09005898940290741,0.3357821494619371,-0.8035670409107092,10.138551719504239,0.8755456942430503,0.09698776850000002,0.23820352849999993,0.1951523350000013
132862.0,1.2659404485,-1.3928384994999998,10.230493413,0.08499578924287186,0.4194514884732933,-0.7865134287894726,10.402192066015422,0.8954145459158304,0.06580262150000005,0.2130985045,0.2921401034999995
132872.0,1.3832279825,-1.1965093665,10.497430426,0.09219003641959247,0.3610964049328628,-0.7366842786450346,10.65556192156959,0.8255866658765988,0.11728753399999992,0.19632913299999988,0.2669370129999997
132882.0,1.535329124,-0.9882161205,10.720041381,0.1132404525278961,0.1913596445179103,-0.6564794181988872,10.87442383899814,0.6931140888464851,0.15210114149999998,0.208293246,0.2226109550000004
132892.0,1.7148888855,-0.7212791075,10.831444925,0.1257649352402074,-0.027672195290370093,-0.5493615806869871,10.990053985483224,0.5642523510478862,0.17955976149999997,0.26693701299999995,0.11140354399999985
132902.0,1.815407048,-0.576434887,10.697289952999999,0.12496557444279399,-0.23578001931041798,-0.43025333121388615,10.86554150824677,0.5062870147677941,0.10051816250000001,0.1448442205,-0.13415497200000104
132912.0,1.8620867019999998,-0.554860257,10.494978763499999,0.12363214289427032,-0.38260060664668494,-0.32739933306460833,10.673322633410802,0.5185156258534461,0.04667965399999985,0.02157463000000004,-0.2023111894999996
132922.0,1.8812096694999998,-0.6829351059999998,10.2364754695,0.10897835849452593,-0.42683423120922925,-0.2629146531911738,10.430281885802644,0.5130183801919482,0.019122967499999977,-0.12807484899999988,-0.2585032939999987
132932.0,1.8572814435,-0.8421951019999999,10.041323134499999,0.06527705935383991,-0.39112828537192923,-0.23360359373318101,10.246314324753419,0.4602315385769723,-0.023928225999999775,-0.15925999600000007,-0.1951523350000013
132942.0,1.896802243,-0.981057266,9.909619824999998,0.0026598817800393584,-0.3141208681154355,-0.22854039357314548,10.13710497056503,0.388470985082859,0.03952079949999998,-0.13886216400000007,-0.13170330950000064
132952.0,1.8716972189999999,-1.109132115,9.73604212,-0.05836031952818639,-0.21686065021879944,-0.23227190751390936,9.976168637836413,0.32308622305648155,-0.025105024000000142,-0.128074849,-0.1735777049999978
