timestamp,ax,ay,az,gx,gy,gz,acc_mag,gyro_mag,dax,day,daz
60772.0,-0.5457400724999999,1.2944778,8.885217165999999,-0.10582978452392817,-0.09867044393224743,0.05520650956983264,8.995587200867222,0.1548662600344306,0.0,0.0,0.0
60782.0,-0.8593567394999999,1.3842086475,8.6481904355,-0.0898425685756601,-0.11386004441235408,0.062400756746553265,8.80032530047677,0.15789126411679,-0.313616667,0.08973084750000004,-0.23702673049999845
60792.0,-0.5696682985,0.9137836469999999,8.4950105625,-0.018163641525504988,-0.15942535519417003,0.05520650956983264,8.562985868307099,0.1696883038136051,0.2896884409999999,-0.4704250005,-0.1531798730000009
60802.0,-0.6666560669999999,0.7905140565,8.4398971895,0.10707245895134813,-0.14983128029595721,0.01870120293511924,8.503011663788424,0.185104454328453,-0.0969877684999999,-0.12326959049999997,-0.0551133729999993
60812.0,-0.6522402915,0.9556580424999999,8.3596787925,0.235774783322662,-0.1429040684947917,-0.02499835087631478,8.439367820270972,0.2768325103555355,0.01441577549999995,0.1651439859999999,-0.08021839699999944
60822.0,-0.6821505739999999,1.0933434085,8.4147921655,0.33676302450155793,-0.12478406020058659,-0.05937261049434311,8.51289941224957,0.3640130536512304,-0.02991028249999994,0.13768536600000014,0.0551133729999993
60832.0,-0.7241230359999999,1.2166129989999999,8.5452206105,0.4105747438976501,-0.08428194957880616,-0.08202174819747352,8.66171441706061,0.4270862143979774,-0.041972462000000044,0.12326959049999986,0.13042844499999973
60842.0,-0.793554118,1.3531215669999999,8.619456951,0.45400726233352895,-0.044579199754439164,-0.0974766387238833,8.761033286286356,0.4664885790662387,-0.06943108200000003,0.136508568,0.07423634050000061
60852.0,-0.821012738,1.4285347055,8.6709418635,0.46173558026135986,-0.017133897266828332,-0.10253983888391885,8.826098012200696,0.47329455423994155,-0.02745861999999999,0.07541313850000009,0.051484912499999425
60862.0,-0.8713208524999999,1.4668787069999998,8.65534929,0.4545395877553872,0.04655142180919276,-0.10547024669801734,8.821904811374628,0.4689320256154781,-0.050308114499999945,0.038344001499999836,-0.015592573499999318
60872.0,-1.040093299,1.5673968695,8.667313403,0.45374022695797384,0.1571319925570495,-0.11186513307732456,8.869095142288561,0.49303596688601714,-0.16877244650000012,0.10051816250000023,0.011964112999999443
60882.0,-1.2388740944999999,1.630845895,8.814609286,0.4657323842484269,0.28396855995798137,-0.1238572903677776,9.049409053639854,0.5593616228877183,-0.19878079549999983,0.06344902549999998,0.14729588299999996
60892.0,-1.478254421,1.7039054374999998,9.0659537255,0.487847451200447,0.4100057665614999,-0.1481051496657348,9.342379077411461,0.654243838040501,-0.23938032650000007,0.0730595424999998,0.2513444395000004
60902.0,-1.7631376035,1.7541154854999998,9.4370373615,0.5200906638017903,0.4984712703573365,-0.1830117347056214,9.759264803646508,0.7432773378661591,-0.2848831825,0.05021004800000006,0.37108363599999983
60912.0,-1.989377019,1.7996183415,9.810572659999998,0.5560618996853934,0.537107624008735,-0.2251125669222286,10.170721853237751,0.8052112169091735,-0.22623941550000004,0.04550285600000015,0.37353529849999845
60922.0,-2.135496104,1.7984415434999999,10.184107958499999,0.5899038338815634,0.5341772161946365,-0.26428299132473737,10.559866973876558,0.8385566951811725,-0.14611908500000004,-0.0011767980000001454,0.3735352985000002
60932.0,-2.2755350659999998,1.8462979954999998,10.4989014235,0.6120189008335836,0.507264239128884,-0.28106956807041883,10.90017464195658,0.8431395171452025,-0.14003896199999977,0.047856451999999994,0.31479346500000105
60942.0,-2.4694125364999997,1.8223697694999998,10.756325986,0.6200142541369696,0.4790195758438597,-0.27547404248852503,11.18559692503309,0.8305199440468747,-0.19387747049999993,-0.023928225999999997,0.2574245625000007
60952.0,-2.6753521864999996,1.6667382339999999,10.9706012885,0.616816810947316,0.4670291638826587,-0.2605514773839735,11.414447787507095,0.8163738668962423,-0.20593964999999992,-0.15563153549999997,0.21427530249999904
60962.0,-2.9183609735,1.5446454415,11.2387150995,0.588837437708595,0.48115062286054483,-0.25628763802135135,11.71373029394667,0.8024455142431024,-0.2430087870000004,-0.12209279249999994,0.268113811000001
60972.0,-3.2056958184999997,1.4644270444999998,11.54634971,0.5190242676288217,0.5152578471030179,-0.27041084232848944,12.072250157904634,0.7797428185226682,-0.28733484499999973,-0.08021839700000011,0.3076346104999992
60982.0,-3.4606687184999996,1.331546937,11.777394383999999,0.41963300271550064,0.554960596927385,-0.3079825451361714,12.347318077255208,0.7608721109480756,-0.25497289999999984,-0.1328801074999999,0.23104467399999962
60992.0,-3.688084932,1.2238699199999998,12.020403171,0.3146479575495377,0.5896018919209685,-0.3764622836674209,12.632890423023271,0.7670447048060307,-0.22741621350000063,-0.1076770170000001,0.24300878700000084
61002.0,-3.8269470959999996,1.1723850075,12.1652473915,0.2187211712014254,0.5943980567054489,-0.4667935444336394,12.806765976537212,0.7867936283879383,-0.1388621639999994,-0.05148491249999987,0.14484422049999957
61012.0,-3.8688214915,1.157969232,12.2072198535,0.14357776558606153,0.5605561225092788,-0.5648513777984369,12.857872647799693,0.808637632227264,-0.04187439550000027,-0.014415775500000061,0.04197246200000038
61022.0,-3.7156416185,1.239364427,12.085028994499998,0.10840589049987179,0.5003370273277185,-0.646656705168663,12.703934139389576,0.8247750434814329,0.15317987300000002,0.08139519500000003,-0.1221908590000016
61032.0,-3.6462105364999995,1.2166129989999999,11.935477581999999,0.11959694166365945,0.42945746107497673,-0.729791973428909,12.539163591573558,0.8551803691675384,0.06943108200000037,-0.022751428000000073,-0.14955141249999926
61042.0,-3.5420639135,1.2082773464999998,11.779846046500001,0.16089841308285324,0.3703030167371329,-0.797474096491997,12.360053551365613,0.8938554458708236,0.10414662299999966,-0.008335652500000013,-0.15563153549999775
61052.0,-3.512153631,1.331546937,11.661283648,0.2101934924761811,0.3303332315372108,-0.8550298192350141,12.251276533173707,0.9404133877812522,0.02991028249999994,0.12326959050000008,-0.11856239850000172
61062.0,-3.54804597,1.2513285399999998,11.5846937115,0.25842392102579237,0.3266034629256989,-0.9117861811806177,12.180294812093813,1.0024005113453092,-0.035892339000000106,-0.08021839700000011,-0.07658993649999957
61072.0,-3.674944021,1.2214182574999999,11.6217628485,0.30239051021278157,0.3516506830210695,-0.9962548809893873,12.249997870367684,1.0989185645129076,-0.12689805099999996,-0.02991028249999994,0.037069136999999586
61082.0,-3.6940669885,1.2298519764999998,11.8396666115,0.31917708695846303,0.3881559896557829,-1.1044391146742558,12.463401312286077,1.2133939356892323,-0.019122967499999977,0.008433718999999895,0.2179037630000007
61092.0,-3.609043333,1.317229228,12.1281782545,0.2997253924449862,0.42119681772528755,-1.2195505601602898,12.722145824957984,1.3245926313117882,0.08502365550000013,0.0873772515000002,0.28851164299999965
61102.0,-3.4834201465,1.481196416,12.387956413,0.23710646954193365,0.45876852053296946,-1.318940079744359,12.953363379068817,1.416436008892285,0.12562318649999993,0.16396718799999999,0.25977815849999963
61112.0,-3.396042895,1.6607561775,12.691962562999999,0.1595667268635816,0.4990035957791948,-1.3954151715789944,13.243003138502154,1.4905199193554435,0.08737725149999997,0.17955976149999997,0.3040061499999993
61122.0,-3.374468265,1.9014113685,13.018818207499999,0.09108524300308007,0.48381574062834015,-1.4503075218834682,13.582784279509362,1.5315894033338198,0.021574629999999928,0.2406551910000001,0.32685564450000015
61132.0,-3.3480883765,2.094112041,13.2845784225,0.061241858123229034,0.39348447986212165,-1.4710909026162167,13.85911342332792,1.5240370877504736,0.02637988850000017,0.19270067249999978,0.26576021500000024
61142.0,-3.2786572945,2.2258153505,13.314488704999999,0.0524488893516816,0.2815704775657412,-1.4761541027762521,13.891704614800592,1.5036833958563174,0.06943108199999992,0.1317033095000002,0.029910282499999497
61152.0,-3.1793159299999996,2.2832823195,13.235447105999999,0.043121849829023895,0.23014260582647628,-1.5086626054238985,13.802118968803912,1.5267245887695997,0.0993413645000003,0.057466969000000034,-0.07904159899999996
61162.0,-3.0691872505,2.3371208279999998,13.1349289435,0.004485496177625427,0.26824837938526847,-1.575278332314018,13.68971886103207,1.597960930991999,0.11012867949999938,0.053838508499999715,-0.10051816249999845
61172.0,-2.9434659974999997,2.382623684,13.246234421,-0.07172256028145498,0.35218300844292777,-1.6696046517380516,13.776923242657688,1.7078514836468008,0.12572125300000048,0.04550285600000015,0.1113054775000002
61182.0,-2.820196407,2.497557622,13.570638403,-0.16418486806435856,0.4110721627344685,-1.7586042262849984,14.083803765824218,1.8134568697887363,0.12326959049999964,0.11493393800000007,0.32440398199999976
61192.0,-2.657406017,2.750176926,13.859150046,-0.27610061568999095,0.3796283109305386,-1.8105644234461216,14.377110970602976,1.8704258167308192,0.16279039000000006,0.252619304,0.28851164299999965
61202.0,-2.3928225999999997,2.8794285729999998,14.0626380335,-0.3957411905849502,0.27117878719936694,-1.809498027273153,14.55247392587667,1.8720128565952598,0.2645834170000003,0.1292516469999998,0.20348798750000086
61212.0,-2.1390264979999998,2.9692574869999997,14.042338268,-0.4868718121485822,0.11636459188896595,-1.763932716491337,14.511346884978973,1.8335876057660394,0.2537961019999999,0.08982891399999993,-0.020299765500000788
61222.0,-2.000164334,3.0182907369999996,13.830416561499998,-0.5343028799007801,-0.05044176071188811,-1.6949189072089774,14.296543589297348,1.7778565860913689,0.13886216399999984,0.04903324999999992,-0.21192170650000186
61232.0,-1.9355385104999998,3.041042165,13.4809075555,-0.5534875390387017,-0.16901768476313087,-1.6275038195214444,13.954537444676317,1.7273343961696292,0.06462582350000012,0.022751428000000296,-0.3495090059999981
61242.0,-1.858948574,3.0026981635,13.174449743,-0.5713405119573517,-0.17967641050506025,-1.594995316873798,13.639575216724884,1.7037381412485368,0.07658993649999979,-0.03834400150000006,-0.3064578124999997
61252.0,-1.892487317,2.948859655,13.108549055,-0.6043813400268565,-0.11865620919683449,-1.6139146859654165,13.568763386441447,1.7274480350298445,-0.03353874300000004,-0.053838508499999715,-0.06590068800000104
61262.0,-1.9235743974999997,2.9679826224999997,13.2282882515,-0.670997066916976,-0.06669601203571131,-1.6600123221690908,13.692942319857789,1.7917383546672963,-0.031087080499999642,0.019122967499999532,0.1197391965000012
61272.0,-1.8122689199999997,2.9656290265,13.4497224085,-0.7477391941271667,-0.06669601203571131,-1.7103737977353872,13.891519248337252,1.8678706562380554,0.11130547749999997,-0.002353595999999847,0.22143415699999913
61282.0,-1.603975674,2.9895572525,13.556320694,-0.8154195718610028,-0.147433197903717,-1.7276944452321787,13.974405936830793,1.9161351001701898,0.20829324599999977,0.02392822600000022,0.1065982855000005
61292.0,-1.267607579,3.0279012539999997,13.545533378999998,-0.8751080869499569,-0.25508510616672725,-1.7127718801276275,13.937592672334635,1.9402242366770992,0.33636809499999987,0.038344001499999614,-0.01078731500000174
61302.0,-1.0915782115,3.111650045,13.381566191,-0.9342625312878007,-0.34728037857407573,-1.6634768007342995,13.781880231611515,1.9392279920865578,0.1760293675000002,0.08374879100000054,-0.1639671879999991
61312.0,-0.9419287324999999,3.2385480959999997,13.210342082,-0.9979461050345697,-0.42162442339202616,-1.5907332228404278,13.634095548685082,1.9246027562077899,0.14964947900000003,0.1268980509999995,-0.17122410899999885
61322.0,-0.7528565205,3.1535244405,13.1565035735,-1.0533707807609016,-0.5076918447956226,-1.495605797289729,13.550095778879514,1.8984672006435772,0.1890722119999999,-0.08502365549999968,-0.05383850850000016
61332.0,-0.6115426939999999,3.0937038754999997,13.046374894,-1.1000024877156862,-0.6102788075693453,-1.4036758149286837,13.42210438085854,1.8848743961772796,0.14131382650000002,-0.059820565000000325,-0.11012867950000071
61342.0,-0.41884202149999994,3.0338833105,12.804542905,-1.1484982063116007,-0.7064726292930127,-1.3234709544825363,13.165720473513423,1.8893721372985424,0.1927006725,-0.05982056499999988,-0.24183198899999958
61352.0,-0.193779404,3.0182907369999996,12.465723147499999,-1.1959275287345466,-0.7616302696437894,-1.245929466474932,12.8273880046014,1.8875019356422658,0.22506261749999995,-0.015592573500000206,-0.3388197575000014
61362.0,0.030106415499999997,2.994362511,12.160442132999998,-1.2385624317022639,-0.7682921913986519,-1.1710548415643753,12.523716146319272,1.869673562561051,0.22388581949999997,-0.023928225999999775,-0.3052810145000002
61372.0,0.23957645949999998,3.020644333,11.947441694999998,-1.292388385833769,-0.7333856063587653,-1.095379110527153,12.325706962355385,1.8460708500031862,0.20947004399999997,0.026281822000000066,-0.2130004379999999
61382.0,0.44904650349999997,3.0470242214999996,11.798969013999999,-1.3592694027701917,-0.6894190171717761,-1.0170382617221356,12.194329385499039,1.8322878366545237,0.209470044,0.026379888499999726,-0.14847268099999944
61392.0,0.6729323229999999,3.0757577059999996,11.61695759,-1.4306812944447918,-0.6643717970764055,-0.9251100246903423,12.03606360174352,1.8286791432089236,0.22388581949999997,0.028733484500000017,-0.1820114239999988
61402.0,0.9483030549999999,3.0350601084999997,11.407487546,-1.4887710879389189,-0.6513149889422359,-0.8083981122802295,11.8423663453921,1.8149815632787831,0.27537073199999995,-0.040697597499999905,-0.2094700439999997
61412.0,1.1182522995,2.893746282,11.22076893,-1.5127519118613213,-0.653446035958921,-0.6658413643065848,11.641731448988986,1.777288606606188,0.16994924450000004,-0.1413138264999998,-0.18671861600000028
61422.0,1.1039345905,2.7106561264999995,11.145355791499998,-1.4919685311285729,-0.6947475073781149,-0.5022342002246363,11.523249712444704,1.7207217639006416,-0.014317708999999956,-0.1830901555000004,-0.07541313850000186
61432.0,0.9985131029999998,2.4472495074999996,10.955008715,-1.4437381025789615,-0.7810819641572663,-0.33276272985598687,11.269351113287208,1.674873063235325,-0.10542148750000013,-0.26340661899999995,-0.19034707649999838
61442.0,0.8405279714999999,2.1563842685,10.6952305565,-1.3672630107443258,-0.8871334054961978,-0.18540981709786164,10.94278013308316,1.6403629537310278,-0.15798513149999993,-0.2908652389999995,-0.25977815849999963
61452.0,0.7292224939999999,1.9241627964999999,10.375631832999998,-1.272137330522879,-0.9777317016379714,-0.06816557926589054,10.577707873029638,1.605907598305212,-0.11130547749999997,-0.2322214720000002,-0.3195987235000022
61462.0,0.6980373469999999,1.6859592679999997,10.111048416,-1.1903320031526525,-1.0270267810312992,0.0168354459647373,10.274386349649209,1.5722460745461413,-0.03118514700000008,-0.23820352850000015,-0.264583416999999
61472.0,0.8621026015,1.469232303,9.869216427,-1.1461001239193604,-1.0291578280479843,0.07172605093995897,10.015153385678044,1.542029816658504,0.1640652545000001,-0.21672696499999966,-0.24183198899999958
61482.0,1.054803274,1.2884957435,9.616597123,-1.1413039591348801,-0.9763982700894478,0.11622671087805839,9.759701401884723,1.5064650534586423,0.1927006725,-0.18073655950000012,-0.25261930399999954
61492.0,1.2223989224999998,1.189154379,9.487345476,-1.146899484716774,-0.9121806255915684,0.16019155473579555,9.639402027294105,1.4741483154543502,0.16759564849999986,-0.09934136449999986,-0.12925164700000025
61502.0,1.4247101119999999,1.0802024975,9.356917031,-1.1530273357205258,-0.8727449111427565,0.22174582679513155,9.526202426143282,1.462985621441786,0.20231118950000004,-0.10895188150000013,-0.13042844499999973
61512.0,1.5216978804999999,1.0466637545,9.195303439,-1.147431810138632,-0.8740765973620281,0.3104766206372713,9.378948490624493,1.4754678542538089,0.09698776850000002,-0.03353874300000004,-0.16161359200000014
61522.0,1.482177081,1.0083197529999999,9.022902532,-1.1223845900432614,-0.9177761511734622,0.42772085846924235,9.199256911604527,1.5116234201675427,-0.03952079949999998,-0.03834400150000006,-0.1724009070000001
61532.0,1.331350804,0.7928676525,8.7966631165,-1.0730895106499336,-0.992652521413271,0.5449633509719615,8.932100316436431,1.5600849912865733,-0.15082627699999995,-0.21545210049999985,-0.22623941550000026
61542.0,1.224850585,0.6133078909999999,8.4722591345,-1.006206748384259,-1.0659301700582529,0.6238365251988373,8.582282934444448,1.5930571735209627,-0.10650021899999995,-0.17955976150000008,-0.32440398199999976
61552.0,1.259566126,0.5822208105,8.119121668,-0.9699684771251006,-1.0835161076013478,0.661141192630964,8.236845546550757,1.5974835456559344,0.03471554099999996,-0.031087080499999975,-0.3531374664999998
61562.0,1.354102232,0.6073258345,7.739604313,-0.9699684771251006,-1.0190331730571651,0.673133349921417,7.880603558469789,1.559607630522424,0.09453610600000006,0.02510502400000003,-0.37951735499999995
61572.0,1.528856735,0.567805035,7.4941438635,-0.9776950497236796,-0.8932630018292018,0.6877888796504135,7.669550033786918,1.492266713312964,0.17475450299999995,-0.03952079949999998,-0.24546044950000034
61582.0,1.7036112380000001,0.541523213,7.473844098,-0.9713001633443723,-0.7621625950656478,0.7197633115469496,7.6846525127468945,1.4291168788027933,0.17475450300000017,-0.026281822000000066,-0.0202997654999999
61592.0,1.864048032,0.5749638895,7.542098382,-0.9454535824515883,-0.6806260484002287,0.784247991420384,7.790282828216126,1.4043429803215308,0.16043679399999977,0.033440676500000044,0.068254284
61602.0,1.8939583144999999,0.5390715505,7.6090778015,-0.9193399661832492,-0.6262677688468653,0.897228389889733,7.859754526885825,1.429131230972989,0.02991028249999994,-0.035892338999999995,0.06697941949999997
61612.0,1.7575478129999997,0.413448364,7.6904729965,-0.8998882716697724,-0.6268000942687235,1.0259289689317947,7.899575227477174,1.5017348331038824,-0.13641050150000011,-0.12562318649999998,0.08139519499999981
61622.0,1.4055871445,0.2027034555,7.70606557,-0.8623165688620904,-0.6907507033910478,1.1271842454862457,7.835828640341411,1.578375976262219,-0.35196066849999963,-0.21074490850000002,0.015592573500000206
61632.0,1.0955008714999999,-0.055897905,7.5731854625,-0.7967672381449394,-0.788543246709542,1.1844746781829596,7.6522143713216755,1.630833758225824,-0.31008627300000025,-0.2586013605,-0.13288010750000012
61642.0,0.9051537949999999,-0.20790097999999999,7.279868561,-0.7312179074277882,-0.865815954012339,1.1919359607352356,7.338869972654106,1.6446970021433125,-0.19034707649999993,-0.152003075,-0.2933169014999999
61652.0,0.835722713,-0.23663446449999997,6.932713151,-0.6840538750511455,-0.8895314878884379,1.1700844385002664,6.986912047311146,1.6212012722478322,-0.06943108199999992,-0.02873348449999999,-0.34715541000000005
61662.0,0.9016234009999999,-0.25693423,6.6262553385,-0.6390226350204399,-0.8564906598189334,1.1482346615945496,6.6922492307725845,1.5685563478921272,0.06590068799999993,-0.02029976550000001,-0.3064578124999997
61672.0,1.1074649845,-0.338329425,6.4838627805,-0.5859960416863481,-0.778416846389471,1.1351778534603798,6.586457473336301,1.495978912485705,0.20584158350000004,-0.08139519500000003,-0.14239255800000006
61682.0,1.3265455455,-0.337152627,6.4970036915,-0.5390990446852605,-0.6875532602013942,1.1357119242114901,6.639612333980314,1.4328987544101963,0.21908056099999995,0.0011767980000000344,0.01314091099999981
61692.0,1.5348387915,-0.2127062385,6.632237395,-0.5244435149562642,-0.6268000942687235,1.1759469994577154,6.8108403977355385,1.4320512225784963,0.208293246,0.12444638849999998,0.13523370349999997
61702.0,1.5132641615,-0.1587696635,6.766392367,-0.5196473501717837,-0.6342613768209993,1.2588169776716582,6.935361698766984,1.502311900352864,-0.021574629999999928,0.053936575000000014,0.13415497200000015
61712.0,1.515715824,-0.25575743199999995,6.658617283499999,-0.5156488008554647,-0.7102023979045247,1.353944403222357,6.833739126662075,1.6135199344384192,0.0024516624999999515,-0.09698776849999996,-0.10777508350000087
61722.0,1.516892622,-0.35872725699999997,6.3353900995,-0.5193803147962286,-0.7717549246346086,1.431218855854406,6.524324960057967,1.706970705211075,0.0011767980000001454,-0.10296982500000001,-0.3232271839999994
61732.0,1.495317992,-0.552702794,5.939103373,-0.5313707267574296,-0.734717292578037,1.4871758570025964,6.149341846968202,1.7417968822223004,-0.02157463000000015,-0.19397553700000003,-0.39628672649999963
61742.0,1.3277223435,-0.71784678,5.740420643999999,-0.540163695528977,-0.5820341442843211,1.4996985943856556,5.935535341571716,1.6969491557152248,-0.16759564849999986,-0.16514398600000002,-0.1986827290000006
61752.0,1.0632369929999999,-0.8112060879999999,5.740420643999999,-0.5644115548269343,-0.4021727288785494,1.458931193717572,5.894146027250539,1.6151729118202658,-0.2644853505000002,-0.09335930799999992,0.0
61762.0,0.8572973429999999,-0.8711247195,5.904387831999999,-0.5870624378593167,-0.3059789071548819,1.4008414002234446,6.02956156630882,1.5493940835529871,-0.20593964999999992,-0.0599186315000001,0.16396718799999999
61772.0,0.8692614559999999,-0.8519036855,5.904387831999999,-0.5825315631211394,-0.32170083305684677,1.3526127170030853,6.028528098874996,1.5074467188661413,0.011964112999999998,0.01922103400000008,0.0
61782.0,1.0057700239999998,-0.6651850695,5.8470189295,-0.5556185860553868,-0.37366103021797,1.3384895126959475,5.970064897452456,1.4966257896584494,0.13650856799999989,0.18671861599999995,-0.057368902499999486
61792.0,1.1685604139999999,-0.452086565,5.7356153855,-0.5132507184632245,-0.43228314913395555,1.3837877881022083,5.870877238863513,1.5379088606055262,0.16279039000000006,0.2130985045,-0.11140354399999985
61802.0,1.191311842,-0.3156760635,5.568019736999999,-0.4532969133279673,-0.4949003267077561,1.4802468998721787,5.702781696117942,1.6252800711229134,0.022751428000000073,0.1364105015,-0.16759564850000075
61812.0,1.1446321879999999,-0.373044966,5.2699956435,-0.3898786296275013,-0.5199492921323787,1.5945589845607995,5.405756142758623,1.7219091054619429,-0.04667965400000007,-0.057368902499999985,-0.2980240934999996
61822.0,1.0129288785,-0.4927841625,4.8881246925,-0.3429816326264137,-0.49969649149223655,1.675030880382502,5.016236054367688,1.7813089103700432,-0.13170330949999998,-0.11973919650000003,-0.3818709509999998
61832.0,0.844156432,-0.5849666725,4.4320174009999995,-0.3134052831221178,-0.4250871566279829,1.7035425790430814,4.5494575866128795,1.7835300055877028,-0.1687724464999999,-0.09218251,-0.4561072915000004
61842.0,0.6657734685,-0.6747955864999999,4.0991797,-0.28942271387046364,-0.29452082061553914,1.6934179240522622,4.2073599332372895,1.7430353658436388,-0.17838296350000005,-0.08982891399999993,-0.3328377009999999
61852.0,0.45865702049999996,-0.8555321459999999,3.8885328579999996,-0.2526503718601951,-0.1583589590212015,1.6627751783749978,4.007865928775431,1.6892989860067338,-0.207116448,-0.1807365595,-0.21064684200000006
61862.0,0.34372308249999994,-0.9980227705,3.8262606304999998,-0.17351190758701626,-0.050974086133746384,1.6299996403517962,3.969189516814995,1.6400010875236153,-0.11493393800000001,-0.14249062450000005,-0.06227222749999983
61872.0,0.149845612,-1.0422507619999999,3.8993201729999996,-0.06985854864032504,0.04122118627360208,1.6182745184368983,4.038989746197678,1.620306088379017,-0.19387747049999995,-0.0442279914999999,0.0730595424999998
61882.0,-0.078845466,-0.99439431,4.064464159,0.03432888105747647,0.114498834918584,1.63559516593369,4.185081307581098,1.6399573171573785,-0.228691078,0.04785645199999988,0.16514398600000035
61892.0,-0.3949137955,-1.0350919075,4.409265973,0.13931567155269137,0.16859007909639226,1.6779630335258522,4.546317035084976,1.692155847724785,-0.31606832949999997,-0.040697597500000016,0.3448018140000002
61902.0,-0.8473926264999999,-1.1380617325,4.8186936105,0.257624560228379,0.1667260674552623,1.7285897991384518,5.023252619797355,1.7556168970727855,-0.4524788309999999,-0.10296982499999996,0.40942763749999944
61912.0,-1.3465511114999997,-1.272118638,5.195759302999999,0.3759334489040666,0.10064266598700101,1.7650951057731652,5.516103739029923,1.8074887652890843,-0.4991584849999998,-0.13405690550000005,0.37706569249999955
61922.0,-1.7823586374999998,-1.4408910845,5.473483631,0.4865157649811753,-0.031257101573966446,1.7637634195538938,5.93396937040354,1.8299005426881725,-0.43580752600000006,-0.1687724465,0.2777243280000006
61932.0,-2.043313594,-1.584558507,5.5704713995,0.5677870216002913,-0.16901768476313087,1.7120702577683256,6.141344129600518,1.8116659866529812,-0.2609549565,-0.14366742249999986,0.09698776850000002
61942.0,-2.1247087889999996,-1.687528332,5.6075405365,0.6149510539769341,-0.23883085484290403,1.6246694048162054,6.229498388943307,1.753498118321824,-0.08139519499999981,-0.10296982500000018,0.037069137000000474
61952.0,-2.1881578145,-1.6516359929999997,5.6901125294999995,0.6349350739122691,-0.2289714898983881,1.5386019834126092,6.316115631691949,1.680138849807206,-0.0634490255000002,0.03589233900000033,0.08257199299999929
61962.0,-2.2599424924999996,-1.6815462755,5.843390468999999,0.6445274034812299,-0.19246618326367468,1.476517131260667,6.4869214670177,1.6225170706173087,-0.07178467799999977,-0.029910282500000163,0.15327793949999968
61972.0,-2.3748764304999996,-1.7282259295,6.0325607475,0.6709080551251242,-0.1559608766289613,1.4357479852633313,6.70958956239637,1.5924238413997593,-0.11493393800000007,-0.04667965400000007,0.18917027850000068
61982.0,-2.5891517329999996,-1.723420671,6.385698214,0.7215365660669758,-0.13411109972324428,1.4141652437331695,7.102888650824379,1.5932558299983075,-0.21427530249999993,0.00480525850000002,0.3531374664999998
61992.0,-2.7974449789999998,-1.6647769039999998,6.804638302,0.7809563004511227,-0.17887704970764687,1.4061716357590355,7.543227622952232,1.6183968645976974,-0.2082932460000002,0.05864376700000018,0.41894008800000027
62002.0,-2.9686690879999995,-1.59652262,7.149440116,0.832916497612246,-0.30038338157298805,1.4045729141642087,7.904199807854589,1.6603629540325247,-0.17122410899999974,0.06825428399999978,0.3448018140000002
62012.0,-3.133813074,-1.456483658,7.253586738999999,0.8672907572302743,-0.4645246164060468,1.3931148276248657,8.0347152786512,1.705504412123436,-0.16514398600000035,0.140038962,0.10414662299999922
62022.0,-3.1362647365,-1.3978398909999998,7.090796349,0.8936696635449165,-0.6126768899615854,1.3523456816275303,7.8784202554367475,1.7328754374305484,-0.0024516624999999515,0.05864376700000018,-0.16279038999999962
62032.0,-3.072815711,-1.4792350859999999,6.992631782499999,0.9301767155088819,-0.6862215739821225,1.2939905980870998,7.779924940450966,1.7350909021175815,0.06344902549999976,-0.08139519500000003,-0.09816456650000038
62042.0,-2.9171841755,-1.4612889165,6.949482522499999,0.9594860296376226,-0.6798266876028153,1.234836153749256,7.677280517332053,1.7051680541380785,0.15563153549999997,0.01794616949999983,-0.043149259999999856
62052.0,-2.7543937855,-1.492375997,6.899272474499999,0.9474956176764217,-0.6153420077293809,1.1858063644022314,7.577191558843956,1.637843236042231,0.16279039000000006,-0.031087080499999864,-0.050210048000000285
62062.0,-2.7698882924999997,-1.3571422935000002,6.896820812,0.9192509543913974,-0.4994312014459334,1.1559629795223805,7.555147494958079,1.5590715994313675,-0.015494506999999658,0.13523370349999975,-0.0024516624999995074
62072.0,-2.9854384594999996,-1.281729155,7.020090402499999,0.8891405341359913,-0.3691301554797927,1.1450372184048958,7.735460017446367,1.495973994647164,-0.21555016699999996,0.07541313850000009,0.12326959049999964
62082.0,-3.2140314709999998,-1.4373606905,7.2679044479999995,0.8768830867992351,-0.28812593423623195,1.1402410536204155,8.075793404764093,1.4670003961333655,-0.2285930115000001,-0.15563153549999997,0.2478140455000002
62092.0,-3.758692812,-1.630061363,7.5839727775,0.9227154329566062,-0.28999169120661383,1.1258525592669744,8.619832642922189,1.4842651166126506,-0.5446613410000003,-0.1927006725,0.3160683295000002
62102.0,-4.3177699285,-1.9197498039999998,7.968197324499999,1.0114462267987459,-0.40030697190816744,1.0869491702400205,9.26394867578539,1.5377670955476892,-0.5590771164999997,-0.2896884409999998,0.38422454699999964
62112.0,-4.3704316389999995,-2.2896566419999997,8.153837208999999,1.1036432445353463,-0.5708430931205333,1.006477274418318,9.530386218842331,1.5990268140629944,-0.05266171049999979,-0.3699068379999999,0.18563988449999957
62122.0,-4.184889821,-2.5027551464999997,8.147757086,1.1425466335622998,-0.7059385585419025,0.8623218048498464,9.495421616216147,1.5960454108264777,0.18554181799999991,-0.2130985045,-0.006080122999998494
62132.0,-4.1082998845,-2.2393485275,8.061654699,1.152671288553119,-0.7309875239665251,0.6877888796504135,9.321109711536922,1.5284133611756308,0.07658993649999957,0.26340661899999995,-0.08610238700000039
62142.0,-3.9418810339999997,-2.0083038534999997,8.117846803499999,1.148941519941607,-0.6944822173318117,0.5284438096018351,9.245060690946653,1.442783776711653,0.16641885050000038,0.23104467400000006,0.05619210449999912
62152.0,-3.801842072,-1.7066512994999998,8.3596787925,1.1601325711053947,-0.6185394509190344,0.41146660714541916,9.340818556865804,1.3776078555520062,0.14003896199999977,0.3016525539999999,0.24183198900000136
62162.0,-3.7168184164999998,-1.3439033159999998,8.654172492,1.1785196147751549,-0.5431307552573674,0.343519194036028,9.513964304393772,1.3423505266462183,0.08502365550000013,0.36274798350000004,0.29449369950000026
62172.0,-3.458217056,-1.177582532,8.885217165999999,1.1550693709453592,-0.4722511890046257,0.3147404599998934,9.606927183707697,1.2869607586765555,0.2586013604999997,0.16632078399999983,0.23104467399999784
62182.0,-3.2906214074999998,-0.9644840275000001,9.0408487015,1.1103051662902086,-0.38964824616623805,0.293957079267145,9.669300074473547,1.2128536937662446,0.1675956485000003,0.2130985044999999,0.1556315355000013
62192.0,-3.291896272,-0.648415698,9.107926187499999,1.0618077023650423,-0.28892529503364534,0.2785021887407352,9.70625280012676,1.1351109602348968,-0.001274864500000028,0.3160683295000001,0.06707748599999874
62202.0,-3.4678275729999997,-0.5826130764999999,9.2383546325,1.0474192080116012,-0.22017852112684064,0.2630472982143254,9.884961425761967,1.1021612674990482,-0.17593130099999987,0.06580262150000005,0.1304284450000015
62212.0,-3.6521925929999997,-0.7250056344999999,9.567563873,1.0956496365612123,-0.20712171299267107,0.23480263492930115,10.266568188560166,1.1395085815646486,-0.18436502,-0.14239255799999995,0.3292092404999991
62222.0,-3.7634980705,-0.7537391189999999,9.914719283,1.1721247283958478,-0.20152618741077724,0.19856261834089087,10.631730755002224,1.2057845149659843,-0.1113054775000002,-0.028733484500000017,0.34715541000000094
62232.0,-3.6917133924999996,-0.669990328,10.236769669,1.2147578860343133,-0.15462919040968962,0.14713649193087797,10.902710124924708,1.2333677697536267,0.07178467800000021,0.08374879099999988,0.322050385999999
62242.0,-3.5444175094999997,-0.27850886,10.3827906875,1.134818315634469,0.00738099740668402,0.08718094146636875,10.974643735774997,1.138186103050434,0.14729588299999996,0.391481468,0.14602101850000082
62252.0,-3.489402203,0.183580488,10.425841880999998,0.9325747979011222,0.2964930426702927,0.0346884188833873,10.995808676831784,0.9791869915582193,0.05501530649999964,0.462089348,0.04305119349999842
62262.0,-3.5312765985,0.5355411565,10.5120423345,0.6946235890012232,0.5696161266563814,-0.006080727113948244,11.102240890367103,0.8983325872894701,-0.04187439549999983,0.3519606685,0.08620045350000183
62272.0,-3.745551901,0.5762387539999999,10.5540147965,0.5198236284262351,0.6546188972162612,-0.0415196375756931,11.213761120580246,0.836938698810891,-0.21427530249999993,0.040697597499999905,0.04197246200000038
62282.0,-3.812629387,0.554664124,10.224805556,0.49983960849090003,0.5384410555572586,-0.08202174819747352,10.926593421148109,0.7392468949568344,-0.06707748600000007,-0.021574629999999928,-0.3292092405000009
62292.0,-3.3816271195,0.21584436649999997,9.775857119,0.6176161717447294,0.3703030167371329,-0.1457070672734946,10.34646670013443,0.7347139642464128,0.4310022674999998,-0.33881975750000004,-0.4489484370000003
62302.0,-2.7160497839999995,0.0279489525,9.635818157,0.7849531044381898,0.3460551574391757,-0.20406215081392504,10.01132853960368,0.8817862039929008,0.6655773355000005,-0.18789541399999998,-0.1400389620000002
62312.0,-2.4072383755,0.2840986505,9.913542484999999,0.8816792515837155,0.49047766238320245,-0.23150745330153585,10.205578535369552,1.0351436329825316,0.30881140849999955,0.256149698,0.2777243279999997
62322.0,-2.474217795,0.49955075099999996,10.543227481499999,0.8584977884587268,0.7209675887308256,-0.2061931978306101,10.841169234753977,1.139880849747235,-0.06697941949999997,0.21545210049999997,0.6296849965
62332.0,-3.1864747844999997,0.6312540604999999,11.42670858,0.7868188614085717,0.9000296433391839,-0.14597235731979774,11.879468515611196,1.20434430652494,-0.7122569894999997,0.13170330949999992,0.8834810985000008
62342.0,-4.336892896,0.7785499435,12.1521064805,0.7721633316795753,0.8360790342168596,-0.0990753603187101,12.926270611406418,1.1424011069977922,-1.1504181115000005,0.14729588300000007,0.7253979005000009
62352.0,-5.0683709194999995,0.41815555599999993,12.665680741,0.8435752233541753,0.5762780484112437,-0.11932641562960032,13.648542284053093,1.0285690740075393,-0.7314780234999994,-0.3603943875,0.5135742604999987
62362.0,-5.113873775499999,-0.12287732449999998,12.839258445999999,0.9514924216634887,0.2645168654445046,-0.2610855481350837,13.82075834648031,1.0215050974090307,-0.0455028559999997,-0.5410328804999999,0.17357770499999958
62372.0,-4.462614149,-0.4209994845,12.773357757999998,1.009847505203919,0.044418629463255685,-0.4883780312930533,13.53701717597577,1.1226210847207763,0.651259626499999,-0.29812216,-0.06590068800000104
62382.0,-3.4942074615,-0.346763144,12.578303489499998,0.9693453945821386,0.037491417662090194,-0.699948588549058,13.059228504624876,1.1962291281388084,0.9684066875000004,0.0742363405,-0.19505426849999985
62392.0,-2.69094476,0.0171616375,12.398743728000001,0.827055681984049,0.23760388837875204,-0.825186434355163,12.6874080984176,1.1922287365764133,0.8032627015,0.3639247815,-0.17955976149999664
62402.0,-2.4874567725,0.29125750499999997,12.5459415445,0.6746378237366362,0.5144584863056045,-0.839042603286746,12.793471826180959,1.1932293230884659,0.20348798749999997,0.2740958675,0.14719781649999852
62412.0,-2.7411548079999997,0.241047457,12.8823096395,0.6112195400361702,0.6719377993838009,-0.7812198451681738,13.172924322484446,1.198079370846255,-0.2536980354999998,-0.05021004799999998,0.336368095000001
62422.0,-3.318178094,0.10699055149999999,13.290560478999998,0.6399982740723046,0.6492886616806706,-0.7106073142909872,13.69893246525321,1.1559136265856782,-0.5770232860000002,-0.1340569055,0.4082508394999973
62432.0,-3.8245934999999998,-0.0546230405,13.5311176035,0.7076803971353928,0.4912770231806159,-0.6757007292511006,14.061352805350674,1.0948680895456693,-0.5064154059999999,-0.16161359199999997,0.24055712450000222
62442.0,-3.9119707514999997,-0.39461959599999996,13.506012579499998,0.7404541898293423,0.30235560362774166,-0.7010149847220264,14.066684598147171,1.063538117363805,-0.08737725149999997,-0.33999655549999996,-0.02510502400000192
62452.0,-3.7287825295,-0.8016936375,13.2845784225,0.6975539968153217,0.1851113657957706,-0.7910792101126898,13.821235679354611,1.0708193652023308,0.18318822199999962,-0.40707404150000004,-0.22143415699999913
62462.0,-3.3708398044999996,-1.0973641349999999,12.939776608499999,0.5978974418556975,0.19790113855438504,-0.9432282876552955,13.416578837776404,1.1341630457089713,0.35794272500000046,-0.29567049749999985,-0.3448018140000002
62472.0,-3.121848961,-1.017145738,12.701573079999998,0.48518407876190367,0.324737705955317,-1.1126997580239448,13.11908857711575,1.2565663211544802,0.24899084349999967,0.08021839699999989,-0.23820352850000148
62482.0,-2.9794564029999995,-0.783747468,12.808073298999998,0.4097753831002367,0.48728021919354886,-1.2541901098246213,13.17338840934749,1.406538555530617,0.1423925580000005,0.23339827000000002,0.10650021900000084
62492.0,-3.0033846289999997,-0.5274997035,13.175626540999998,0.41776899107437065,0.5696161266563814,-1.3466524176075247,13.523894036660064,1.5206795176823116,-0.02392822600000022,0.2562477645,0.3675532419999996
62502.0,-3.084779824,-0.102577559,13.5719132675,0.47372599222256084,0.5456353027339792,-1.3895526106215454,13.918448852465938,1.5662026232202535,-0.08139519500000025,0.4249221445,0.3962867265000014
62512.0,-2.9315018844999994,0.23859579449999999,13.978889242500001,0.5227540362403336,0.45610340276517414,-1.3943505207352778,14.284956272458883,1.5574066492391354,0.15327793950000057,0.3411733535,0.4069759750000017
62522.0,-2.5041280775,0.360688587,14.148838486999999,0.5083655418868923,0.35058428684810095,-1.3863551674318917,14.373252388256748,1.5176710831493936,0.4273738069999995,0.12209279250000002,0.16994924449999793
62532.0,-1.9511310839999998,0.4229608145,14.030374155,0.4076425907542996,0.283169199160568,-1.388753249824132,14.171704459480006,1.474785701736765,0.5529969935000001,0.0622722275,-0.1184643319999985
62542.0,-1.4710955665,0.49602035699999997,13.663997710999999,0.2451000775160677,0.31940921574897824,-1.4098036659324358,13.751908660493187,1.4661659768185507,0.48003551749999973,0.07305954249999996,-0.3663764440000019
62552.0,-1.1347274715,0.566628237,13.320470761499998,0.07989419183929243,0.44731043399362674,-1.434318560605948,13.380718041327933,1.5045728428852951,0.3363680950000001,0.07060788000000001,-0.34352694950000107
62562.0,-0.981449532,0.6744033205,13.084620828999999,-0.034951963600438445,0.586936774153173,-1.4460436825208458,13.138697243686874,1.5610120910394345,0.15327793950000002,0.10777508349999998,-0.23584993249999897
62572.0,-0.9958653074999999,0.7749214830000001,13.031959118499998,-0.07785215661445907,0.6684750661478442,-1.4372507137492985,13.092906838504284,1.5870127556272997,-0.01441577549999995,0.10051816250000012,-0.05266171050000068
62582.0,-1.094029874,0.8323884519999999,13.052356950499998,-0.048274061780911155,0.618378880627851,-1.410603026729849,13.124549282298917,1.5409489686770268,-0.09816456650000016,0.05746696899999981,0.02039783200000045
62592.0,-1.0593143329999999,0.8742628474999998,12.993713183499999,0.044720571423850705,0.4457117123987999,-1.376762837862931,13.066103653257912,1.447803429958065,0.03471554100000018,0.04187439549999994,-0.058643766999999514
62602.0,-0.831800053,1.0478405524999999,12.791401994,0.15477056207910114,0.24453284550916954,-1.3405245666037726,12.861175145520004,1.371406705936399,0.22751427999999985,0.17357770500000003,-0.2023111894999996
62612.0,-0.42835447199999993,1.225046718,12.6261599415,0.221918614391079,0.08545481083614637,-1.289096694864508,12.692680642137981,1.3108473156012093,0.4034455810000001,0.17720616550000012,-0.16524205250000001
62622.0,0.0516810455,1.3949959624999997,12.299304297,0.21498965726066152,0.02230356251123554,-1.2163531169706363,12.378270107573915,1.2354079920390395,0.48003551749999995,0.1699492444999997,-0.3268556444999984
62632.0,0.5292649005,1.5087531024999998,12.094639511499999,0.1574339345176445,0.08785289322838657,-1.1406773859334138,12.199867301423469,1.154836989954076,0.47758385499999995,0.11375714000000015,-0.2046647855000021
62642.0,0.716081583,1.6296690969999998,11.984510832,0.0772290740714971,0.22588051179310614,-1.0655357256473021,12.115985064432602,1.0919490455697,0.18681668250000005,0.12091599450000001,-0.11012867949999894
