timestamp,ax,ay,az,gx,gy,gz,acc_mag,gyro_mag,dax,day,daz
177412.0,0.06501808949999999,0.9649743599999999,9.6978942515,0.21632832479694117,0.05677730589662753,-0.12832882391138706,9.746002040872778,0.2578563429912281,0.0,0.0,0.0
177422.0,0.31528379749999996,1.0092023515,9.641702147,0.17289580636106228,0.06343922765148989,-0.11154224716570561,9.699500685638595,0.21531179337192577,0.250265708,0.04422799150000001,-0.05619210449999912
177432.0,0.30204482,0.9134894474999999,9.784094705,0.14864620173385307,0.1031419774758569,-0.11314096876053241,9.831286957483833,0.21338893977805712,-0.013238977499999971,-0.09571290399999999,0.14239255799999917
177442.0,0.2242780855,0.8236605334999999,9.77330739,0.15824027663206588,0.11140262082554607,-0.126197776894702,9.810517553804674,0.2310333481741502,-0.07776673449999999,-0.08982891400000004,-0.010787314999999964
177452.0,0.1775984315,0.7973787114999998,9.818810245999998,0.1798230181622278,0.09834581269137649,-0.14831284384672214,9.852735085212593,0.25299192948551225,-0.046679654000000015,-0.026281822000000066,0.045502855999998815
177462.0,0.1668111165,0.7303012254999999,9.7781126485,0.21099983459060248,0.08235685141385643,-0.1704296561279943,9.806765664341658,0.28346048906324145,-0.010787314999999992,-0.06707748599999996,-0.040697597499997684
177472.0,0.129643913,0.78060934,9.7757590525,0.2501685136638592,0.07729539658307287,-0.1914800722362979,9.807732843955778,0.3243816912609849,-0.037167203499999996,0.05030811450000017,-0.002353596000000735
177482.0,0.0518771785,0.9181966395,9.7792894465,0.2677561965362061,0.09408197332875434,-0.21199816292274323,9.82243749732542,0.3542428821749081,-0.07776673449999999,0.13758729949999993,0.0035303940000002143
177492.0,0.013533176999999999,0.9984150365,9.819987044,0.2512349098368278,0.12499175438157391,-0.227453053449153,9.870621119074364,0.36121573900848497,-0.0383440015,0.080218397,0.04069759749999946
177502.0,-0.046287388,1.0450946904999998,9.842738471999999,0.21792704639176796,0.15483513926142495,-0.23278154365549172,9.898174885431558,0.35447618391900215,-0.059820565,0.04667965399999985,0.022751427999999407
177512.0,-0.14562875249999999,0.9972382384999999,9.9744417815,0.18915005768488546,0.17668491616714196,-0.23704538301811384,10.025227213904639,0.35097837188833986,-0.09934136449999999,-0.04785645199999988,0.13170330950000064
177522.0,-0.21868829499999998,0.908684189,10.1217376645,0.16969661784215664,0.18361387329755946,-0.25223323816896853,10.164797335641596,0.3551515212013075,-0.07305954249999999,-0.0885540494999999,0.14729588299999996
177532.0,-0.32283491799999997,0.8200320729999999,10.194699140500001,0.15957196285133754,0.1753532299478703,-0.2855411016140283,10.2327203396917,0.37114106117800033,-0.104146623,-0.08865211600000011,0.07296147600000147
177542.0,-0.45090976699999996,0.756681114,10.295315369499999,0.15983899822689268,0.15590153543439347,-0.33510321638291124,10.332928166000341,0.4026759984592455,-0.128074849,-0.06335095899999987,0.10061622899999811
177552.0,-0.5814362785,0.7326548214999999,10.3694536435,0.1638358022139597,0.1273898367738141,-0.39185957832851487,10.411552242490961,0.44342335270952093,-0.13052651150000005,-0.0240262925000001,0.07413827400000095
177562.0,-0.669990328,0.7673703624999999,10.478405525,0.168364931622885,0.08528900455720691,-0.44835065022781534,10.52780730537976,0.48645582539264837,-0.08855404950000001,0.03471554099999996,0.10895188149999946
177572.0,-0.7357929495,0.8380763089999999,10.573039697499999,0.18115470438149944,0.032794736644973455,-0.49364892563407614,10.631694672494683,0.5268603073404176,-0.06580262149999994,0.07070594649999995,0.09463417249999928
177582.0,-0.7909063224999999,0.944576528,10.704644940499998,0.1987423872538463,-0.02102947215727968,-0.5248257420624509,10.775304215213193,0.5615895607309433,-0.055113372999999966,0.10650021900000017,0.1316052429999992
177592.0,-0.8603374045,1.0355822399999999,10.76574037,0.20860175219836227,-0.07911926565140695,-0.5442774365759276,10.849597998987472,0.5882282526223199,-0.06943108200000003,0.09100571199999985,0.061095429500001686
177602.0,-0.8567089439999999,1.116977435,10.806437967499999,0.20247215586535816,-0.12654858807435285,-0.5565331385834319,10.897737854731792,0.605589508979394,0.003628460500000097,0.08139519500000003,0.04069759749999946
177612.0,-0.808852492,1.1241362895,10.742988942,0.18302046135188138,-0.1478660395582116,-0.5639944211357076,10.83188516183216,0.6111060153527276,0.04785645199999988,0.007158854500000089,-0.06344902549999887
177622.0,-0.740598208,1.0570588035,10.768093965999999,0.15264300572092007,-0.13534330217515228,-0.5717227390635385,10.845169739582467,0.6070293131319989,0.068254284,-0.06707748600000007,0.025105023999998366
177632.0,-0.749031927,0.9038789305,10.836348249999999,0.10654536951724583,-0.10176840335453735,-0.5933054805937004,10.899747214680952,0.6113265223997892,-0.008433719000000006,-0.1531798729999999,0.068254284
177642.0,-0.763349636,0.7171603145,10.954910648499999,0.05138772916646905,-0.06979222612874925,-0.6348739873884494,11.004866600740499,0.6407625405713117,-0.014317709000000067,-0.18671861600000006,0.11856239849999994
177652.0,-0.7621728379999999,0.5339720925,11.074551778499998,0.00022689280275926284,-0.0476771591767291,-0.6945607571481515,11.113583163194095,0.6961952372414799,0.0011767980000001454,-0.18318822199999996,0.11964112999999976
177662.0,-0.7550139834999999,0.42619700899999996,11.251757944,-0.03627841383195413,-0.0367513980592446,-0.7550486330345189,11.285111733435704,0.7568125440403106,0.007158854499999978,-0.10777508350000004,0.17720616550000123
177672.0,-0.740598208,0.37951735499999995,11.403761019,-0.05439667679690727,-0.04581140220634716,-0.8043437124278467,11.43408433180825,0.8074815730039104,0.01441577549999995,-0.046679654000000015,0.15200307499999965
177682.0,-0.6472389,0.33881975749999993,11.564197812999998,-0.0530649905776356,-0.07192501847468633,-0.8363198896536349,11.587251101099842,0.8410826709294732,0.09335930800000003,-0.040697597500000016,0.16043679399999888
177692.0,-0.55505639,0.3592175895,11.7306166635,-0.039742892397162874,-0.11216009372091161,-0.8541728625722849,11.749233684741736,0.8624213954178709,0.09218251,0.02039783200000006,0.16641885050000127
177702.0,-0.426981541,0.41550776049999993,11.875460883999999,-0.034412656861572195,-0.15639371828345588,-0.8597683881541787,11.8903965931673,0.8745541191601762,0.12807484899999994,0.056290170999999944,0.14484422049999957
177712.0,-0.240262925,0.48493884249999997,11.993925216,-0.056262433767289205,-0.18010750683030285,-0.8547051879941431,12.006129019842133,0.8752857441168282,0.18671861600000003,0.06943108200000003,0.11846433200000028
177722.0,-0.055897905,0.5243615755,12.171131381499999,-0.10848966630396753,-0.1627886046627631,-0.8547051879941431,12.182549763632336,0.8768073311092347,0.18436502,0.03942273299999999,0.17720616549999946
177732.0,0.127290317,0.5100438665,12.373442571,-0.19668813472424895,-0.11882201547577395,-0.8690936823475844,12.38460450028144,0.8989598002132873,0.18318822199999998,-0.014317708999999956,0.20231118950000138
177742.0,0.310478539,0.55309506,12.533879364999999,-0.29874277207611344,-0.08151734804364716,-0.8933432869747936,12.54991804773835,0.9454916976275985,0.183188222,0.04305119349999997,0.16043679399999888
177752.0,0.482879446,0.64527757,12.700298215499998,-0.381347460243753,-0.044477970657823496,-0.9215879502598179,12.725844980367583,0.9983629226750619,0.172400907,0.09218251,0.1664188504999995
177762.0,0.658810747,0.7638399684999999,12.724226441499999,-0.4381038221893567,-0.022362903705803346,-0.9461028449333302,12.764145942146246,1.0428545688014315,0.17593130099999998,0.11856239849999994,0.023928226000000663
177772.0,0.8778913079999999,0.9254535604999999,12.7852238045,-0.48207041137634576,-0.014102260356114183,-0.957559186143421,12.84870052466231,1.0721522047915406,0.21908056099999995,0.16161359200000003,0.06099736300000025
177782.0,1.089714948,1.049899949,12.750508263499999,-0.5220384512470159,-0.021296507532834807,-0.9439700525873932,12.839985574306017,1.0789148001558442,0.21182363999999998,0.12444638850000012,-0.03471554100000063
177792.0,1.2836904849999997,1.163657089,12.762472376499998,-0.555880385443186,-0.041015237421866746,-0.914126667707542,12.879544256028044,1.0706599914236694,0.1939755369999998,0.11375713999999992,0.011964112999999443
177802.0,1.4501093354999999,1.207983147,12.691864496500001,-0.5862560957448953,-0.059400535762375015,-0.876289674853557,12.831424892265765,1.055986850155748,0.16641885050000016,0.044326058,-0.07060787999999718
177812.0,1.71224109,1.2186723955,12.579382221,-0.6179652375951282,-0.07165798309913118,-0.8360528542780796,12.753736276866046,1.0421133703030407,0.26213175450000015,0.010689248500000081,-0.11248227550000145
177822.0,1.9265163925,1.2714321724999997,12.421299023,-0.6526065325887117,-0.0546043709778946,-0.7912869042936772,12.633949287480144,1.0271377164791602,0.21427530249999993,0.052759776999999675,-0.15808319799999992
177832.0,2.094112041,1.3252706810000001,12.257331834999999,-0.698704168792386,-0.013835224980559049,-0.7467879896848297,12.505352107457183,1.022776236757401,0.16759564849999986,0.05383850850000038,-0.16396718800000087
177842.0,2.2258153505,1.3455704465,12.15436201,-0.764253499509537,0.03173008580125691,-0.699623957308187,12.429534571782922,1.0366117361370635,0.1317033095000002,0.0202997654999999,-0.10296982499999885
177852.0,2.3095641414999997,1.3025192529999998,12.037074476,-0.8367317873571055,0.06743603163855691,-0.6463320739277921,12.325656366656869,1.0594398765974282,0.08374879099999966,-0.043051193500000196,-0.11728753399999903
177862.0,2.3766416274999997,1.211513541,12.004712531,-0.8977519886653312,0.07915940822420281,-0.5930384452181453,12.29753281912842,1.0788509825595554,0.06707748600000007,-0.09100571199999985,-0.03236194500000167
177872.0,2.4005698535,1.128941548,11.908999627,-0.9433155541178952,0.0666366708411435,-0.5466755189681679,12.200881802403456,1.0923089322992183,0.02392822600000022,-0.08257199299999995,-0.0957129039999991
177882.0,2.3789952235,1.0128308119999998,11.89938911,-0.9803549315037189,0.022403046278599216,-0.5075050945656592,12.177064741486717,1.1041553827321229,-0.021574629999999928,-0.11611073600000021,-0.009610517000000485
177892.0,2.4017466515,0.8990736719999999,11.844373803499998,-1.0022047084094359,-0.073256704693958,-0.4760629880909813,12.118824664244963,1.1119428002243523,0.02275142799999985,-0.11375713999999992,-0.055015306500001415
177902.0,2.486770307,0.8224837355,11.6851138075,-0.9894149356508215,-0.1944977465129961,-0.44568553246002,11.975073726251795,1.1024549342860797,0.08502365550000013,-0.0765899364999999,-0.15925999599999763
177912.0,2.577776019,0.7530526535,11.4672100445,-0.9601038761928288,-0.3152047175809239,-0.41290999443681853,11.777475268823814,1.0916263694925925,0.09100571199999985,-0.06943108200000003,-0.2179037630000007
177922.0,2.681922642,0.769822025,11.230183314,-0.9289270597644539,-0.4252529629069224,-0.3777381193506288,11.571618394757554,1.0892344337351347,0.1041466230000001,0.01676937150000002,-0.23702673050000023
177932.0,2.789599659,0.793750251,10.95010539,-0.9081436790317056,-0.5041261371337982,-0.3396340911210885,11.327696754881925,1.092803468039123,0.10767701699999987,0.023928225999999997,-0.2800779240000004
177942.0,2.892569484,0.815324881,10.6460011735,-0.9068102474831818,-0.5427642361144486,-0.298864945123753,11.062054685613749,1.0982796075541212,0.10296982500000018,0.02157463000000004,-0.30410421649999897
177952.0,3.0063266239999997,0.772175621,10.3694536435,-0.9158702516302843,-0.5536882519026811,-0.2586281245482758,10.824039164033609,1.101034742832271,0.1137571399999997,-0.04314925999999997,-0.2765475300000002
177962.0,3.03025485,0.7746272835,10.185186689999998,-0.912939843816186,-0.5566204050460316,-0.21199816292274323,10.654600874478792,1.0900590143764457,0.02392822600000022,0.0024516624999999515,-0.18426695350000166
177972.0,3.0171139389999997,0.8236605334999999,9.954142015999999,-0.8798990157466812,-0.5747386680109847,-0.16483413054610047,10.433903223149528,1.0638219329436238,-0.013140911000000255,0.04903324999999992,-0.23104467399999962
177982.0,3.0566347385,0.8344478485,9.839208077999999,-0.8332673087918968,-0.6080465314560446,-0.11020881561718193,10.336795187032182,1.0374010677441772,0.039520799500000425,0.010787315000000075,-0.11493393800000007
177992.0,3.097332336,0.842783501,9.620127516999998,-0.7898347903560179,-0.6405550341036909,-0.04465948490003091,10.141528734492132,1.0179116942858313,0.040697597499999905,0.008335652500000013,-0.21908056100000017
178002.0,3.1775507329999995,0.7913966549999999,9.472831634,-0.7495979697805406,-0.6576086462249274,0.01476199481336804,10.02285770089774,0.9972783785782984,0.08021839699999944,-0.0513868460000001,-0.14729588299999818
178012.0,3.2804224914999995,0.714708652,9.357897695999998,-0.7240184242633116,-0.6608060894145812,0.05952794479777059,9.941942942342045,0.9820442671753482,0.10287175850000008,-0.0766880029999999,-0.11493393800000185
178022.0,3.3235717515,0.7303012254999999,9.341226391,-0.7194875495251344,-0.6698660935616836,0.09816429844916906,9.941729203476147,0.9879368131187796,0.0431492600000003,0.015592573499999873,-0.016671304999999137
178032.0,3.3702514054999995,0.7399117425,9.2897414785,-0.722684992714788,-0.7151643689679446,0.1288070441264335,9.90986178815464,1.0248536129384922,0.046679653999999626,0.009610517000000152,-0.051484912499999425
178042.0,3.4743980284999996,0.8380763089999999,9.104199660499999,-0.7104275453780319,-0.801498825747096,0.15758577816256802,9.780606577222093,1.0825622117850462,0.1041466230000001,0.09816456649999983,-0.1855418180000008
178052.0,3.643170475,0.955363843,8.7917597915,-0.6805841604981808,-0.8785062430035898,0.20528213596106903,9.56454135930519,1.1300923740394122,0.16877244650000023,0.11728753400000014,-0.31243986899999854
178062.0,3.7436886374999996,1.1181542329999998,8.432542201999999,-0.6534058933861251,-0.9110147456512362,0.2820242631712597,9.29372054087239,1.1560384134288093,0.10051816249999979,0.16279038999999984,-0.3592175895000018
178072.0,3.8179249779999997,1.189938911,8.0806796,-0.6416807714712273,-0.8955598551248264,0.3774169787682618,9.016090535670344,1.1645708404599835,0.07423634050000016,0.07178467800000021,-0.35186260199999886
178082.0,3.837146012,1.2055314844999998,7.859147376499999,-0.6459446108338494,-0.8401351793984945,0.47734056910344114,8.8285442267157,1.162293241329498,0.01922103400000008,0.015592573499999762,-0.22153222350000057
178092.0,3.779679043,1.10619012,7.673605558499999,-0.6448782146608808,-0.7841781782503043,0.5631409551314824,8.625187100412436,1.1610043334693327,-0.057466969000000034,-0.09934136449999986,-0.18554181799999991
178102.0,3.691026927,0.9864509235,7.5312130005,-0.621429716160337,-0.7631277621420006,0.6249605172371215,8.444876225215694,1.165810671414645,-0.088652116,-0.11973919649999998,-0.14239255799999917
178112.0,3.63238316,0.9218251,7.3528300369999995,-0.571867601391454,-0.7689903230994496,0.6726568750356225,8.252761870371094,1.1708313038497475,-0.05864376699999996,-0.06462582350000001,-0.1783829635000007
178122.0,3.6408168789999995,0.9194715039999999,7.1768006694999995,-0.5084493176909881,-0.7823141666091744,0.7184892211929937,8.09984217394481,1.177608986424761,0.008433718999999673,-0.002353596000000069,-0.17602936749999998
178132.0,3.6923017915,0.9433997299999999,6.9889052555,-0.44503103399052213,-0.7948369039922336,0.7747132577167389,7.960395231421219,1.1958256381449242,0.05148491250000031,0.023928225999999997,-0.18789541399999976
178142.0,3.710247961,1.034405442,6.772178290499999,-0.39173915061012726,-0.8012317903715409,0.8437270669990987,7.790913511833088,1.227724442865593,0.017946169500000053,0.09100571200000007,-0.21672696500000033
178152.0,3.7389814455,1.081085096,6.531621165999999,-0.3461738398283113,-0.7849775390477177,0.9292604176515848,7.603341521378991,1.2647335640382469,0.028733484500000017,0.04667965400000007,-0.24055712450000044
178162.0,3.7425118395,1.163657089,6.3281331785,-0.29874277207611344,-0.7404786244388702,1.0299833687841777,7.44350469969692,1.3032350429184314,0.0035303940000002143,0.08257199299999995,-0.20348798749999908
178172.0,3.7162300175,1.233088171,6.1891729479999995,-0.2419864101305098,-0.6797254585061996,1.1445624888483532,7.323710382086609,1.3529994133435723,-0.026281822000000066,0.06943108199999992,-0.1389602305000004
178182.0,3.5581468194999997,1.2067082825,6.152103811,-0.1775034755863273,-0.6099122884264264,1.266868181511108,7.208670818499953,1.417199870429026,-0.15808319800000037,-0.02637988849999995,-0.037069136999999586
178192.0,3.3259253474999997,1.0905975465,6.1437681584999995,-0.10875495635027067,-0.5507578440885826,1.3766511367908034,7.07086059903413,1.4867179274439601,-0.23222147199999998,-0.11611073599999999,-0.008335652500000457
178202.0,3.0996859320000003,0.8787739064999999,6.092283246,-0.028284805857820106,-0.4937344467674239,1.4533932640009941,6.891749531525088,1.5352282286391858,-0.22623941549999937,-0.2118236400000001,-0.051484912499999425
178212.0,2.9177725745,0.6728342565,6.1329808434999995,0.04179539959750821,-0.4332483162103084,1.4986915394072549,6.824921740207885,1.5606175986504414,-0.18191335750000048,-0.20593964999999992,0.04069759749999946
178222.0,2.715461385,0.548387868,6.1437681584999995,0.0860290241600525,-0.39434318185410283,1.5200089908911136,6.739461920108621,1.57268397030763,-0.20231118950000004,-0.1244463885,0.010787314999999964
178232.0,2.5872884695,0.353235533,6.214376038499999,0.1331913112074433,-0.39354382105668945,1.5213406771103852,6.7407200293488225,1.577052351795508,-0.12817291549999998,-0.19515233499999995,0.07060787999999985
178242.0,2.556201389,0.192798739,6.1939782065,0.18941534773118862,-0.42898447684768626,1.5082838689762157,6.7034843863085465,1.579501847022115,-0.031087080499999864,-0.160436794,-0.02039783199999956
178252.0,2.6447554385,0.122190859,6.156909069499999,0.24936915286644584,-0.4830757210254945,1.4760424017041245,6.70202888874629,1.572974347621127,0.0885540494999999,-0.07060788,-0.037069137000000474
178262.0,2.7345843524999998,0.16406525449999998,5.997649073499999,0.30879063257984474,-0.5299727180265822,1.4445985499001948,6.593683598530292,1.5694227304952895,0.08982891399999993,0.04187439549999998,-0.1592599960000003
178272.0,2.7789104105,0.41550776049999993,5.7271816665,0.358885072770586,-0.5211797492550347,1.451527507030612,6.379310276959001,1.5834642181488008,0.044326058000000224,0.25144250599999995,-0.27046740699999905
178282.0,2.6435786404999995,0.6955856845,5.551152299,0.39752317175123647,-0.4327142454591981,1.502421308018767,6.187700648842196,1.613237762108025,-0.13533177000000052,0.2800779240000001,-0.17602936749999998
178292.0,2.4807882504999994,0.8583760744999999,5.5200652185,0.4228374272221622,-0.27869941094621054,1.6036765845732177,6.112465938194366,1.6817382196495514,-0.16279039000000006,0.16279038999999984,-0.031087080499999864
178302.0,2.195905068,0.842783501,5.684032406499999,0.42949760364777256,-0.10070200718156883,1.7203884969833305,6.151463849797711,1.7760477657828178,-0.28488318249999933,-0.015592573499999873,0.1639671879999991
178312.0,1.8535549165,0.5579003185,6.079044268500001,0.43695888620004836,0.03146305042570178,1.8117844085932655,6.379788226285135,1.8639972465089443,-0.34235015150000003,-0.2848831825,0.3950118620000014
178322.0,1.550627498,0.214373369,6.510046535999999,0.444153133376769,0.08129220057013989,1.8565503585776681,6.695603593386913,1.9106699510111123,-0.30292741849999993,-0.34352694949999996,0.4310022674999985
178332.0,1.2034720879999998,-0.07776673449999999,6.862007204499999,0.45534592986980865,0.04105537999466261,1.8408284326757032,6.967175583132649,1.8967537474914324,-0.3471554100000003,-0.29214010349999997,0.3519606685000003
178342.0,0.900642736,-0.24291072049999998,7.016461941999999,0.5049080446386915,-0.053272684758622915,1.7875365492953084,7.07819900395417,1.8582403040373536,-0.30282935199999983,-0.165143986,0.15445473750000005
178352.0,0.6432181734999999,-0.22496455099999998,7.043920562,0.5867116266796659,-0.1609228476923812,1.7318465835226735,7.076804049265014,1.835597800349979,-0.2574245625000001,0.017946169499999998,0.027458620000000877
178362.0,0.5055328075,-0.213000438,6.9422256015,0.6629196831387463,-0.2270062491606425,1.709197445819543,6.963865945591505,1.8472547881239363,-0.13768536599999992,0.011964112999999998,-0.1016949605000006
178372.0,0.43374812949999997,-0.2178056965,6.844061034999999,0.7020901075412549,-0.23526514718107963,1.7209208224051888,6.86124975584462,1.8734590162512703,-0.07178467799999999,-0.00480525850000002,-0.09816456650000038
178382.0,0.35352973249999997,-0.385401345,6.747073266499999,0.7092843547179757,-0.21661281346501624,1.7318465835226735,6.7673122531776455,1.8839580663231552,-0.080218397,-0.1675956485,-0.09698776850000002
178392.0,0.27095773949999996,-0.7242211024999999,6.731480693,0.707950923169452,-0.19130030332334247,1.7030678494865388,6.775746942008167,1.8542465897562779,-0.08257199300000001,-0.33881975749999993,-0.015592573499999318
178402.0,0.164359454,-0.950460518,6.7374627495,0.7116824371102158,-0.174511981248409,1.6148693810662573,6.806158500012772,1.7733441405422972,-0.10659828549999997,-0.22623941550000004,0.005982056499999722
178412.0,0.044718324,-0.9767423399999999,6.71951658,0.7284690138558972,-0.15506028673493222,1.497092817812428,6.790281908444224,1.6721237100813022,-0.11964112999999998,-0.026281821999999955,-0.017946169500000053
178422.0,-0.025889555999999998,-0.8571012100000001,6.6907830955,0.7444562298041654,-0.09990264638415543,1.3875768979082879,6.745507481600024,1.57783562656494,-0.07060788,0.11964112999999987,-0.028733484500000017
178432.0,-0.0546230405,-0.8056162975,6.7518785249999995,0.7396600650196848,0.006148794954776023,1.3031081980995183,6.799990067030042,1.498407753389742,-0.0287334845,0.05148491250000009,0.06109542949999991
178442.0,-0.136116302,-0.7576617789999999,6.823663203,0.7188766842869364,0.12285896203563684,1.2383582281797805,6.86694681259465,1.4371531279110166,-0.0814932615,0.0479545185000001,0.07178467800000021
178452.0,-0.19230840649999997,-0.7696258919999999,6.956543310499999,0.68636818163929,0.22784575253085176,1.1831988424997517,7.001628479697395,1.386713549586189,-0.05619210449999998,-0.011964112999999998,0.13288010749999923
178462.0,-0.38863753949999996,-0.8355265799999999,7.228285581999999,0.6538596789916437,0.28167170666235686,1.1272418413515617,7.286786415007934,1.3332462634632807,-0.196329133,-0.06590068800000004,0.27174227149999997
178472.0,-0.7417750059999999,-0.92770909,7.533566596499999,0.6333415883051983,0.2702136201230141,1.0555646596306585,7.626630971739456,1.2602990592070296,-0.35313746649999994,-0.0921825100000001,0.3052810145000002
178482.0,-1.0339151094999999,-0.950460518,7.810114126499999,0.6272137373014463,0.22011917993227284,0.9686978774296487,7.935378902036378,1.174829818897363,-0.29214010349999997,-0.022751427999999962,0.2765475300000002
178492.0,-1.2422083555,-0.8870114925,8.01595571,0.6285454235207178,0.16522682962779917,0.8882259816079462,8.159988782527993,1.1005974055307834,-0.2082932460000002,0.06344902549999998,0.2058415835000007
178502.0,-1.3451781804999998,-0.8043414329999999,8.148835817499998,0.6517286319749586,0.11220198162295947,0.8266734548778621,8.298192252455028,1.0586446502088276,-0.10296982499999974,0.08267005950000006,0.13288010749999835
178512.0,-1.2888880095,-0.7146105855,8.2302310125,0.7010237113682865,0.06237283147852136,0.7720481399489437,8.361136472337856,1.044692751198092,0.05629017099999989,0.08973084749999993,0.08139519500000247
178522.0,-1.1296280134999999,-0.6332153905,8.254257305,0.7660407166635792,0.024268803248981154,0.7214196290070921,8.355225002164566,1.0525462628855409,0.15925999600000007,0.08139519500000003,0.024026292499998547
178532.0,-0.9596787689999999,-0.42129368399999995,8.3451649505,0.825195161001423,0.008813912722571364,0.6817168791827252,8.410722308987577,1.0704030279106462,0.16994924449999993,0.21192170650000003,0.09090764549999975
178542.0,-0.8411163705,-0.2154521005,8.467257743,0.8654302362476484,0.017606881494118796,0.6649303024370438,8.511659652660367,1.0915181185791771,0.11856239849999994,0.20584158349999995,0.12209279250000016
178552.0,-0.8902476869999999,0.07305954249999999,8.709089731999999,0.8899451309211606,0.04558625473283989,0.6926426403002096,8.754777130286469,1.1286426670265903,-0.04913131649999991,0.288511643,0.24183198899999958
178562.0,-1.1380617325,0.2586013605,8.899436808499999,0.8971393780978812,0.0690347532333837,0.7656532535696364,8.9756356142124,1.1814608607946424,-0.24781404550000008,0.185541818,0.19034707650000016
178572.0,-1.4121575999999998,0.2311427405,9.146074056,0.8822185583225818,0.09621302034543941,0.8487885218298823,9.257336911421119,1.2280099693092574,-0.2740958674999998,-0.02745861999999999,0.2466372475000007
178582.0,-1.6073099349999997,-0.040599530999999994,9.4046754165,0.8632991892309632,0.11619878561002649,0.8831627814479107,9.541122221142887,1.2404693250697065,-0.19515233499999995,-0.27174227149999997,0.25860136050000015
178592.0,-1.675564219,-0.30400615,9.667983969,0.8523751734427306,0.1257911151789873,0.8469245101887524,9.816814616568445,1.2081589162514825,-0.06825428400000022,-0.26340661899999995,0.26330855249999985
178602.0,-1.6707589605,-0.5853589385,9.885887732,0.8446468555148998,0.13405175852867648,0.7382079510820256,10.043149747000738,1.1297562407601742,0.00480525850000002,-0.2813527885,0.2179037630000007
178612.0,-1.5988762159999999,-0.8438622324999999,10.089375719499998,0.8382519691355926,0.13058727996346772,0.5636750258825927,10.250073708552854,1.0185523728565444,0.0718827445000001,-0.25850329399999994,0.2034879874999973
178622.0,-1.410980802,-0.9109397185,10.1564532055,0.8355868513677972,0.09727941651840794,0.34117870750910356,10.29437806328603,0.907783884806562,0.18789541399999976,-0.06707748600000007,0.0670774860000023
178632.0,-1.2110232085,-0.7194158439999999,10.1707709145,0.8422487731226596,0.0658373100437301,0.13280384811350052,10.267848721293232,0.8551926153178435,0.1999575935000002,0.19152387450000008,0.014317709000000178
178642.0,-1.1488490475,-0.19024901,10.101339832499999,0.8537068596620024,0.08928580854427393,-0.011084586079415986,10.168240517975505,0.858434753426208,0.06217416099999995,0.529166834,-0.06943108200000125
178652.0,-1.1488490475,0.31253793550000003,10.191168746499999,0.8603687814168647,0.18814300270648474,-0.07583630132840562,10.260480228269367,0.8839589210496864,0.0,0.5027869455,0.08982891399999993
178662.0,-1.1870949825,0.5675108354999999,10.414956499499999,0.832921733600002,0.3192434094700388,-0.07556926595285048,10.49774175393755,0.8952014760655504,-0.03824593499999995,0.2549728999999999,0.22378775299999987
178672.0,-1.2325978384999998,0.7985555095,10.753776257,0.7820279326118472,0.4335554941586594,-0.049188614308956186,10.853602725309445,0.8955208393320361,-0.045502855999999925,0.23104467400000006,0.3388197575000014
178682.0,-1.2996753245000001,0.8020859035,11.088967554,0.7401941357707951,0.4916435423235347,-0.014816100020179863,11.19364548122605,0.8887183176674797,-0.0670774860000003,0.0035303939999999923,0.3351912969999997
178692.0,-1.3463549785,0.6057567705,11.330799542999998,0.720208370506208,0.46206719281923875,0.016893041830053114,11.426575658384593,0.8558572091706249,-0.04667965399999985,-0.196329133,0.2418319889999978
178702.0,-1.3726368005,0.3268556445,11.4756437635,0.7455226259771338,0.36160953173294913,-0.0004258603374866164,11.562065826883398,0.8285925540583812,-0.026281822000000066,-0.278901126,0.14484422050000312
178712.0,-1.2792774925000001,-0.02745862,11.561844216999999,0.8126706782891118,0.24489936465208836,-0.08622799169477985,11.632435109503328,0.8531380877147594,0.09335930799999992,-0.3543142645,0.08620045349999828
178722.0,-1.193077039,-0.198682729,11.5941080955,0.8904792016722709,0.14497577431690897,-0.23597898684514532,11.657025786105585,0.9325541624925243,0.08620045350000005,-0.171224109,0.03226387850000023
178732.0,-1.029109851,-0.08492558899999998,11.504377247999999,0.9506982968538312,0.08209156136755329,-0.4094472612008617,11.550626619599141,1.0383705195128687,0.16396718799999999,0.11375714000000002,-0.08973084750000027
178742.0,-0.8674962589999999,0.250265708,11.422982052999998,0.9672195835532096,0.07782772200493114,-0.5408129580107189,11.458608190663464,1.1108778207677137,0.16161359200000014,0.33519129699999994,-0.0813951950000007
178752.0,-0.8160113465000001,0.6404723115000001,11.412194738,0.9395072456900436,0.13005495454160945,-0.6074286849008386,11.459243781220897,1.1263026960570033,0.05148491249999987,0.3902066035000001,-0.010787314999998188
178762.0,-0.7597211755,0.9075073909999999,11.3858148495,0.879021115132928,0.19347149291282342,-0.6175533398916576,11.447162343407095,1.0915500295592475,0.05629017100000011,0.26703507949999983,-0.02637988850000106
178772.0,-0.7010774084999999,1.0990312654999999,11.3726739385,0.8004149762816075,0.2614206513514667,-0.590640362825905,11.447143388928641,1.0285236649722884,0.05864376700000007,0.19152387449999997,-0.013140910999998923
178782.0,-0.6843080369999999,1.1002080635,11.424158851,0.7375290180029999,0.3360299862157203,-0.5623956995408809,11.497397128279724,0.9864857459156129,0.01676937150000002,0.0011767980000001454,0.051484912499999425
178792.0,-0.600559246,0.9362408754999999,11.534287530499999,0.7092843547179757,0.4031780385276981,-0.5642614565112627,11.587795615265263,0.9919817628882847,0.08374879099999988,-0.1639671880000001,0.11012867949999894
178802.0,-0.4532633629999999,0.8571992764999999,11.7198293485,0.7055528407772117,0.4657969614307506,-0.5994350769267045,11.759874073893483,1.036385078943651,0.14729588300000007,-0.07904159899999996,0.1855418180000008
178812.0,-0.346763144,0.8787739064999999,11.9759790465,0.70422115455794,0.5313462921479016,-0.6503288779148592,12.013182857968536,1.0959853859227509,0.1065002189999999,0.021574629999999928,0.25614969799999976
178822.0,-0.301260288,0.9613458995,12.211828979,0.676508816694774,0.5667869479388985,-0.7020220397004272,12.253314274593446,1.1277174148007127,0.045502856000000036,0.08257199300000018,0.23584993250000075
178832.0,-0.310870805,1.0199896665,12.3651069185,0.6221505371414107,0.5766445675541625,-0.7555809584563772,12.410998698054268,1.1359986060453289,-0.009610516999999985,0.05864376699999985,0.15327793950000057
178842.0,-0.33479903099999997,1.061864062,12.406981314,0.5581999280190865,0.5638547947955481,-0.8019456300356065,12.456838724302038,1.128111777612329,-0.023928225999999997,0.04187439550000005,0.04187439549999894
178852.0,-0.38746074150000004,1.1349236045,12.28969378,0.49344995809934883,0.5425373433116893,-0.8344541326832529,12.348066675412216,1.1109245382059552,-0.05266171050000007,0.07305954250000002,-0.11728753399999903
178862.0,-0.38863753949999996,1.224654452,12.1603440665,0.4377582469974618,0.5249514057685944,-0.8515077448044894,12.228032772264465,1.0919119473175214,-0.0011767979999999234,0.08973084750000004,-0.1293497134999999
178872.0,-0.41021216949999995,1.2689805099999998,12.144751493,0.40658317589833903,0.5145597154022202,-0.8600354235297338,12.217756520142784,1.0815463510013623,-0.021574629999999984,0.04432605799999978,-0.015592573500001095
178882.0,-0.417371024,1.2953603985,12.1460263575,0.3943257285615829,0.4836499343494006,-0.8579026311837968,12.222033931010076,1.060851999005462,-0.007158854500000034,0.02637988850000017,0.0012748645000009162
178892.0,-0.38746074150000004,1.3922501005,12.2058469225,0.372741241702169,0.4340878195805177,-0.8547051879941431,12.29110187347126,1.0285374211753047,0.02991028249999994,0.09688970200000013,0.05982056499999899
178902.0,-0.345586346,1.3551809635,12.2633138915,0.3167842405539788,0.3759997714156424,-0.8579026311837968,12.342804096631822,0.9887997814320442,0.04187439550000005,-0.03706913700000003,0.057466969000000034
178912.0,-0.30724234449999993,1.3204654224999999,12.1723081795,0.24164258026786692,0.31098276612034964,-0.868561356925726,12.247575809399775,0.9536772243096902,0.03834400150000006,-0.03471554100000018,-0.0910057119999994
178922.0,-0.2929246355,1.2414238235,11.9173352795,0.17396045720477882,0.26435105916556517,-0.8901440984558879,11.985400206737008,0.9447223079660485,0.014317708999999956,-0.07904159899999996,-0.2549729000000003
178932.0,-0.2593858925,1.0666693205,11.584595645,0.11214089509913967,0.25262768257991924,-0.9322466760017473,11.63649091172579,0.9723580571351499,0.03353874299999998,-0.17475450299999995,-0.3327396344999993
178942.0,-0.2234935535,0.9804688669999999,11.367868679999999,0.0697747728362293,0.2587555335836713,-0.99726368129704,11.412261252413442,1.0326460163670037,0.035892338999999995,-0.08620045350000005,-0.21672696500000121
178952.0,-0.172008641,1.023618127,11.321189025999999,0.05591860390464632,0.27314402793711257,-1.0670768513768132,11.368671954319224,1.102899613294251,0.05148491250000001,0.04314926000000008,-0.04667965400000007
178962.0,-0.10610795299999999,1.163657089,11.391796906,0.04978900757164224,0.28060531048938836,-1.1272959465583734,11.451567292996229,1.1627615562430478,0.065900688,0.140038962,0.07060788000000073
178972.0,-0.070215614,1.3192886245,11.4205303905,0.03992964262712627,0.26248530219518323,-1.1683321279312642,11.496693746791665,1.1981205579511698,0.035892338999999995,0.15563153549999997,0.028733484500000017
178982.0,0.001569064,1.417453191,11.341586858,0.02341010125699994,0.22225022694895794,-1.186185100849914,11.42981926664618,1.2070535570959753,0.07178467799999999,0.09816456649999994,-0.0789435325000003
178992.0,0.0889463155,1.5503332985,11.1871321205,-0.004035201230610889,0.18281451250014608,-1.189649579415123,11.294395506843284,1.203621016197464,0.0873772515,0.13288010750000012,-0.15445473750000005
179002.0,0.18240368999999998,1.6209411784999999,10.994431447999998,-0.042940335586816494,0.16096299026517705,-1.1872514970228827,11.114775943538131,1.1988824270288108,0.09345737449999998,0.07060787999999985,-0.1927006725000009
179012.0,0.3056732805,1.6628155739999997,10.8291893955,-0.0919683796045892,0.14844025288211773,-1.1723289319183312,10.960371104627718,1.1852627624858447,0.1232695905,0.04187439549999983,-0.16524205249999824
179022.0,0.37510436249999995,1.6975311149999999,10.719060716,-0.1401988081542005,0.1545681038858698,-1.1395533938951297,10.859124172899676,1.1585028882504524,0.06943108199999998,0.03471554100000018,-0.11012867950000071
179032.0,0.4241376124999999,1.6089770654999997,10.6436475775,-0.18949388754752836,0.1692236336148662,-1.1097100090152785,10.77292595656648,1.1384203422727404,0.04903324999999997,-0.08855404950000012,-0.07541313850000009
179042.0,0.517594987,1.4976715879999998,10.5981447215,-0.22919663737189536,0.17268811218007493,-1.0913247106747703,10.71595055484712,1.1284245241930333,0.09345737450000002,-0.11130547749999997,-0.045502855999998815
179052.0,0.6492002299999999,1.3707735369999998,10.5430313485,-0.24491856327386027,0.17428683377490176,-1.0819976711521127,10.651572233422879,1.122978166948052,0.13160524299999998,-0.12689805099999996,-0.055113373000001076
179062.0,0.795319315,1.3551809635,10.473600266499998,-0.23958832773826957,0.1825474771245909,-1.0782679025406008,10.590814454000867,1.1195480417750192,0.14611908500000004,-0.015592573499999762,-0.06943108200000125
179072.0,0.935358277,1.393524965,10.4029923865,-0.21587453919142266,0.20466428940586306,-1.0740040631779786,10.537507178076208,1.1144388793253417,0.140038962,0.038344001499999836,-0.07060787999999896
179082.0,1.1388462645,1.4222584495,10.513121066,-0.18416539734118967,0.23370831348830068,-1.066809816001258,10.669840882586428,1.1075286239587772,0.20348798749999997,0.028733484500000017,0.11012867950000071
179092.0,1.27290317,1.5766151204999999,10.628055004,-0.15298858091281495,0.24250128225984813,-1.05082260005299,10.819498643025689,1.0892385021516242,0.13405690550000005,0.15435667099999995,0.11493393800000007
179102.0,1.3974476249999999,1.848357392,10.790845394,-0.129273047036716,0.21798638758633576,-1.0129838618697529,11.036830579038087,1.0442058658481361,0.12454445499999989,0.2717422715000002,0.16279038999999962
179112.0,1.5614148129999998,2.1057819545,10.945300131499998,-0.125276243049649,0.1598983394214605,-0.9469022057307436,11.254862452592103,0.9684448374792044,0.16396718799999999,0.2574245624999998,0.15445473749999827
179122.0,1.6775255489999998,2.3368266285,10.964423099,-0.14286218059274383,0.10074389508361668,-0.8587019919812102,11.335494014514726,0.8763150381414385,0.11611073599999999,0.23104467400000006,0.01912296750000131
179132.0,1.769708059,2.3894883389999997,10.927353961999998,-0.18469772276304794,0.06104114525924968,-0.7649079979790349,11.324689211945005,0.7892550383625763,0.09218251000000022,0.05266171049999979,-0.03706913700000136
179142.0,1.9193575379999999,2.250626175,10.7848633375,-0.24145408470865154,0.025335199421949686,-0.6719116194450211,11.183135908448229,0.7144278631866716,0.1496494789999998,-0.13886216399999984,-0.14249062449999883
179152.0,2.0055579915,2.056650638,10.6220729475,-0.2808897991574634,0.00801455192515796,-0.5901080374040467,11.003658864489877,0.6535983538245311,0.08620045350000005,-0.19397553700000003,-0.16279038999999962
179162.0,1.9971242724999998,1.9106296194999999,10.5047854135,-0.2931472464942196,0.01307775208519351,-0.523225275138372,10.862298443994334,0.5998925105969982,-0.008433719000000117,-0.14602101849999993,-0.11728753399999903
179172.0,1.9396573034999998,1.790890423,10.454477298999999,-0.28915044250715255,0.02053728930821728,-0.4624721092057014,10.782655264707312,0.5458115154953967,-0.057466969000000034,-0.11973919649999987,-0.05030811450000172
179182.0,1.8415908035,1.6687976304999999,10.3694536435,-0.28568770927119586,0.01654048532115026,-0.39932086088079066,10.663109822363907,0.4912720273105912,-0.09806649999999983,-0.12209279250000016,-0.0850236554999988
179192.0,1.6835076054999998,1.5526868944999999,10.273740739499999,-0.2806245091111603,-0.004242895411598216,-0.3406987419648051,10.52591009046678,0.44141108963386305,-0.15808319800000015,-0.11611073599999999,-0.09571290400000088
179202.0,1.6032892085,1.3528273674999998,10.1684173185,-0.2718315403396128,-0.029290115506968837,-0.2972662235289262,10.382552139793003,0.40387808165456024,-0.08021839699999989,-0.1998595270000001,-0.10532342099999958
179212.0,1.5818126449999999,1.185231719,10.079765202499999,-0.2654349086310536,-0.04900884539600077,-0.27062028183872877,10.271736562487154,0.3822210022872865,-0.021476563500000045,-0.16759564849999986,-0.08865211600000045
179222.0,1.4991425855,1.1420824589999998,10.001998467999998,-0.26037345380027005,-0.05220628858565439,-0.26289196391089786,10.178003448058437,0.37367367675646995,-0.08267005949999984,-0.04314926000000008,-0.07776673450000082
179232.0,1.3722445344999998,1.1732676059999998,9.969636523,-0.25957409300285667,-0.04874181002044564,-0.25596475210973235,10.131794724454776,0.3677940022960157,-0.12689805100000018,0.03118514699999997,-0.032361944999998116
