timestamp,ax,ay,az,gx,gy,gz,acc_mag,gyro_mag,dax,day,daz
109622.0,-1.4818828814999998,2.321626321,9.23001898,0.23257734013300838,0.12888732927202526,-0.2045944762357833,9.632194766511056,0.33550419147369087,0.0,0.0,0.0
109632.0,-1.0018473639999999,2.546590872,9.344952917999999,0.27760858016371404,0.1307530862424072,-0.138512820096774,9.737400487283255,0.33667297882899494,0.48003551749999995,0.2249645509999998,0.11493393799999829
109642.0,-0.8880902239999999,2.61249156,9.475381362999999,0.3234409263210852,0.22747923338793294,-0.07695854803743796,9.868975041579715,0.4028442038285197,0.11375713999999992,0.06590068800000015,0.13042844499999973
109652.0,-0.910841652,2.844713032,9.5411839845,0.36127791917507024,0.2802387913464695,-0.011941542742145204,9.997810589100396,0.4573818049527781,-0.022751428000000073,0.23222147199999998,0.06580262150000138
109662.0,-0.993413645,2.8375541775,9.726823868999999,0.4097753831002367,0.2983570543114227,0.03868522287045431,10.180849029372157,0.5083594623107469,-0.08257199299999995,-0.007158854500000089,0.1856398844999987
109672.0,-1.0832425589999999,2.844713032,9.868039628999998,0.4657323842484269,0.2730445441697489,0.07598989030258112,10.326858805831225,0.5451921131736854,-0.08982891399999993,0.007158854500000089,0.1412157599999997
109682.0,-1.0628447269999999,2.9105156534999996,10.040440536,0.5200906638017903,0.20589474652851908,0.09091245540713264,10.507672741379615,0.5667027613925874,0.020397832000000005,0.0658026214999996,0.17240090700000188
109692.0,-0.992236847,3.0254495914999997,10.167338587,0.5640555076595274,0.14194413740619483,0.09331053779937284,10.654231700782143,0.5890786113325148,0.07060787999999985,0.11493393800000007,0.1268980509999995
109702.0,-0.8796565049999999,3.0637935929999998,10.344446686,0.5803097589833506,0.08465545003873295,0.10103711039795173,10.824426265940982,0.595091975471139,0.11258034200000011,0.03834400150000006,0.1771080989999998
109712.0,-0.7204945754999998,3.050652682,10.526458109999998,0.570984464789945,0.04575206101177935,0.1202235148651254,10.983256100132758,0.5852949714843025,0.15916192950000008,-0.01314091099999981,0.1820114239999988
109722.0,-0.6582223479999999,3.1523476425,10.747892267,0.5496670133060861,0.017240362351199988,0.16125795090876408,11.21997061055065,0.5730926472588243,0.062272227499999944,0.10169496050000015,0.2214341570000009
109732.0,-0.5924197265,3.0553598739999996,11.012475683999998,0.5211553146455068,-0.03791727799957681,0.20922134408282025,11.44381080683733,0.5628624634615247,0.06580262149999994,-0.09698776850000046,0.264583416999999
109742.0,-0.5600577815,2.9512132509999995,11.320110294500001,0.49824088689607327,-0.10639876186007831,0.256385376459463,11.711883770390722,0.5703491379520126,0.032361945,-0.1041466230000001,0.30763461050000274
109752.0,-0.544465208,2.9201261704999997,11.520067888,0.4675963958895568,-0.19699531267259998,0.29795388325421196,11.896871158354632,0.5884131704934409,0.015592573499999984,-0.031087080499999864,0.19995759349999886
109762.0,-0.470326934,2.8698180559999997,11.5727295985,0.4257625990485047,-0.2867942480169602,0.3224687779277243,11.932524186415355,0.606226726713984,0.074138274,-0.050308114499999945,0.05266171050000068
109772.0,-0.366180311,2.9201261704999997,11.565570743999999,0.38259537065892896,-0.35634038272117824,0.33659023690561046,11.93413807135948,0.6218124102876156,0.104146623,0.050308114499999945,-0.0071588545000018655
109782.0,-0.1997614605,3.0063266239999997,11.4709365715,0.33809645605008154,-0.38698312839844273,0.3525791981831305,11.860029099401421,0.6231992027033808,0.1664188505,0.08620045350000005,-0.09463417249999928
109792.0,-0.0130428445,3.1141017074999997,11.415921264999998,0.28506986271598983,-0.37419335563982825,0.3797574652951862,11.833049390969608,0.6045669743554745,0.18671861599999998,0.10777508349999998,-0.055015306500001415
109802.0,0.1366066345,3.1295962145000003,11.419451659,0.23630710874452027,-0.33209252342322104,0.4239910898577305,11.841322140311867,0.5881283346647593,0.149649479,0.015494507000000546,0.0035303940000019907
109812.0,0.186914749,3.10086273,11.464954514999999,0.20299924529946048,-0.2777342438698577,0.482611463444464,11.878361369512026,0.5926709276302654,0.0503081145,-0.02873348450000046,0.045502855999998815
109822.0,0.16534011899999998,3.074580908,11.539190855500001,0.18328226073968054,-0.2292385252739432,0.5468291079423434,11.942918852376243,0.6206164369919955,-0.02157463000000001,-0.02628182199999962,0.07423634050000238
109832.0,0.11866046499999999,3.0470242214999996,11.652947995499998,0.17635330360926305,-0.20045979123780872,0.6105144270183644,12.04531584883473,0.6663426154723774,-0.04667965399999999,-0.027556686500000538,0.11375713999999704
109842.0,0.038442067999999996,3.0661471889999996,11.84447187,0.18061714297188516,-0.18873641465216281,0.6760637577355155,12.234960165706548,0.7247800984260987,-0.080218397,0.019122967499999977,0.1915238745000014
109852.0,-0.0297141495,3.145188788,11.994121349,0.18168353914485375,-0.18900170469846594,0.7392150060604264,12.39967912396845,0.7843273410764424,-0.06815621749999999,0.0790415990000004,0.1496494790000007
109862.0,-0.0597224985,3.26365312,12.1317086485,0.16116544845840838,-0.18687065768178085,0.8050313721531325,12.563174487230626,0.842003832906939,-0.030008349,0.11846433199999984,0.13758729949999982
109872.0,-0.13033037849999998,3.3378894605,12.247917451,0.1161324630984507,-0.17354681417205617,0.8772426246251459,12.695273685296716,0.9017537735733618,-0.07060787999999998,0.07423634050000016,0.11620880249999921
109882.0,-0.19730979799999998,3.373879866,12.313720072499999,0.06390697589102437,-0.1527634334393077,0.9457241084856474,12.769091531133935,0.9601118984444856,-0.0669794195,0.03599040549999977,0.0658026214999996
109892.0,-0.29076717249999995,3.408595407,12.3723638395,0.0007539822368615504,-0.13251237812841746,1.0131391961731804,12.836606061346291,1.0217686282465812,-0.09345737449999997,0.03471554100000018,0.05864376700000129
109902.0,-0.3278363095,3.412125801,12.343630354999998,-0.0695915132647699,-0.1178568483994211,1.0682968365239571,12.810748981560518,1.0770289440679945,-0.03706913700000003,0.0035303940000002143,-0.028733484500001794
109912.0,-0.31106693799999996,3.410949003,12.2431121925,-0.14766532669423224,-0.08561538112732985,1.1162602296980133,12.71318732258459,1.1292351139593357,0.01676937150000002,-0.0011767980000003675,-0.10051816249999845
109922.0,-0.20456671899999998,3.4169310595,12.0922859155,-0.24145932069640752,-0.007274532322312365,1.161026179682416,12.567443816070869,1.1858909360812335,0.10650021899999998,0.005982056500000166,-0.15082627700000018
109932.0,-0.17936362849999998,3.456451859,11.958130943499999,-0.3477777974108941,0.11236778790189893,1.2257761496021538,12.448940775291103,1.279102452919007,0.025203090499999997,0.03952079949999998,-0.13415497200000104
109942.0,-0.1638691215,3.2649279845,11.904292434999999,-0.45702842726873116,0.24080133156840566,1.3003854844664073,12.344990328507778,1.3992364606555177,0.01549450699999999,-0.19152387450000008,-0.05383850850000016
109952.0,-0.4296293365,3.2852277500000002,11.9414596385,-0.5332364837278115,0.3537817300377546,1.3765935409254877,12.392568782705062,1.5180620662557507,-0.265760215,0.020299765500000344,0.03716720350000102
109962.0,-0.9563445079999999,3.309155976,12.102975163999998,-0.5804005161044543,0.41560129214339375,1.4621286369072255,12.583605044337615,1.6270861513729862,-0.5267151714999999,0.023928225999999775,0.1615155254999987
109972.0,-1.441185284,3.050652682,12.329312645999998,-0.5899928456734151,0.4193310607549056,1.5103573201275848,12.782622858076797,1.6748460618584111,-0.484840776,-0.25850329400000005,0.22633748199999992
109982.0,-1.862478968,2.7633178369999998,12.621354683,-0.5657449863754579,0.39428384065953503,1.546063265964885,13.053863313540965,1.6928788376550188,-0.4212936840000001,-0.28733484500000017,0.29204203700000164
109992.0,-2.2838707185,2.4688241374999995,12.896725414999999,-0.5185809539988151,0.35351643999145144,1.555922630909401,13.32804128559899,1.6777351735511128,-0.4213917504999998,-0.29449369950000026,0.27537073199999895
110002.0,-2.6082747004999995,2.241407924,13.193572710499998,-0.4770124472040662,0.3084834546314938,1.5476619875597117,13.634418479065713,1.6486238334763543,-0.32440398199999976,-0.2274162134999993,0.2968472954999992
110012.0,-2.8645224650000003,2.0738122755,13.473748700999998,-0.46422267444545173,0.287166003147635,1.524480524434723,13.930114513678747,1.6192615212540078,-0.25624776450000075,-0.1675956485000003,0.2801759905000001
110022.0,-2.9925973139999997,2.0593964999999996,13.695182857999999,-0.4991292594853384,0.30315496442515505,1.510092030081282,14.168796213582484,1.6190771721709274,-0.12807484899999944,-0.014415775500000283,0.2214341570000009
110032.0,-3.132636276,2.0977405014999997,13.922599071499999,-0.6027826184320296,0.3569791732274082,1.494370104179317,14.42403168864646,1.6504311628985924,-0.1400389620000002,0.03834400150000006,0.22741621349999974
110042.0,-3.3014087224999997,2.0678302189999997,14.114122946,-0.7528006489579502,0.4361193828298391,1.4829120176399742,14.641847147898122,1.719283858242277,-0.16877244649999978,-0.02991028249999994,0.1915238745000014
110052.0,-3.5887435675,2.024680959,14.286523852999998,-0.9180082799639775,0.5107287176940927,1.4791822490284623,14.868866035489987,1.8142665600734564,-0.28733484500000017,-0.043149259999999856,0.17240090699999833
110062.0,-4.0041532615,1.851103254,14.5570893265,-1.0760199184640322,0.5411044279958019,1.461062240734257,15.210807876580741,1.8934929992549259,-0.41540969400000005,-0.1735777049999998,0.2705654735000014
110072.0,-4.4674194074999996,1.8547317144999997,14.693597894499998,-1.2297694629307165,0.509397031474821,1.4178950123446814,15.469314302209213,1.9447993556313687,-0.4632661459999996,0.003628460499999653,0.13650856799999822
110082.0,-4.8624312695,1.745779833,14.6373077235,-1.3811191796759088,0.4150689667215355,1.3467501560456365,15.522298878334794,1.9731975112524556,-0.3950118620000005,-0.10895188149999968,-0.05629017099999878
110092.0,-5.0826886285,1.593776758,14.402634589,-1.5212795905865653,0.293028564105084,1.2518897658704926,15.356097523553418,1.9918296408096732,-0.22025735899999965,-0.1520030750000001,-0.2346731344999995
110102.0,-5.1833048575,1.505124642,13.94897896,-1.6355916752751862,0.18298031877908552,1.1431732067637659,14.956806592995092,2.003867986158903,-0.10061622899999989,-0.088652116,-0.453655629
110112.0,-5.122209428,1.4429504809999998,13.326452817999998,-1.7283210184336446,0.1206266859223361,1.0307251337162753,14.349685718693992,2.015946090893938,0.06109542949999991,-0.06217416100000017,-0.6225261420000017
110122.0,-4.8947932145,1.3614572195,12.712360395,-1.820249255465438,0.14274349820360824,0.9140149666354144,13.690020934447414,2.041838979335888,0.22741621349999974,-0.08149326149999969,-0.6140924229999989
110132.0,-4.7331796225,1.362732084,12.19162728,-1.9175094733620741,0.24932901029364996,0.8023662543853372,13.148984896411298,2.093513587723678,0.16161359200000014,0.001274864499999806,-0.5207331149999987
110142.0,-4.6625717425,1.3986244229999998,11.8624180395,-2.004109220187529,0.38149406790092055,0.7186969153739811,12.822351082170016,2.1629879210139693,0.07060787999999985,0.035892338999999884,-0.3292092405000009
110152.0,-4.679341114,1.318406026,11.742678842999998,-2.060598546757577,0.47875254046830457,0.6603418318335507,12.709246009122793,2.2161501981530005,-0.016769371499999686,-0.08021839699999989,-0.1197391965000012
110162.0,-4.771523623999999,1.2418160894999999,11.661283648,-2.080317276646609,0.5037997605636751,0.6126454740350495,12.660769376844495,2.2264026246647326,-0.09218250999999977,-0.07658993650000001,-0.08139519499999892
110172.0,-4.8756702469999995,1.1652261529999999,11.601463082999999,-2.0691262254828215,0.46543044228783187,0.5785382497925763,12.638190456363919,2.1983210275258007,-0.1041466230000001,-0.07658993650000001,-0.05982056500000077
110182.0,-4.9738348135,1.0730436429999999,11.5164394275,-2.0350190012403484,0.39348447986212165,0.5622839984687532,12.590426223883123,2.147625588000767,-0.09816456650000038,-0.09218251,-0.0850236554999988
110192.0,-5.041991031,0.9688970199999999,11.314128238,-1.9907853766778039,0.30022281128180456,0.5510929473049655,12.424569722045039,2.0873580404371,-0.06815621750000034,-0.104146623,-0.2023111894999996
110202.0,-5.0336553785,0.8144422825,11.0782783055,-1.9478851836637834,0.22374771944716906,0.5329729390107604,12.195460340435606,2.031841500809664,0.008335652500000457,-0.15445473749999994,-0.23584993250000075
110212.0,-5.0479730875,0.682738973,10.837721181,-1.9196405203787592,0.1869771227661525,0.5041959503038779,11.975156165765581,1.9935379926705117,-0.014317709000000178,-0.13170330949999998,-0.24055712450000044
110222.0,-5.064742459,0.6049722385,10.664143476,-1.9079153984638613,0.1896404952046959,0.46049639649244384,11.821233593075911,1.9718421884875887,-0.016769371499999686,-0.07776673449999993,-0.17357770499999958
110232.0,-5.0360089745000005,0.5319126959999999,10.503706681999999,-1.9167101125646608,0.19790113855438504,0.4101349209261475,11.660710594509322,1.9700642551987622,0.02873348449999913,-0.07305954250000013,-0.16043679400000066
110242.0,-4.943826464499999,0.49356869449999996,10.264228288999998,-1.9388251795166809,0.19630241695955822,0.3664336217854615,11.403482474051023,1.9828896375761473,0.09218251000000155,-0.03834400149999995,-0.23947839300000062
110252.0,-4.910385788,0.4361017255,9.955416880499998,-1.955079430840504,0.20909218971817267,0.3299283151507481,11.109113311444833,1.9937170857057378,0.03344067649999882,-0.05746696899999998,-0.30881140850000044
110262.0,-4.923526698999999,0.24340105299999998,9.544812445,-1.9622736780172247,0.2506606965129216,0.28542940054190064,10.742616247385653,1.9987042589911341,-0.013140910999998923,-0.1927006725,-0.41060443549999803
110272.0,-4.899598473,0.02549729,9.158136235499999,-1.9617413525953664,0.3385938748868999,0.21934774440289137,10.386441865066177,2.002795141687801,0.023928225999998887,-0.21790376299999997,-0.3866762095000009
110282.0,-4.9510833855000005,-0.14445195449999998,8.9270915615,-1.9609419917979531,0.4566357281870324,0.14073986022231877,10.209165333402018,2.0183204383122177,-0.05148491250000031,-0.16994924449999999,-0.23104467399999962
110292.0,-5.168889082,-0.1768138995,8.772734890499999,-1.935362446280724,0.5506985028940149,0.05120970558276562,10.183788831082035,2.0128385612138127,-0.21780569649999926,-0.03236194500000003,-0.1543566710000004
110302.0,-5.352077304,-0.2593858925,8.6972236855,-1.8743422449724985,0.5986618960680711,-0.04551644156276012,10.215366481181286,1.9681531097820868,-0.18318822200000007,-0.08257199299999998,-0.07551120499999975
110312.0,-5.4837806135,-0.37912508899999997,8.594351927,-1.8005322709056581,0.6117169588729886,-0.15290131445021524,10.201885644097187,1.9077455040717848,-0.13170330949999975,-0.11973919649999998,-0.10287175849999919
110322.0,-5.560370549999999,-0.47728965549999997,8.4877536415,-1.7472386421960113,0.6141150412652288,-0.2717425285477611,10.158124233703342,1.8718504637157012,-0.07658993649999957,-0.0981645665,-0.1065982855000005
110332.0,-5.567529404499999,-0.612523359,8.2902477105,-1.7280539830580897,0.6250408023827132,-0.39618101355645285,10.005037513010295,1.879842006262434,-0.007158854500000089,-0.13523370350000002,-0.19750593100000025
110342.0,-5.5987145515,-0.6962721499999999,8.073618812,-1.7243224691173258,0.6412950537065364,-0.5174220553754909,9.849554317710204,1.9110920717747584,-0.031185147000000413,-0.08374879099999988,-0.21662889849999978
110352.0,-5.619014317,-0.7442266685,7.789912427499999,-1.7152642102994753,0.6407627282846782,-0.6333328616589384,9.633791094728831,1.9374774059973465,-0.020299765500000788,-0.0479545185000001,-0.2837063845000003
110362.0,-5.7028611745,-0.7681548945,7.4906134694999995,-1.697411237380825,0.6303692925890519,-0.7409830245926966,9.445738598279048,1.956432006628512,-0.08384685749999932,-0.023928225999999997,-0.2992989579999996
110372.0,-5.828484360999999,-0.795711581,7.175721938,-1.6547763344131077,0.5917329389376534,-0.8435717326956713,9.278759194959935,1.9493706307833436,-0.12562318649999948,-0.027556686499999983,-0.3148915314999998
110382.0,-5.839271675999999,-0.9033885979999999,6.792674189,-1.591892121463752,0.5227191296552938,-0.9538870133972249,9.002978801654432,1.9280187367382688,-0.010787314999999964,-0.10767701699999999,-0.38304774899999927
110392.0,-5.778274312999999,-0.9429093974999999,6.4526776335,-1.51861447281877,0.45077491255883545,-1.080990616173712,8.712897383192377,1.9177926507061909,0.06099736300000025,-0.03952079949999998,-0.33999655550000085
110402.0,-5.585475573999999,-0.842391235,5.9188036075,-1.4456038595493432,0.3924198290184051,-1.1947686301112224,8.181649987912612,1.9160469515251024,0.19279873899999966,0.1005181624999999,-0.5338740259999994
110412.0,-5.2886282785,-0.8076756939999999,5.5022171155,-1.3800545288321922,0.39028703667246795,-1.2843005300800272,7.674393935740424,1.9251759205611987,0.2968472954999992,0.03471554100000007,-0.4165864920000004
110422.0,-5.040814233,-0.818463009,5.141920794499999,-1.3163692097561712,0.41959809613046073,-1.341056892025631,7.247002089528346,1.9254412601582627,0.2478140455000002,-0.010787315000000075,-0.36029632100000075
110432.0,-4.854095617,-0.8746551135,4.872532119,-1.2457566788789847,0.45903555590852463,-1.3866222028074469,6.933169194332194,1.9197251047684984,0.18671861600000028,-0.056192104500000006,-0.26938867549999923
110442.0,-4.727197566,-0.9512450499999999,4.6833618405,-1.171147344014731,0.4832834152064819,-1.43858239996857,6.721989445260784,1.9169424306185436,0.1268980509999995,-0.0765899364999999,-0.1891702784999998
110452.0,-4.6074583695,-0.912999115,4.5325355635,-1.0850799226111345,0.47475573648123753,-1.5004019620742093,6.5273362595364,1.911543223568791,0.11973919650000031,0.03824593499999995,-0.15082627700000018
110462.0,-4.509293802999999,-0.8531785499999999,4.421230086,-0.9830252852592702,0.44517938697694165,-1.5488976806701238,6.372512825668212,1.8877519496039525,0.09816456650000038,0.0598205650000001,-0.1113054775000002
110472.0,-4.333362502,-0.8734783154999999,4.303942552,-0.8732423299795748,0.41080512735891334,-1.5704804222002855,6.169677174075211,1.8432910177307642,0.17593130099999943,-0.02029976550000001,-0.11728753399999992
110482.0,-4.0843716585,-0.924963228,4.0920208455,-0.776249147458494,0.38788895428022774,-1.5739449007654944,5.855107464250059,1.797309970602831,0.24899084349999967,-0.05148491250000009,-0.21192170650000008
110492.0,-3.812629387,-1.0434275599999998,3.9411945685,-0.7011074871723821,0.3639081303578257,-1.5739449007654944,5.581926060273232,1.7610461057437998,0.2717422715000004,-0.11846433199999984,-0.15082627699999973
110502.0,-3.5779562525,-1.0638253919999998,3.8035092024999995,-0.62543175613516,0.31807578420045457,-1.5656842574158052,5.329181706694751,1.7157226698964858,0.23467313449999994,-0.020397832000000005,-0.13768536600000036
110512.0,-3.3600524894999997,-1.0447024244999998,3.6191441824999995,-0.5348352053226383,0.2527934888588587,-1.5457002374804703,5.04772825156772,1.655035488746125,0.21790376300000025,0.019122967499999977,-0.18436502
110522.0,-3.06555879,-1.1799361279999998,3.4420360835,-0.43064777562483686,0.20269730333886546,-1.5028000444664495,4.757889486024441,1.5763729498693608,0.2944936994999998,-0.13523370349999997,-0.17710809899999935
110532.0,-2.809409092,-1.3882293739999998,3.310332774,-0.31926609875031475,0.1912392167995227,-1.4377830391711568,4.558318035818391,1.485167784319869,0.25614969799999976,-0.208293246,-0.1317033095000002
110542.0,-2.6896698955,-1.5139506269999998,3.2708119745,-0.21241529661396988,0.21282370365893655,-1.3735653946732773,4.49717484875619,1.4060924864740099,0.11973919650000031,-0.12572125300000003,-0.03952079949999998
110552.0,-2.680157445,-1.6276097004999999,3.3306325395,-0.12181874580144822,0.25465750049998864,-1.3357284018192923,4.574436618899298,1.3652328053545522,0.009512450499999936,-0.11365907350000004,0.05982056499999988
110562.0,-2.7411548079999997,-1.8574775764999998,3.5413774479999995,-0.04480958321570242,0.29196216793211544,-1.3224045583095674,4.8482478131614535,1.3549921114491803,-0.060997362999999805,-0.22986787599999992,0.21074490849999972
110572.0,-2.807055496,-2.0179143704999998,3.7448654354999995,0.020205676750338353,0.3138119448378324,-1.333330319427052,5.096622027803987,1.3699109265931442,-0.06590068800000015,-0.160436794,0.20348798749999997
110582.0,-2.750765325,-2.140007163,3.9053022294999997,0.0633729051399141,0.32766811376941546,-1.3716996377028956,5.234283717439411,1.4117161237165685,0.05629017099999967,-0.12209279250000016,0.16043679400000022
110592.0,-2.5029512795,-2.2046329865,3.9866974245,0.08149291343411924,0.33566172174354947,-1.4162002976409949,5.197973457726533,1.4577150508320436,0.2478140455000002,-0.06462582350000012,0.08139519500000025
110602.0,-2.1247087889999996,-2.1758995019999996,3.993856279,0.08282459965339091,0.364440455779684,-1.442313913909334,5.019941638920259,1.4899483837949252,0.37824249050000036,0.02873348450000046,0.007158854500000089
110612.0,-1.7799069749999998,-2.104114824,3.983068964,0.08175994880967437,0.4076076841692597,-1.439914086187842,4.843573722388277,1.4987265557883984,0.34480181399999976,0.07178467799999977,-0.010787314999999964
110622.0,-1.399212822,-2.1016631615,3.956787142,0.08389099582635945,0.4755550972786509,-1.4058068619453687,4.693713780446344,1.4864330737780058,0.38069415299999987,0.0024516624999999515,-0.026281822000000066
110632.0,-1.1418863259999998,-2.2369949315,3.9855206264999996,0.11906461624180117,0.5381740201817036,-1.356778817927596,4.710883714264174,1.4644645504812839,0.2573264960000001,-0.13533177000000007,0.028733484499999573
110642.0,-0.992236847,-2.4009621195,4.0931976435,0.20619668848911407,0.5714818836267632,-1.3008218167794057,4.848032591533641,1.4357040142963813,0.1496494789999998,-0.16396718799999999,0.10767701700000032
110652.0,-0.8617103355,-2.3961568609999997,4.1483110165,0.31411388679842744,0.5818735739931375,-1.2477952234453138,4.867504154537534,1.4121746739139969,0.13052651150000005,0.004805258500000242,0.05511337300000019
110662.0,-0.6582223479999999,-2.4009621195,4.1961674685,0.42416387745367795,0.606655504042205,-1.2075601481990887,4.879108236386877,1.4163853314122699,0.20348798750000008,-0.004805258500000242,0.04785645199999955
110672.0,-0.460716417,-2.3052492155,4.3122782045,0.533412761982263,0.6684750661478442,-1.176383331770714,4.911433281177953,1.4543953492688557,0.1975059309999999,0.09571290399999999,0.11611073600000044
110682.0,-0.297926027,-2.025073225,4.4966432245,0.628807222908517,0.7729277858919488,-1.1532018686457253,4.940595285248293,1.5240375440368077,0.16279039,0.2801759905000001,0.18436501999999955
110692.0,-0.035794272499999995,-1.7760823814999998,4.780349609,0.6874275964952505,0.9136205222244638,-1.1158972012135986,5.099754135258381,1.5976500626636865,0.2621317545,0.24899084350000011,0.2837063845000003
110702.0,0.1917200075,-1.564160675,5.138292333999999,0.6996850438320068,1.0742972784923137,-1.0596731646898532,5.374514237411174,1.663304247304743,0.22751428,0.21192170649999986,0.35794272499999913
110712.0,0.373633365,-1.399016689,5.550073567499999,0.6914261458115696,1.2288444384271595,-0.973872778661812,5.735866647003216,1.713638514385015,0.18191335749999998,0.1651439859999999,0.4117812335000002
110722.0,0.4359055925,-1.3643011479999998,6.061294231999999,0.6890280634193294,1.3516842018410247,-0.8667531958206599,6.228211547056133,1.7473039106438601,0.0622722275,0.03471554100000018,0.5112206644999997
110732.0,0.3341125655,-1.3726368005,6.705296937499999,0.7132759227172866,1.3849920652860843,-0.7559055896972482,6.852501004199761,1.7315769758717499,-0.10179302699999998,-0.008335652500000235,0.6440027055000002
110742.0,0.1485707475,-1.3116394375,7.253586738999999,0.7718962963040201,1.2903969651572436,-0.6519851953750018,7.372719434592278,1.6389121132394706,-0.18554181800000003,0.06099736300000003,0.5482898015000002
110752.0,-0.058447634,-1.238579895,7.6749784895,0.8590301138805851,1.0980110670391607,-0.5469984048797868,7.774496195671209,1.4975874915460528,-0.2070183815,0.07305954250000002,0.42139175050000066
110762.0,-0.17936362849999998,-1.2218105235,7.8497329925,0.9589537042157644,0.8749824232438133,-0.4452108029034776,7.9462758774225195,1.3723698870336345,-0.12091599449999998,0.016769371499999908,0.17475450299999995
110772.0,-0.2560516315,-1.328408809,7.922792534999999,1.0524824081716366,0.6961856586817582,-0.35221442436946365,8.037466886679804,1.3101330816366838,-0.076688003,-0.10659828549999983,0.07305954249999935
110782.0,-0.33862362449999994,-1.5187558855,7.9862415605,1.128690464630717,0.5914659035620984,-0.27893852105373373,8.136420568128708,1.3044465410864783,-0.08257199299999995,-0.19034707650000016,0.06344902550000064
110792.0,-0.38049802,-1.691058726,8.0209571015,1.1726570538177061,0.5533618753325582,-0.24269850446532348,8.206108162954468,1.3191802359835796,-0.04187439550000005,-0.1723028405,0.03471554100000063
110802.0,-0.40324944799999995,-1.7976570115,8.054397778,1.1675938536576707,0.5624218794796608,-0.2504268223931544,8.262415168372911,1.3199649127876607,-0.022751427999999962,-0.10659828549999983,0.03344067649999971
110812.0,-0.411683167,-1.7461720989999998,8.005364528,1.1214962174539964,0.6221103945686148,-0.2877314898252812,8.203929622776995,1.31436848677645,-0.008433719000000062,0.05148491250000009,-0.049033250000000805
110822.0,-0.36490544649999995,-1.6383970154999998,8.0125233825,1.0540811297664634,0.7278948005319912,-0.3356948829993373,8.186454160403875,1.3242389977806837,0.046777720500000064,0.10777508349999998,0.007158854500000089
110832.0,-0.32303105099999996,-1.535525257,8.217188168,0.9967906970697494,0.8195577475174813,-0.3695350718662554,8.365666038225186,1.3423199188792228,0.041874395499999995,0.10287175849999985,0.20466478550000033
110842.0,-0.275174599,-1.422944915,8.539238553999999,0.9669473121898985,0.8174267005007961,-0.3690027464443971,8.661356035470378,1.3188390887922588,0.04785645199999994,0.112580342,0.322050385999999
110852.0,-0.22251288849999998,-1.36312435,8.779893744999999,0.9805364457459262,0.7103088629888962,-0.32450208650629775,8.887865556622785,1.2535118692790959,0.05266171050000004,0.05982056499999988,0.2406551910000001
110862.0,-0.0716866115,-1.420591319,8.910322189999999,1.0253023957303289,0.5440365811391524,-0.2610855481350837,9.023140262430418,1.18970015875973,0.15082627699999998,-0.05746696899999981,0.13042844499999973
110872.0,0.1258193195,-1.387052576,8.850501625,1.0588772945509437,0.38788895428022774,-0.20486151161133842,8.959415403020184,1.1461444955623252,0.197505931,0.033538742999999815,-0.05982056499999899
110882.0,0.30184868699999995,-1.248190412,8.6493672335,1.0748645104992118,0.2706464617775087,-0.14783811429017968,8.744177804367647,1.1182304463929924,0.17602936749999995,0.13886216400000007,-0.20113439150000012
110892.0,0.474249594,-1.1141335065,8.432738335,1.0897870756037633,0.2304096412020314,-0.08761727377936734,8.519230128027633,1.1173187815374714,0.17240090700000005,0.13405690550000005,-0.21662889849999978
110902.0,0.616642152,-0.9967479059999999,8.226798684999999,1.1004458013456928,0.2898311209154304,-0.02952922561449206,8.30987187237302,1.138356277935801,0.14239255800000006,0.11738560050000013,-0.20593965000000125
110912.0,0.6418452424999999,-0.9477146559999999,8.3261400495,1.1039085345816495,0.44064851223876433,0.03362202271041876,8.404447424334627,1.189081832537854,0.025203090499999803,0.04903324999999992,0.09934136450000075
110922.0,0.35568719549999994,-0.81002929,8.729585630499999,1.1127032486824489,0.612516319670402,0.1247526442740507,8.774299180671504,1.2762632893507584,-0.2861580469999999,0.13768536599999992,0.4034455809999997
110932.0,-0.11238420899999998,-0.681954441,9.3401476595,1.125225986065508,0.7124399100055814,0.2297394347692656,9.365684725170686,1.3514748806300314,-0.46807140449999995,0.128074849,0.6105620290000005
110942.0,-0.588791266,-0.8267986614999999,10.063191964,1.1433459943597133,0.6849946075179706,0.31234237760765327,10.114252502577253,1.3689468346129086,-0.47640705699999997,-0.1448442204999999,0.7230443045000001
110952.0,-1.0125366125,-0.9178043735,10.658161419499999,1.1782525793996,0.5101946469429824,0.3581747237650243,10.745417632823163,1.332991692162872,-0.42374534649999995,-0.09100571200000007,0.5949694554999994
110962.0,-1.1550272369999999,-0.9536967125,10.925098432499999,1.2155572468317266,0.22614580183940927,0.3624368177983945,11.027302530422347,1.288441613310647,-0.14249062449999994,-0.035892338999999995,0.2669370129999997
110972.0,-0.9826263299999999,-1.0686306504999998,10.9586371755,1.245667667087133,-0.06536258048718764,0.34431855483344137,11.0543771744883,1.294030707115111,0.172400907,-0.11493393799999985,0.03353874300000115
110982.0,-0.6593991459999999,-1.026756255,10.7742721555,1.2672504086172947,-0.2668084827523732,0.31900429936251556,10.843153421477988,1.3337443936606044,0.32322718399999995,0.04187439549999983,-0.18436501999999955
110992.0,-0.404426246,-0.6843080369999999,10.486937310499998,1.2728459341991887,-0.3470150885277726,0.31633918159472024,10.517019170483307,1.356696989635254,0.25497289999999995,0.34244821800000014,-0.28733484500000195
111002.0,-0.277528195,-0.254580634,10.259521097,1.2528619142638535,-0.30491251098191335,0.35071344121274856,10.266431041896492,1.3362763686503891,0.126898051,0.4297274029999999,-0.22741621349999797
111012.0,-0.262033688,-0.03667687099999999,10.264228288999998,1.210228756625388,-0.15889128444305978,0.41599573655434446,10.267637956960748,1.2895551699971544,0.01549450699999999,0.21790376299999997,0.004707191999997917
111022.0,-0.47503412599999995,0.183580488,10.522829649499998,1.154537045523501,0.015374605380818048,0.4956682715786336,10.535146085785197,1.2565346009666827,-0.21300043799999996,0.22025735899999999,0.25860136050000015
111032.0,-0.7791383425,0.20034985949999998,11.0064936275,1.094850275763799,0.12542285070681652,0.5737420850080959,11.035855136560711,1.2424202179330985,-0.3041042165000001,0.01676937149999999,0.48366397800000094
111042.0,-0.9778210714999999,-0.12170052649999999,11.565570743999999,1.0639404947109794,0.11503116034044227,0.6366280432867036,11.607470512583198,1.2451894673639707,-0.19868272899999984,-0.32205038599999997,0.5590771164999992
111052.0,-1.0317576465,-0.380301887,11.904292434999999,1.0580779337535304,0.015107570005262918,0.657144388643897,11.954971005584463,1.2456307238077284,-0.05393657500000015,-0.25860136050000004,0.33872169099999994
111062.0,-1.098737066,-0.3156760635,12.018049575,1.05328176896905,-0.13784086833475617,0.6408901373200738,12.07229845988024,1.2406219238510956,-0.06697941949999997,0.06462582350000001,0.11375714000000059
111072.0,-1.0437217595,-0.09777230049999999,11.937831178,1.0442217648219474,-0.28492849104657825,0.6123784386594945,11.983769347264145,1.2436199947222555,0.05501530650000008,0.217903763,-0.08021839699999944
111082.0,-0.8485694245,0.1344491715,11.742678842999998,1.0394256000374669,-0.3861837676010293,0.5971905835086398,11.774066971856119,1.2594364110200893,0.19515233499999995,0.23222147199999998,-0.1951523350000013
111092.0,-0.7552101164999999,0.46130481599999995,11.5715528005,1.039692635413022,-0.4178929094512623,0.6137118702080181,11.605342677753558,1.277590513245907,0.09335930800000003,0.32685564449999993,-0.1711260424999992
111102.0,-0.8102254229999999,0.7438344025,11.547526507999999,1.0463528118386325,-0.395510807123687,0.6640733457743144,11.599789795827368,1.300875249192687,-0.05501530649999997,0.28252958650000004,-0.024026292500000324
111112.0,-0.9945904429999999,0.8898554209999999,11.688840334499998,1.051416011998668,-0.3590055004889736,0.7256258725043985,11.764779691308464,1.3269866188158383,-0.18436502,0.14602101849999993,0.14131382649999935
111122.0,-1.3023231199999998,1.007142955,11.872028556499998,1.0474192080116012,-0.35074485713928444,0.7735892656784547,11.985634922149268,1.3485359854650663,-0.30773267699999995,0.11728753400000003,0.18318822200000007
111132.0,-1.5596496159999997,1.1292357474999999,12.051588318,1.0370275176452268,-0.40297208967596276,0.7935732856137898,12.204444325108575,1.3665910643096928,-0.2573264959999999,0.12209279249999994,0.17955976150000197
111142.0,-1.6674246994999997,1.1687565469999999,12.104250028500001,1.0146436699883994,-0.4935686404884844,0.780251187433317,12.274329543689966,1.3718249507179405,-0.10777508349999998,0.03952079949999998,0.05266171050000068
111152.0,-1.607506068,1.20229529,12.0263852275,0.9746756301177293,-0.5886960660391833,0.7458769278152887,12.192765533841913,1.3612082991087648,0.059918631499999764,0.03353874300000004,-0.07786480100000048
111162.0,-1.5117931639999997,1.2513285399999998,11.770235529499999,0.9333741586985356,-0.6649041224982638,0.710703307399847,11.932719141320632,1.3484746951242603,0.09571290400000021,0.04903324999999992,-0.25614969800000154
111172.0,-1.315464031,1.2286751785,11.5499781705,0.9203173505643659,-0.7139339118452884,0.6904522520889568,11.689400500031782,1.3540346999420814,0.19632913299999966,-0.022653361499999747,-0.22025735899999965
111182.0,-1.1586556975,1.2477981459999998,11.436221030499999,0.9445652098623232,-0.7352496179998952,0.6976464992656775,11.562293660730154,1.385462404538247,0.15680833350000012,0.019122967499999755,-0.11375714000000059
111192.0,-1.133452607,1.3770497929999999,11.38355932,0.9845349950622453,-0.7397804927380724,0.7320207588837057,11.522430461351256,1.4326334930381452,0.025203090500000025,0.12925164700000003,-0.052661710499998904
111202.0,-1.1239401565,1.421375851,11.346490182999998,1.0269011173251557,-0.7219275198194225,0.7831815952474155,11.490273724246718,1.4795535339319636,0.009512450499999936,0.044326058000000224,-0.03706913700000136
111212.0,-1.1274705505,1.4584449879999999,11.464954514999999,1.063406423959869,-0.6689009264853308,0.8346094669866805,11.612210541334752,1.508255493726392,-0.0035303939999999923,0.03706913699999981,0.11846433200000028
111222.0,-1.2412276904999997,1.4908069329999998,11.773863989999999,1.0812593968785191,-0.5780373402972541,0.8895000719619021,11.932603435385067,1.5147473149460446,-0.1137571399999997,0.03236194499999989,0.3089094750000001
111232.0,-1.4759008249999999,1.5004174499999998,12.3017559595,1.0836574792707592,-0.4794454361813463,0.9467887593293639,12.480494199213183,1.5167697298690441,-0.23467313450000016,0.00961051700000004,0.5278919695000006
111242.0,-1.7523502884999997,1.465701909,12.829647928999998,1.0588772945509437,-0.4112309876964,0.9952862232545304,13.031457309209367,1.5102737223290186,-0.2764494634999999,-0.03471554099999974,0.5278919694999988
111252.0,-2.0541009089999998,1.4369684244999998,13.198377969,1.0045190149975802,-0.3771237634539268,1.022464490366586,13.434336225134057,1.4821317142932895,-0.3017506205,-0.02873348450000024,0.36873004000000087
111262.0,-2.4119455674999997,1.434516762,13.5144462985,0.9488290492249454,-0.36859783005793445,1.0443142672723031,13.802738080398475,1.4583323399709063,-0.3578446584999999,-0.0024516624999999515,0.3160683295000002
111272.0,-2.7794988095,1.4225526489999998,13.778931648999999,0.8950030950934401,-0.3877824891958561,1.054440667592374,14.128277568727288,1.4364020748475765,-0.3675532420000005,-0.01196411300000011,0.2644853504999993
111282.0,-3.0248611925,1.3040883169999997,13.982517703,0.8355816153800413,-0.433080764602117,1.036320659298169,14.365278726399179,1.3998986011556929,-0.2453623829999998,-0.11846433200000006,0.20358605400000052
111292.0,-3.1577413,1.1041307235,14.1201050025,0.7700322846628902,-0.4919699188936576,0.9915547093137665,14.510954484592936,1.3483934374216193,-0.13288010750000012,-0.19995759349999975,0.1375872995000016
111302.0,-3.307390779,1.040681698,14.121379867,0.6847642240567072,-0.5447294768521942,0.9318679395540644,14.540812271316872,1.278284046004012,-0.1496494789999998,-0.06344902549999998,0.0012748644999991399
111312.0,-3.40683021,1.0981486669999998,13.848362730999998,0.5933665671175202,-0.5628494851463993,0.8647198872420866,14.303481146348684,1.1902201095992138,-0.09943943099999997,0.05746696899999981,-0.27301713600000177
