timestamp,ax,ay,az,gx,gy,gz,acc_mag,gyro_mag,dax,day,daz
110462.0,0.6626353405000001,-0.7548178504999999,9.71446749,0.07860090286356462,-0.22618768974145714,-0.01217367153266045,9.766253846597472,0.23976482477655123,0.0,0.0,0.0
110472.0,0.949872119,-0.9187850384999999,9.928840859,0.05861688292822956,-0.23258257612076436,-0.008442157591896572,10.01640173878688,0.24000388268525852,0.28723677849999996,-0.16396718799999999,0.2143733689999987
110482.0,1.100698396,-0.7691355594999999,9.976697310999999,0.07620282047132443,-0.190214708528602,-0.0004485496177625427,10.066657623221273,0.2049114598678305,0.15082627700000006,0.14964947900000003,0.04785645199999955
110492.0,1.155811769,-0.5608423134999999,10.0509336515,0.09938428359631311,-0.15157835487720353,0.020601866490541063,10.132705078745065,0.18242168291112193,0.055113372999999966,0.208293246,0.07423634050000061
110502.0,1.3006559894999998,-0.5955578545,10.3776912295,0.12016940965831358,-0.13212666036372672,0.0651007810993885,10.47582313786941,0.19009537894501718,0.1448442204999998,-0.03471554100000007,0.3267575780000005
110512.0,1.4155899275,-0.7332432205,10.821834407999999,0.14788174752147956,-0.18328749672743652,0.11972609602830701,10.938630646357037,0.2641924597273663,0.11493393800000007,-0.13768536600000003,0.4441431784999992
110522.0,1.4634463795,-0.8601412714999999,11.196546504499999,0.1675987320812595,-0.30799127178243135,0.17754710881762717,11.32449433484959,0.3930279052928731,0.047856451999999994,-0.12689805099999985,0.3747120964999997
110532.0,1.5161080899999997,-0.9882161205,11.379636660000001,0.16573472044012955,-0.4670693064554545,0.22098137258275805,11.522642290507655,0.5426366202355928,0.05266171049999979,-0.1280748490000001,0.18309015550000218
110542.0,1.6717396255,-1.1270782845,11.3509031755,0.15027982991371974,-0.6090937290072411,0.2484266750703689,11.528574141429386,0.6747555193411623,0.15563153550000042,-0.13886216400000007,-0.028733484500001794
110552.0,1.8992539055,-1.249171077,11.1881127855,0.1297617392272744,-0.6874345778122585,0.27081052272719613,11.416718507445076,0.7501618138501736,0.22751427999999985,-0.12209279249999994,-0.16279038999999962
110562.0,2.1218648605,-1.433536097,10.975014281,0.11777132726607337,-0.6951611504108375,0.2820015738909838,11.269794793862959,0.7593707910128776,0.22261095500000017,-0.18436502,-0.21309850449999956
110572.0,2.3445738819999997,-1.6238831734999999,10.89126549,0.11803661731237651,-0.6232169333143792,0.28013581692060185,11.258494003329128,0.6934032484190572,0.2227090214999996,-0.19034707649999993,-0.08374879099999966
110582.0,2.5073642720000002,-1.6873321989999999,10.967855426499998,0.12176813125314039,-0.4777280321973839,0.27081052272719613,11.376634748417025,0.5624854573727608,0.1627903900000005,-0.06344902549999998,0.07658993649999779
110592.0,2.5935647255,-1.4861978074999997,11.1055407925,0.1095106839163842,-0.297332546040502,0.2702764519760859,11.500799894018554,0.4164715996554182,0.08620045349999961,0.20113439150000012,0.13768536600000125
110602.0,2.6234750079999998,-1.2360301660000002,11.358160096499999,0.07940026366097803,-0.12972857797148651,0.28733006409732254,11.722550595607913,0.3251037858070994,0.02991028249999994,0.2501676414999996,0.25261930399999954
110612.0,2.5851310065,-1.0707881135,11.625097109499999,0.042095596228851236,-0.012217304763960306,0.32729984929724465,11.957105515553746,0.33022188465872004,-0.038344001499999614,0.16524205250000024,0.2669370129999997
110622.0,2.4989305529999997,-0.9391828704999999,11.837018815999999,0.01944645852572082,0.030948178296363454,0.3853878974621199,12.134320451648518,0.387117276802947,-0.0862004535000005,0.13160524299999998,0.21192170650000008
110632.0,2.452250899,-0.8624948674999999,11.931554921999998,0.02184454091796103,0.0003054326190990077,0.46266235009416884,12.211446872701554,0.4631778572553534,-0.046679653999999626,0.076688003,0.09453610599999962
110642.0,2.3636968494999997,-0.8146384155,11.978234576,0.04902280803001673,-0.06071476868912674,0.5511278538900054,12.236372097236439,0.5566250355288784,-0.08855404950000034,0.04785645199999988,0.04667965400000185
110652.0,2.2834784525,-0.7822764704999999,11.943519035,0.08339706764804504,-0.12386601701403757,0.6409267892343656,12.184985730756399,0.6580919466316902,-0.08021839699999989,0.032361945000000114,-0.03471554100000063
110662.0,2.1769782335,-0.822974068,11.857318581499998,0.1164378957175497,-0.15930492747578243,0.720864614304958,12.0835642295193,0.7473831919666317,-0.10650021899999995,-0.040697597500000016,-0.08620045350000183
110672.0,2.091954578,-0.9031924649999999,11.7627824755,0.14175215118847545,-0.1499796332823767,0.7752228938583214,11.981447414698186,0.8022207289319735,-0.08502365549999968,-0.080218397,-0.09453610599999784
110682.0,2.011736181,-0.9211386344999999,11.6741303595,0.15187855150854657,-0.08576198878449737,0.8029352317214874,11.881956846265373,0.8216612437423619,-0.08021839700000033,-0.017946169499999942,-0.08865211600000045
110692.0,1.917200075,-0.775117616,11.524578946999998,0.1489463983651961,-0.0010262536001726657,0.8231862870323776,11.708645666850163,0.8365534925756795,-0.09453610599999984,0.14602101849999993,-0.14955141250000104
110702.0,1.8956254449999999,-0.5980095169999999,11.451519404499999,0.15400959852523163,0.08610581864714026,0.846102460111063,11.622749583544937,0.8643046577733978,-0.02157463000000015,0.17710809900000002,-0.07305954249999935
110712.0,1.8537510495,-0.4088392385,11.444360549999999,0.17346129303870841,0.15618602410246857,0.8887356177495286,11.600729756134132,0.9188764294312014,-0.04187439549999983,0.18917027849999996,-0.007158854500000089
110722.0,1.6215295774999998,-0.1766177665,11.5078095755,0.19158130133291357,0.21560750381586752,0.9417622110836203,11.622832410050497,0.9849396189346997,-0.2322214720000002,0.23222147199999998,0.06344902550000064
110732.0,1.2850634159999998,-0.0760015375,11.710120765,0.19397938372515378,0.2691664225718175,0.9918566512743615,11.780666048561438,1.0458767523124755,-0.33646616149999997,0.100616229,0.2023111894999996
110742.0,1.0923627435,-0.11189387649999999,12.016578577499999,0.15507599469820016,0.29714405048128656,1.0214347461079094,12.066645652882036,1.0750219027650512,-0.19270067249999978,-0.035892338999999995,0.3064578124999997
110752.0,0.9391828704999999,-0.024516625,12.2511536455,0.04902280803001673,0.3405783142464175,1.0331581226935553,12.287124609720125,1.0889501964413941,-0.15317987300000013,0.08737725149999999,0.2345750680000016
110762.0,0.6913688249999999,0.000588399,12.418749293999998,-0.11085458744041983,0.3968023507701628,1.030760040301315,12.437979145569457,1.110048244814288,-0.24781404550000008,0.025105024,0.1675956484999972
110772.0,0.552506661,-0.0771783355,12.4833751175,-0.27579343774163995,0.4245146886333288,1.0174379421208424,12.495834283077622,1.1364218878717087,-0.13886216399999984,-0.0777667345,0.0646258235000019
110782.0,0.4148212949999999,-0.1658304515,12.4008031245,-0.4039634366910955,0.41092380974804893,0.9939894436202986,12.408847431491738,1.1489385752205041,-0.1376853660000001,-0.088652116,-0.08257199300000018
110792.0,0.289100042,-0.31302826799999994,12.281063928,-0.47031212820566,0.3432434320142128,0.9753371099042352,12.2884537975481,1.135910220710501,-0.12572125299999992,-0.14719781649999994,-0.11973919649999942
110802.0,0.25801296149999997,-0.4004055195,12.09552211,-0.4868334149050383,0.24838129650981702,0.9617462310189553,12.104897784857455,1.1061897916737273,-0.03108708050000003,-0.08737725150000003,-0.1855418180000008
110812.0,0.26997707449999997,-0.4651294095,11.872911155,-0.48470062255910124,0.15005817309871647,0.9577494270318884,11.885085287151323,1.0838524409728545,0.011964112999999998,-0.06472389,-0.2226109549999986
110822.0,0.26154335549999996,-0.522498312,11.5652765445,-0.47937213235276255,0.0834424462085969,0.967076466554546,11.58002724364718,1.0825881835995326,-0.008433719000000006,-0.057368902499999985,-0.30763461050000096
110832.0,0.1322917085,-0.48062391649999997,11.234792439499998,-0.4737766067708687,0.07251668509111239,0.9857288002706094,11.245846415628126,1.0960767356453,-0.12925164699999997,0.041874395499999995,-0.3304841050000018
110842.0,-0.137096967,-0.3968751255,10.9211757725,-0.4737766067708687,0.11941368209220003,0.9977192122318105,10.929244516316862,1.1109309281186657,-0.2693886755,0.08374879099999999,-0.313616666999998
110852.0,-0.5417193459999999,-0.3166567285,10.699741615499999,-0.48070381857203426,0.19242429536162683,0.9977192122318105,10.718124927989853,1.1240760192672106,-0.404622379,0.080218397,-0.2214341570000009
110862.0,-0.9870393224999999,-0.2735074685,10.6758133895,-0.5052187132455466,0.2739625873562979,0.9748030391531249,10.724833075013988,1.1316105392875289,-0.4453199765,0.04314925999999997,-0.023928225999998887
110872.0,-1.433536097,-0.39569832749999995,10.754756922,-0.547586580837709,0.33897959265159067,0.9316375560928012,10.857089819979166,1.1325664500020909,-0.4464967745,-0.12219085899999993,0.0789435325000003
110882.0,-1.829724757,-0.3405849544999999,10.778783214499999,-0.6307218490979549,0.36749129131217007,0.8389082129343425,10.938284069395776,1.1120372699907686,-0.39618865999999997,0.05511337300000002,0.024026292499998547
110892.0,-2.049982116,-0.38971627099999995,10.785942069,-0.7506294593684693,0.391206825188269,0.7179342064908595,10.985938820311445,1.109917515041251,-0.22025735899999987,-0.04913131650000002,0.0071588545000018655
110902.0,-2.233170338,-0.2495792425,10.609912701499999,-0.8817298661320233,0.44423167319310874,0.6025557256292703,10.84525643266497,1.1566601656432027,-0.18318822200000007,0.14013702849999995,-0.17602936750000175
110912.0,-2.3457506799999996,-0.1777945645,10.327383114999998,-1.0096310843766718,0.516177635618819,0.4981030058851657,10.591930851543228,1.238507522191321,-0.11258034199999978,0.07178467799999999,-0.2825295865000008
110922.0,-2.4510741009999997,-0.19936919449999999,10.072410214999998,-1.1018281021132723,0.5684031228262454,0.41230087452787245,10.36826696529101,1.3065600972713087,-0.10532342100000003,-0.021574629999999984,-0.2549729000000003
110932.0,-2.532469296,-0.22212062249999998,9.861763372999999,-1.1279417183816114,0.5827933625089385,0.34302177519920957,10.184160011074395,1.315129104579073,-0.08139519500000025,-0.02275142799999999,-0.21064684199999917
110942.0,-2.612687693,-0.24124358999999998,9.781544976,-1.0890383293546577,0.550017824485737,0.28093517771801524,10.12733714104456,1.2519779008173666,-0.08021839699999989,-0.019122967500000004,-0.08021839699999944
110952.0,-2.685649169,-0.19338713800000001,9.792332291,-1.0170923669289476,0.4650167992551092,0.22604457274279358,10.15578070565998,1.1409704883655263,-0.07296147600000014,0.047856451999999966,0.010787314999999964
110962.0,-2.5887594669999996,-0.175342902,9.8306762925,-0.9483455930221428,0.3429763966386577,0.17301797940870187,10.167330872907867,1.0231946997783108,0.09688970200000036,0.01804423600000002,0.0383440015000005
110972.0,-2.475002327,-0.1550431365,9.840188742999999,-0.9075764470248074,0.24385216710089175,0.12159010766943695,10.147856393874278,0.947598565256955,0.1137571399999997,0.020299765499999983,0.009512450499999048
110982.0,-2.3325117024999997,-0.09992976349999999,9.7516346935,-0.9033126076621852,0.1844306873874928,0.07682590301428639,10.027211775733344,0.9251435375041219,0.14249062450000016,0.05511337300000002,-0.08855404949999901
110992.0,-2.186490684,-0.071196279,9.605613674999999,-0.9336900632931464,0.17217324005073664,0.045649086585911686,9.851579796901063,0.9505285887273757,0.14602101849999993,0.02873348449999999,-0.14602101850000082
111002.0,-2.1122543435,-0.126309652,9.435566364,-0.9811211310453445,0.18789516595270153,0.018469074144603997,9.669926843015471,0.9991218013194628,0.07423634049999972,-0.05511337299999999,-0.17004731099999937
111012.0,-2.149421547,-0.24722564649999998,9.260811860999999,-1.0136296336929909,0.22360111179000156,-0.00471238898038469,9.510192943985599,1.0380099701371919,-0.037167203500000134,-0.12091599449999998,-0.17475450300000084
111022.0,-2.2823016545,-0.4698366015,9.147054721,-1.0218885317134279,0.2667683401795773,-0.03429048381393259,9.439187324299212,1.0566917033126482,-0.13288010749999968,-0.22261095500000003,-0.11375713999999881
111032.0,-2.4594097535,-0.6734226554999999,9.119596100999999,-1.0090987589548135,0.2798251483137469,-0.07985404926649657,9.469383689233739,1.0502185906454005,-0.17710809900000024,-0.2035860539999999,-0.027458620000000877
111042.0,-2.64975683,-0.7607999069999999,9.0488901545,-0.9632681581266944,0.23639088454861598,-0.13208128180317488,9.459515885331019,1.0006056464767932,-0.1903470764999997,-0.08737725149999997,-0.07070594649999862
111052.0,-2.5863078045,-0.8721053844999999,9.108808785999999,-0.892920917295811,0.15165689469354326,-0.18643956135653827,9.508940706577272,0.9246984850702954,0.06344902549999976,-0.11130547749999997,0.059918631499998654
111062.0,-2.3936071319999996,-0.9702699509999999,9.1279317535,-0.8172451862585888,0.0919683796045892,-0.23839975851766146,9.486301543632713,0.8562606625153397,0.19270067250000045,-0.09816456650000005,0.01912296750000131
111072.0,-2.221206225,-0.8948568124999999,9.028590389,-0.7855377897376079,0.07704755982928968,-0.27783721829572533,9.340769252111926,0.8367792214507963,0.17240090699999966,0.07541313849999998,-0.09934136450000075
111082.0,-2.1087239495,-0.91397978,9.022608332499999,-0.8049894842510846,0.11568391348068814,-0.2962225166362336,9.31072160764901,0.8655279411754068,0.11248227550000012,-0.019122967500000088,-0.00598205650000061
111092.0,-2.103918691,-0.9918445809999998,9.052518615,-0.8388296731180027,0.1727073108018469,-0.3116774071626434,9.346567434417821,0.911375796169335,0.004805258499999798,-0.07786480099999982,0.029910282500001273
111102.0,-2.234347136,-1.1031500585,9.101551865,-0.869205383419712,0.22360111179000156,-0.3313961370516753,9.436497948232963,0.9567334296512827,-0.13042844499999973,-0.1113054775000002,0.04903324999999903
111112.0,-2.5552207239999998,-1.2779045615,9.120772899,-0.8921215564983976,0.24491856327386027,-0.3663027220915619,9.557755557231753,0.9950093760447404,-0.320873588,-0.17475450299999995,0.01922103400000097
111122.0,-2.7216395744999997,-1.5820087779999998,9.075270043,-0.9094422039951893,0.2201366332247928,-0.43345077440353974,9.605758694685537,1.031224918980434,-0.16641885049999994,-0.30410421649999986,-0.04550285600000059
111132.0,-2.8364754459999997,-1.7615685395,8.946018396,-0.9363551810609418,0.21294238604807217,-0.5339066901605773,9.548819917491766,1.0987091692862758,-0.11483587149999996,-0.1795597615000002,-0.12925164700000025
111142.0,-2.9442505294999997,-1.8142302499999998,8.6623120115,-0.9691289737548914,0.2254668687603835,-0.6463547632080681,9.32714811531656,1.1865162268597842,-0.10777508349999998,-0.05266171049999979,-0.2837063845000003
111152.0,-2.915517045,-1.8453173305,8.391746538,-0.9933785783821006,0.26969874799367577,-0.7617332440696573,9.073414222218897,1.2805373675838918,0.028733484499999573,-0.031087080500000086,-0.2705654734999996
111162.0,-2.8412807045,-1.8692455565,8.137950436,-1.0053689903433016,0.33711383568120873,-0.86432020684338,8.820044914344349,1.3680138759929994,0.07423634050000016,-0.023928225999999997,-0.253796101999999
111172.0,-2.7563551155,-1.8692455565,7.920046673,-1.012030912098164,0.4095921235287773,-0.9397289025050469,8.591781641530257,1.4405077871717304,0.08492558900000002,0.0,-0.2179037630000007
111182.0,-2.718011114,-1.9386766384999998,7.814723252,-0.9936438684284038,0.47860593281113706,-0.9922231704172804,8.497996883374496,1.4835425831772748,0.03834400150000006,-0.06943108199999992,-0.10532342099999958
111192.0,-2.729975227,-2.0859725215,7.776379250499999,-0.9435494282376624,0.5052518745013345,-1.0332576064609191,8.501536352218562,1.4876781444667657,-0.011964113000000332,-0.14729588300000018,-0.03834400150000139
111202.0,-2.7730264205,-2.2511165075,7.793148622,-0.889191148684299,0.4921950663671649,-1.0750914033019712,8.572652244417158,1.4794385447555713,-0.04305119349999975,-0.1651439859999999,0.016769371500001462
111212.0,-2.7683192285,-2.4510741009999997,7.813546454,-0.8398960692909713,0.4434323123956953,-1.1281179966360628,8.644238762799866,1.47468906458995,0.004707192000000138,-0.19995759349999975,0.02039783199999956
111222.0,-2.7024185404999996,-2.6078824345,7.768043598,-0.8068534958922147,0.38614362502823346,-1.184342033159808,8.628245366274687,1.4841783971250022,0.06590068800000015,-0.15680833350000034,-0.0455028559999997
111232.0,-2.6174929514999996,-2.6174929514999996,7.6399687489999994,-0.7866024405813244,0.33658151025935046,-1.247493281484719,8.489503000058424,1.5127028789311117,0.08492558900000002,-0.009610516999999597,-0.12807484900000077
111242.0,-2.3995891885,-2.589936265,7.457957324999999,-0.7690165030382295,0.3080698115987711,-1.3061154004007045,8.25148020611147,1.5466838170510295,0.2179037629999998,0.02755668649999965,-0.1820114240000006
111252.0,-2.1984547969999997,-2.453427697,7.259274596,-0.7591571380937135,0.32006022355997216,-1.3482162326173117,7.9717989575120365,1.5800142774407813,0.20113439150000012,0.136508568,-0.19868272899999884
111262.0,-2.036841205,-2.392430334,7.054511743999999,-0.7532945771362647,0.3570996009457958,-1.3729981626663792,7.722601954242049,1.6062679725449935,0.1616135919999997,0.060997362999999805,-0.20476285200000088
111272.0,-1.9326945819999999,-2.41635856,6.950365121,-0.7431699221454455,0.4058623549172654,-1.386053225471297,7.608000548960993,1.6242442329157403,0.1041466230000001,-0.023928225999999775,-0.10414662299999922
111282.0,-1.8991558389999998,-2.5264872395,6.827095530499999,-0.7213201452397285,0.4594212736732154,-1.3921828218043009,7.523241592208587,1.6338738225331748,0.03353874300000004,-0.11012867950000027,-0.12326959050000053
111292.0,-1.9123948164999998,-2.7336036874999996,6.775610617999999,-0.6850801286513183,0.49645890572978707,-1.404173233765502,7.552399771016097,1.6393622839917938,-0.013238977499999915,-0.2071164479999994,-0.05148491250000031
111302.0,-1.8333532175,-2.927481158,6.7923799895,-0.6299224883005414,0.5087163530665433,-1.4313532462068095,7.62022019841439,1.6444959059148918,0.07904159899999974,-0.19387747050000037,0.016769371500000574
111312.0,-1.7363654489999998,-2.9849481269999996,6.811502956999999,-0.5601093182207683,0.48207041137634576,-1.4625283173059325,7.636848356919332,1.6386285145828554,0.09698776850000024,-0.05746696899999959,0.019122967499999532
111322.0,-1.538859518,-2.9442505294999997,6.794831652,-0.48470062255910124,0.43463934362414786,-1.4795819294271688,7.563493701697733,1.6164803550995088,0.1975059309999998,0.040697597499999905,-0.016671304999999137
111332.0,-1.2946739329999999,-2.945525394,6.769628561499999,-0.4223487350316038,0.409059798106919,-1.4707889606556215,7.4953433076921225,1.5839597656495294,0.2441855850000001,-0.0012748645000004721,-0.02520309050000069
111342.0,-1.1653242195,-2.9969122399999994,6.731382626499999,-0.3701215024949255,0.417053406081053,-1.4428113327461525,7.4599581483518485,1.5468122096859842,0.1293497134999999,-0.05138684599999932,-0.03824593499999995
111352.0,-1.0731417095,-3.157349034,6.683428107999999,-0.33175218421908215,0.440768939957152,-1.4166977164778132,7.469183176624721,1.5203187790850095,0.09218251,-0.16043679400000066,-0.0479545185000001
111362.0,-1.075593372,-3.3081753109999994,6.66067668,-0.305638567950743,0.48739890158268445,-1.4039061983899468,7.514355516323146,1.5172096879998827,-0.0024516624999999515,-0.1508262769999993,-0.022751427999999407
111372.0,-1.1629706235,-3.4075166754999997,6.657146286,-0.2893843166269198,0.5145789140239921,-1.4076377123307107,7.568438890427678,1.5264267655683246,-0.08737725149999997,-0.0993413645000003,-0.0035303940000002143
111382.0,-1.2108270755,-3.376429595,6.6284128015,-0.27233070450568325,0.5215061258251577,-1.4329519678016363,7.536725766793218,1.5490267892829706,-0.047856451999999994,0.031087080499999864,-0.028733484500000017
111392.0,-1.1988629624999998,-3.2232497220000003,6.5840867435,-0.2512802883973796,0.5124461216780551,-1.4694572744363499,7.428109410823174,1.576403340631406,0.01196411300000011,0.15317987299999958,-0.044326057999999335
111402.0,-1.1031500585,-3.0448667584999995,6.531425032999999,-0.23156155850834767,0.48766593695823957,-1.501698741708441,7.290244618000543,1.5957875586358252,0.09571290399999977,0.1783829635000007,-0.05266171050000157
111412.0,-0.8528843505,-2.9370916749999996,6.4356140625,-0.2147749817626662,0.4612852853143453,-1.5267459618038117,7.125380522058443,1.609305949508339,0.25026570800000003,0.10777508349999998,-0.09581097049999876
111422.0,-0.603893507,-2.7479213965,6.287239448,-0.21157753857301262,0.4658161600525226,-1.5403350953598396,6.888043208751424,1.6230779265925277,0.2489908435,0.1891702784999998,-0.14837461449999978
111432.0,-0.4004055195,-2.556397522,6.105228024,-0.22996283691352087,0.5028537921090942,-1.5307427657908788,6.6309352353622595,1.627549771165515,0.20348798750000002,0.19152387449999964,-0.1820114240000006
111442.0,-0.30341775099999996,-2.3960587944999996,5.962835466,-0.24861517062958427,0.5646733542147334,-1.4921064121394803,6.433394661678244,1.614635266917903,0.09698776850000002,0.16033872750000056,-0.14239255800000006
111452.0,-0.29145363799999996,-2.3660504455,5.7760187835,-0.2472834844103126,0.6270252417422308,-1.4406785404002151,6.248642486260436,1.5905547561192928,0.011964112999999998,0.0300083489999996,-0.18681668249999994
111462.0,-0.39805192349999996,-2.3768377605,5.6718721605,-0.22037050734456004,0.6797847997007674,-1.3849885746275803,6.162624187681385,1.5584812755565747,-0.1065982855,-0.010787314999999964,-0.10414662299999922
111472.0,-0.557213853,-2.4606846179999997,5.6336262255,-0.15908327066077915,0.6827152075148659,-1.343153032457276,6.172778994575967,1.515080067249046,-0.15916192950000008,-0.08384685749999976,-0.03824593500000084
111482.0,-0.6086987655,-2.615041289,5.655102788999999,-0.08740608893987602,0.6472762970531211,-1.315175404547807,6.260123216395311,1.4684320800902075,-0.05148491249999998,-0.1543566710000004,0.02147656349999938
111492.0,-0.6673425325,-2.7395857439999998,5.697075250999999,-0.018125244281961113,0.5958484253138562,-1.2946573138613617,6.356677002960607,1.4253074863916206,-0.05864376699999996,-0.12454445499999967,0.04197246200000038
111502.0,-0.65900688,-2.8365735125,5.6934467905,0.04316199240181977,0.5452216597012566,-1.275737944769743,6.394980509427584,1.388033472046267,0.008335652500000013,-0.09698776850000002,-0.0036284604999989867
111512.0,-0.6218396764999999,-2.819804141,5.6467671365,0.08419642844545845,0.5025867567335391,-1.2621488112137154,6.342236125431375,1.3611400031793583,0.03716720350000002,0.016769371499999686,-0.04667965400000007
111522.0,-0.5967346525,-2.8497144235,5.512710231,0.10497980917820693,0.47700721121631023,-1.251223050096231,6.234335460333387,1.343173764253743,0.02510502399999992,-0.02991028249999994,-0.1340569055000005
111532.0,-0.5871241355,-2.9442505294999997,5.444455947,0.12469853906723886,0.46395040308214064,-1.2392326381350296,6.217348831276182,1.3290963974011403,0.00961051700000004,-0.09453610599999962,-0.068254284
111542.0,-0.5417193459999999,-3.077130637,5.3462913805,0.15587535549561354,0.44423167319310874,-1.247760316860274,6.19233593502511,1.3336209034992232,0.04540478950000004,-0.13288010750000012,-0.0981645664999995
111552.0,-0.429139004,-3.1621542925,5.284019152999999,0.19984194468260275,0.395203629175336,-1.2770713763182668,6.17286306859314,1.351678220427966,0.11258034199999994,-0.08502365550000013,-0.062272227500001165
111562.0,-0.16455558699999998,-3.193241373,5.281665556999999,0.2555319104552378,0.3299195885044881,-1.3095798789659132,6.1741282836892815,1.3744609676277644,0.264583417,-0.031087080500000308,-0.002353595999999847
111572.0,0.301064155,-3.1166514364999998,5.209782812499999,0.29789977804740014,0.2744949127781562,-1.3412890208161463,6.078321540975254,1.40112382474345,0.465619742,0.07658993650000046,-0.07188274449999987
111582.0,0.867300126,-2.8712890535,5.1212287629999995,0.30669274681894754,0.28275555612784536,-1.3562098405914458,5.934938447893714,1.4189137666502474,0.566235971,0.2453623829999998,-0.0885540494999999
111592.0,1.3820511844999999,-2.4331279314999996,5.041010366,0.28644169150805737,0.35816425178951233,-1.3495479188365835,5.765584317113294,1.4253455928756689,0.5147510584999999,0.43816112200000035,-0.08021839699999944
111602.0,1.840512072,-2.266709081,5.096123738999999,0.21716084685014245,0.4807369798278221,-1.3207709301297008,5.8733237530605225,1.4222175385834341,0.45846088750000025,0.1664188504999995,0.0551133729999993
111612.0,2.1015650949999998,-2.0392928675,5.0924952785,0.11937004886090018,0.629423324134471,-1.2648139289815108,5.874419069959473,1.4178071816982685,0.26105302299999966,0.22741621350000019,-0.0036284604999989867
111622.0,2.127846917,-1.9016075014999998,5.1283876175,0.07487113425205275,0.7024339374038978,-1.1912692449609736,5.868918396712873,1.3849698686797558,0.026281822000000066,0.13768536600000014,0.03589233899999922
111632.0,2.1110775454999997,-1.974667044,5.177518933999999,0.1481470375677827,0.643012457690499,-1.100672694148452,5.929811181623112,1.2833132685082382,-0.01676937150000013,-0.07305954250000024,0.04913131649999958
111642.0,2.2751428,-2.193747605,5.255285668499999,0.31095658618156974,0.48500081919044424,-1.0103414333822336,6.132440849480454,1.1630604477472202,0.1640652545000001,-0.21908056099999995,0.07776673449999993
111652.0,2.5970951195,-2.3899786714999998,5.224198587999999,0.48895224461695946,0.3472402360012798,-0.9144146470341211,6.304692855073656,1.0935283378699994,0.32195231950000025,-0.19623106649999977,-0.031087080499999864
111662.0,2.879624706,-2.3457506799999996,5.1379981345,0.6253811415868521,0.2936813172453298,-0.8142257666526386,6.339858794188679,1.0678548063442443,0.28252958649999993,0.04422799150000012,-0.08620045349999916
111672.0,2.994558644,-2.264355485,5.0338515115,0.7061200727841099,0.32618981989297624,-0.7111047331278056,6.279677402115139,1.0538858084570721,0.11493393800000007,0.08139519499999981,-0.1041466230000001
111682.0,3.0520256129999996,-2.2116937745,5.0828847615,0.7551498621311346,0.42984317883966744,-0.6042521856622088,6.327888051574474,1.0583653322691642,0.05746696899999959,0.05266171049999979,0.04903324999999992
111692.0,2.9658251594999996,-2.309858341,5.372671269,0.7991147059888717,0.5742656837836942,-0.4976684189014191,6.557222048775574,1.1027416941746027,-0.08620045350000005,-0.09816456649999994,0.2897865074999997
111702.0,2.7000649445000002,-2.5301157,5.868201293499999,0.8425489697540027,0.6661956661447396,-0.40946820515188564,6.937407482694046,1.1495084353991802,-0.26576021499999936,-0.2202573590000001,0.49553002449999983
111712.0,2.5145231265000003,-2.9203223035,6.444047781499999,0.8993053316996062,0.6723235171484916,-0.35431056480110884,7.508452618234861,1.1774145266914018,-0.18554181799999991,-0.3902066034999998,0.5758464879999998
111722.0,2.3660504455,-3.1968698334999996,6.8474933625,0.9475357602492175,0.6158341905784432,-0.3391227096502542,7.918733282064412,1.1798643902741532,-0.14847268100000033,-0.27654752999999976,0.4034455810000006
111732.0,2.242780855,-3.250708342,7.066573923499999,0.9891025217147145,0.542024216511603,-0.3433865490128764,8.095284905708574,1.1789946445130262,-0.12326959050000008,-0.05383850850000016,0.21908056099999929
111742.0,2.2176758309999998,-3.1250851555,7.2448588205,1.0407974288295345,0.4722110464318299,-0.34871503921921504,8.195866192752579,1.1949245745268078,-0.025105024000000142,0.12562318649999993,0.17828489700000105
111752.0,2.2763195979999997,-2.7455678005,7.4831604154999996,1.0983531515725515,0.42557933947704535,-0.3340595094902187,8.289599704659292,1.224374605927418,0.05864376699999996,0.37951735499999995,0.23830159499999937
111762.0,2.4007659864999997,-2.257098564,7.708223033,1.1356578190046782,0.391206825188269,-0.28023530068796554,8.383011008940516,1.2334071856820124,0.1244463885,0.48846923649999985,0.22506261750000078
111772.0,2.591113063,-1.978197438,7.966726326999999,1.124999093262749,0.37628426008371746,-0.17924531417981765,8.607895235089348,1.1997256715116917,0.19034707650000016,0.27890112600000005,0.2585032939999987
111782.0,2.7025166069999997,-2.0333108109999998,8.334279569,1.109277167360784,0.36056233418175254,-0.04175002103695636,8.994340709551262,1.167152130236305,0.11140354399999985,-0.055113372999999743,0.3675532420000005
111792.0,2.6713314599999998,-2.186490684,8.819120345,1.141253344586572,0.3000762036246371,0.10586992709672403,9.470672465036337,1.1847841009970033,-0.03118514699999997,-0.15317987300000002,0.4848407760000004
111802.0,2.4007659864999997,-2.348104276,9.2871917495,1.2187930872649242,0.1681764360636696,0.24043306709623485,9.875687399107248,1.2536139609007013,-0.27056547350000004,-0.16161359200000014,0.46807140449999984
111812.0,2.138634232,-2.4701970685,9.860586575,1.3152539443641469,-0.018879226518822664,0.34914962620296164,10.387819672028314,1.3609389497097448,-0.2621317544999999,-0.12209279250000016,0.5733948254999994
111822.0,1.9567208745,-2.4235174144999996,10.327383114999998,1.3890639184309872,-0.20140575969238964,0.4381474554206565,10.78689182494549,1.4703863581439107,-0.18191335749999982,0.046679654000000514,0.4667965399999989
111832.0,1.8190355084999998,-2.205711718,10.569215104,1.3760071102968174,-0.32131511529215606,0.514357257208989,10.949080430736094,1.503729483300159,-0.13768536600000014,0.2178056964999997,0.24183198900000136
111842.0,1.676544884,-1.978197438,10.6662028725,1.293669457504733,-0.35035913937459373,0.5807059487235533,10.97688259794663,1.4606682000737943,-0.14249062449999994,0.22751427999999985,0.09698776850000002
111852.0,1.5951496889999999,-1.9016075014999998,10.705723672,1.187083945414691,-0.3466293707630818,0.6342648674795033,10.989683023695408,1.3898244983650674,-0.08139519500000003,0.07658993650000023,0.03952079949999998
111862.0,1.5652394065,-2.014089777,10.693759559,1.107413155719654,-0.32904168789073496,0.6710372094897719,10.993772124943298,1.3360102044336213,-0.02991028249999994,-0.11248227550000034,-0.011964112999999443
111872.0,1.55925735,-2.2978942279999997,10.6985648175,1.0815665748268701,-0.30879063257984474,0.6968837903825559,11.053094160498839,1.323172297113927,-0.005982056499999944,-0.2838044509999995,0.004805258499999354
111882.0,1.5544520915,-2.4821611815,10.760738978500001,1.093022916036961,-0.27308468674254477,0.7083418769218986,11.15217238026401,1.3307977140484024,-0.00480525850000002,-0.18426695350000033,0.062174161000001504
111892.0,1.4766853569999998,-2.471471933,10.996588911,1.105547398749272,-0.2235225719736618,0.6942186726147604,11.367222212867713,1.3244383551037786,-0.07776673450000016,0.01068924849999986,0.23584993249999897
111902.0,1.3377251264999999,-2.3133887349999998,11.240774495999998,1.1018176301377602,-0.17875662198925923,0.6721018603334884,11.554059339609536,1.3029493200624256,-0.13896023049999995,0.15808319800000037,0.24418558499999854
111912.0,1.226419649,-2.1075471515,11.568806938499998,1.0738382568990392,-0.14331771152751435,0.667572730924563,11.822992604731457,1.2725258030749436,-0.11130547749999997,0.20584158349999981,0.32803244249999963
111922.0,1.002631896,-1.8130534519999997,11.9471474955,1.0383993464372943,-0.12093560919993909,0.6744999427257287,12.12545944770414,1.244125715910965,-0.22378775299999987,0.29449369950000026,0.37834055700000135
111932.0,0.8038511005,-1.5640626084999998,12.2272254195,1.005623808414093,-0.15957196285133754,0.6960844295851425,12.353036464543843,1.2334001737020983,-0.19878079550000005,0.2489908434999999,0.2800779240000004
111942.0,0.7260843659999999,-1.3904849035,12.466605745999999,0.9520648896581428,-0.22485600352218546,0.7171348456934461,12.56490770358506,1.212959258733575,-0.07776673450000005,0.1735777049999998,0.23938032649999919
111952.0,0.7667819634999999,-1.307814844,12.566045177,0.8614683388456211,-0.3042615031709195,0.7232626966971982,12.657164992056499,1.1652517708971588,0.040697597500000016,0.08267005950000006,0.09943943100000041
111962.0,0.9523237815,-1.3137969005,12.544470547,0.7730028350497845,-0.38659741063375197,0.720864614304958,12.64898115205823,1.12544956931031,0.18554181800000003,-0.005982056500000166,-0.021574629999999928
111972.0,1.1833684555,-1.2946739329999999,12.392467471999998,0.6986587902318341,-0.43349615296409155,0.718998857334576,12.515981445289864,1.0922464816383264,0.23104467399999995,0.0191229675000002,-0.15200307500000143
111982.0,1.3257610135,-1.1857220515,12.133866111499998,0.6253811415868521,-0.436159525402635,0.721131649680513,12.26353480282655,1.0494606043215078,0.14239255800000006,0.1089518814999999,-0.25860136050000015
111992.0,1.3832279825,-1.0097907505,11.929103259499998,0.5619646032156382,-0.41804126243768186,0.7440478227591987,12.051410771655734,1.0218463068977175,0.057466969000000034,0.1759313010000001,-0.204762852
112002.0,1.4299076364999999,-0.8624948674999999,11.802303275,0.5323865083820903,-0.39352636776416944,0.7818848156131837,11.919853012535874,1.0245205031229956,0.04667965399999985,0.14729588299999996,-0.12679998449999808
112012.0,1.46707484,-0.9079977235,11.841726007999998,0.5254592965809248,-0.35755338655131436,0.8215875654375507,11.96675575503176,1.0387290427629505,0.037167203500000134,-0.045502856000000036,0.039422732999998544
112022.0,1.477862155,-0.9403596685,11.9602884065,0.5145335354634403,-0.2850750987037458,0.8706173547845755,12.087880361005439,1.0507079277656324,0.010787314999999964,-0.032361945,0.11856239850000172
112032.0,1.3988205559999998,-0.9187850384999999,12.139848167999999,0.46124165208304546,-0.18728430071450355,0.917514351785663,12.254663538300532,1.0438639071464646,-0.07904159900000018,0.02157463000000004,0.17955976149999842
112042.0,1.2503478749999999,-1.0360725725,12.501321287,0.3786369639154058,-0.10068455388904887,0.9617462310189553,12.606341662227116,1.0384888746221979,-0.14847268099999988,-0.11728753400000003,0.3614731190000011
112052.0,1.1162909694999998,-1.2503478749999999,13.011365153499998,0.29150489166809296,-0.10867816186318291,1.012374741960807,13.118883279258883,1.0590980421531317,-0.13405690550000005,-0.21427530249999993,0.5100438664999984
112062.0,0.9882161205,-1.2767277634999998,13.425499982999998,0.21076596047083523,-0.2461717096767922,1.0648672645437882,13.522228169811392,1.1130880880843883,-0.12807484899999988,-0.02637988849999995,0.4141348295
112072.0,0.8900515539999999,-1.123449824,13.650562600499999,0.13322621779248317,-0.49344995809934883,1.126154501227569,13.725603468918688,1.2367158310989046,-0.09816456650000005,0.1532779394999999,0.22506261750000078
112082.0,0.6542016215,-0.856512811,13.3932361045,0.07567049504946616,-0.7868240973963276,1.2055600008763032,13.43653107419704,1.4415939441387262,-0.23584993249999986,0.26693701299999995,-0.25732649599999924
112092.0,0.23408473549999997,-0.7595250425,12.836512583999998,0.10524684455376206,-1.078868295803287,1.2977552732836517,12.861093626623244,1.69091763469234,-0.4201168860000001,0.09698776850000002,-0.5567235205000021
112102.0,-0.243597186,-0.8242489325,12.2607641625,0.271786161779061,-1.274184601735468,1.3971465381969728,12.290852848366496,1.9103488074773551,-0.4776819215,-0.06472389,-0.5757484214999984
112112.0,-0.5739832244999999,-1.0707881135,11.967447260999998,0.4974799233422037,-1.3021622296449373,1.4909422775284,12.028958303645277,2.0410834430184406,-0.3303860384999999,-0.24653918099999994,-0.2933169015000008
112122.0,-1.1880756474999998,-1.014596009,11.973429317499999,0.6256481769624074,-1.1236325004584375,1.5650175416415433,12.074930162399687,2.0256518810172204,-0.6140924229999999,0.056192104500000006,0.00598205650000061
112132.0,-1.689685795,-1.3928384994999998,12.235561071999998,0.5960718274581114,-0.8467779025315849,1.574077545788646,12.429963472116718,1.8841588467698391,-0.5016101475000001,-0.3782424904999999,0.2621317544999986
112142.0,-2.1972779989999998,-1.6885089969999998,12.502596151499999,0.4657707814919707,-0.5504716100912556,1.5215850232056647,12.80601435909479,1.6837999873060587,-0.5075922039999998,-0.29567049749999996,0.26703507950000116
112152.0,-2.764690768,-1.8429637345,12.769533164499999,0.3250780451594558,-0.3442295430415896,1.4179299189297212,13.194734086316858,1.4948896175782882,-0.5674127690000002,-0.15445473750000027,0.2669370129999997
112162.0,-3.2100107445,-1.9434818969999998,13.031664918999999,0.24727126710554864,-0.3170512759295339,1.2743067747831078,13.561179204806173,1.3362343908770853,-0.4453199765,-0.10051816249999979,0.26213175450000037
