timestamp,ax,ay,az,gx,gy,gz,acc_mag,gyro_mag,dax,day,daz
198882.0,0.7548178504999999,-0.587222202,9.5684464715,-0.03304780938651263,-0.056717964702059726,-0.06253514709895683,9.616119164190716,0.09066272579114051,0.0,0.0,0.0
198892.0,0.9618362319999999,-0.8122848195,9.330242943,-0.0607584019204266,-0.0812311140463201,-0.06813067268085064,9.414795215010223,0.1221960140637802,0.20701838149999996,-0.2250626175,-0.2382035284999997
198902.0,1.0049854919999999,-0.8553360130000001,9.374569001,-0.05329886469740283,-0.07004006288253244,-0.07772300224981148,9.467002666566401,0.11741909753249405,0.04314925999999997,-0.043051193500000084,0.044326057999999335
198912.0,0.863769732,-0.8721053844999999,9.289545345499999,-0.018392279657516247,-0.09268920058566285,-0.09211149660325273,9.37028914589587,0.1319624630821226,-0.1412157599999999,-0.016769371499999797,-0.08502365550000057
198922.0,0.6493963629999999,-0.7332432205,9.1302853495,0.02930582347023679,-0.12519770323330925,-0.11582703047935168,9.182672368106202,0.17305836348997733,-0.21437336900000004,0.13886216399999984,-0.1592599959999994
198932.0,0.5980095169999999,-0.728437962,9.120772899,0.06661049090236358,-0.15370940189388863,-0.13980959973100576,9.169336700222004,0.21819775870932973,-0.051386845999999986,0.00480525850000002,-0.009512450499999048
198942.0,0.5776116849999999,-0.7021561399999999,9.13391381,0.08339706764804504,-0.18621790454153497,-0.15979361966634084,9.179054417100758,0.2591643875037696,-0.020397832000000005,0.026281822000000066,0.013140910999998923
198952.0,0.5465246045,-0.6183092825,9.0453597605,0.09698620120407289,-0.2056695990550118,-0.1867065967320934,9.082925118540953,0.29422042835725526,-0.031087080499999975,0.08384685749999998,-0.08855404949999901
198962.0,0.4925880294999999,-0.4208033514999999,9.033395647499999,0.12150109587758526,-0.19474558326677927,-0.21814870320677127,9.05659733849928,0.31666577840393206,-0.05393657500000004,0.19750593100000002,-0.01196411300000122
198972.0,0.370495237,-0.186130217,9.065659526,0.15694000633933014,-0.16223708061913292,-0.2503901704788625,9.075136022103178,0.33711462945123255,-0.12209279249999994,0.23467313449999994,0.03226387850000023
198982.0,0.2711538725,0.07835513350000001,9.0357492435,0.18838385814325995,-0.1030826362812891,-0.27650378674720166,9.040156433432353,0.3500983461788736,-0.09934136449999997,0.2644853505,-0.029910282499999497
198992.0,0.210058443,0.186130217,9.156665237999999,0.20703619185932334,-0.024209462054413346,-0.28583082626985934,9.160965412441728,0.35376453191167306,-0.06109542949999999,0.10777508349999998,0.1209159944999989
199002.0,0.1681840475,0.17053764349999997,9.5649160775,0.2096995642978667,0.041341613991989684,-0.28023530068796554,9.567914534071779,0.35244128598371144,-0.04187439550000002,-0.015592573500000012,0.40825083950000085
199012.0,-0.023339827,0.2352615335,9.975520513,0.1878497873921497,0.03920882164605262,-0.25945017462596504,9.978321614477704,0.3227061626799085,-0.1915238745,0.06472389000000003,0.4106044354999998
199022.0,-0.2052531845,0.2842947835,10.1131078125,0.14308558273699912,-0.021277308911062873,-0.2277410327757321,10.11918484962703,0.2698002703324081,-0.18191335749999998,0.04903324999999997,0.13758729949999982
199032.0,-0.43394426249999996,0.301064155,10.186167354999998,0.10684556614858887,-0.132658985785585,-0.18217572199391613,10.199850618143886,0.24940404006205902,-0.22869107799999996,0.01676937150000002,0.07305954249999935
199042.0,-0.7559946485,0.20652804899999996,10.0736850795,0.09298939721700587,-0.275482769134785,-0.1347463995709702,10.104123555485915,0.32045963284365614,-0.322050386,-0.09453610600000004,-0.1124822754999979
199052.0,-1.2204375925,-0.079629998,9.6714162965,0.11164173093306928,-0.4039180581305437,-0.10783342250521766,9.748441005308207,0.43271436396180557,-0.46444294399999997,-0.28615804699999997,-0.40226878300000024
199062.0,-1.628688432,-0.48778277099999995,9.1136140445,0.16093855565564913,-0.5003771699005143,-0.12408767382904085,9.270842410068392,0.5400706265392305,-0.40825083949999996,-0.40815277299999997,-0.5578022520000001
199072.0,-1.990161551,-0.9558541755,9.2332551745,0.21236468206566206,-0.5504716100912556,-0.19097043609471556,9.493545245130006,0.6201511583215135,-0.361473119,-0.4680714045,0.11964112999999976
199082.0,-2.311035139,-1.188173714,9.4307611055,0.24647190630813523,-0.6397364746845056,-0.3034167638129542,9.782223429126166,0.7497152060640435,-0.320873588,-0.23231953849999998,0.19750593100000025
199092.0,-2.2188526289999997,-1.2049430854999998,10.013766448,0.27311784799833266,-0.6890332994070855,-0.4393133353609887,10.327183222137826,0.8616010986605409,0.09218251000000022,-0.016769371499999908,0.5830053424999999
199102.0,-2.2152241685,-0.8493539565,10.5620562495,0.25446551428226927,-0.7449903005552756,-0.558953910255948,10.82523221357079,0.9655012789586527,0.003628460499999875,0.35558912899999984,0.5482898014999993
199112.0,-1.9398534365,-0.38971627099999995,11.483783283,0.19291298755218525,-0.819332600043974,-0.6474194140517846,11.652990543971674,1.061919595803884,0.27537073199999984,0.45963768550000006,0.9217270334999998
199122.0,-1.3712638695000001,-0.1322917085,11.550860768999998,0.029038788094681654,-0.8180009138247024,-0.6841917560620532,11.632723249555848,1.0668116540867616,0.5685895669999999,0.25742456249999995,0.06707748599999874
199132.0,-1.668111165,-0.4004055195,10.117913071,-0.013062044121925562,-0.7393947749733817,-0.7401487572102433,10.262313791302445,1.0462769389862554,-0.2968472954999999,-0.268113811,-1.4329476979999978
199142.0,-1.5975032849999997,-0.6794047119999999,9.737218918,0.08952666398104914,-0.5832471481144571,-0.8310123433983201,9.890755267689656,1.0192025187506115,0.07060788000000029,-0.2789991924999999,-0.3806941530000003
199152.0,-1.447853806,-0.5692760324999999,10.405247915999999,0.14228622193958573,-0.4231027172684654,-0.9320023299064679,10.520909658301887,1.0333874497326183,0.1496494789999998,0.11012867949999994,0.6680289979999987
199162.0,-1.3041863834999998,-0.5141626595,10.904406401,0.1257649352402074,-0.30532615401463603,-1.02499696311123,10.994150459289735,1.0768749480086288,0.14366742250000009,0.055113372999999966,0.4991584850000006
199172.0,-1.228773245,-0.4770935225,11.230085247499998,0.09485515418738782,-0.229917458352969,-1.1171939808478302,11.307179868692122,1.144544419747012,0.07541313849999987,0.037069136999999974,0.3256788464999989
199182.0,-1.134237139,-0.41599809299999996,11.596363625,0.06367833775901312,-0.2104657638394922,-1.2069911708629386,11.659125079700006,1.226857145306404,0.09453610600000006,0.06109542950000002,0.36627837750000225
199192.0,-0.8433718999999998,-0.26281822,11.888405662,0.02770710187540998,-0.21925873261103965,-1.2717411407826762,11.92118025879767,1.2908011483105197,0.29086523900000005,0.15317987299999997,0.29204203699999987
199202.0,-0.6900939604999999,-0.18975867749999997,12.172210112999998,-0.024787166036823467,-0.24643874505234734,-1.3205038947541459,12.193233249020729,1.3435315384180535,0.1532779394999999,0.07305954250000002,0.2838044509999982
199212.0,-0.46865980349999997,-0.12748644999999997,12.436695463499998,-0.08927010058100597,-0.26322532179802877,-1.3482162326173117,12.446175671996265,1.3765695517431134,0.22143415699999996,0.0622722275,0.2644853504999993
199222.0,-0.29743569449999996,-0.0640374245,12.568398772999998,-0.15108966268664512,-0.2653581141439659,-1.3650028093629931,12.572080834183621,1.3987407495607147,0.171224109,0.06344902549999998,0.13170330950000064
199232.0,-0.1226811915,0.014906108,12.64861717,-0.22170219356383172,-0.2453723488793788,-1.3812570606868162,12.64922089221397,1.420292406486348,0.17475450299999995,0.0789435325,0.08021839700000122
199242.0,0.080806796,-0.036480738,12.683332710999998,-0.29524687758436874,-0.19394622246936588,-1.4142996340855731,12.683642585647364,1.4577480272351742,0.2034879875,-0.051386846,0.03471554099999885
199252.0,0.29027684,-0.14307902349999999,12.741976478,-0.3687898162756538,-0.11453897749137987,-1.4614636664622158,12.746085548775804,1.5116220276056394,0.20947004399999997,-0.10659828549999999,0.05864376700000129
199262.0,0.4351210605,-0.17298930599999998,12.854556819999999,-0.4410010687476672,-0.0308713838092757,-1.5184853184541225,12.863082316299211,1.5815285793609934,0.1448442205,-0.029910282499999996,0.11258034199999933
199272.0,0.644689171,-0.186130217,12.982631669,-0.5070844702159285,0.03840946084863921,-1.5819036021545885,12.99996129370418,1.6616344222260546,0.20956811050000002,-0.013140911000000005,0.12807484900000077
199282.0,0.9199618365,-0.1203275955,13.147775654999998,-0.5819590951264852,0.09703157976462475,-1.6381276386783339,13.180470901491566,1.7411357432646974,0.27527266549999996,0.06580262149999999,0.16514398599999858
199292.0,1.2420122225,0.023339827,13.2208351975,-0.6730897166901171,0.1556536986806103,-1.679961435519386,13.279067076712078,1.8164658723629499,0.32205038600000013,0.1436674225,0.07305954250000113
199302.0,1.5975032849999997,0.186130217,13.279478964499999,-0.7794081934046037,0.22466750796297008,-1.7007465615813864,13.376517587618395,1.8842747909504673,0.3554910624999996,0.16279038999999998,0.058643766999999514
199312.0,1.9351462444999998,0.3046926155,13.2890894815,-0.8985164428777048,0.28968451325826283,-1.6999472007839729,13.432703667722913,1.9444972102825309,0.3376429595000001,0.1185623985,0.009610517000000485
199322.0,2.1901191444999997,0.292630436,13.290266279499999,-1.0136296336929909,0.32405702754703913,-1.6810278316923544,13.472692092495608,1.9895508443685244,0.25497289999999984,-0.012062179499999992,0.0011767979999994793
199332.0,2.485789642,0.1454326195,13.2351529065,-1.1015610667377171,0.3091362077717396,-1.6482522936691528,13.467352124657783,2.006424083361604,0.2956704975000002,-0.1471978165,-0.0551133729999993
199342.0,2.7515498569999997,0.1130706745,13.107078057499999,-1.147126377519533,0.26756770097699073,-1.6074848930010692,13.39325601929518,1.9928620328145794,0.2657602149999998,-0.032361945,-0.12807484900000077
199352.0,2.9442505294999997,0.17897136249999998,12.9874369275,-1.1756380761801124,0.2254668687603835,-1.5437995739250483,13.31818906138694,1.9535294519213802,0.1927006725,0.06590068799999999,-0.11964112999999976
199362.0,3.0939000085,0.188483813,12.90359007,-1.2052161710136602,0.19935325249204433,-1.4710559960311766,13.27065861609596,1.912143687490891,0.14964947900000025,0.00951245050000002,-0.08384685749999932
199372.0,3.2076571484999996,0.17298930599999998,12.867697731,-1.234525485142401,0.18576411893601646,-1.3991100336054665,13.262602858364419,1.8751187609017315,0.1137571399999997,-0.015494507000000018,-0.035892339000000106
199382.0,3.2818934889999998,0.1681840475,12.834158988,-1.2691667801359845,0.1727073108018469,-1.3378245422509376,13.248197902969116,1.8521302969429767,0.07423634050000016,-0.0048052584999999925,-0.03353874299999937
199392.0,3.3680939424999994,0.151414676,12.8150360205,-1.3168631379344855,0.16524602824957113,-1.282932191946464,13.25111811947678,1.8459008053076624,0.08620045349999961,-0.01676937149999999,-0.01912296750000131
199402.0,3.40879154,0.060408963999999996,12.7467817365,-1.3704220566904357,0.16151625963805927,-1.2357699048990731,13.194845722632646,1.8523691245120064,0.04069759750000079,-0.091005712,-0.068254284
199412.0,3.4709657009999995,-0.0867888525,12.624688943999999,-1.4138563204555663,0.15671834952432684,-1.1907369195391153,13.093429884304284,1.8551023549991208,0.062174160999999284,-0.1471978165,-0.12209279250000016
199422.0,3.6026690104999997,-0.2364383315,12.443952384499998,-1.4482288347443428,0.1503234631450196,-1.1552980090773706,12.957124605078194,1.858676246992737,0.1317033095000002,-0.14964947899999997,-0.18073655950000145
199432.0,3.8157675149999997,-0.36215958449999996,12.157794337499999,-1.4831354197842295,0.151122823942433,-1.1270516004630942,12.747674472080055,1.8688964902961587,0.2130985045,-0.12572125299999998,-0.2861580469999989
199442.0,4.0072913895,-0.394423463,11.949501091499998,-1.5220388088111831,0.19508941312942216,-1.0793552426645934,12.609699857026154,1.8760782911462122,0.19152387450000008,-0.03226387850000001,-0.2082932460000002
199452.0,4.125853788,-0.441103117,11.6837408765,-1.5681364450148572,0.27103217954219944,-1.0042135823784815,12.398670989625383,1.8817426156530157,0.11856239849999994,-0.046679654000000015,-0.26576021499999847
199462.0,4.1928332075,-0.5608423134999999,11.470642372,-1.6089055910121928,0.34111063966827576,-0.9154810432070897,12.225793668831836,1.8822962598264745,0.06697941949999997,-0.11973919649999992,-0.21309850449999956
199472.0,4.137817901,-0.6553784195,11.400034492,-1.6315547287153231,0.3666919305147566,-0.8278149002086665,12.145445412720443,1.8659344344605078,-0.05501530649999964,-0.09453610600000006,-0.07060788000000073
199482.0,4.085156190499999,-0.808656359,11.2528366755,-1.6304900778716065,0.33205063552117314,-0.7438785258217552,11.998698239942927,1.8226658442420323,-0.05266171050000068,-0.15327793950000002,-0.1471978165000003
199492.0,4.047988986999999,-0.9738984114999999,11.0612147345,-1.6158345481426102,0.2611728145976835,-0.6644730261730212,11.818847843910818,1.7665381197606922,-0.037167203500000134,-0.1652420524999999,-0.1916219409999993
199502.0,3.955806477,-1.1259014864999999,10.790747327499998,-1.6078409401684763,0.19668813472424895,-0.584800491148732,11.547999260769219,1.7221586238412978,-0.09218250999999933,-0.152003075,-0.2704674070000017
199512.0,3.9127552834999997,-1.3509641039999998,10.478307458499998,-1.6243604815386026,0.14659369453350773,-0.5131233094278289,11.266307519045908,1.7097754869980655,-0.043051193500000196,-0.2250626174999999,-0.3124398690000003
199522.0,3.836165347,-1.6275116339999998,10.1478233535,-1.652872180199182,0.11888135667034176,-0.4563669474822253,10.970108363282879,1.7188339104737322,-0.07658993649999957,-0.27654753,-0.33048410499999825
199532.0,3.7858572324999997,-1.8919969844999998,9.783898572,-1.670992188493387,0.09569989354535308,-0.4150654760630315,10.660067487657537,1.7244282278627723,-0.05030811450000039,-0.2644853505,-0.36392478149999974
199542.0,3.7774235134999996,-2.105095489,9.445176881,-1.66885939614745,0.0741154066859392,-0.3772267378797944,10.388056686961605,1.7125667255290478,-0.008433719000000117,-0.21309850450000023,-0.33872169099999994
199552.0,3.770264659,-2.2344452025,9.1291085515,-1.6518057840262133,0.05519603759432067,-0.3345935802413289,10.126611669603514,1.6862567463607898,-0.007158854499999645,-0.1293497134999999,-0.3160683295000002
199562.0,3.794192885,-2.2978942279999997,8.841871773,-1.6219623991463623,0.036011378456399,-0.28529675551874906,9.892164271878753,1.6472562285001318,0.02392822600000022,-0.06344902549999976,-0.2872367785000005
199572.0,3.791839289,-2.3074066785,8.5820936145,-1.581460288524582,0.02721840968485157,-0.2309384759653857,9.662013329613663,1.5984649091197598,-0.002353596000000291,-0.00951245050000038,-0.25977815849999963
199582.0,3.781051974,-2.289460509,8.4779469915,-1.5385600955105614,0.02988352745264691,-0.1749814748171955,9.561044328055578,1.5487668350141288,-0.010787314999999964,0.017946169500000053,-0.1041466230000001
199592.0,3.7786983779999996,-2.2823016545,8.4228336185,-1.4991226357324974,0.041341613991989684,-0.12408767382904085,9.509552483632817,1.5048174496626876,-0.002353596000000291,0.007158854500000089,-0.0551133729999993
199602.0,3.7846804345,-2.3085834765,8.421656820499999,-1.4727437294178551,0.05812819073767114,-0.07825532767166975,9.517230020417184,1.4759664208263845,0.005982056500000166,-0.026281822000000066,-0.0011767980000012557
199612.0,3.803803402,-2.4115533014999997,8.395276932,-1.4695462862282016,0.07011860269887218,-0.03961897402027128,9.527076383236025,1.4717515309704832,0.019122967499999977,-0.10296982499999974,-0.026379888499999282
199622.0,3.8888270575,-2.5480618694999997,8.343792019499999,-1.4770075687804773,0.07731284987559282,0.005946336761544681,9.551673174822085,1.479041579507346,0.08502365550000013,-0.136508568,-0.0514849125000012
199632.0,3.9091268229999994,-2.6198465475,8.2768126,-1.488198619944265,0.08157668923821497,0.06403438492641995,9.521055365150678,1.4918077259097393,0.020299765499999456,-0.07178467800000021,-0.06697941949999908
199642.0,3.872057686,-2.7084986635,8.2013994615,-1.5044528712680882,0.07678052445373455,0.12958546097282297,9.465291800097102,1.5119742334106505,-0.03706913699999914,-0.088652116,-0.07541313850000009
199652.0,3.7272134654999998,-2.832945052,8.116375806,-1.5255032873763916,0.061325633927324756,0.2196496863634864,9.369805446714354,1.542454893308827,-0.14484422050000045,-0.1244463885,-0.0850236554999988
199662.0,3.4769477574999996,-3.0711485805,7.996636609499999,-1.5364290484938763,0.01895776633516241,0.30411838617225595,9.244853507562306,1.566352964937416,-0.25026570800000014,-0.23820352850000015,-0.1197391965000012
199672.0,3.2172676654999997,-3.354854965,7.802759139,-1.5287007305660454,-0.05298645076129585,0.3715317285305369,9.082340736225712,1.5740931716078082,-0.259680092,-0.28370638449999985,-0.19387747049999948
199682.0,2.9873997895,-3.639836214,7.564555610499999,-1.5031211850488164,-0.13292602116114013,0.4160323884686363,8.910413388356204,1.565287696335472,-0.2298678759999997,-0.2849812489999999,-0.2382035285000006
199692.0,2.8497144235,-3.8265548299999996,7.237699966,-1.4754088471856506,-0.19208046549898394,0.4426783301588338,8.668777016415676,1.552317710899483,-0.13768536599999992,-0.18671861599999984,-0.32685564449999926
199702.0,2.7563551155,-3.9869916239999994,6.924083298999999,-1.4463648231032127,-0.2088670422446654,0.46479514244010595,8.452013089440875,1.5335029074906708,-0.09335930800000014,-0.16043679399999977,-0.3136166670000007
199712.0,2.682118775,-4.0778992695,6.6619515445,-1.4141216105018697,-0.19234750087453908,0.48691020939212604,8.258608960149528,1.5079187784464276,-0.07423634049999972,-0.09090764550000019,-0.2621317544999995
199722.0,2.580325748,-4.1426231595,6.403350184,-1.3720207782852625,-0.15983899822689268,0.5090270216733982,8.051229793413572,1.4721066640003924,-0.10179302700000026,-0.06472389000000067,-0.25860136050000015
199732.0,2.50854107,-4.227548748499999,6.217808366,-1.315796741761517,-0.128662181798518,0.5380710457558359,7.926290910452394,1.4273736276589106,-0.07178467799999977,-0.08492558899999914,-0.18554181799999991
199742.0,2.383996615,-4.346111147,6.185446420999999,-1.2433201992432004,-0.11187560505283653,0.5681814660112421,7.926655624503364,1.3715653273434605,-0.12454445500000011,-0.11856239850000083,-0.03236194500000078
199752.0,2.2942657674999998,-4.517237189499999,6.147200485999999,-1.1673774328304234,-0.12173496999735249,0.5974925254692348,7.966000317173157,1.3170371261257634,-0.08973084750000027,-0.1711260424999992,-0.03824593499999995
199762.0,2.2356220005,-4.68365604,6.1208205975,-1.099430019721032,-0.1457157939197546,0.6196093377505069,8.024904012941734,1.270391747568078,-0.05864376699999996,-0.16641885050000038,-0.026379888499999282
199772.0,2.2176758309999998,-4.8392875755,6.026284491499999,-1.0408079008050464,-0.16623388460619992,0.6366629498717434,8.040702401052014,1.2313628638662386,-0.017946169500000053,-0.15563153550000042,-0.09453610600000051
199782.0,2.186490684,-4.927841624999999,5.941260836,-0.986449621251683,-0.16729853544991646,0.6593120875748739,8.022651987571743,1.1982337351508736,-0.03118514699999997,-0.08855404949999901,-0.08502365549999968
199792.0,2.1554036035,-4.936275344,5.907722092999999,-0.9334230279175914,-0.1566415550372391,0.685158668467658,7.994608138857301,1.1684423506479482,-0.031087080499999864,-0.008433719000001005,-0.03353874300000026
199802.0,2.1122543435,-4.9302932875,5.893404384,-0.8859937054946455,-0.14278538610565608,0.7131380417063791,7.968790720413769,1.1462715119858309,-0.043149259999999856,0.00598205650000061,-0.01431770899999929
199812.0,2.0931313759999997,-4.858410543,5.8993864405,-0.8377632769450342,-0.12706346020369116,0.7397839833965765,7.923895023022735,1.1248434438652888,-0.01912296750000042,0.07188274449999987,0.005982056499999722
199822.0,2.0512569805,-4.8249698665,6.034620144,-0.7871365113324347,-0.10574600871983243,0.7688280074790141,7.994037133704945,1.1053789444877815,-0.04187439549999983,0.03344067649999971,0.13523370349999997
199832.0,2.0333108109999998,-4.896754544499999,6.1759339705,-0.7447686437402723,-0.0783007062322216,0.7994707531562786,8.139700137670108,1.0954290567843528,-0.017946169500000053,-0.07178467799999932,0.14131382650000024
199842.0,1.9818258985,-5.004529627999999,6.3590241259999996,-0.7237182276319687,-0.03619987401561439,0.8314469303820666,8.331274723867002,1.1028973215704467,-0.05148491249999987,-0.10777508349999998,0.18309015549999952
199852.0,1.8609099040000001,-5.0356167085,6.551822865,-0.7237182276319687,-0.00022689280275926284,0.8580928720722641,8.47034852648145,1.1225379733391334,-0.12091599449999979,-0.031087080500000752,0.19279873900000055
199862.0,1.7531348205,-5.0140420785,6.7205953114999994,-0.7349092787957563,0.01682671931847733,0.8820754413239182,8.566241941760339,1.148229885837286,-0.1077750835000002,0.021574629999999928,0.16877244649999934
199872.0,1.5951496889999999,-4.972167683,6.8031673045,-0.7413041651750635,-0.0026249751949994717,0.9073879514655919,8.576131958593232,1.1717045917233557,-0.15798513150000004,0.04187439549999983,0.08257199300000018
199882.0,1.560434148,-5.00923682,6.799538844,-0.7333105572009295,-0.053785811558709255,0.9295047637468642,8.588430400262498,1.1851651330744928,-0.03471554099999996,-0.037069136999999586,-0.003628460499999875
199892.0,1.6119190604999998,-5.0105116845,6.742071875,-0.7218524706615868,-0.10494664792241903,0.947090701289959,8.553306002112882,1.1954353118342689,0.05148491249999987,-0.001274864500000028,-0.057466969000000034
199902.0,1.6825269404999998,-4.937452142,6.5637869779999996,-0.7175886312989647,-0.13878858211858908,0.9721396667145816,8.384070017158196,1.2162447310866131,0.07060788000000007,0.07305954250000024,-0.17828489700000016
199912.0,1.778337911,-4.885967229499999,6.3518652714999995,-0.7178556666745197,-0.14731451551458138,1.002515377016291,8.208614616409733,1.2417952350577492,0.09581097050000009,0.05148491250000031,-0.21192170650000008
199922.0,1.8477689929999999,-4.8740031165,6.047761055,-0.716256945079693,-0.1331913112074433,1.0382213228535908,7.984082314801035,1.2683325478690168,0.06943108199999992,0.011964112999999443,-0.30410421649999986
199932.0,1.8872897925,-4.8728263185,5.7628778725,-0.7127924665144842,-0.09748536537014327,1.0888498337954424,7.779271203942634,1.3050557295907004,0.0395207995000002,0.0011767980000003675,-0.2848831824999998
199942.0,1.8632635,-4.846446429999999,5.538992052999999,-0.6976046113636295,-0.05538453315353606,1.1493359643525578,7.5921160971424255,1.3456198568922277,-0.0240262925000001,0.02637988850000017,-0.22388581950000042
199952.0,1.768727394,-4.853703351,5.276860298499999,-0.6680265165300817,-0.011417943966546903,1.214620005023406,7.384584444887888,1.3862508982268675,-0.09453610600000006,-0.007256921000000638,-0.26213175450000037
199962.0,1.607113802,-4.925488029,5.074549109,-0.6333869668657501,0.03654370387825727,1.2892293398876595,7.252192479247492,1.436880921620058,-0.16161359199999992,-0.07178467800000021,-0.2023111894999987
199972.0,1.2983023935,-5.0452272255,4.94647426,-0.5792957226879419,0.06479011249253351,1.3633063493300548,7.183837029522371,1.4826953480486076,-0.3088114085,-0.11973919649999942,-0.12807484900000077
199982.0,0.8553360130000001,-5.179284131,4.9320584845,-0.5057510386674048,0.06479011249253351,1.423260154465312,7.2029011307452775,1.511837074250588,-0.4429663804999999,-0.1340569055000005,-0.014415775499999839
199992.0,0.4231569475,-5.3301104079999995,4.969225687999999,-0.42128233885863525,0.017359044740335602,1.4664273828548877,7.299475508690094,1.5258405600373632,-0.43217906550000007,-0.1508262769999993,0.037167203499999246
200002.0,0.06286062649999999,-5.439062289499999,4.9979591725,-0.33175218421908215,-0.0673766904439891,1.4781507594405336,7.386944289582928,1.5164197300826519,-0.360296321,-0.10895188149999946,0.028733484500000905
200012.0,-0.2136869035,-5.3851257145,5.007471622999999,-0.24674941365920233,-0.1513113195016484,1.480548841832774,7.356630554054403,1.5085772309042909,-0.27654753,0.05393657499999893,0.009512450499999048
200022.0,-0.3896182045,-5.2678381805,4.9787381385,-0.17560455736015748,-0.21233152080987414,1.4778854693942303,7.25877089409535,1.5033519534499216,-0.175931301,0.11728753399999992,-0.02873348449999913
200032.0,-0.554860257,-5.039245169,4.936863742999999,-0.11964755621196727,-0.2413755448923118,1.458966100302612,7.076332764577702,1.4836306053771497,-0.16524205249999996,0.2285930115000001,-0.041874395500000716
200042.0,-0.7367736145,-4.8392875755,4.963243631499999,-0.07621329244683639,-0.2512349098368278,1.43978144116469,6.971034854527509,1.4635224781972356,-0.18191335750000004,0.19995759349999975,0.02637988850000017
200052.0,-0.8528843505,-4.669338331,4.9536331145,-0.04397182517474514,-0.25256659605609943,1.4221937582923434,6.860656907158719,1.445115390886923,-0.11611073599999999,0.1699492445000006,-0.009610516999999597
200062.0,-1.0229316615,-4.4801680525,4.9859950595,-0.01679355806268944,-0.25283363143165455,1.4104703817066973,6.780740497622602,1.433050440998906,-0.17004731099999992,0.1891702784999998,0.03236194500000078
200072.0,-1.2084734795,-4.3424826864999995,5.0781775695,0.009054768159346582,-0.2677561965362061,1.4115350325504141,6.790099517722845,1.436734672000037,-0.18554181800000014,0.13768536600000036,0.09218250999999977
200082.0,-1.3604765545,-4.28746738,5.1966419015,0.03596599989584715,-0.3010640599812659,1.4184639896808315,6.8730168079478595,1.4505079149670894,-0.15200307499999988,0.05501530649999964,0.1184643319999994
200092.0,-1.5305238654999997,-4.227548748499999,5.256560533,0.06181432611788317,-0.3511585001720071,1.4216614328704853,6.917087563483797,1.4656925096580875,-0.1700473109999998,0.05991863150000043,0.05991863150000043
200102.0,-1.710083627,-4.125853788,5.316381098,0.08206538142877337,-0.42070463487622517,1.4219284682460402,6.943411515275406,1.4851288447282673,-0.1795597615000002,0.10169496049999971,0.05982056499999988
200112.0,-1.8441405324999998,-4.071917213,5.3594322915,0.09885195817445484,-0.5059726954824082,1.415531836537481,6.978888061884071,1.5064894485059734,-0.13405690549999982,0.05393657499999982,0.043051193500000196
200122.0,-1.9913383489999998,-4.01091985,5.330698806999999,0.11110940551121101,-0.5939058738563865,1.3984782244162446,6.961986514944802,1.523420766289007,-0.14719781650000008,0.06099736300000025,-0.028733484500000905
200132.0,-2.114706006,-3.8935342494999996,5.276860298499999,0.13082813540024293,-0.6815720168548096,1.3750297259157007,6.890344334917341,1.5402477600450015,-0.12336765700000019,0.11738560050000002,-0.05383850850000016
200142.0,-2.209242112,-3.7679110629999997,5.233809104999999,0.16493535964271616,-0.7577800733138901,1.3475844234280898,6.816939359836854,1.5548048400484524,-0.09453610600000006,0.12562318649999993,-0.043051193500000196
200152.0,-2.162562458,-3.6805338114999997,5.086513222,0.2051704348889414,-0.8169345176517339,1.3166746423752702,6.640453469449699,1.5630447937782954,0.04667965400000007,0.08737725149999997,-0.14729588299999907
200162.0,-2.0428232614999997,-3.5918816954999997,4.9859950595,0.2502034202488991,-0.8473119732826953,1.2894963752632145,6.475715228880271,1.5631187521712582,0.11973919650000031,0.088652116,-0.10051816249999934
200172.0,-1.9386766384999998,-3.4877350725,4.930881686499999,0.29443529948219144,-0.8521081380671756,1.2777712533483165,6.343213479843897,1.5638029928430257,0.10414662299999988,0.10414662299999966,-0.055113373000001076
200182.0,-1.710083627,-3.4662585089999998,4.923722831999999,0.333338688509145,-0.8355868513677972,1.2724427631419781,6.2595831002476885,1.5583422771997613,0.2285930114999999,0.021476563500000267,-0.007158854500000089
200192.0,-1.587892768,-3.3488729084999997,4.900971404,0.3543891046174486,-0.7849600857551977,1.2737744493612495,6.144580856557889,1.537613515011467,0.12219085900000004,0.11738560050000002,-0.022751427999999407
200202.0,-1.5400363160000001,-3.2531600045,4.912935516999999,0.35545550079041716,-0.7236728490714168,1.292159747701758,6.0902953346843,1.5230652707963563,0.04785645199999977,0.09571290399999954,0.011964112999999443
200212.0,-1.5712214629999999,-3.2244265199999997,4.988348655499999,0.34293101807810583,-0.6634520085606045,1.3249352857249594,6.144044724568647,1.5209285854971188,-0.031185146999999747,0.02873348450000046,0.07541313850000009
200222.0,-1.8812096694999998,-3.2734597699999997,5.1607495624999995,0.3461284612677595,-0.6290794942718281,1.3475844234280898,6.3943588211229345,1.5269347399541682,-0.3099882064999999,-0.04903324999999992,0.1724009070000001
200232.0,-2.241604057,-3.3405372559999997,5.480348286,0.3746401599283388,-0.6450667102200962,1.3451863410358496,6.798396519985135,1.5381783388719026,-0.3603943875000002,-0.06707748600000007,0.3195987235000004
200242.0,-2.533646094,-3.2782650284999995,5.789257760999999,0.400753776196678,-0.6994249897734597,1.3491831450229166,7.119121402956005,1.5716532900959517,-0.29204203699999987,0.06227222750000028,0.3089094749999992
200252.0,-2.8101936239999996,-3.366819078,5.986763692,0.4106131411411939,-0.7825620033629574,1.3571767529970504,7.421185782083918,1.6195478318533543,-0.27654752999999976,-0.08855404950000034,0.19750593100000113
200262.0,-3.1262619535,-3.540396783,6.1447488235,0.4356603612365646,-0.8710275071587941,1.373698039696429,7.75021685418434,1.6839047398370992,-0.3160683295000002,-0.17357770500000003,0.15798513149999938
200272.0,-3.433896564,-3.8074318624999997,6.370988239,0.48282439361320734,-0.9634898149416976,1.3697012357093619,8.177877117033953,1.7428463769558409,-0.30763461050000007,-0.26703507949999983,0.22623941550000026
200282.0,-3.73437232,-3.9810095674999997,6.8247419345,0.5377149985884291,-1.0508889225645657,1.327865693539058,8.739054655592419,1.7767195184816964,-0.300475756,-0.17357770500000003,0.45375369550000055
200292.0,-4.036024874,-4.1102612144999995,7.1850382555,0.5848790309650718,-1.1934456705382106,1.2399342604943318,9.209154074504792,1.8176449102442054,-0.3016525539999999,-0.1292516469999998,0.36029632099999986
200302.0,-4.012096648,-4.1437999575,7.3179183629999995,0.611259682608966,-1.3701113880835805,1.1242887442571874,9.317721114532375,1.8747983347024109,0.023928225999999775,-0.03353874300000026,0.13288010749999923
200312.0,-3.818121111,-3.9043215644999996,7.126394488499999,0.6075281686682021,-1.4742970724521303,1.0041140986111177,8.978155384209318,1.8843798599528383,0.19397553700000003,0.23947839300000018,-0.19152387450000052
200322.0,-3.587076437,-3.6697464964999997,6.868969925999999,0.5872771133573119,-1.448717526934901,0.9188460380049347,8.574199936888984,1.8132718831656325,0.23104467400000006,0.23457506799999983,-0.2574245624999998
200332.0,-3.4086934735,-3.5488305019999995,6.718143649,0.5688918150168037,-1.2888401314644646,0.8610232798863625,8.327475200611893,1.651092932021914,0.17838296349999982,0.12091599450000023,-0.1508262769999993
200342.0,-3.4674353069999997,-3.5332379284999997,6.773257021999999,0.5587654146967326,-1.0794006212251452,0.802135870924074,8.389510626591605,1.4562782856259184,-0.05874183349999962,0.015592573499999762,0.0551133729999993
200352.0,-3.7091692295,-3.4769477574999996,7.030583517999999,0.5651620464052918,-0.9173904334087715,0.7323227008443008,8.676186183169834,1.3028084602806516,-0.24173392250000036,0.05629017100000011,0.2573264960000001
200362.0,-3.8360672805,-3.52843267,7.502283383,0.5944731058632846,-0.8622327930579946,0.655582318963362,9.135070073408519,1.2355694395527554,-0.12689805099999996,-0.05148491250000031,0.4716998650000006
200372.0,-3.8205727735,-3.5655998735,7.897295245,0.6352405065313681,-0.8944760056593378,0.5956267684988529,9.46982317481231,1.2483545462691674,0.015494507000000102,-0.037167203500000134,0.3950118619999996
200382.0,-3.7978213454999996,-3.5500073,8.240920261,0.6898658214602867,-1.0173140237439509,0.5362070341147059,9.743652577475707,1.3410297006253342,0.022751428000000296,0.015592573500000206,0.34362501599999984
200392.0,-3.7367259159999997,-3.667294834,8.519821386999999,0.7551498621311346,-1.2046384670312502,0.47971596221540547,9.99997642183079,1.5005107646839206,0.06109542949999991,-0.11728753399999992,0.27890112599999917
200402.0,-3.5607946149999994,-3.9881684219999998,8.717327318,0.8361540833746953,-1.3919611649892976,0.41230087452787245,10.226267218374456,1.675321326527836,0.17593130100000032,-0.320873588,0.19750593100000202
200412.0,-3.2686545115,-4.24431812,8.76518377,0.9155595830234294,-1.5065402850534733,0.32410240610759106,10.272623089609638,1.7924718547859453,0.2921401034999995,-0.2561496980000002,0.04785645199999955
200422.0,-3.0507507484999996,-4.0815277299999995,8.729291431,0.9712495487960644,-1.4985466770793392,0.2353698669361993,10.10774344883972,1.8012125925841327,0.21790376300000025,0.1627903900000005,-0.035892339000000106
200432.0,-2.9478789899999995,-3.627872101,8.6658424055,0.9952321180477185,-1.382368835420337,0.16742245382680804,9.846231315475967,1.7115667804618424,0.10287175850000008,0.45365562899999956,-0.06344902550000064
200442.0,-2.8616785365,-3.4290913054999996,8.683788575,0.9989618866592305,-1.2216920791524868,0.12132481762313381,9.765042511070854,1.5827748098301861,0.08620045349999961,0.19878079550000027,0.017946169500000053
200452.0,-2.813724018,-3.353678167,8.831084458,1.0133521263419236,-1.0844638213851807,0.06856525966459724,9.85658423601258,1.4858147619026811,0.0479545185000001,0.07541313849999964,0.14729588299999996
200462.0,-2.8592268739999995,-3.4422322165,9.1040035275,1.0509220838203537,-1.0029255293905095,-0.001514945790731078,10.14430979308335,1.4526868688142318,-0.0455028559999997,-0.0885540494999999,0.27291906950000033
200472.0,-2.8030347694999995,-3.8493062579999995,9.4033024855,1.1026152456059217,-0.962156383393174,-0.08358556320726045,10.540221070770496,1.4657734587321174,0.056192104500000006,-0.4070740414999996,0.2992989579999996
200482.0,-2.7239931705,-4.1198717315,9.73604212,1.1652341685089744,-0.9176574687843266,-0.19070340071916042,10.917142393472641,1.4954041876771347,0.07904159899999952,-0.2705654735000005,0.3327396345000011
200492.0,-2.7203647099999997,-4.095845439,10.041323134499999,1.2195924480623377,-0.8505094164723488,-0.2991529244503321,11.18054132441875,1.51666228247623,0.003628460500000319,0.024026292500000324,0.30528101449999845
200502.0,-2.7407625419999997,-3.8253780319999997,10.401619455499999,1.2489035075203303,-0.7788304894221936,-0.39081587143582225,11.416609991428041,1.5228505992763501,-0.020397832000000005,0.27046740699999994,0.36029632099999986
200512.0,-2.7143826534999995,-3.5320611305,10.7009184135,1.2494375782714409,-0.712214762532074,-0.4523701434951583,11.591073458122592,1.507641494749747,0.02637988850000017,0.2933169014999999,0.2992989580000014
200522.0,-2.786265398,-3.330926739,11.074453712,1.2337156523694757,-0.6626526477631911,-0.4870096931594898,11.895455973938446,1.4826804388405173,-0.07188274450000032,0.20113439149999968,0.3735352985000002
200532.0,-2.8605017385,-3.5200970175,11.467111977999998,1.2185277972186213,-0.6602545653709508,-0.5072607484703799,12.331593989609168,1.4758250406556934,-0.07423634050000016,-0.1891702784999998,0.392658265999998
200542.0,-2.9621966989999997,-3.7654594004999997,11.732872193,1.20840139689855,-0.7066192369501803,-0.5522937338303376,12.673341456681934,1.5048498431679747,-0.10169496049999971,-0.2453623829999998,0.265760215000002
200552.0,-3.063989726,-3.8493062579999995,11.918414011,1.204671628287038,-0.787623458193741,-0.6250373117242093,12.893943704178042,1.569157762923868,-0.10179302700000026,-0.08384685749999976,0.18554181799999903
200562.0,-2.9777892724999995,-3.7068156334999998,12.102779030999999,1.2227898912519912,-0.886747687731507,-0.7185660156800814,13.00326771874629,1.6726845783756057,0.0862004535000005,0.14249062449999972,0.18436501999999955
200572.0,-2.612687693,-3.5081329044999996,12.1230787965,1.2417092603436097,-0.9757472622784539,-0.8056980879273944,12.888063196731196,1.7728716862640768,0.36510157949999966,0.19868272900000017,0.020299765500000788
200582.0,-2.0655746895,-3.086741154,11.9483242935,1.2409098995461965,-1.0119855335376122,-0.8701827678008288,12.512274899966934,1.8224132759225247,0.5471130034999998,0.4213917504999998,-0.17475450299999906
200592.0,-1.5772035194999998,-2.6737831224999997,11.7423846435,1.2211911696571645,-0.9813427878603477,-0.8888351015168922,12.145792861892287,1.801213307141244,0.4883711700000002,0.4129580315000001,-0.20593965000000125
200602.0,-1.0324441119999999,-2.380466221,11.594010029,1.1633701568678443,-0.8992721704438184,-0.8608557282781711,11.880809266471626,1.703875917822301,0.5447594075,0.2933169014999999,-0.14837461449999978
200612.0,-0.763153503,-2.106272287,11.426414380499999,1.1090118773144808,-0.7700375206506462,-0.8038340762862644,11.643956879472826,1.571309756042193,0.2692906089999999,0.2741939339999999,-0.16759564850000075
200622.0,-0.6638121385,-2.1565804015,11.329426612,1.0631795311571097,-0.6445343847982379,-0.7537378907662712,11.551943253844684,1.4539243778943531,0.09934136449999997,-0.050308114499999945,-0.09698776849999824
200632.0,-0.48425237699999996,-2.5456102069999997,11.329426612,0.99416572187475,-0.5160990958024793,-0.7425468396024836,11.62198515948573,1.343912038878481,0.17955976150000003,-0.3890298054999999,0.0
200642.0,-0.36088472,-2.8401039064999996,11.2887290145,0.9038344611085315,-0.3860650852118937,-0.7905102327765398,11.646107965481866,1.2612967181561345,0.12336765699999996,-0.2944936994999998,-0.04069759750000124
200652.0,-0.15259147399999998,-2.90472973,11.210864213499999,0.8292251262442779,-0.26668980036323753,-0.8779093403994077,11.582064383166687,1.2367144252304754,0.20829324600000002,-0.06462582350000057,-0.07786480100000048
200662.0,0.11316874099999999,-2.7683192285,11.218121134499999,0.7889900509980526,-0.17609324955071587,-0.9645108325541144,11.555199708492186,1.2584892845095947,0.26576021499999997,0.13641050150000034,0.00725692099999975
200672.0,0.5237731765,-2.6857472355,11.3509031755,0.774067485893501,-0.15557515886427056,-1.00954207258482,11.67606866428049,1.2816236963680028,0.41060443550000003,0.08257199299999973,0.13278204100000046
200682.0,0.8217972699999999,-2.405571245,11.410821807,0.7799300468509501,-0.17529388875330248,-0.9972846252480639,11.690550803057016,1.2781218444152154,0.2980240934999999,0.2801759905000001,0.05991863150000043
200692.0,0.8517075525,-2.173349773,11.548507172999999,0.7980500551451551,-0.20833471682280713,-0.9293372121386727,11.782057244624859,1.2425598169168777,0.02991028250000005,0.23222147199999998,0.13768536599999948
200702.0,0.902015667,-2.3133887349999998,11.7292437325,0.805511337697431,-0.26269299637617055,-0.8366078689802139,11.989185053168914,1.1907009918295233,0.050308114500000056,-0.14003896199999977,0.18073655950000145
200712.0,0.9523237815,-2.5947415234999998,11.817797781999998,0.8095081416844979,-0.2941351028508484,-0.7603998125211335,12.136719020181264,1.148924177247891,0.050308114499999945,-0.2813527885,0.08855404949999723
200722.0,0.9068209254999999,-2.6952596859999995,11.9387137765,0.8009804629592537,-0.2858744595011592,-0.7228281097134516,12.272719160931386,1.1161426364176856,-0.045502856000000036,-0.10051816249999979,0.12091599450000245
200732.0,0.902015667,-2.6844723709999996,12.078752738499999,0.7607453877130284,-0.2360470546859731,-0.7289577060464556,12.40630049176615,1.0797365855416214,-0.004805258499999909,0.010787314999999964,0.14003896199999843
200742.0,0.9858625244999999,-2.7000649445000002,12.0393300055,0.7135813553363856,-0.1686319669984401,-0.7729242952334449,12.37771152528059,1.065385872414119,0.08384685749999987,-0.01559257350000065,-0.039422732999998544
200752.0,1.215632334,-2.6545620884999996,11.906449898,0.6906651822577001,-0.1102768834580097,-0.8352761827609422,12.259201076201988,1.08943365401293,0.22976980950000003,0.04550285600000059,-0.13288010750000012
200762.0,1.6094673979999998,-2.3205475895,11.929103259499998,0.6432341145055022,-0.05858197634318967,-0.8877687053439237,12.258826656583926,1.097868502236938,0.3938350639999999,0.3340144989999998,0.02265336149999797
200772.0,2.1685445144999997,-1.7351886509999999,11.9614652045,0.5294561005679919,0.01123119373658351,-0.8845712621542701,12.279662650268184,1.0309782829771976,0.5590771164999999,0.5853589385,0.03236194500000167
200782.0,2.6641726055,-1.3114433044999998,11.7986748145,0.40288656854261506,0.10582454853617218,-0.8176902452178474,12.166611138321597,0.9176784618314583,0.4956280910000004,0.42374534650000006,-0.16279038999999962
200792.0,2.8736426495,-1.074416574,11.529286138999998,0.329341884522078,0.17856812643004383,-0.7143021763174592,11.930491688377675,0.8065855514259777,0.2094700439999997,0.23702673049999978,-0.2693886755000019
200802.0,2.90472973,-0.9068209254999999,11.3246213535,0.2989644288911167,0.1953564485049773,-0.6010547424725552,11.726330534119302,0.6991499661470485,0.031087080500000308,0.16759564850000008,-0.20466478549999856
200812.0,2.843732367,-0.773940818,11.1953697065,0.3029629782074357,0.1759047539915005,-0.4979337089477222,11.576791482535556,0.6088242990777917,-0.06099736300000025,0.1328801074999999,-0.12925164700000025
200822.0,2.731152025,-0.8146384155,11.1259386245,0.3072250722408058,0.12980711778782628,-0.4203939662693702,11.485179032466622,0.5366267042530061,-0.11258034199999978,-0.040697597500000016,-0.06943108199999948
200832.0,2.7743012849999995,-0.98458766,11.003747765499998,0.2931036132629197,0.06718819488477372,-0.3748286554875542,11.390725410039659,0.48054188434959666,0.04314925999999941,-0.16994924449999993,-0.1221908590000016
200842.0,2.7946010505,-0.967916355,10.840957375499999,0.2531338280629976,0.021355848727402617,-0.35351120400369546,11.23712658641612,0.4353193983052413,0.020299765500000344,0.016671305000000025,-0.16279038999999962
200852.0,2.819804141,-0.8613180695,10.571666766499998,0.19824322308777592,-0.009286896949861827,-0.3313961370516753,10.97512197801776,0.3862771305785004,0.025203090500000247,0.10659828549999995,-0.26929060900000046
200862.0,2.911986651,-0.7056865339999999,10.301101292999999,0.13935406879623524,-0.0047577675409365425,-0.29302507344658,10.72801694576017,0.32450868479967226,0.09218250999999977,0.15563153550000008,-0.2705654734999996
200872.0,2.8963940774999997,-0.578788483,10.072410214999998,0.07247305185981254,0.03840946084863921,-0.23280423293576763,10.496549066215373,0.24683079386772103,-0.015592573500000206,0.12689805099999996,-0.22869107800000066
200882.0,2.775478083,-0.48062391649999997,9.850976058,0.03196919590878013,0.08850390103938045,-0.16299106285599443,10.245779971950128,0.18820482607300257,-0.12091599449999979,0.0981645665,-0.22143415699999736
200892.0,2.5623795785,-0.45306722999999993,9.7265296695,0.02690774107799658,0.12954008241227113,-0.09077981038398106,10.068586714672396,0.16045445912984174,-0.2130985045,0.02755668650000004,-0.12444638850000089
200902.0,2.369678906,-0.540542548,9.9599279395,0.045560074794059977,0.16311498123288606,-0.03029367982686558,10.252206051566288,0.17204628608400052,-0.1927006725,-0.08747531800000008,0.23339827000000035
200912.0,2.1685445144999997,-0.715297051,10.407601512,0.06820921249719039,0.1705745184559098,0.01447227015753698,10.655158582354465,0.18427590623699322,-0.20113439150000012,-0.17475450299999995,0.4476735724999994
200922.0,1.6682092315000001,-0.8457254959999999,11.0145350805,0.04635943559147338,0.11515158805882987,0.04484972578849829,11.172204647884472,0.13198705771451194,-0.5003352829999996,-0.13042844499999995,0.6069335685000006
200932.0,1.0049854919999999,-1.0456830895,11.665794707,-0.025851816880540012,-0.09348856138307625,0.04111821184773441,11.75560356207481,0.10535243182317794,-0.6632237395000002,-0.19995759350000009,0.6512596264999999
200942.0,0.841018304,-1.123449824,11.0565075425,-0.12364436019903428,-0.24910386282014269,0.015006340908647246,11.145214683085655,0.2785064676958356,-0.16396718799999987,-0.07776673449999993,-0.6092871644999995
200952.0,0.948695321,-1.1594402295,10.0077843915,-0.21504027180896934,-0.2384451370782133,-0.0036459928074161546,10.1192921138102,0.3211100981898188,0.10767701699999999,-0.03599040549999999,-1.0487231510000008
