timestamp,ax,ay,az,gx,gy,gz,acc_mag,gyro_mag,dax,day,daz
184322.0,-1.1790535295,3.175001004,9.591492099,-0.09790249906136993,0.1593695046581062,0.19130728464035046,10.171898509423245,0.26754815546719013,0.0,0.0,0.0
184332.0,-1.2245563855,2.8733484499999995,8.870899457,0.0076166168557032544,0.1617675870503464,0.11243411041347472,9.404707695223129,0.19715018198542808,-0.045502855999999925,-0.30165255400000035,-0.7205926419999997
184342.0,-1.0868710195,2.7021243409999998,9.158136235499999,0.07903025385955524,0.24143837674538357,0.03436029698401236,9.61011050275863,0.25635697922892803,0.13768536599999992,-0.17122410899999974,0.28723677849999874
184352.0,-1.3179156935,3.0421208964999997,9.1461721225,0.1168672467135403,0.31125154682515677,-0.046643924259548455,9.728507892708505,0.3357247897099449,-0.23104467400000006,0.33999655549999996,-0.011964112999999443
184362.0,-1.522580479,3.1798062624999996,9.150977380999999,0.14058278058963927,0.3592149399992129,-0.10846348636518761,9.806620529501469,0.40070340551515654,-0.2046647854999999,0.13768536599999992,0.004805258499999354
184372.0,-1.697334982,3.1438158569999994,9.244336689,0.2008036211004516,0.3477585987891222,-0.13644111427465672,9.91071566555297,0.42411592158670175,-0.17475450300000017,-0.03599040550000021,0.09335930800000192
184382.0,-1.915238745,3.0839952919999996,9.280229028,0.3289718747206552,0.25662797722549024,-0.15429408719330673,9.965029715136888,0.4448450049116939,-0.2179037629999998,-0.05982056499999988,0.035892339000000106
184392.0,-2.1522654754999997,3.0768364374999995,9.2730701735,0.49124735258333196,0.12712629205676299,-0.17747729564754738,10.00444898946525,0.5375716194355882,-0.23702673049999978,-0.007158854500000089,-0.007158854500000089
184402.0,-2.3593819235,3.1366570025000002,9.30062686,0.6455292224718747,-0.009035569537574645,-0.21504899845522932,10.094897731092885,0.6804672588145654,-0.20711644800000029,0.05982056500000077,0.02755668649999876
184412.0,-2.5676751694999997,3.1869651169999997,9.4897971385,0.7763625938598737,-0.10842683445089572,-0.2590138423129665,10.334696520117292,0.8255806599500738,-0.20829324599999977,0.0503081144999995,0.18917027850000068
184422.0,-2.7640043024999996,3.189318713,9.723195408499999,0.8613636190905015,-0.16118639240943233,-0.321632765216019,10.599622756928943,0.9334752128745343,-0.19632913299999988,0.002353596000000291,0.23339826999999858
184432.0,-2.9160073774999997,3.213246939,9.830970492,0.8589655366982613,-0.15425743527901484,-0.4196905985808165,10.7459776535782,0.9683787214263413,-0.1520030750000001,0.023928225999999775,0.10777508350000176
184442.0,-3.1183185669999998,3.222857456,10.0093534555,0.7926150998544448,-0.0996321203500963,-0.5499916445469571,10.96803890693872,0.9698742521555018,-0.20231118950000004,0.00961051700000004,0.17838296349999894
184452.0,-3.392512501,3.254042603,10.196072071499998,0.7422536242881485,-0.07272088861359573,-0.6864205415168498,11.227547373260224,1.013608371229208,-0.27419393400000036,0.03118514699999997,0.1867186159999985
184462.0,-3.5408871155,3.4120277345,10.397206462999998,0.7646374719449757,-0.14013423097187672,-0.8180532737022622,11.501378919936515,1.1285030902959332,-0.14837461449999978,0.15798513150000026,0.20113439150000012
184472.0,-3.408007008,3.6897520624999993,10.612658563499998,0.842444249998883,-0.2885552852322225,-0.9411583271624302,11.741265001469388,1.2956679604662662,0.13288010750000012,0.27772432799999924,0.2154521005000003
184482.0,-3.2691448439999995,4.0500483835,10.734751356,0.9346412677354834,-0.45349413553344264,-1.005908297082168,11.930007820403413,1.4460507364737114,0.1388621640000003,0.36029632100000075,0.12209279250000193
184492.0,-3.084779824,4.4283889405,10.709646331999998,1.006852520207497,-0.5864602992673786,-1.0104391718203452,11.992623554811566,1.542295367306132,0.18436501999999955,0.3783405569999996,-0.02510502400000192
184502.0,-2.8214712715,4.5456764745,10.666497071999999,1.0366959050873479,-0.6011158289963751,-0.9893887557120415,11.933064758632089,1.554016972051559,0.26330855249999985,0.11728753399999992,-0.043149259999999856
184512.0,-2.652698825,4.5360659575,10.648550902499998,1.005519088658973,-0.5022568895049122,-0.972335143590805,11.874524906289105,1.486191862504459,0.16877244650000023,-0.009610516999999597,-0.017946169500000053
184522.0,-2.6179832839999997,4.44633511,10.861649407,0.911990384703101,-0.3136025053275931,-0.9656732218359426,12.02493909449464,1.3647702240705806,0.03471554100000018,-0.08973084750000027,0.21309850450000134
184532.0,-2.7041837374999997,4.367293511,11.232733043,0.77502916231135,-0.10229723811789165,-0.9840585201764508,12.35152435583099,1.2567840301704378,-0.08620045350000005,-0.07904159899999996,0.37108363599999983
184542.0,-2.9016896684999995,4.3146318005,11.6996276495,0.6090239158371613,0.06557376532667895,-1.0256270269711998,12.803012834606955,1.1946216334951123,-0.1975059309999998,-0.05266171049999979,0.46689460650000036
184552.0,-3.15185731,4.2655004839999995,12.130531850499999,0.44621436722337426,0.15643735151475577,-1.0759885025374962,13.239278751412389,1.1753004569293721,-0.2501676415000005,-0.049131316500000466,0.4309042009999988
184562.0,-3.4487046054999997,4.220095694499999,12.457387494999999,0.33163524715919857,0.17295863821413407,-1.1386074254405487,13.597399542828647,1.1984671447142743,-0.29684729549999966,-0.04540478950000004,0.32685564450000015
184572.0,-3.5456923739999997,4.16978758,12.8859381,0.28846976409887476,0.11513588009556193,-1.218279960464838,14.000230840611009,1.257249831081654,-0.09698776850000002,-0.05030811449999906,0.42855060500000164
184582.0,-3.464297179,4.1673359175,13.3096834465,0.30632273701752477,-0.030085985645878253,-1.2864944089497843,14.370654718548804,1.3228025740847522,0.08139519499999981,-0.0024516625000003955,0.42374534649999873
184592.0,-3.2943479344999997,4.3337547679999995,13.662820913,0.3263067569528599,-0.23419700567885912,-1.3128733152644265,14.707373456991471,1.3729387018492276,0.16994924450000015,0.1664188504999995,0.3531374664999998
184602.0,-3.1171417689999994,4.540871216,13.816098852499998,0.29566401127559544,-0.44470116676189525,-1.3040803464928792,14.873488888300335,1.4091848301028345,0.17720616550000035,0.20711644800000073,0.1532779394999988
184612.0,-2.888450691,4.659433614499999,13.7358804555,0.19174361695334904,-0.6053779230297451,-1.2657092828877838,14.789451676450273,1.4160748684735804,0.22869107799999933,0.11856239849999906,-0.08021839699999767
184622.0,-2.7065373335,4.676104919499999,13.454527666999999,0.01987406419245943,-0.6560064339715966,-1.2113510033344204,14.498814306620725,1.377719373863547,0.18191335750000004,0.016671305000000025,-0.28135278850000134
184632.0,-2.7017320750000002,4.555286991499999,13.1708212825,-0.17544224173972198,-0.5861932638918235,-1.166852088725573,14.19579265259844,1.3175531563402063,0.004805258499999798,-0.12081792800000013,-0.2837063844999985
184642.0,-2.8238248674999995,4.3277727115,13.043923231499999,-0.35930220646181266,-0.4399050019774148,-1.1679184848985413,14.03023651953098,1.2987101576952345,-0.12209279249999927,-0.2275142799999994,-0.1268980510000013
184652.0,-3.0573212039999995,4.200874660499999,13.1217880325,-0.49226662486649664,-0.2731003947058127,-1.2379969450246178,14.112968576012603,1.359980401122093,-0.2334963365,-0.1268980510000004,0.07786480100000048
184662.0,-3.137539601,4.137425635,13.440209957999999,-0.570340438295959,-0.1579872038905267,-1.3552411828565891,14.408389547347777,1.4788261682359087,-0.08021839700000033,-0.06344902549999976,0.31842192549999915
184672.0,-3.1470520514999993,4.3146318005,13.831691425999999,-0.6369561651860786,-0.10469532051013185,-1.4775468755193437,14.82685644001513,1.6123954340862694,-0.009512450499999492,0.17720616550000035,0.3914814680000003
184682.0,-2.9974025724999995,4.5480300705,14.284170257,-0.7062352645147415,-0.12707916816695913,-1.58146726984159,15.28746282529463,1.7366508254126463,0.1496494789999998,0.23339827000000035,0.4524788310000005
184692.0,-2.6454419039999997,4.6965027515,14.6971282885,-0.7789805877378652,-0.21580996200909885,-1.6467513105124378,15.65442687839172,1.8344412158609036,0.35196066849999985,0.14847268099999944,0.41295803150000054
184702.0,-2.2085556465,4.877239310999999,14.9605349075,-0.8818345858871429,-0.3290573958540029,-1.6550119538621269,15.889706921745812,1.9039368618889392,0.4368862574999999,0.18073655949999967,0.2634066189999995
184712.0,-1.7931459525,5.121424896,15.155687242499999,-1.0132002826970001,-0.4657515828701988,-1.6222364158389255,16.097801749456757,1.9685401541948033,0.41540969399999983,0.24418558500000032,0.1951523349999995
184722.0,-1.3981340905,5.293825802999999,15.152058782,-1.1368394069082786,-0.594986232663371,-1.5588181321384595,16.110997979663154,2.0189914371393836,0.39501186200000005,0.17240090699999921,-0.003628460499999875
184732.0,-0.9480088555,5.3860083130000005,15.137643006499998,-1.2468876522342769,-0.6629336457727621,-1.4820777502575206,16.09521798951632,2.0471356315105913,0.4501252349999999,0.09218251000000155,-0.014415775500001615
184742.0,-0.5182814525,5.4471037424999995,15.1221484995,-1.3707920664918583,-0.6384204964285018,-1.4103988232073656,16.081633315260397,2.0678192523336647,0.429727403,0.06109542949999902,-0.015494506999997881
184752.0,-0.15906386299999997,5.511729566,15.186774323,-1.5181467245792357,-0.5318349843384601,-1.349113331852837,16.156812137886703,2.0994581944158868,0.35921758950000005,0.06462582350000012,0.06462582350000012
184762.0,0.20240925599999998,5.6002836154999995,15.342405858499998,-1.6921473243568104,-0.38847887556740185,-1.2811641734141936,16.333816565882184,2.1576978572844947,0.36147311899999995,0.0885540494999999,0.15563153549999775
184772.0,0.5304416985,5.6542201905,15.428606312,-1.9050495678320867,-0.24698677843747358,-1.1953637873861525,16.44060421909279,2.26254522801519,0.3280324425,0.05393657500000071,0.08620045350000183
184782.0,0.814148083,5.636274021,15.595025162499999,-2.1214180352018235,-0.13906958012816018,-1.091443393063906,16.60226586222074,2.3897705974547936,0.28370638449999996,-0.017946169500000053,0.1664188504999995
184792.0,1.1217826935,5.3788494585,15.6668098405,-2.3082084077380127,-0.10709340290237206,-0.978462994594557,16.602389842641013,2.5093196054485785,0.30763461049999996,-0.2574245624999998,0.07178467800000021
184802.0,1.4893359355,5.152610042999999,15.647686873,-2.477145807355552,-0.14812958427526274,-0.8761413218671374,16.541391001347275,2.6316947658343373,0.36755324200000006,-0.22623941550000115,-0.019122967499999532
184812.0,1.9094528214999997,4.9718734835000005,15.5387349915,-2.621568312299579,-0.24592038226450502,-0.7895415750416829,16.426132263851137,2.7489039905361707,0.42011688599999975,-0.18073655949999878,-0.10895188149999946
184822.0,2.585817472,4.7408288095,15.535106531,-2.701773172745726,-0.3802182322177127,-0.7117347969877756,16.446928124394674,2.8197004454946093,0.6763646505000003,-0.2310446740000005,-0.003628460499999875
184832.0,3.4286009729999996,4.554012127,15.5171603615,-2.739610165599711,-0.5499549926326652,-0.6315299365416281,16.531079721827805,2.8647415963969847,0.8427835009999995,-0.18681668249999994,-0.017946169500000053
184842.0,4.3001179585,4.5001736185,15.347211116999999,-2.8056935670679723,-0.7055685487404796,-0.5284089030167952,16.561384788822036,2.940911310809247,0.8715169855,-0.05383850850000016,-0.16994924450000148
184852.0,5.024339061,4.4631044815,14.9713222225,-2.9365269384559713,-0.7684527616898353,-0.37652511552049267,16.41047755863912,3.0586731224248296,0.7242211025000005,-0.037069136999999586,-0.3758888944999992
184862.0,5.345212649,4.588727668,14.4517659055,-3.1225179501947475,-0.733813212025504,-0.18573793899723653,16.077352321245886,3.212957945789913,0.32087358799999954,0.12562318649999948,-0.5195563169999993
184872.0,5.163201224999999,4.727589832,13.740685714,-3.349011072555303,-0.6549400377986282,0.009313076888641742,15.421257938326399,3.4124636775518686,-0.1820114240000006,0.13886216399999984,-0.7110801915000007
184882.0,4.7633841045,4.6366821865,12.923007236999998,-3.5755041949158595,-0.5909894286763039,0.174520707894669,14.532472806551679,3.628216673539786,-0.39981712049999896,-0.09090764549999975,-0.8176784770000012
184892.0,4.330028241,4.439078189,12.034818946499998,-3.7252551900662247,-0.571270698787272,0.271779180462053,13.538516418387518,3.7785897323394173,-0.4333558635000001,-0.1976039974999999,-0.8881882905000005
184902.0,3.9672802575,4.2272545489999995,11.199194299999998,-3.735381590386296,-0.6099087977679224,0.30455297315600255,12.610747267023589,3.797080046673987,-0.3627479834999998,-0.21182364000000042,-0.8356246464999995
184912.0,3.645327938,4.230784943,10.283449323000001,-3.6048135090446003,-0.6946427876229951,0.303488322312286,11.702020636974968,3.6836550054486668,-0.32195231950000025,0.0035303940000002143,-0.9157449769999975
184922.0,3.496855257,4.2595184275,9.5472641075,-3.3775210258866304,-0.7847070130136585,0.29549471433815194,11.023690210677112,3.480047485707757,-0.14847268099999988,0.028733484500000017,-0.7361852155000008
184932.0,3.462139716,4.3050212834999995,9.02407933,-3.1238496364140187,-0.8395993633181322,0.3098832086915932,10.58081411889585,3.249521694778665,-0.03471554100000018,0.0455028559999997,-0.5231847775000009
184942.0,3.3747624645,4.343365285,8.642208379,-2.92160437335142,-0.8611821048482942,0.36504084904237,10.244101198094397,3.067680158290081,-0.08737725149999997,0.0383440015000005,-0.3818709509999998
184952.0,3.292092405,4.3493473415,8.386058681,-2.8006303669079373,-0.8774363561721173,0.46389804320458083,10.004032931835402,2.971300456983193,-0.08267005949999984,0.005982056499999722,-0.25614969799999976
184962.0,3.1664692185,4.290703574499999,8.1262805225,-2.731084232203719,-0.9051486940352832,0.591266936027371,9.719727342178789,2.93729668766108,-0.12562318649999993,-0.0586437670000004,-0.25977815849999963
184972.0,3.0083860204999997,4.089569183,7.812663855499999,-2.6660672269084262,-0.9757612249124697,0.7548758454385714,9.317332186303075,2.937662670979169,-0.15808319800000037,-0.20113439149999923,-0.3136166670000007
184982.0,2.8216674045,3.8417551375,7.290655876,-2.60025086081572,-1.0599628893456843,0.9312727822791343,8.710600012650032,2.9583939664921006,-0.18671861599999984,-0.2478140455000002,-0.5220079794999997
184992.0,2.597781585,3.556871955,6.779533278,-2.5381642633345254,-1.1252469300165322,1.091417213125126,8.084669364614738,2.9832281197196338,-0.22388581949999997,-0.2848831824999998,-0.511122598
185002.0,2.3225089195,3.1869651169999997,6.24683605,-2.455828355871693,-1.1915956215310965,1.2366390788665664,7.38740515835645,2.996709737384569,-0.27527266549999974,-0.36990683800000035,-0.532697228
185012.0,2.0579255025,2.8087226265,5.703351507,-2.3540390085661316,-1.2451545402870465,1.36720541487901,6.682230060305624,2.9935196891824427,-0.2645834170000003,-0.3782424904999999,-0.5434845429999999
185022.0,1.7107700924999998,2.4423461824999997,5.212528674499999,-2.247188206429787,-1.259543034640488,1.4548715578774334,6.005184790416486,2.958539291804184,-0.34715541000000005,-0.36637644400000013,-0.490822832500001
185032.0,1.45334553,2.0018314645,4.712095325,-2.14033565896419,-1.265672630973492,1.4785870917535322,5.32197188960258,2.8929541527181524,-0.2574245624999998,-0.44051471799999975,-0.5004333494999988
185042.0,1.3288991414999998,1.5588650839999998,4.281191123999999,-2.0401467785827077,-1.234230524498814,1.4538069070337167,4.746012085805318,2.7926830089906303,-0.12444638850000023,-0.44296638050000015,-0.4309042010000006
185052.0,1.1923905735,1.4500112689999998,3.9004969709999995,-1.9391567920745598,-1.1612199112293873,1.3954518234932864,4.328764786954682,2.656321994445557,-0.13650856799999977,-0.10885381500000002,-0.38069415299999987
185062.0,1.233088171,1.4679574384999998,3.5844286414999997,-1.834171746908597,-1.099400349123748,1.3544156421203957,4.06491502552183,2.5312662555392227,0.040697597499999905,0.017946169500000053,-0.31606832949999975
185072.0,1.449815136,1.5169906885,3.307979178,-1.7361121682145475,-1.0391795086129358,1.38319437615653,3.91739083059783,2.450960259566583,0.2167269650000001,0.04903325000000014,-0.27644946349999966
185082.0,1.625746437,1.5840681745,3.007503422,-1.6407194526175453,-0.9770929111317415,1.486048374305808,3.7679437750879017,2.4197129271792663,0.1759313010000001,0.06707748600000007,-0.300475756
185092.0,1.6029950089999998,1.3458646459999999,2.7429200049999998,-1.5418622584553348,-0.930195914130654,1.5926338863958496,3.450297783968916,2.403973036207082,-0.022751428000000296,-0.23820352850000015,-0.2645834170000003
185102.0,1.381560852,1.0896168815,2.545414074,-1.4238186598259501,-0.9182055021694527,1.7130738220882222,3.094367163790688,2.409353199555178,-0.2214341569999998,-0.25624776449999986,-0.1975059309999998
185112.0,1.048723151,0.837095644,2.2868127135,-1.2676727782962773,-0.950446969441544,1.8231238127434728,2.6514263616537375,2.415393166990897,-0.3328377010000001,-0.2525212375,-0.25860136050000015
185122.0,0.7614863725,0.4731708625,2.073714209,-1.0790166487897064,-1.0125335669227384,1.8998641946244115,2.2592128676224155,2.4081082015820043,-0.28723677849999996,-0.3639247815,-0.2130985045
185132.0,0.44424124499999995,0.22418001899999998,1.9755496424999999,-0.8677113815800048,-1.0727544074335507,1.9539571841314718,2.0372538758485326,2.3920020354946563,-0.3172451275,-0.24899084350000003,-0.09816456649999994
185142.0,0.1856398845,0.0373633365,1.955249877,-0.6564078596995554,-1.122848847624292,1.9976567379429058,1.9643981946489617,2.3837561233346087,-0.25860136049999993,-0.1868166825,-0.0202997654999999
185152.0,-0.035794272499999995,-0.09787036699999999,1.8918008514999998,-0.478942781356772,-1.1383037381507017,2.031763962185379,1.8946689157783327,2.377643031688494,-0.221434157,-0.13523370349999997,-0.0634490255000002
185162.0,-0.14955141249999998,-0.25467870049999997,1.9420108995,-0.3409151627920524,-1.1124571572579176,2.061340311689675,1.96434039800792,2.3670462512491777,-0.11375713999999998,-0.15680833349999998,0.050210048000000285
185172.0,-0.36382671499999997,-0.36127698599999997,1.9863369575,-0.22713540352529005,-1.0719550466361374,2.105839226298522,2.0514447221144643,2.373865404895745,-0.2142753025,-0.1065982855,0.044326058
185182.0,-0.6151711544999999,-0.3900104705,2.025857757,-0.12694652314380755,-1.0538350383419322,2.149540525439208,2.1528221868109694,2.3973335559076694,-0.25134443949999996,-0.028733484500000017,0.03952079949999976
185192.0,-0.840233772,-0.47856452,1.980354901,-0.017163567864112238,-1.0604969600967946,2.186311122120225,2.203819939406779,2.4300009697823097,-0.22506261750000012,-0.08855404950000001,-0.045502855999999925
185202.0,-1.1287454149999998,-0.465423609,1.8798367384999999,0.13178981181809182,-1.1041965139082286,2.212424738388564,2.241533294669616,2.4761748158924157,-0.28851164299999976,0.013140910999999977,-0.10051816250000001
185212.0,-1.338215459,-0.49288222899999995,1.851103254,0.326573792328415,-1.1601535150564188,2.228946025087942,2.3367363487008923,2.5339311362167805,-0.20947004400000013,-0.027458619999999934,-0.028733484499999795
185222.0,-1.5130680285,-0.607816167,1.8498283894999998,0.5386766750062779,-1.188398178341443,2.230544746682769,2.4659035711754043,2.5841425381420384,-0.17485256950000005,-0.11493393800000001,-0.00127486450000025
185232.0,-1.7093971614999999,-0.628213999,1.9408341015,0.7185398357413015,-1.1756084055828284,2.220685381738253,2.6614899011322852,2.6133882573184772,-0.19632913299999988,-0.020397832000000005,0.09100571200000007
185242.0,-1.846984461,-0.6689115965,2.0449807245,0.8515042541459855,-1.134572224209938,2.188176879090607,2.835619947504281,2.6077637318139284,-0.13758729950000004,-0.040697597500000016,0.10414662299999988
185252.0,-1.9069030925,-0.7586424439999999,2.1371632345,0.9447659227263026,-1.0799486546102712,2.141012846713964,2.962985732824723,2.5773644979190755,-0.059918631499999986,-0.08973084749999993,0.09218251000000022
185262.0,-2.0397831999999996,-0.7036271374999999,2.3227050525,1.039093987479588,-1.01386525314201,2.089052649552841,3.1702942154534663,2.5439693470929807,-0.13288010749999968,0.05501530649999997,0.18554181799999991
185272.0,-2.167858049,-0.6210551445,2.546590872,1.141947985628866,-0.9603063343860601,2.0349614053750327,3.4015354007385725,2.523351219927528,-0.12807484900000032,0.08257199299999995,0.22388581949999997
185282.0,-2.3402589559999996,-0.50013915,2.7585125784999995,1.255460709520073,-0.9280648671139687,1.9987213887866222,3.651895781131171,2.536212369008762,-0.17240090699999966,0.12091599450000001,0.21192170649999964
185292.0,-2.6143548235,-0.47738772199999996,2.9787699375,1.3817649514991468,-0.9360584750881028,1.958486313540397,3.9919695039952168,2.573159243090244,-0.27409586750000026,0.022751428000000018,0.22025735900000054
185302.0,-2.8106839564999997,-0.236732531,3.2767940309999997,1.5376455429825162,-0.9936141978311199,1.9401010151998888,4.323582509465662,2.6675110007580503,-0.19632913299999988,0.24065519099999996,0.2980240934999996
185312.0,-2.9866152574999996,-0.167301449,3.494697794,1.7212384723290517,-1.089008658757374,1.9313063010990892,4.6000840364669155,2.80687473289052,-0.17593130099999987,0.069431082,0.21790376300000025
185322.0,-3.1446984555,-0.0344213415,3.5246080765,1.8712565028549726,-1.1905309706873801,1.9190505990915852,4.723682387471005,2.932868918570455,-0.15808319800000037,0.13288010749999998,0.02991028249999994
185332.0,-3.2643395854999997,-0.06560648849999999,3.5916855625,2.0266030235872314,-1.2483519834767003,1.8860080256928284,4.853907943159466,3.0368616634349483,-0.11964112999999976,-0.03118514699999999,0.06707748600000007
185342.0,-3.4427225489999995,-0.2619356215,3.7795809764999997,2.198205540972566,-1.2552809406071177,1.8441742288517764,5.11919731765873,3.131903004017689,-0.17838296349999982,-0.196329133,0.18789541399999976
185352.0,-3.6438569405,-0.39481572899999995,4.1315416449999995,2.3612803796326567,-1.2312983713554635,1.7836863529654088,5.522971050717641,3.2051954256013473,-0.20113439150000056,-0.13288010749999996,0.35196066849999985
185362.0,-3.9562968095,-0.42109755099999996,4.641487445,2.500639684416648,-1.2254358103980145,1.688293637368407,6.113347143293165,3.2565667754037957,-0.31243986899999987,-0.02628182200000001,0.5099458000000006
185372.0,-4.271188340999999,-0.4402205185,5.023358396,2.621880726235686,-1.265672630973492,1.5721157957094043,6.6084017374752895,3.3087359862220107,-0.3148915314999994,-0.019122967500000032,0.3818709509999998
185382.0,-4.4662426095,-0.42707960749999996,5.231651641999999,2.7148753594404478,-1.3040436945785872,1.4252952083731372,6.892017044472324,3.3320481097484915,-0.19505426850000074,0.013140911000000033,0.20829324599999932
185392.0,-4.6147152904999995,-0.376771493,5.504668778,2.811069181164115,-1.2949836904314849,1.2518269340174208,7.192977987301224,3.3385870323395332,-0.14847268099999944,0.050308114499999945,0.2730171360000009
185402.0,-4.860077673499999,-0.084729456,5.9858810935,2.9496291251506928,-1.28219391767287,1.0740965656283343,7.710921250971766,3.3908725500598114,-0.2453623829999998,0.29204203700000003,0.48121231549999965
185412.0,-4.9595171045,0.183384355,6.5556474585,3.1113722775915114,-1.2925856080392446,0.8918370678303225,8.222344758742748,3.485224291122647,-0.09943943100000041,0.268113811,0.5697663650000004
185422.0,-4.9248015635,0.517398854,7.242799423999999,3.269917986842676,-1.3075064278145438,0.7029156482774482,8.773797097623541,3.591103884329568,0.03471554099999974,0.33401449899999996,0.6871519654999991
185432.0,-4.7979035125,0.735302617,7.916810478499999,3.3701068672241585,-1.3011115414352368,0.5129278325516056,9.286357531686697,3.64878150910321,0.1268980510000004,0.21790376300000003,0.6740110544999993
185442.0,-4.6015743795,1.153065907,8.729585630499999,3.4194036919467385,-1.2592777445941847,0.33386403261399533,9.935276193251429,3.65917575948498,0.19632913299999988,0.41776329,0.8127751520000004
185452.0,-4.6362899205,1.338607725,9.44184262,3.4289960215156996,-1.2115813867956835,0.11829667137092366,10.603558220201746,3.6386724605077725,-0.03471554100000063,0.18554181799999991,0.7122569895000002
185462.0,-4.3597423905,1.7744152509999997,9.702895643,3.4132740956137346,-1.188398178341443,-0.06076712856668657,10.784344535179336,3.6147507418890252,0.2765475300000002,0.43580752599999983,0.26105302300000055
185472.0,-3.823416702,2.6937886884999998,9.941099171500001,3.3439949962850717,-1.1161869258694297,-0.18413921740240974,10.986376359520055,3.53016756543468,0.5363256885000003,0.9193734375,0.23820352850000148
185482.0,-3.3709378709999998,3.2097165449999996,10.5695093035,3.154007180559229,-0.9648372091242373,-0.25928087768852165,11.549027203455788,3.3084586605645767,0.4524788310000001,0.5159278564999998,0.6284101319999991
185492.0,-3.106354454,3.2049112865,11.0986761375,2.9864014671609618,-0.7668540400950086,-0.30164874528068397,11.96250418404661,3.098007554445372,0.2645834169999999,-0.004805258499999798,0.5291668339999998
185502.0,-3.2739501024999997,3.1474443174999998,11.645789141,2.918719344097873,-0.5686073263487287,-0.3458806245139762,12.499982388869846,2.9936383060755265,-0.16759564849999986,-0.057466969000000034,0.5471130034999998
185512.0,-3.6295392315,3.1798062624999996,12.273022475,2.8632964137007932,-0.4239177860291467,-0.4295499635253324,13.187562457553971,2.926206727691721,-0.35558912900000017,0.03236194499999989,0.6272333339999996
185522.0,-3.8557786469999997,3.208539747,13.0511801525,2.771898756761606,-0.31999739170690034,-0.5513233307662287,13.981954786643744,2.8442535863531795,-0.22623941549999982,0.02873348450000046,0.7781576775000012
185532.0,-3.8952994464999997,3.094782607,13.7262699385,2.643730503141403,-0.2563120726308793,-0.6856211807194365,14.600052177545864,2.7431885198191805,-0.03952079949999998,-0.11375714000000015,0.6750897859999991
185542.0,-3.6953418529999995,3.0133874119999997,14.0698949545,2.5307501046720535,-0.23845909971222926,-0.8332411288531169,14.855907886628744,2.6750419834734545,0.1999575935000002,-0.08139519500000025,0.3436250160000007
185552.0,-3.4451742115,3.2612014575,14.249454716,2.42283290636274,-0.2443216606696782,-0.9960506774669039,15.018376077236828,2.6309559703858194,0.2501676414999996,0.2478140455000002,0.1795597615000002
185562.0,-3.1925549075,3.7005393775,14.2554367725,2.3447590929332778,-0.3069405835727308,-1.1479327196339544,15.069966028381604,2.6286607340133235,0.252619304,0.43933792000000027,0.0059820564999988335
185572.0,-2.7161478504999996,4.041712731,14.2793649985,2.328239551563152,-0.38554672242405136,-1.2694407968285475,15.086854069224973,2.679706256530296,0.4764070570000003,0.34117335349999944,0.023928226000000663
185582.0,-2.2097324444999997,4.3912217369999995,14.274559739999999,2.3455584537306917,-0.4103286524731189,-1.3413850139250059,15.097311071532111,2.7330071018002324,0.5064154059999999,0.3495090059999999,-0.0048052585000011305
185592.0,-1.7883406939999997,4.7767211485,14.297311168,2.3554178186752073,-0.3498407765867514,-1.3688303164126168,15.179866073288034,2.746648522222266,0.4213917505,0.38549941150000056,0.022751428000001184
185602.0,-1.4950237924999998,5.1238765585,14.329673112999998,2.298396166683301,-0.17051168660283803,-1.3627024654088646,15.29145966388827,2.6774348140569235,0.2933169014999999,0.34715541000000005,0.032361944999998116
185612.0,-1.395682428,5.1825203255,14.4637300185,2.1515738340177815,0.12392884886710936,-1.3429837355198326,15.427440889924245,2.5393372435898125,0.09934136449999986,0.058643766999999514,0.13405690550000138
185622.0,-1.4280443729999999,4.9958017095,14.763028976499998,1.955990492710045,0.4623359735240459,-1.341117978549451,15.650698706859021,2.416247253981901,-0.03236194499999989,-0.1867186159999994,0.29929895799999784
185632.0,-1.6291787645,4.874885715,15.109007588499997,1.7249682409405636,0.7812914036675056,-1.3890813717235069,15.95934975148923,2.348505641246702,-0.20113439150000012,-0.12091599450000068,0.3459786119999997
185642.0,-1.9069030925,4.8712572545,15.480091224499999,1.481421506458771,1.0171115655507195,-1.478346236316757,16.340093358440363,2.3269364432677424,-0.2777243279999999,-0.003628460499999875,0.3710836360000016
185652.0,-2.0338011435,4.804277835,15.786549036999999,1.251198615486703,1.1439481329516514,-1.5750723834622828,16.626261248542313,2.314080447915536,-0.12689805099999996,-0.06697941949999997,0.3064578124999997
185662.0,-1.9823162309999998,4.8604699395,15.972090855,1.0486863170485488,1.155139184115439,-1.6534132322673,16.812537939075224,2.273293831179844,0.05148491250000009,0.056192104500000006,0.1855418180000008
185672.0,-1.8972925754999999,4.919211772999999,16.0235757675,0.8848121175910453,1.049887103573921,-1.680591499379356,16.868709018815945,2.170148198043843,0.0850236554999999,0.058741833499999174,0.051484912499999425
185682.0,-1.72008641,4.9418651344999995,15.8535284565,0.7744968368894917,0.8209958988211247,-1.6432868319472291,16.694762435761362,1.993557430395246,0.1772061654999999,0.022653361500000635,-0.17004731099999937
185692.0,-1.461583116,4.921565369,15.426154649499999,0.7294638515295341,0.5470717087083706,-1.5692098225048337,16.258052717241593,1.814889647389904,0.25850329400000005,-0.0202997654999999,-0.4273738070000004
185702.0,-1.199353295,4.8473290285,14.91983731,0.7379915302547783,0.2912675268898217,-1.4820777502575206,15.733295662181973,1.681077847321978,0.2622298209999998,-0.07423634049999972,-0.5063173394999989
185712.0,-1.0197935335,4.791038857499999,14.4780477275,0.797145974592622,0.07942993425826195,-1.3994748074191332,15.284236918629967,1.6125385439940074,0.1795597615000002,-0.056290171000000555,-0.4417895825000002
185722.0,-0.7612902395,4.765933833499999,14.063912898,0.858431465947151,-0.04154407218522103,-1.3371211745623839,14.869005822064524,1.5895041765044202,0.25850329399999994,-0.025105024000000142,-0.4141348295
185732.0,-0.6247816715,4.7072900665,13.8508143935,0.8368487244169891,-0.029553660224019982,-1.3008829033032254,14.642198990260948,1.5470893750839372,0.136508568,-0.058643766999999514,-0.21309850449999956
185742.0,-0.585260872,4.654628356,13.738234051500001,0.7238683259476403,0.07090400086226964,-1.307544825058088,14.517133679709904,1.496223980620783,0.03952079949999998,-0.05266171049999979,-0.11258034199999933
185752.0,-0.5900661305,4.666592468999999,13.648503204,0.5325488240025258,0.22305307840487532,-1.3552411828565891,14.436305033480314,1.4731054237368388,-0.00480525850000002,0.011964112999999443,-0.08973084750000027
185762.0,-0.6008534455,4.643841041,13.611434067,0.28020912074918564,0.3805323914830717,-1.4213245843248503,14.394353817984792,1.4978269680857885,-0.010787314999999964,-0.022751427999999407,-0.03706913700000136
185772.0,-0.5206350485,4.703661606,13.534746064,0.02014109956801456,0.48258702883493615,-1.4874062404638595,14.338230168833551,1.5638648370183317,0.080218397,0.05982056499999988,-0.07668800299999923
185782.0,-0.4080547065,4.805454633,13.296542535499999,-0.20235521880547455,0.5017734333021098,-1.5268437002419235,14.144148835178408,1.619869099005857,0.112580342,0.10179302700000026,-0.23820352850000148
185792.0,-0.270467407,4.804277835,12.884761302,-0.348109409968773,0.44874683996801806,-1.5175166607192656,13.753956228796072,1.6203119154195715,0.13758729949999998,-0.0011767980000003675,-0.4117812334999993
185802.0,-0.038245934999999995,4.6965027515,12.3915848735,-0.3944740815480024,0.34136196708056293,-1.4676892559040795,13.251791445821395,1.5576423034440614,0.23222147199999998,-0.10777508349999998,-0.4931764285
185812.0,0.1868166825,4.562445845999999,11.986962494499998,-0.3374506842268436,0.2267845923456392,-1.3880167208797904,12.827239859575894,1.446338353585505,0.2250626175,-0.1340569055000005,-0.404622379000001
185822.0,0.3341125655,4.4642812795,11.7570946185,-0.2103488267796086,0.11353715850073513,-1.2995512170839538,12.580568843151761,1.321351838501905,0.14729588300000002,-0.0981645664999995,-0.22986787599999836
185832.0,0.46816947099999995,4.4211320195,11.655301591499999,-0.07844905921864112,0.01761037215262278,-1.2212103682789364,12.474439713920901,1.2238542166825341,0.13405690549999993,-0.043149259999999856,-0.10179302700000115
185842.0,0.4992565514999999,4.4283889405,11.557137025000001,0.011348130796467132,-0.04047767601225249,-1.1580591199540256,12.386577490460562,1.1588218791672078,0.031087080499999975,0.00725692099999975,-0.09816456649999772
185852.0,0.4992565514999999,4.4762453925,11.4254337155,0.040125119503349634,-0.06446024526390658,-1.1106280522018277,12.281146750421042,1.1132204717719967,0.0,0.04785645200000044,-0.13170330950000064
185862.0,0.5160259229999999,4.544499676499999,11.245873953999999,0.01987406419245943,-0.057798323509044215,-1.0802523419001184,12.140364123541442,1.0819800122038634,0.01676937150000002,0.06825428399999911,-0.17955976150000197
185872.0,0.57466969,4.587550869999999,11.0315986515,-0.03528357615831736,0.003754203221039803,-1.0541387256317791,11.961272384040882,1.054735738308386,0.05864376700000007,0.043051193500000196,-0.21427530249999904
