timestamp,ax,ay,az,gx,gy,gz,acc_mag,gyro_mag,dax,day,daz
55492.0,-0.453459496,0.022359162,10.198817933499999,-0.05322207021031508,0.08392241175289533,0.024349088394572893,10.208918291734884,0.10231538524357388,0.0,0.0,0.0
55502.0,-1.1429650574999999,-0.241047457,9.515294428499999,-0.047626544628421266,0.07299839596466283,0.016887805842297134,9.586725252151293,0.08878204521649538,-0.6895055614999999,-0.263406619,-0.6835235050000001
55512.0,-0.617426684,-0.5283823019999999,9.608653736499999,-0.03377037569683829,-0.006408849013323179,0.007560766319639435,9.642957543987086,0.03519484064065887,0.5255383734999999,-0.28733484499999995,0.09335930800000014
55522.0,-0.3217561865,-0.597813384,9.486560943999999,-0.006590363255530588,-0.019997982569351026,-0.05692216822454307,9.510822594805704,0.060691724560001555,0.2956704975,-0.06943108200000003,-0.12209279250000016
55532.0,-0.33617196199999994,-0.5582925845,9.500976719499999,-0.002593559268463574,0.012777555453850486,-0.12913342069655645,9.523300941502562,0.12978995652148548,-0.01441577549999995,0.03952079949999998,0.014415775499999839
55542.0,-0.277528195,-0.33685842749999995,9.55363843,-0.026309093144562524,0.038624136346634516,-0.18295937482806157,9.56360302137069,0.18883359110096862,0.05864376699999996,0.22143415700000002,0.05266171050000068
55552.0,-0.16739951549999998,-0.1979962635,9.619441051499999,-0.0572188741973821,0.08845328649107262,-0.20374275556081006,9.622934649130327,0.22936672360872143,0.11012867949999999,0.13886216399999995,0.0658026214999996
55562.0,-0.0033342610000000003,-0.17642163349999998,9.705641505,-0.06787759993931147,0.13828069130625875,-0.19441746136740437,9.707245373103632,0.24804650258813207,0.16406525449999998,0.02157463000000001,0.08620045350000005
55572.0,0.1630845895,-0.069823348,9.845680467000001,-0.028440140161247598,0.17105622932946027,-0.16777151967720694,9.847278595709765,0.24128066225788536,0.1664188505,0.10659828549999999,0.140038962000002
55582.0,0.34862640749999996,-0.0399130655,9.979737372499999,0.03231302577142302,0.17078919395390513,-0.1395251110629307,9.985904638483042,0.22289086348043163,0.18554181799999997,0.029910282499999996,0.13405690549999782
55592.0,0.48503690899999996,0.140823494,10.098299771,0.0781436265995421,0.1619962251823577,-0.10888236538566626,10.110922328083294,0.21024883553408696,0.1364105015,0.1807365595,0.11856239850000172
55602.0,0.5592732494999999,0.31685286149999997,10.350919075,0.0850725837299596,0.14547493848297938,-0.07184473332909458,10.370858595152376,0.18319925746641644,0.07423634049999994,0.17602936749999998,0.25261930399999954
55612.0,0.6514557595,0.417371024,10.5795120865,0.06668728538945133,0.11536451822757318,-0.021483257762798205,10.607764569722507,0.13497294715089028,0.0921825100000001,0.10051816250000001,0.22859301149999922
55622.0,0.8130693514999999,0.188679946,10.727984767499999,0.03977430832369878,0.07113263899428089,0.02861292775719504,10.760406082675653,0.08637446131674459,0.16161359199999992,-0.228691078,0.14847268099999944
55632.0,0.844156432,0.03187161249999999,10.829679727999999,0.02485174321914726,0.023169245820224723,0.050727994709215185,10.86257699132321,0.061055323601849794,0.031087080500000086,-0.1568083335,0.10169496049999971
55642.0,0.7293205605,0.0091201845,10.842918705499999,0.03391174736624982,-0.0399820025046861,0.04912927311438839,10.867422772295882,0.07184881773881352,-0.11483587149999996,-0.022751427999999994,0.01323897750000036
55652.0,0.6670483329999999,-0.0985568325,10.744754139,0.061090014478305525,-0.12258494534307374,0.02488141381643116,10.765890972666783,0.13920540020857108,-0.062272227500000166,-0.107677017,-0.0981645664999995
55662.0,0.7723717539999999,-0.1309187775,10.5818656825,0.10559067441640495,-0.1878689860139216,-0.011091567396423963,10.610823680334638,0.21579427540349563,0.10532342100000003,-0.032361945,-0.16288845649999928
55672.0,0.8956413444999999,-0.09620323649999998,10.489781239,0.14769150663301214,-0.21078515909260717,-0.04040088152516474,10.5283872897404,0.2605290687298352,0.12326959049999997,0.034715541000000016,-0.092084443500001
55682.0,1.106386253,0.09777230049999999,10.38916501,0.1650104088005519,-0.18440450744871287,-0.04653047785816882,10.44836827301664,0.2517906724833889,0.21074490850000005,0.19397553699999998,-0.10061622899999989
55692.0,1.245248417,0.33479903099999997,10.335326501499999,0.14529342424077196,-0.1044666823781206,-0.02867750493951883,10.415455242273751,0.18123428523393745,0.13886216400000007,0.23702673049999998,-0.05383850850000016
55702.0,1.3804821205,0.408937305,10.431039405499998,0.09279915632853851,0.0023858650874762485,0.006229080100367762,10.529935597311818,0.09303857912931046,0.13523370349999997,0.074138274,0.0957129039999991
55712.0,1.3661644114999998,0.346763144,10.677676652999999,0.03284535119328129,0.10177538467154533,0.04832991231697498,10.770303086882336,0.11735768592051182,-0.014317709000000178,-0.06217416099999995,0.2466372475000007
55722.0,1.200922359,0.116895268,10.948242126499999,-0.0097878064451842,0.1340168519436366,0.0811054503401765,11.01453061535062,0.15695353399899553,-0.1652420524999998,-0.22986787600000003,0.2705654734999996
55732.0,1.0656886555,-0.2111371745,11.179286800499998,-0.028440140161247598,0.08205665478251341,0.08670097592207031,11.231951058687477,0.12271591336223434,-0.13523370349999997,-0.32803244249999997,0.23104467399999962
55742.0,0.95909037,-0.34882254049999994,11.241559028,-0.010321877196294465,-0.027724555167929925,0.07231248156862907,11.287789016569892,0.07812993727585024,-0.10659828550000006,-0.13768536599999995,0.062272227500001165
55752.0,0.9064286595,-0.250657974,11.2055686225,0.03790855135331684,-0.1401726282154206,0.05525886944739247,11.24496378332315,0.15536719930258622,-0.052661710500000014,0.09816456649999994,-0.03599040549999977
55762.0,0.9854702584999999,-0.0363826715,11.12662509,0.07947705814806579,-0.20865236674667012,0.054724798696282204,11.170239980528217,0.22988522465179567,0.07904159899999996,0.21427530250000001,-0.0789435325000003
55772.0,1.0896168815,0.17553903499999998,11.095439943,0.11251788621757043,-0.21318324148484738,0.07417649320975901,11.150195802315688,0.2522092807843405,0.1041466230000001,0.21192170649999997,-0.031185146999998636
55782.0,1.129137681,0.392266,11.161340630999998,0.12424300813246834,-0.1689496169223031,0.11334691761226774,11.22516588735425,0.23838586757649827,0.03952079949999998,0.21672696500000002,0.06590068799999749
55792.0,1.1243324225,0.6567513505,11.228320050499999,0.09866171728598745,-0.10606540397294739,0.16370839317856412,11.303566556141853,0.2185965287347262,-0.00480525850000002,0.2644853505,0.06697941950000086
55802.0,1.0776527685,0.776490547,11.439064959,0.03737622593145857,-0.036252233893174224,0.2257949906597584,11.515922898111889,0.23172091950051732,-0.04667965400000007,0.11973919649999998,0.2107449085000006
55812.0,0.9507547174999998,0.534658558,11.659322318,-0.051888638661791414,0.0013194689145077131,0.2982715331780749,11.710234464839036,0.30275415657722976,-0.12689805100000007,-0.24183198900000002,0.22025735899999965
55822.0,0.7987516424999999,0.20790097999999999,11.848394529999998,-0.12623268347974187,-0.01253670001707527,0.3622238876296512,11.87710738952946,0.38379422089884707,-0.152003075,-0.32675757799999994,0.18907221199999924
55832.0,0.4443393115,-0.054328840999999996,11.972938985,-0.1496811819802857,-0.05890137159630463,0.42137833196749497,11.981304477611841,0.45103605894279647,-0.35441233099999986,-0.262229821,0.12454445500000233
55842.0,0.056486304,-0.23987065899999999,12.028052358,-0.11051075757777697,-0.1372404750720701,0.46507788577892895,12.030576551536424,0.4973379287557105,-0.3878530075,-0.185541818,0.0551133729999993
55852.0,-0.212804305,-0.3966789925,12.0244238975,-0.029506536334216137,-0.22544068882160356,0.4672089327956141,12.032847126182833,0.519594386754532,-0.269290609,-0.1568083335,-0.003628460499999875
55862.0,-0.21162750699999996,-0.5116129305,12.05433418,0.06668728538945133,-0.2904576941168963,0.4509546814717909,12.067042161005741,0.5405302867052345,0.0011767980000000344,-0.11493393800000001,0.029910282499999497
55872.0,-0.150630144,-0.36549384549999997,12.077085607999999,0.12903917291694875,-0.3112410748496448,0.4331017085531409,12.083553780835361,0.5487250721192738,0.06099736299999997,0.14611908500000004,0.022751427999999407
55882.0,-0.1326839745,-0.1428828905,12.169268118,0.1348999885451457,-0.2912570549143097,0.42404170440603833,12.170830172394076,0.5318270828214897,0.017946169499999998,0.22261095499999997,0.09218251000000066
55892.0,-0.1577889985,-0.0375594695,12.286555651999999,0.08960171313888489,-0.2496885481195608,0.4448268304680388,12.287626209788849,0.517922530079276,-0.025105024000000004,0.105323421,0.11728753399999903
55902.0,-0.255953565,-0.015984839499999997,12.388348679,0.024052382421733857,-0.2017251549455046,0.49119150204726814,12.391002813937662,0.5315455266686011,-0.0981645665,0.02157463,0.10179302700000115
55912.0,-0.40795664,-0.10581375349999998,12.432674736999997,-0.06547951754707126,-0.1550934479907201,0.5479478639928718,12.43981616771678,0.5732263134942412,-0.152003075,-0.08982891399999998,0.04432605799999756
55922.0,-0.6916630245,-0.24585271549999996,12.3931539375,-0.14994821735584082,-0.1332436710850031,0.5809886920623765,12.41487437776762,0.614643151817991,-0.28370638449999996,-0.140038962,-0.039520799499998205
55932.0,-0.8077737604999999,-0.37157396849999996,12.290184112499999,-0.22082603827933056,-0.11645709433932165,0.5756602018560377,12.32230462135093,0.6274639925964167,-0.11611073599999999,-0.125721253,-0.10296982500000063
55942.0,-0.8999562705,-0.4649332765,12.133375779,-0.27944815719531607,-0.0866137094594706,0.5343587304368439,12.175585901090473,0.6092064182362685,-0.0921825100000001,-0.09335930800000003,-0.156808333499999
55952.0,-0.8783816404999999,-0.462481614,11.9345949835,-0.330876028934581,-0.04344648106989485,0.473071493753063,11.975808990203497,0.5789327952730168,0.02157463000000015,0.002451662500000007,-0.19878079549999939
55962.0,-0.7994381079999999,-0.26742734549999997,11.835253619,-0.38017110832790885,0.018106045660189175,0.40592344144108516,11.865236908705041,0.5564456314934043,0.07894353249999997,0.19505426850000002,-0.09934136450000075
55972.0,-0.7790402759999999,-0.0196133,11.741894311,-0.43053258389420523,0.10523986323675408,0.3720815072449151,11.767725797445367,0.5786867742072213,0.020397832000000005,0.24781404549999997,-0.09335930800000014
55982.0,-0.7371658805,0.1468055505,11.755035221999998,-0.4880883066372222,0.22061834409834322,0.3880704685224352,11.779041492222172,0.6614388387204885,0.04187439549999994,0.1664188505,0.013140910999998923
55992.0,-1.0399952325,0.20191892349999999,11.865163901499999,-0.5443123431609675,0.3248040284668927,0.44056299110541663,11.912366504802847,0.7719257302081959,-0.30282935199999994,0.05511337299999999,0.11012867950000071
56002.0,-1.3776381919999998,-0.08178746099999999,12.0734571475,-0.594939108773567,0.3626427666501298,0.5175704083619104,12.152075693862043,0.8679524451050653,-0.3376429594999999,-0.28370638449999996,0.2082932460000002
56012.0,-1.7630395369999998,-0.5104361325,12.253016909,-0.6277146467967687,0.31521169889793194,0.5785906096701361,12.389724646925234,0.9100281240290172,-0.385401345,-0.42864867149999997,0.1795597615000002
56022.0,-2.1018592944999996,-0.7629573699999999,12.272237942999999,-0.6333101723786625,0.18011623347656283,0.5871182883953805,12.474283168660321,0.8821743118955551,-0.3388197574999998,-0.2525212374999999,0.019221033999999193
56032.0,-2.313781001,-0.830034856,12.116606407499999,-0.6071965561103233,-0.004543092042941239,0.5351580912342573,12.363441722151382,0.8093840127226638,-0.21192170650000053,-0.06707748600000019,-0.15563153549999953
56042.0,-2.2430750544999998,-0.8456274294999999,11.7933792235,-0.547242750975066,-0.1742798524578938,0.45548555620996817,12.03454465108358,0.7330178629361003,0.0707059465000004,-0.015592573499999873,-0.3232271839999985
56052.0,-2.028799752,-0.8180707429999999,11.4450470155,-0.46730492590447376,-0.28272937618906546,0.37794406820236404,11.652225940191569,0.6641923762165575,0.21427530249999993,0.027556686499999983,-0.3483322080000004
56062.0,-1.6912548589999998,-0.7354006835,11.073963379499999,-0.4070840853936614,-0.31763596122895205,0.32678323183865426,11.226478615037326,0.6110624657574296,0.337544893,0.08267005949999995,-0.3710836360000016
56072.0,-1.3596920225,-0.6265468685,10.811733558499999,-0.3886987870531532,-0.2608795992833484,0.31799026306710687,10.91489376560635,0.5659175909832816,0.33156283649999985,0.10885381500000002,-0.26222982100000003
56082.0,-1.0974622015,-0.6887210294999999,10.674048192499999,-0.4134789717729686,-0.13510942805538503,0.33157939662313474,10.752398093263162,0.5469591519600405,0.26222982100000003,-0.06217416099999995,-0.13768536599999948
56092.0,-1.2303423089999999,-0.64331624,10.743479274499999,-0.4579778863818161,0.022902210444669592,0.35769301289147387,10.832817957649533,0.58156044151007,-0.1328801074999999,0.04540478949999993,0.06943108199999948
56102.0,-1.553569493,-0.7210829744999999,10.945790464,-0.5008780793958367,0.14307685609073914,0.399528555061778,11.078983153136726,0.6564852652404503,-0.32322718400000006,-0.07776673449999993,0.20231118950000138
56112.0,-1.8337454834999998,-0.9257477599999999,11.0751401775,-0.5461781001313495,0.19530408862741747,0.4362991517427945,11.264029534969996,0.725817576191951,-0.28017599049999986,-0.2046647855,0.1293497134999999
56122.0,-2.048020786,-1.085007756,11.055919143499999,-0.6061319052666068,0.17638471953579893,0.4589482894459249,11.296237385876678,0.7804748479311743,-0.21427530250000015,-0.15925999600000007,-0.01922103400000097
56132.0,-2.1402032959999997,-1.2130826049999999,10.956577778999998,-0.6687508281696593,0.08871857653737575,0.45361979923958623,11.229364905551844,0.8129388527205388,-0.09218250999999977,-0.12807484899999988,-0.09934136450000075
56142.0,-2.1150002055,-1.3555732294999998,10.668066135999998,-0.7140491035759201,-0.02426182193197317,0.42191065738935324,10.959855826235673,0.8297369228494959,0.025203090499999803,-0.14249062449999994,-0.28851164299999965
56152.0,-2.0240925599999997,-1.4836480785,10.330521243,-0.7382969628738772,-0.10633243934850252,0.3830072683623997,10.630984501181363,0.8385007815530178,0.09090764550000019,-0.1280748490000001,-0.3375448929999987
56162.0,-1.9629971304999998,-1.488453337,10.06358423,-0.7449588846287397,-0.13590878885279845,0.3385083537535522,10.360722881395986,0.8294714246046517,0.06109542949999991,-0.00480525850000002,-0.2669370129999997
56172.0,-1.9977126715,-1.441773683,9.692500594,-0.7151137544196366,-0.1137919765715263,0.29773920775621665,10.000706726804532,0.7829335422163893,-0.03471554100000018,0.04667965399999985,-0.37108363599999983
56182.0,-2.0300746165,-1.2861421474999999,9.4099710075,-0.6327778469568041,-0.046111598837690185,0.2881468781872558,9.711998709540898,0.6968232965075994,-0.03236194499999989,0.1556315355000002,-0.2825295865000008
56192.0,-2.0683205515,-1.0586278675,9.2938602715,-0.6623541964611,0.0346273323595675,0.2780204778671847,9.57989987483016,0.7191714119940164,-0.03824593499999995,0.22751427999999985,-0.11611073599999955
56202.0,-1.9618203324999999,-1.0886362164999999,9.002896966,-0.7545512141977004,0.11909603216833706,0.24497964979768008,9.278255310633451,0.8022134557213931,0.10650021899999995,-0.030008348999999823,-0.29096330550000005
56212.0,-1.8217813704999999,-1.1760134679999998,8.799408978499999,-0.8781903384089789,0.23180939526213087,0.20660858619258474,9.062642738722776,0.9314724762950166,0.140038962,-0.08737725149999997,-0.20348798750000086
56222.0,-1.7558806824999997,-1.191507975,8.6713341295,-1.0348702906897618,0.3375955465547592,0.1629090323811507,8.927196861898857,1.100666445585256,0.06590068800000015,-0.015494507000000102,-0.128074848999999
56232.0,-1.7905962235,-1.2921242039999998,8.651034364000001,-1.2024742587587771,0.43192186597879273,0.10082418022920843,8.92839377275017,1.281665462048098,-0.03471554100000018,-0.10061622899999989,-0.020299765499999012
56242.0,-1.8468863944999998,-1.4261811094999999,8.479810255,-1.3103914570680906,0.4966735812277823,0.033409092541675456,8.795007894941712,1.4017583902053599,-0.05629017099999989,-0.13405690550000005,-0.17122410900000062
56252.0,-1.9570150739999999,-1.3818550515,8.321825123499998,-1.3234482652022603,0.5523635470004175,-0.02654645792283375,8.65980396829715,1.4343380051961265,-0.11012867950000005,0.04432605799999978,-0.15798513150000204
56262.0,-2.128239183,-1.3938191645,8.145795756,-1.2677582994296253,0.5686177983242406,-0.08410218066585075,8.533822260971434,1.3919807768559713,-0.17122410899999996,-0.011964112999999887,-0.1760293674999982
56272.0,-2.2778886619999996,-1.4250043115,8.081169932499998,-1.170499826862241,0.539840809617358,-0.13872575026551728,8.516144757001477,1.2964346409285705,-0.1496494789999998,-0.03118514699999997,-0.0646258235000019
56282.0,-2.4035118485,-1.4501093354999999,8.101469697999999,-1.0577847184391953,0.47935293373099064,-0.18242530407695132,8.574001257195867,1.1755708133530551,-0.12562318650000037,-0.02510502399999992,0.020299765500000788
56292.0,-2.3425144854999997,-1.4944353934999999,8.0907804495,-0.9520003124758191,0.41353656763828445,-0.21386915588088115,8.554615101927979,1.0597438858353045,0.06099736300000025,-0.044326058,-0.010689248499998527
56302.0,-2.176095635,-1.4848248764999998,8.0248797615,-0.8683309734644629,0.34612147995075143,-0.24877574092076774,8.446229473147861,0.9673097371740434,0.16641885049999994,0.00961051700000004,-0.06590068800000104
56312.0,-1.9726076474999998,-1.4560913919999998,7.927891992999999,-0.8038462935910284,0.27817406684136026,-0.26582935304200433,8.298364569329639,0.8911873653288774,0.20348798749999997,0.028733484500000017,-0.09698776850000002
56322.0,-1.8480631925,-1.362732084,7.8632661695,-0.7478892924428382,0.20995961835641386,-0.2431802153388739,8.191662294591952,0.8139766902210905,0.12454445499999989,0.09335930799999992,-0.06462582349999924
56332.0,-1.7965782799999999,-1.3052651149999999,7.822568571999999,-0.6820729263501321,0.14334389146629428,-0.19494978678926264,8.131665856406412,0.7237239580459613,0.05148491250000009,0.057466969000000034,-0.04069759750000124
56342.0,-1.7726500539999999,-1.3698909385,7.720873611499999,-0.5970719011195041,0.07326368601096597,-0.14298958962813943,8.039327006789042,0.6183109618439544,0.023928225999999997,-0.06462582350000012,-0.10169496049999971
56352.0,-1.8038352009999998,-1.5075763045,7.698122183499999,-0.4992793578010099,0.01650732406536237,-0.10301980442821729,8.049080251702762,0.5100641616291189,-0.03118514699999997,-0.13768536599999992,-0.022751428000000296
56362.0,-1.8684610245,-1.6057408709999998,7.6466372709999995,-0.4100144932077599,-0.019198621771937627,-0.08729962385550437,8.033717190636084,0.41964472598100244,-0.06462582350000012,-0.09816456649999994,-0.051484912499999425
56372.0,-1.977412906,-1.6128997255,7.5951523585,-0.34126771930095523,-0.05250648521699741,-0.08383514529029562,8.012362115765953,0.3553152386438883,-0.10895188150000013,-0.007158854500000089,-0.051484912499999425
56382.0,-1.93191005,-1.6368279515,7.447856475499999,-0.2983675262869346,-0.06929306196267887,-0.08170409827361055,7.866514365571956,0.3170177737185284,0.04550285600000015,-0.023928225999999997,-0.14729588300000085
56392.0,-1.8564969114999998,-1.71224109,7.255155803,-0.2706551884237687,-0.05197241446588714,-0.08729962385550437,7.682163501156299,0.28909615564969426,0.07541313850000009,-0.07541313850000009,-0.19270067249999911
56402.0,-1.8038352009999998,-1.778141778,7.1210988975,-0.2863771143257336,0.01357691625126389,-0.10861533001011112,7.558151832492611,0.3065835517075785,0.052661710500000014,-0.06590068799999993,-0.1340569055000005
56412.0,-1.7427397715,-1.9457374264999998,7.0564730739999995,-0.31861858159782486,0.11483219280571491,-0.15231662915079713,7.524416807177665,0.3713550707339811,0.06109542949999991,-0.16759564849999986,-0.06462582350000012
56422.0,-1.794224684,-2.0032043955,7.1210988975,-0.3604523784388769,0.22941131286989064,-0.21013764194011728,7.611972121257482,0.47614419680920517,-0.05148491250000009,-0.057466969000000256,0.06462582350000012
56432.0,-1.8912124524999998,-2.042725195,7.231227577,-0.4060176892206929,0.3280014716565463,-0.2655623176664492,7.748552318539518,0.5856267360130917,-0.0969877684999998,-0.03952079949999998,0.11012867950000071
56442.0,-1.9486794214999998,-2.158835931,7.4323619684999995,-0.44358939202837483,0.39008806913774063,-0.32098699339278114,7.981098201097352,0.6722892980935002,-0.057466969000000034,-0.11611073599999999,0.20113439149999923
56452.0,-2.0408619315,-2.2007103265,7.5101287029999995,-0.4875559812153639,0.40261255185005196,-0.3830718455447234,8.087661992209744,0.7392913773169058,-0.09218251,-0.04187439549999983,0.07776673449999993
56462.0,-2.1006824965,-2.1947282699999997,7.506598309,-0.5227278563015537,0.37703126100357104,-0.4408946036632955,8.098068739083432,0.7808873382678035,-0.059820565000000325,0.005982056500000166,-0.003530393999999326
56472.0,-2.0707722139999998,-2.2030639224999997,7.498164589999999,-0.5459110647557944,0.32933490320507,-0.49578520863851727,8.08480429123831,0.8076406021224021,0.029910282500000385,-0.008335652500000013,-0.008433719000001005
56482.0,-2.0096767845,-2.1779588985,7.437167227,-0.5610989199066491,0.27817406684136026,-0.5434833117662702,8.005857986754227,0.8292086103942136,0.06109542949999991,0.025105023999999698,-0.06099736299999936
56492.0,-1.781083773,-2.24376152,7.288694545999999,-0.5669614808640979,0.2411346894555366,-0.5719950104268496,7.831461763295966,0.8406958731881826,0.2285930114999999,-0.06580262150000005,-0.14847268100000033
56502.0,-1.6050544055,-2.277300263,7.026562791499999,-0.558967872889964,0.2427334110503634,-0.5839854223880506,7.558761855976618,0.8440400259022232,0.17602936749999998,-0.033538742999999815,-0.26213175450000037
56512.0,-1.4973773885,-2.28691078,6.806207366,-0.5477768217261764,0.2741772628542932,-0.5895809479699445,7.334613736814226,0.850198983824282,0.1076770170000001,-0.00961051700000004,-0.2203554254999993
56522.0,-1.3333121339999998,-2.441267451,6.642240178,-0.5325872212460697,0.31787681666572726,-0.5927783911595982,7.201170918414667,0.8579516535527558,0.1640652545000001,-0.15435667099999995,-0.16396718799999999
56532.0,-1.170521744,-2.598173851,6.566827039499999,-0.5032761617880769,0.3780976571765396,-0.6087656071078662,7.158480696342297,0.8756941805127721,0.16279038999999984,-0.1569064,-0.07541313850000098
56542.0,-1.2351475675,-2.529919567,6.6242940085,-0.4571785255844027,0.43911785848476537,-0.620490729022764,7.197732534627806,0.887043089539046,-0.06462582350000012,0.068254284,0.05746696900000092
56552.0,-1.4243178459999999,-2.3850753465,6.754820519999999,-0.39082983406983823,0.46656316097237616,-0.6111636895001064,7.303756977907277,0.8625254765738662,-0.1891702784999998,0.1448442205,0.1305265114999994
56562.0,-1.4758027585,-2.321626321,6.870931256,-0.30875921665330885,0.44284762709627723,-0.5933107165814564,7.401191720326798,0.802162004275676,-0.05148491250000009,0.06344902549999976,0.11611073600000132
56572.0,-1.3944075635,-2.4460727095,7.046862557,-0.2493377369399099,0.3855589397288154,-0.5789222222280151,7.588538466039113,0.7389018490006283,0.08139519500000003,-0.1244463885,0.17593130099999943
56582.0,-1.156204035,-2.7202666435,7.0995242675,-0.1768594490923414,0.31840914208758553,-0.5722603004731528,7.690247278671242,0.6783402523776854,0.23820352849999993,-0.2741939339999999,0.05266171049999979
56592.0,-0.964582094,-2.8255900644999996,7.137868268999999,-0.122501169538978,0.2667159803020175,-0.5959758343492517,7.737153304301497,0.664327589232278,0.19162194100000007,-0.10532342099999958,0.038344001499999614
56602.0,-0.9346718115,-2.820784806,7.027739589499999,-0.09745394944360738,0.20889322218344533,-0.646070274539993,7.63017444458505,0.685959510598491,0.02991028249999994,0.004805258499999798,-0.11012867949999983
56612.0,-0.8520998184999999,-2.741743207,6.819446343499999,-0.1014507534306744,0.1611968643849443,-0.6988298324985296,7.399194438970629,0.7243202463338385,0.08257199300000007,0.07904159899999996,-0.2082932460000002
56622.0,-0.6341960555,-2.6651532705,6.593206928,-0.12756436969901355,0.17505303331652727,-0.7385325823228965,7.1397215763288555,0.7696405706838418,0.21790376299999992,0.07658993650000001,-0.22623941549999937
56632.0,-0.452282698,-2.5347248254999997,6.4171775605,-0.16513607250669549,0.2661836548801592,-0.7523887512544796,6.914445561496662,0.8149923273151543,0.18191335750000004,0.13042844500000017,-0.17602936749999998
56642.0,-0.235555733,-2.63406619,6.3130309375,-0.2173633050433738,0.3994133633311463,-0.7489260180185228,6.844570900683432,0.8761666631708591,0.216726965,-0.0993413645000003,-0.1041466230000001
56652.0,-0.115914603,-2.6855511025,6.3669675125,-0.25573262331921714,0.5592925041308349,-0.7318724058972862,6.9111429029183045,0.9559521422752033,0.11964112999999998,-0.05148491249999987,0.05393657499999982
56662.0,-0.0297141495,-2.8255900644999996,6.475821327499999,-0.27438495703528054,0.7093105346567555,-0.7009626248444666,7.065486820381556,1.0342906461199142,0.08620045350000001,-0.14003896199999977,0.1088538149999998
56672.0,-0.0416782625,-2.8926675505,6.7415815425,-0.27598367863010737,0.803371564034486,-0.6785787771876394,7.33608780818887,1.0872175576299778,-0.011964113000000002,-0.06707748600000052,0.26576021500000024
56682.0,-0.028439284999999995,-2.9513113174999996,6.9259465625,-0.25280221550511867,0.8142955798227185,-0.6633909220367847,7.5285976829912,1.0803118840982586,0.013238977500000006,-0.058643766999999514,0.18436502000000043
56692.0,-0.010493115499999999,-3.0147603430000003,7.1413986629999995,-0.19604585355951507,0.7431507235236735,-0.6599264434715759,7.751674973520017,1.0130201801369414,0.017946169499999998,-0.06344902550000064,0.2154521004999994
56702.0,-0.14700168349999998,-2.875898179,7.206122553,-0.10651395359070995,0.5854043750699222,-0.6721838908083322,7.760193430564898,0.8977052343184582,-0.13650856799999997,0.1388621640000003,0.06472389000000067
56712.0,-0.130232312,-2.7262487,6.970272620499999,-0.011653563415566138,0.37170277079723235,-0.6703181338379501,7.485592350203989,0.7665671242041446,0.01676937149999999,0.1496494789999998,-0.23584993250000075
56722.0,0.2109410415,-2.8519699530000002,6.704512405499999,0.0842732229325462,0.19290600623517726,-0.63221410560841,7.288944733725679,0.6663402874472522,0.3411733535,-0.12572125300000003,-0.26576021500000024
56732.0,0.665871535,-3.1799043289999998,6.521324183499999,0.17566913454248126,0.12495859312578603,-0.5605369238875069,7.285797523196629,0.6005630173996304,0.4549304934999999,-0.32793437599999953,-0.18318822200000007
56742.0,0.9195695705,-3.3881975749999995,6.420806021,0.23695637122626212,0.1574670957734324,-0.47793223571986726,7.317939666431753,0.5562044858289334,0.25369803550000003,-0.20829324599999977,-0.10051816249999934
56752.0,1.142278592,-3.4863621415,6.296261566,0.2500131793604317,0.21848555175240617,-0.4089184264375075,7.287141488328242,0.5267416877925953,0.22270902150000005,-0.09816456650000038,-0.12454445499999967
56762.0,1.3457665794999998,-3.4145774634999997,6.2053539205,0.2079123471438245,0.3224059460746525,-0.37161375900538063,7.2094968076424,0.5341066597986353,0.20348798749999975,0.07178467800000021,-0.09090764549999975
56772.0,1.233284304,-3.0901734815,6.1980969995,0.12557469435174,0.4572361214497185,-0.3449678173151832,7.034669056570429,0.5863758774055394,-0.11248227549999967,0.32440398199999976,-0.007256921000000638
56782.0,0.9735061454999999,-2.7286022959999996,6.327446713,0.036576865134045164,0.5768784416739298,-0.332710369978427,6.959135478701161,0.666950368335124,-0.2597781585000002,0.36157118550000034,0.1293497134999999
56792.0,0.7065691325,-2.485593509,6.542898813499999,-0.008988445647770798,0.634966489838805,-0.32311804040946623,7.0346954386586225,0.7125085988333262,-0.26693701299999995,0.2430087869999995,0.2154521004999994
56802.0,0.56290171,-2.6651532705,6.827781996,0.014727088228328153,0.6259082310209545,-0.286879769150308,7.351088849638502,0.6886784465446842,-0.14366742249999997,-0.17955976149999975,0.28488318250000066
56812.0,0.610758162,-3.1810811269999997,7.159442899,0.11358428239053897,0.5731469277331659,-0.237317654381425,7.858112069259812,0.630649236150526,0.047856451999999994,-0.5159278564999998,0.3316609030000004
56822.0,0.6825428399999999,-3.4851853434999995,7.4000000235,0.25933847355383743,0.4908110202703334,-0.209605316518259,8.208068101251504,0.5933685955599265,0.07178467799999988,-0.30410421649999986,0.24055712449999955
56832.0,0.6155634205,-3.458805455,7.5365085915,0.3920376019122183,0.39408487312480767,-0.209605316518259,8.315119677427903,0.5940797566418151,-0.06697941949999986,0.026379888499999726,0.136508568
56842.0,0.474249594,-3.157152901,7.601134415,0.4815677565517714,0.3098832086915932,-0.2109370027375307,8.244378176224043,0.610270043753744,-0.14131382650000002,0.3016525539999999,0.06462582350000012
56852.0,0.33421063199999995,-2.7644946349999997,7.622709045,0.5023528826137719,0.28030511385804535,-0.20853892034529045,8.11540636802683,0.6118969331710343,-0.14003896200000004,0.3926582660000002,0.021574629999999928
56862.0,0.25399223499999996,-2.540706882,7.4885540729999995,0.4530578032204441,0.3192085028849989,-0.21306979508346777,7.911898989492178,0.5937627295055895,-0.080218397,0.22378775299999987,-0.13415497200000015
56872.0,0.2240819525,-2.391057403,7.3928411689999995,0.3824452723432575,0.40234551647449684,-0.2229291600279837,7.773124775528732,0.5982003939781554,-0.02991028249999997,0.1496494789999998,-0.09571290399999999
56882.0,0.21574629999999997,-2.4209676855,7.416769394999999,0.3112986707149606,0.4910780556458885,-0.22719125406135385,7.804876633157476,0.6242438506287575,-0.008335652500000013,-0.02991028249999994,0.023928225999999775
56892.0,0.14513842,-2.5646351079999996,7.708909498499999,0.26999719929576677,0.57927652406617,-0.20134467316856983,8.125620225817213,0.6700742170648714,-0.07060787999999998,-0.14366742249999964,0.2921401034999995
56902.0,0.1630845895,-2.9106137199999997,8.028508222,0.27239528168800703,0.6400296899988406,-0.1568457585597224,8.541382387008921,0.7130482350753528,0.017946169499999998,-0.34597861200000013,0.3195987235000004
56912.0,0.13670470099999998,-3.2865026145,8.367229913,0.317960592469823,0.644825854783321,-0.13872575026551728,8.990568615354249,0.7322186525536837,-0.026379888500000004,-0.37588889450000007,0.33872169099999994
56922.0,0.020593965,-3.408595407,8.648582701499999,0.3773820721832219,0.5936650184196112,-0.16110959792234456,9.29607064865048,0.7216728379557869,-0.11611073599999999,-0.12209279250000016,0.28135278849999956
56932.0,-0.16739951549999998,-3.2865026145,8.782639607,0.42747651237396317,0.5014697460122628,-0.21013764194011728,9.378906146206502,0.6916400099453207,-0.18799348049999998,0.12209279250000016,0.13405690550000138
56942.0,-0.3182257925,-3.0207423995,8.829319261,0.468777983793157,0.39968039870670147,-0.2652952822908941,9.337185384890612,0.6707300544968373,-0.150826277,0.2657602149999998,0.04667965400000007
56952.0,-0.4498310355,-2.7083025305,8.9023788035,0.480768395754358,0.30162256534190407,-0.31885420104684403,9.316093543874373,0.6509857324126784,-0.13160524299999998,0.31243986899999987,0.07305954249999935
56962.0,-0.624683605,-2.3874289424999997,8.9490584575,0.494624564685941,0.19290600623517726,-0.3319110091810136,9.283086439196541,0.6261238737246183,-0.1748525695,0.32087358800000043,0.04667965400000007
56972.0,-0.571923828,-2.4257729439999998,9.013684281,0.534327314510308,0.07859392154655666,-0.2796855219735873,9.351896896267789,0.6081995352986567,0.05275977700000001,-0.03834400150000006,0.06462582350000012
56982.0,-0.199663394,-2.9297366875,9.0424177655,0.621728167462428,-0.0058747782622129135,-0.1853574572203018,9.507288865644984,0.6487972057453661,0.372260434,-0.5039637435000004,0.028733484500000017
56992.0,0.19054320949999998,-3.3152360990000003,9.059187137,0.7520274680993168,-0.049574332073646935,-0.07370874497022453,9.64862522279654,0.7572555092315292,0.39020660349999997,-0.3854994115000001,0.016769371500000574
57002.0,0.36059052049999996,-3.3212181555,9.0520282825,0.8407600072707084,-0.0866137094594706,0.0003665191429188092,9.648820217367364,0.8452097129283674,0.17004731099999998,-0.005982056499999722,-0.007158854500000089
57012.0,0.3498032055,-3.1931433065,9.0161359435,0.8815291532680439,-0.12951390247349123,0.03154333557129352,9.571271274501443,0.8915506048533368,-0.010787314999999964,0.12807484899999988,-0.035892339000000106
57022.0,0.1522972745,-3.0290780519999996,9.151369647,0.931091268036927,-0.148965596986968,0.05845631263704608,9.640854460106798,0.9447427369328734,-0.197505931,0.16406525450000053,0.13523370349999908
57032.0,-0.33734875999999997,-2.7885209274999996,9.473420033,1.0214207834738935,-0.15003199315993654,0.09895842325882649,9.881059673467451,1.037112715869321,-0.4896460345,0.2405571245,0.3220503860000008
57042.0,-0.880833303,-2.5490425345,9.9569859445,1.1248088523742814,-0.2078530059492567,0.1511856557955048,10.315767264209416,1.1538002118997928,-0.5434845429999999,0.23947839299999973,0.4835659114999995
57052.0,-1.067551919,-2.707027666,10.4610477545,1.2122079599971498,-0.3325585263335036,0.19222009183914351,10.858231255880465,1.2716099541228087,-0.18671861600000006,-0.15798513150000026,0.5040618099999996
57062.0,-0.8509230204999999,-3.0219191974999995,10.785451736499999,1.2641681571582728,-0.4700520741471128,0.21460219416671877,11.233077707529969,1.3656954945097082,0.2166288985000001,-0.3148915314999994,0.32440398199999976
57072.0,-0.5983037165,-3.053006278,10.8823414385,1.2548428629648671,-0.5571858917236777,0.21806667273192754,11.318311263381094,1.3901941599741197,0.2526193039999999,-0.031087080500000308,0.09688970200000036
57082.0,-0.32538464699999997,-2.9165957765,10.733966824,1.171440559329066,-0.5995537593158401,0.2039452137540414,11.127913095937332,1.331664876973232,0.27291906950000006,0.1364105014999999,-0.14837461449999978
57092.0,0.03138128,-2.70467407,10.403580785499999,1.0515312037292996,-0.5896943943713241,0.15544774982887496,10.74945299864554,1.2155744954942962,0.356765927,0.21192170650000008,-0.33038603850000037
57102.0,0.2001537265,-2.3886057405,10.098299771,0.951075287972262,-0.4969650512128654,0.09442754852064922,10.378880342443498,1.0772348989139493,0.1687724465,0.31606832949999975,-0.30528101449999845
57112.0,0.10914801449999999,-1.883465199,10.007294059,0.907375734160828,-0.3456153344676731,0.05738991646407754,10.183579372117158,0.9726635003303337,-0.091005712,0.5051405415000001,-0.09100571200000118
57122.0,-0.1254270535,-1.4489325375,10.3029645565,0.9268274286743048,-0.1758785740527206,0.05712288108852241,10.405105290023313,0.9450954337513727,-0.234575068,0.43453266150000003,0.29567049749999974
57132.0,-0.2738997345,-1.2657443154999999,10.8321313905,0.9913121085477393,-0.03438647692279228,0.09949074868068476,10.909271295454854,0.9968854173983938,-0.148472681,0.18318822200000007,0.5291668340000015
57142.0,-0.3660822445,-1.2262235160000001,11.500062321999998,1.063788651066056,0.04342030113111493,0.1823607268946275,11.571044625737711,1.080179175600415,-0.09218251,0.03952079949999976,0.6679309314999973
57152.0,-0.37686955949999995,-1.259762259,12.087872922999999,1.0843067417525012,0.040489893317016454,0.2756223954749445,12.15918185638635,1.1195214363995427,-0.010787314999999964,-0.033538742999999815,0.587810601000001
57162.0,-0.4594415525,-1.248974944,12.51524673,1.0595248117034337,-0.042114794850623166,0.35849237368888726,12.5858025434884,1.1193226811574934,-0.08257199300000007,0.010787314999999964,0.4273738070000004
57172.0,-0.5743754904999999,-1.2418160894999999,12.6732318615,1.0115631638586295,-0.19612962936361078,0.39979384510808114,12.746874919742758,1.105242952737674,-0.1149339379999999,0.007158854500000089,0.15798513150000026
57182.0,-0.624683605,-1.1855259185,12.5894830705,0.9699946570638805,-0.39464337848544584,0.38913511936615175,12.660599720874094,1.1171656869233817,-0.050308114500000056,0.05629017099999989,-0.08374879099999966
57192.0,-0.7527584539999999,-1.211905807,12.539174956,0.9377514444625373,-0.5904937551687375,0.3203883454593471,12.620074070792391,1.1535637556680731,-0.12807484899999988,-0.02637988849999995,-0.050308114499999945
57202.0,-0.5396599495,-1.026363989,12.510441471499998,0.9153693421349621,-0.7314517815475556,0.2694945444711924,12.5640678807,1.2023102971984487,0.2130985044999999,0.18554181799999991,-0.028733484500001794
57212.0,-0.4199207529999999,-0.948499188,12.271061145000001,0.9470784839851949,-0.770089880528206,0.24791005761177856,12.314825446297057,1.245574355702909,0.11973919650000003,0.07786480100000004,-0.2393803264999974
57222.0,-0.36843584049999994,-1.0466637545,12.101013833999998,0.998771645770763,-0.7437092288843118,0.24764476756547543,12.151781177844189,1.2696362268090393,0.05148491249999998,-0.09816456649999994,-0.17004731100000292
57232.0,-0.282235387,-0.8360169125,12.116606407499999,0.9734591356290894,-0.6515139564769633,0.27375838383381457,12.14869260150783,1.2029284172149657,0.08620045349999994,0.21064684199999995,0.015592573500001095
57242.0,-0.32538464699999997,-0.555840922,12.225558289,0.8799304316732172,-0.5116205809418618,0.31532514529931155,12.242512396432758,1.0655811234654706,-0.04314925999999997,0.28017599049999997,0.10895188150000124
57252.0,-0.46905206949999995,-0.4194304205,12.272237942999999,0.7789404451650693,-0.35760574642887416,0.3750136603882656,12.288358549910232,0.9355561621146611,-0.14366742249999997,0.1364105015,0.046679653999998294
57262.0,-0.7826687365,-0.286550313,12.464938615499998,0.6888762197744059,-0.23236790062276907,0.4283055437686604,12.49277295563951,0.8437955476497115,-0.31361666700000007,0.1328801075,0.19270067249999911
57272.0,-1.146593518,-0.3284247085,12.60742924,0.6251926460276368,-0.1822734604320278,0.4544191600369996,12.663720287746406,0.794094598919824,-0.36392478149999996,-0.041874395499999995,0.14249062450000238
57282.0,-1.3045786495,-0.6013437779999999,12.6744086595,0.5913507118314668,-0.20678835510554017,0.4474919482358341,12.755554659052624,0.7698741013482269,-0.15798513150000004,-0.27291906949999994,0.06697941949999908
57292.0,-1.2555453994999999,-1.0550974735,12.691178031,0.5806919860895374,-0.27047192885230925,0.4125853631959475,12.796703667090549,0.761961238469013,0.04903325000000014,-0.4537536955000001,0.016769371500000574
57302.0,-1.159734429,-1.4022528834999999,12.6481268375,0.5961468766159471,-0.3344242833038855,0.3614245268322378,12.778357077205964,0.7732130290923541,0.09581097049999987,-0.34715540999999983,-0.043051193500000196
57312.0,-1.030482782,-1.3579268255,12.451797704499999,0.6177313634753611,-0.3781238371153195,0.30972961971741775,12.56794040808606,0.7877195636432026,0.12925164700000003,0.04432605799999978,-0.19632913300000077
57322.0,-0.9227076984999999,-0.9521276484999999,12.116606407499999,0.6118688025179121,-0.3666657505759768,0.27269198766084607,12.188932988173303,0.7636675482659788,0.10777508350000009,0.40579917700000023,-0.3351912969999997
57332.0,-0.7503067914999999,-0.8096370239999999,11.794556021499998,0.568169248706478,-0.2979189766691721,0.264698379686712,11.846097422202153,0.6940008962847679,0.172400907,0.14249062449999994,-0.3220503860000008
57342.0,-0.6785221135,-0.49484355899999993,11.531247468999998,0.49728968245373634,-0.1705483385171299,0.2713585561123224,11.561787517408852,0.591624230421013,0.07178467799999988,0.314793465,-0.26330855249999985
57352.0,-0.8197378734999999,-0.10934414749999999,11.4246491835,0.41788418280500234,0.007714355293814937,0.3078656080762877,11.454542124846807,0.5191030091921893,-0.1412157599999999,0.38549941149999994,-0.10659828549999872
57362.0,-1.260350658,0.127682583,11.5946964945,0.35739630691863483,0.19876856719262623,0.39792983346695115,11.663694672902459,0.5706042550366445,-0.44061278449999997,0.23702673049999998,0.17004731100000114
57372.0,-1.875619879,0.16475172,11.982549502,0.3350142045910596,0.3346633934114087,0.5181044791130207,12.12957483292895,0.7019019557205936,-0.6152692210000001,0.037069137,0.3878530074999986
57382.0,-2.6129818925,-0.012356378999999999,12.506813010999998,0.3494026989445008,0.34132531516627107,0.6079016691281289,12.776861850343131,0.7798266833930607,-0.7373620135000001,-0.177108099,0.524263508999999
57392.0,-3.0906638139999996,-0.45532275949999995,12.851614824999999,0.37551631521283996,0.1753200686920824,0.6254876066712238,13.225865765107685,0.7503228475639809,-0.47768192149999944,-0.4429663805,0.3448018140000002
57402.0,-3.2355080345,-0.8599451385,12.93301002,0.419215869024274,-0.11352668652522316,0.568198919303762,13.35929511837972,0.7151784849204683,-0.14484422050000045,-0.40462237900000003,0.0813951950000007
57412.0,-3.1624484919999998,-1.0921666104999999,12.7403093475,0.45998501502160954,-0.4303493243227458,0.45761660322665326,13.172296331302299,0.7785882805039994,0.07305954250000024,-0.23222147199999987,-0.19270067249999911
57422.0,-2.8667779944999996,-1.0155766739999998,12.176426972499998,0.47304182315577914,-0.7064045614521849,0.31292706290707134,12.550505402857201,0.905924565068551,0.2956704975000002,0.07658993650000001,-0.5638823750000022
57432.0,-2.3089757425,-0.6995083445,11.479762556499999,0.44772756768485333,-0.8537592195395622,0.17383479349863523,11.730542581530402,0.9795832354856377,0.5578022519999997,0.31606832949999986,-0.6966644159999991
57442.0,-1.794224684,-0.322442652,10.8129103565,0.3805795153728755,-0.8321747326801484,0.08003905416720795,10.96550235320793,0.9185650784918348,0.5147510584999999,0.3770656925,-0.6668521999999992
57452.0,-1.450599668,0.069038816,10.31855713,0.2715959208905936,-0.6627050076407509,0.047797586895116706,10.420250812719924,0.7177930625950166,0.34362501600000006,0.391481468,-0.49435322649999947
57462.0,-1.2675095125,0.2988086255,9.998958406499998,0.13356830232587405,-0.41276338677965096,0.070179689222692,10.08340399735467,0.43947615820590025,0.18309015549999996,0.22976980949999998,-0.3195987235000022
