timestamp,ax,ay,az,gx,gy,gz,acc_mag,gyro_mag,dax,day,daz
193082.0,-1.3381173924999998,0.8435680329999999,9.773895789,-0.13475861687573418,0.02476796741505153,0.054724798696282204,9.901070855046054,0.1475403016957827,0.0,0.0,0.0
193092.0,-0.14700168349999998,0.8040472334999998,9.6217946475,-0.180058637611247,-0.009871582249279929,0.07577521480458581,9.656450366843423,0.19560277169100593,1.191115709,-0.03952079950000009,-0.15210114149999931
193102.0,0.127094184,0.7381465455,9.6302283665,-0.17046456271303417,0.04768414049373708,0.07391120316345587,9.659312172467638,0.1918197339916883,0.2740958675,-0.06590068799999982,0.008433719000001005
193112.0,-0.04285506049999999,0.7944367164999999,9.569132937,-0.13849013081649805,0.10364114164192728,0.07577521480458581,9.602149312456664,0.18884619602495015,-0.16994924449999999,0.05629017099999989,-0.061095429500001686
193122.0,-0.1960349335,1.0087120189999998,9.6170874555,-0.10491523199588314,0.10603922403416748,0.06591759518932185,9.671830269352482,0.16308480092903094,-0.15317987300000002,0.21427530249999993,0.04795451850000099
193132.0,-0.176911966,0.9560503084999998,9.7259412705,-0.07453952169417383,0.08925264728848603,0.05898863805890435,9.774418838647753,0.13039108390700463,0.019122967500000004,-0.052661710500000014,0.1088538149999998
193142.0,-0.094339973,0.8243469989999999,9.80861133,-0.042563344468385715,0.08339008633103707,0.0632524774215265,9.843642833233554,0.11298858655011575,0.08257199300000001,-0.13170330949999998,0.08267005949999984
193152.0,-0.06560648849999999,0.7776673449999999,9.880396008,-0.007656759428499123,0.07219903516724943,0.06778160683045178,9.91117026317856,0.0993260935935043,0.028733484500000003,-0.04667965399999996,0.07178467800000021
193162.0,-0.08237586,0.7980651769999999,9.9534555505,0.01712517062056836,0.05700943468714278,0.08003905416720795,9.985738390566318,0.09974766816378429,-0.016769371500000005,0.020397832000000005,0.07305954249999935
193172.0,-0.143373223,0.8316039199999999,9.935509381,0.020322613810221976,0.03436029698401236,0.10002481943179502,9.9712821452796,0.10769681120289566,-0.060997363,0.03353874300000004,-0.017946169500000053
193182.0,-0.1817172245,0.754915917,9.924722066,0.01232726050683595,0.0034505159311927895,0.11307988223671261,9.955050340343199,0.11380214048278532,-0.0383440015,-0.0766880029999999,-0.010787314999999964
193192.0,-0.2187863615,0.6472389,9.916288346999998,0.018189821464284904,-0.03118903373313867,0.1082837174522322,9.939796791006321,0.11414459643532968,-0.037069137,-0.1076770170000001,-0.008433719000001005
193202.0,-0.220061226,0.565843705,9.904324233999999,0.0469685555004194,-0.07728666993681291,0.08936609368986566,9.92291512479455,0.12714390766805808,-0.0012748645000000003,-0.08139519499999992,-0.011964112999999443
193212.0,-0.2152559675,0.544269075,9.8624498385,0.08773770149775495,-0.11565773354190823,0.06298544204597137,9.879801656636351,0.1582459525608368,0.0048052584999999925,-0.02157463000000004,-0.04187439549999894
193222.0,-0.198486596,0.6316463265,9.8049828695,0.12104556494281472,-0.13297838103869997,0.03660653573132907,9.827312098522214,0.1835083569602429,0.01676937150000002,0.08737725149999997,-0.057466969000000034
193232.0,-0.106304086,0.7597211755,9.751144361,0.1317025453554921,-0.12764814550310927,0.019285888234537342,9.78127257427506,0.18442221934597108,0.09218250999999998,0.128074849,-0.05383850850000016
193242.0,-0.0212804305,0.8770087094999999,9.681713279,0.11811341179946426,-0.087413070256884,0.013158037230785251,9.721376916364576,0.14752951176768495,0.0850236555,0.11728753399999992,-0.06943108199999948
193252.0,0.058937966499999994,0.939280937,9.7031898425,0.0850725837299596,-0.018132225598969088,0.01555611962302546,9.748723787352986,0.0883635386649311,0.080218397,0.062272227500000166,0.021476563500000267
193262.0,0.0157887065,0.9680144215,9.824105836999998,0.04590215932745086,0.061805599471623195,0.02408205301901776,9.871694722795187,0.08066526907275631,-0.043149259999999995,0.028733484500000017,0.12091599449999713
193272.0,-0.061978028,0.935750543,10.0144529135,0.010995574287564275,0.11909603216833706,0.029677578600911577,10.058267122690081,0.12322956708423594,-0.07776673449999999,-0.03226387850000001,0.19034707650000193
193282.0,-0.164947853,0.8902476869999999,10.1725361115,-0.01538333202707802,0.12389219695281747,0.02541373923828943,10.212748879620495,0.12740400901118776,-0.10296982500000001,-0.04550285600000015,0.15808319799999992
193292.0,-0.21045070899999999,0.8183649424999999,10.245497587500001,-0.03137229330459808,0.08925264728848603,0.014489723450056925,10.28028362913689,0.09570897513217741,-0.04550285599999998,-0.07188274449999998,0.07296147600000147
193302.0,-0.2176095635,0.775313749,10.1999947315,-0.03297101489942488,0.03675837937625258,0.0011658799403322121,10.231732886180271,0.049392565775649655,-0.007158854500000006,-0.04305119349999986,-0.04550285600000059
193312.0,-0.16014259449999999,0.7465802645,10.1138923445,-0.018048449794873363,-0.016001178582284014,-0.009758135847900298,10.142674504195123,0.02601932880084123,0.05746696900000001,-0.028733484500000017,-0.08610238700000039
193322.0,-0.106304086,0.78845466,10.0252402285,0.005667084081225588,-0.05677032457961956,-0.016687092978317785,10.056759067846397,0.05944278481805895,0.05383850849999998,0.04187439549999994,-0.08865211600000045
193332.0,-0.0452086565,0.8542572815,9.9187400095,0.024319417797288988,-0.08368155631612012,-0.0206838969653848,9.955561395605693,0.08956483988240997,0.061095429500000006,0.06580262150000005,-0.10650021899999906
193342.0,-0.0212804305,0.9847837929999999,9.866078299,0.034178782741804956,-0.0850149878646438,-0.0206838969653848,9.9151274816654,0.09393381151114699,0.023928226,0.13052651149999983,-0.05266171050000068
193352.0,-0.015298373999999998,1.029109851,9.782231441499999,0.03364471199069469,-0.06636265414858039,-0.011890928193837368,9.836226568188811,0.0753482759185098,0.005982056500000001,0.044326058000000224,-0.08384685750000109
193362.0,0.006276256,1.0494096165,9.814593386499999,0.020587903856525112,-0.03811799086355616,0.0030316369107141502,9.870539158370304,0.04342849105182077,0.021574629999999997,0.0202997654999999,0.03236194499999989
193372.0,-0.038049802,1.055391673,9.876865614,-0.0007278022980816355,-0.0056094882159097754,0.016355480420438863,9.933165342824289,0.017306004565262385,-0.044326058,0.005982056499999944,0.062272227500001165
193382.0,-0.07992419749999999,1.0158708735,9.8959885815,-0.030038861756074408,0.012777555453850486,0.03394141796353373,9.948315008791692,0.047091602142548344,-0.04187439549999999,-0.03952079949999998,0.019122967499999532
193392.0,-0.130232312,0.9500682519999999,9.903147436,-0.05775119961924037,0.0175737202383309,0.049396308489943516,9.949468291205344,0.07800020508248767,-0.0503081145,-0.06580262150000005,0.007158854500000089
193402.0,-0.22241482199999998,0.9236883634999999,9.8396984105,-0.07640353333530377,0.011978194656437085,0.06165375582669969,9.88546070527352,0.09890481616627513,-0.09218251,-0.02637988849999995,-0.06344902549999887
193412.0,-0.36490544649999995,0.8889728224999999,9.807434532,-0.07773696488382743,-0.004276056667386108,0.07151312077121566,9.854400071211593,0.1057139858883894,-0.14249062449999997,-0.03471554100000007,-0.03226387850000023
193422.0,-0.48935183499999996,0.7944367164999999,9.772718991,-0.05562015260255529,-0.019730947193795898,0.07630928555569608,9.817160047182343,0.09646770814483294,-0.1244463885,-0.09453610599999995,-0.03471554100000063
193432.0,-0.5983037165,0.6914668915,9.7475159005,-0.013784610432251213,-0.036252233893174224,0.06511823439190843,9.790309496114958,0.07579330047790415,-0.10895188150000007,-0.10296982499999996,-0.025203090499999803
193442.0,-0.7132376545,0.673520722,9.782231441499999,0.026450464813974065,-0.05543689303109589,0.040868629764699224,9.831296460275786,0.07377751077842426,-0.11493393799999996,-0.017946169499999942,0.03471554099999885
193452.0,-0.7707046234999999,0.6746975199999999,9.7606568115,0.05123239486304155,-0.08394859169167525,0.011824605682261582,9.814256148687978,0.09905526553373721,-0.05746696899999992,0.0011767979999999234,-0.02157462999999815
193462.0,-0.7742350175,0.720200376,9.753497957,0.05975832825903385,-0.09727243520139996,-0.013222614413109042,9.810649868439754,0.11492528868026722,-0.0035303940000001033,0.045502856000000036,-0.007158854500000089
193472.0,-0.7958096474999999,0.7848261995,9.676908020499999,0.059491292883478715,-0.09167690961950614,-0.026012387171723488,9.74124293895255,0.11234106093812087,-0.021574629999999928,0.06462582350000001,-0.07658993650000134
193482.0,-0.860435471,0.866319461,9.64582094,0.056560885069380236,-0.06422986180264333,-0.02494599099875495,9.72279384821075,0.08914545043875355,-0.06462582350000001,0.08149326150000002,-0.031087080499998976
193492.0,-1.041270097,0.9477146559999999,9.662492245,0.057627281242348775,-0.02266310033714637,-0.00549429648527815,9.764535978160392,0.062166767280794545,-0.180834626,0.08139519499999992,0.016671304999999137
193502.0,-1.297419795,1.0003763665,9.810964925999999,0.061090014478305525,0.015707963267948967,0.023015656846049223,9.94681274470932,0.0671449956366214,-0.256149698,0.052661710500000125,0.14847268099999944
193512.0,-1.5128718954999998,0.9764481405,9.948650292,0.06082472443200238,0.03755774017366598,0.04859694769253012,10.110285603077262,0.08644011958698426,-0.21545210049999985,-0.023928226000000108,0.13768536600000125
193522.0,-1.70439577,0.8327807179999999,10.067114623999998,0.05363047725528176,0.03729245012736283,0.054724798696282204,10.244280624710607,0.08521595225942,-0.1915238745000003,-0.14366742250000009,0.1184643319999985
193532.0,-1.8397275399999997,0.6555745525000001,10.1509614815,0.04830024171969107,0.01357691625126389,0.03181037094684865,10.337136664193654,0.05940661330904609,-0.13533176999999963,-0.1772061654999998,0.08384685750000109
193542.0,-1.943874163,0.545445873,10.191659079,0.04750088092227767,-0.03705159469058762,-0.013222614413109042,10.389709945157989,0.06167651002955455,-0.10414662300000033,-0.11012867950000005,0.04069759750000124
193552.0,-2.0240925599999997,0.5059250734999999,10.188030618500001,0.05283111645786836,-0.09247627041691955,-0.0689125801857441,10.399465311011756,0.12685397575269247,-0.08021839699999966,-0.03952079950000009,-0.003628460499999875
193562.0,-2.1234339245,0.5622152444999999,10.086335658000001,0.05789257128865191,-0.13910623204245207,-0.11954109112759562,10.322752763614364,0.19233347621107533,-0.0993413645000003,0.056290171,-0.10169496049999971
193572.0,-2.1497157464999996,0.5526047274999999,9.9665964615,0.06908536778169154,-0.19133346457913036,-0.1675044843016518,10.210763673790012,0.2635128743924047,-0.02628182199999962,-0.00961051700000004,-0.1197391965000012
193582.0,-2.0910719795,0.523871243,9.881572806,0.09733003106671578,-0.23236790062276907,-0.22106340305760178,10.113975688272694,0.335167128994907,0.058643766999999514,-0.028733484499999906,-0.08502365550000057
193592.0,-1.9965358734999998,0.5406406145,9.7810546435,0.13889853786146472,-0.24782279114917882,-0.27595400803282344,9.997373540453125,0.39605498883665363,0.09453610600000029,0.01676937150000002,-0.10051816250000023
193602.0,-1.8708146204999998,0.6640082715,9.649351333999999,0.17593616991803637,-0.22810580658939889,-0.330579322961742,9.851438245041408,0.43848430263245697,0.12572125300000003,0.12336765699999996,-0.13170330950000064
193612.0,-1.716359883,0.8303290554999999,9.637387221,0.1860608249088555,-0.15429408719330673,-0.37214782975649097,9.824182919503961,0.4437559048632995,0.15445473749999983,0.16632078399999994,-0.011964112999999443
193622.0,-1.6086828659999999,0.9321220825,9.7475159005,0.17007360896058746,-0.04131543405320977,-0.39826144602483005,9.923244347014057,0.43502204190784693,0.1076770170000001,0.10179302700000004,0.11012867950000071
193632.0,-1.54160538,0.9213347675,9.941491437499998,0.13703278089108278,0.07539647835690304,-0.4273054701072677,10.102408470426,0.4550303031348127,0.06707748599999985,-0.010787314999999964,0.19397553699999825
193642.0,-1.4997309845,0.8160113465000001,10.20479999,0.09999340350525912,0.16466134295015303,-0.4659418237586662,10.346642468907007,0.5041962135263071,0.04187439550000005,-0.10532342099999992,0.2633085525000016
193652.0,-1.4829616129999998,0.6795027785,10.584317344999999,0.08533961910551473,0.20169897500672468,-0.5216335348605532,10.709279753152805,0.5657445287397428,0.01676937150000013,-0.1365085680000001,0.37951735499999906
193662.0,-1.5188539519999997,0.7142183195,10.888323495,0.09413258787706216,0.19397240240814578,-0.5839854223880506,11.016923965753074,0.6225152291777049,-0.035892338999999884,0.03471554100000007,0.3040061500000011
193672.0,-1.6002491469999998,0.8770087094999999,11.142119596999999,0.1122508508420153,0.14947174247004638,-0.6394100981143827,11.290561134100665,0.6661736476943776,-0.08139519500000003,0.16279038999999984,0.253796101999999
193682.0,-1.5679852685,0.915352711,11.284610221499998,0.12903917291694875,0.08951793733478916,-0.679912208736163,11.429736490354896,0.6978145748264742,0.03226387849999979,0.03834400150000017,0.14249062449999883
193692.0,-1.4410872174999998,0.939280937,11.326484616999998,0.13516702392070085,0.04075518336331959,-0.7100226289915692,11.45636219862968,0.7239221249600379,0.12689805100000018,0.023928225999999997,0.041874395500000716
193702.0,-1.389602305,1.018322536,11.3528645055,0.13383533770142916,0.010112437686055145,-0.7316053705217311,11.482835356898075,0.7438148809951637,0.05148491249999987,0.07904159899999985,0.02637988850000106
193712.0,-1.3177195604999998,1.136786868,11.448577409499999,0.1309031845580787,-0.005342452840354643,-0.73746793147918,11.580094728658107,0.749014776549821,0.0718827445000001,0.11846433200000006,0.0957129039999991
193722.0,-1.204060487,1.1427689245,11.5646881455,0.12637405514915342,-0.024794147353831446,-0.7390666530740068,11.683222773439946,0.7502030853334709,0.11365907349999982,0.005982056499999944,0.11611073600000132
193732.0,-1.0879497509999998,1.0686306504999998,11.706001972,0.12157789036467301,-0.051173053668473745,-0.741197700090692,11.804917970759343,0.7528438719063949,0.11611073600000021,-0.07413827400000006,0.14131382649999935
193742.0,-0.9897851845,0.9931194455,11.861633507499999,0.10878811760605855,-0.09194219966580928,-0.7483919472674125,11.944216609335777,0.7618259180064477,0.09816456649999983,-0.07551120499999986,0.15563153549999953
193752.0,-0.9191773044999999,0.9764481405,12.008831324,0.08400618755699107,-0.13484239267982992,-0.7646461985912357,12.083474982656165,0.7809758763441476,0.07060788000000007,-0.016671305000000025,0.14719781650000208
193762.0,-0.8544534144999999,0.9440861954999998,12.202806861,0.037641515977761705,-0.1673508953274763,-0.7870300462480629,12.269062094102916,0.8055057414998604,0.06472389,-0.032361945000000114,0.19397553699999825
193772.0,-0.648611831,0.857885742,12.249486515000001,-0.0393659012787321,-0.19639666473916592,-0.8200708743175676,12.296608684300192,0.8441786321674667,0.20584158349999992,-0.08620045349999983,0.04667965400000185
193782.0,-0.40795664,0.7812958055,12.229088682999999,-0.1459514133687738,-0.19719602553657933,-0.8651038596775253,12.26080999659038,0.8992178688063963,0.240655191,-0.07658993650000001,-0.020397832000002225
193792.0,-0.3097920735,0.7657032319999999,12.170444916,-0.2631939058714929,-0.17561153867716545,-0.9245235940616723,12.198442606402217,0.9771664753669999,0.0981645665,-0.015592573500000095,-0.058643766999999514
193802.0,-0.259483959,0.8542572815,11.977744243499998,-0.3719104649782197,-0.15296240097403502,-0.9786165835687325,12.010971842056387,1.05801952142094,0.0503081145,0.08855404950000012,-0.1927006725000009
193812.0,-0.1230734575,0.924963228,11.785043571,-0.4563791647869892,-0.1153906981663531,-1.0196510196123711,11.82192691651668,1.1230695245938855,0.1364105015,0.07070594649999995,-0.19270067249999911
193822.0,0.030204481999999998,0.9033885979999999,11.653340261499999,-0.5011451147713918,-0.06582858339747012,-1.0478956828973955,11.688343018581639,1.1634282060730468,0.1532779395,-0.02157463000000004,-0.13170330950000064
193832.0,0.2217283565,0.8866192265,11.539583121499998,-0.5163329699222464,-0.014667747033760345,-1.0601531302341516,11.575717504106745,1.1792962045970654,0.1915238745,-0.016769371499999908,-0.11375714000000059
193842.0,0.38089028599999997,0.940457735,11.5144780975,-0.5301891388538295,0.04128925411442985,-1.056955687044498,11.55909788950235,1.1831993280253323,0.15916192949999997,0.05383850849999994,-0.025105023999998366
193852.0,0.5006294825,0.9440861954999998,11.553998897,-0.558967872889964,0.0999096277011634,-1.039102714125848,11.60331069717428,1.1841289909187342,0.11973919649999998,0.003628460499999875,0.03952079949999998
193862.0,0.5832014755,0.9584039044999999,11.611465866,-0.5981382972924727,0.13987941290108555,-1.0164535764227176,11.665539060089307,1.187650430835616,0.08257199300000007,0.014317709000000067,0.057466969000000034
193872.0,0.726868898,0.9189811714999999,11.648535003000001,-0.6351759293490443,0.15560133880305047,-0.9967348465336857,11.707315341467806,1.192116014554059,0.14366742249999997,-0.03942273299999999,0.03706913700000136
193882.0,0.807087295,0.8243469989999999,11.683250544,-0.6594237886470017,0.14867238167263297,-0.9778172227713191,11.740071599031541,1.1887260959758534,0.080218397,-0.09463417250000006,0.03471554099999885
193892.0,0.8130693514999999,0.7848261995,11.707178769999999,-0.6706148398107893,0.11190178499161645,-0.9575661674604289,11.761592948512924,1.1743846209498892,0.005982056499999944,-0.03952079949999987,0.023928225999998887
193902.0,0.8429796339999999,0.7908082559999999,11.6221551145,-0.6788754831604784,0.05700943468714278,-0.9263893510320542,11.679489794789628,1.1499214003510463,0.02991028249999994,0.005982056499999944,-0.0850236554999988
193912.0,0.8238566665,0.8195417405000001,11.470152039499999,-0.6756780399708249,-0.013603096190043804,-0.8778936324361397,11.52886708573762,1.1078912797728355,-0.019122967499999866,0.028733484500000128,-0.15200307500000143
193922.0,0.8011052384999999,0.8267986614999999,11.3181489645,-0.6487650629050722,-0.09860412142067165,-0.8216695959123945,11.376548756649477,1.0515511421011354,-0.022751428000000073,0.007256920999999861,-0.15200307499999788
193932.0,0.8107157554999999,0.813559684,11.0751401775,-0.5994699835117443,-0.19586259398805564,-0.77317387731648,11.13453498566154,0.9977596210610551,0.00961051699999993,-0.013238977499999915,-0.24300878700000084
193942.0,0.8969162089999999,0.7597211755,10.8236976715,-0.5365840252331366,-0.279798968374967,-0.7372008961036249,10.887335130072215,0.9537688609170876,0.08620045350000005,-0.05383850850000005,-0.25144250600000007
193952.0,0.9650724264999999,0.721377174,10.644137909999998,-0.47130172989154073,-0.3448159736702597,-0.7092232681941558,10.712115648304865,0.9187061665434316,0.0681562175,-0.03834400149999995,-0.17955976150000197
193962.0,1.0082216865,0.7190235779999999,10.5914761995,-0.4025532106554841,-0.3983748924262097,-0.6921696560729192,10.663623866182819,0.8943436001407602,0.04314926000000008,-0.002353596000000069,-0.05266171049999713
193972.0,1.0417604295,0.6723439239999999,10.6393326515,-0.3316753897319944,-0.46339189772150247,-0.687905816710297,10.711335603643729,0.8932832852413989,0.03353874300000004,-0.04667965400000007,0.04785645199999955
193982.0,1.1123683094999999,0.580161414,10.779469679999998,-0.2706551884237687,-0.5595839741159179,-0.6889722128832656,10.852230973597717,0.9279392034143906,0.07060787999999985,-0.09218250999999988,0.1401370284999981
193992.0,1.3397845229999998,0.51190713,10.890775157499998,-0.23628092880574034,-0.6517809918525184,-0.6935013422921908,10.98481019449286,0.9806075924744956,0.22741621349999996,-0.068254284,0.1113054775000002
194002.0,1.6199605135,0.5885951329999999,10.866846931499998,-0.25893006650887074,-0.712534157785189,-0.6969658208573996,11.002685059954292,1.0298111772535612,0.2801759905000001,0.0766880029999999,-0.023928226000000663
194012.0,1.856987244,0.7190235779999999,10.783000074,-0.34073539387909696,-0.7218594519785947,-0.6892375029295688,10.965331145295279,1.054623161369675,0.2370267305,0.13042844500000006,-0.08384685749999754
194022.0,2.089208716,0.821993403,10.641784313999999,-0.48302510647718666,-0.6853541453438813,-0.6660560398045801,10.876030507463755,1.0708194087648486,0.23222147199999998,0.10296982500000007,-0.14121576000000147
194032.0,2.3285890425,0.7824726034999999,10.431039405499998,-0.6426372119013201,-0.5675775820900519,-0.6359456195491738,10.71639740692612,1.0674988191259391,0.23938032650000007,-0.03952079950000009,-0.2107449085000006
194042.0,2.345358414,0.6759723845,10.258736565,-0.7846616344531067,-0.4436731678324705,-0.6077009562641497,10.545108850305681,1.0871247456853708,0.01676937150000013,-0.10650021899999995,-0.17230284049999867
194052.0,2.2771041299999997,0.6172305509999999,10.201269596,-0.8680639380889078,-0.36613167982486644,-0.5837183870124956,10.470533804072494,1.1082935364416195,-0.06825428400000044,-0.05874183350000006,-0.057466969000000034
194062.0,2.1681522484999998,0.534658558,10.121051199,-0.882719467817904,-0.36213487583779946,-0.566931810266814,10.364478825252025,1.1098409816974633,-0.1089518814999999,-0.08257199299999995,-0.08021839699999944
194072.0,2.138241966,0.38500907900000003,10.0420096,-0.8358224708168165,-0.4260872302893757,-0.56080221393381,10.274349979564066,1.0929998415786994,-0.02991028249999994,-0.14964947899999992,-0.07904159899999996
194082.0,2.2471938474999997,0.161221326,10.058778971499999,-0.7462905708480114,-0.5217469812619329,-0.5554737237274713,10.30800208098978,1.0666398578453054,0.1089518814999999,-0.22378775300000003,0.016769371499998798
194092.0,2.5021667474999996,0.027066353999999997,9.9689500575,-0.6476986667321036,-0.6285977833982777,-0.5480124411751955,10.278206860573631,1.0559196805925013,0.25497289999999984,-0.134154972,-0.08982891399999815
194102.0,2.8840376985,0.07374600799999999,9.8732371535,-0.5749550888382321,-0.6986779888536061,-0.5261626642694786,10.286103431782022,1.0466954836821716,0.38187095100000024,0.04667965399999999,-0.09571290400000088
194112.0,3.2311931085,0.337152627,9.6912257295,-0.5680278770370665,-0.6904173455039169,-0.47127205929425686,10.221259068159544,1.0106577729060224,0.34715541000000005,0.263406619,-0.1820114240000006
194122.0,3.441938017,0.6412568435,9.6182642535,-0.6253165644045284,-0.6096784143066593,-0.3812078339035935,10.235680480669636,0.9529155194557568,0.21074490850000016,0.3041042165,-0.07296147599999969
194132.0,3.512545897,0.752562321,9.693677392,-0.7076542171966129,-0.5185495380722792,-0.271157843248343,10.337877446830774,0.9182563315905957,0.07060787999999985,0.11130547749999997,0.07541313850000009
194142.0,3.3725069349999997,0.709413061,9.941491437499998,-0.7641435437666614,-0.4897708040361448,-0.1683038450990652,10.521897258556855,0.923101825500098,-0.1400389620000002,-0.04314925999999997,0.24781404549999841
194152.0,3.2084416805,0.636451585,10.0958481085,-0.7689397085511418,-0.5529220523610556,-0.09449387103222501,10.612507605044234,0.9517983836068076,-0.16406525449999965,-0.07296147600000003,0.15435667100000217
194162.0,3.1845134545,0.60408964,10.026417026499999,-0.7268388763345345,-0.6717650117878535,-0.056122807427129655,10.537318853690246,0.991318693825092,-0.02392822600000022,-0.032361945,-0.06943108200000125
194172.0,3.280324425,0.6424336414999999,9.727216134999999,-0.6698154790133758,-0.7732873237178597,-0.02814517951766056,10.285522983980293,1.0234345177287745,0.09581097050000009,0.03834400149999995,-0.29920089149999995
194182.0,3.5208815495,0.658026215,9.3393631275,-0.6231855173878433,-0.8089932695551596,0.0003665191429188092,10.002665095490467,1.0211906940448405,0.2405571245,0.015592573500000095,-0.3878530074999986
194192.0,3.7711472575,0.6388051809999999,9.0208431355,-0.5994699835117443,-0.7517045821876978,0.034473743385392,9.798226093141537,0.9620875630609482,0.25026570800000014,-0.01922103400000008,-0.3185199920000006
194202.0,3.9339376474999996,0.602912842,8.8341245195,-0.6095946385025635,-0.6094131242603561,0.07790800715052289,9.689227282683456,0.8654823146026759,0.16279038999999962,-0.035892338999999995,-0.18671861600000028
194212.0,3.9422733,0.6640082715,8.817355147999999,-0.6524965768458361,-0.43541252448278134,0.1338650082987131,9.681331394104603,0.7957736422619294,0.008335652500000457,0.06109542950000002,-0.016769371500000574
194222.0,3.8333214184999997,0.658026215,8.987402459,-0.7041897386314041,-0.2848621685350025,0.19648393120176563,9.79289306370683,0.7846244823332558,-0.10895188150000035,-0.005982056499999944,0.17004731100000114
194232.0,3.6107104635,0.535835356,9.213641874499999,-0.7433601630339128,-0.18520386824612628,0.26496366973301516,9.910375682662483,0.8106112206708715,-0.22261095499999994,-0.12219085900000004,0.2262394154999985
194242.0,3.3425966524999997,0.301260288,9.4231119185,-0.7641435437666614,-0.15775856575851546,0.33104707120127647,10.002936987255634,0.8475820219314462,-0.2681138110000001,-0.234575068,0.20947004400000147
194252.0,3.1115519785,0.084533323,9.5500099695,-0.7830629128582799,-0.20279155111847313,0.38114151139201774,10.044480674238667,0.8941928150043044,-0.23104467399999962,-0.216726965,0.1268980509999995
194262.0,2.9690613539999995,-0.10100849499999999,9.4674379765,-0.8094418191729222,-0.31817003198006233,0.41791385340228626,9.922595924391604,0.964924979851652,-0.1424906245000006,-0.18554181799999997,-0.08257199300000018
194272.0,3.0193694685,-0.2686041435,9.211190212,-0.844882474963919,-0.4351454891072262,0.4424287480757986,9.69715243227928,1.048294419671994,0.05030811450000039,-0.16759564850000003,-0.2562477644999994
194282.0,3.122241227,-0.412271566,8.7754807525,-0.8931111581842783,-0.5153520948826257,0.45868299939962176,9.323487575001563,1.1285501391216108,0.10287175850000008,-0.14366742249999997,-0.43570945949999995
194292.0,3.2097165449999996,-0.482879446,8.2786758635,-0.9264190216293382,-0.5308069854090355,0.47626893694271666,8.892239701645108,1.169119480503269,0.08747531799999964,-0.07060788000000001,-0.49680488899999986
194302.0,3.2670854475,-0.5116129305,7.718421949,-0.9112311664784835,-0.45299846202587624,0.5189038399104341,8.39700139899512,1.1422832575299964,0.057368902500000374,-0.028733484500000017,-0.5602539145000005
194312.0,3.268360312,-0.6192899475,7.4706079034999995,-0.9114964565247866,-0.31550491421226695,0.5687312447256203,8.17775529200819,1.1197429927784703,0.001274864500000028,-0.10767701699999999,-0.2478140455000002
194322.0,3.178531398,-0.786885596,7.614275326,-0.9837094543260521,-0.15536048336627525,0.6095003907229557,8.28851250402607,1.1676094794980458,-0.08982891399999993,-0.16759564849999997,0.14366742250000009
194332.0,3.1150823725,-1.187977581,7.530526535,-1.031405812124553,-0.011470303844106734,0.6481367443743542,8.23552419793409,1.2181998015772175,-0.0634490255000002,-0.401091985,-0.08374879099999966
194342.0,2.852950618,-1.2274983805,7.6059396735,-0.9967645171309696,0.06287199564459174,0.6742503606426934,8.215619137946817,1.205033584293181,-0.2621317544999999,-0.03952079949999998,0.07541313850000009
194352.0,2.6649571374999996,-1.214259403,7.712439892499999,-0.953864324116949,0.01864011641129944,0.6843767609627645,8.249736452633593,1.1741278268181856,-0.1879934805000003,0.013238977499999915,0.10650021899999906
194362.0,2.636223653,-1.2574086629999999,7.856107315,-0.8821871423960458,-0.0975377252477031,0.6857084471820363,8.381478022355044,1.1215898700470672,-0.028733484499999573,-0.043149259999999856,0.14366742250000097
194372.0,2.715265252,-1.2753548325,7.792658289499999,-0.7670739515807599,-0.23423365759315098,0.6897052511691032,8.35013284651285,1.057809617574648,0.07904159899999996,-0.017946169500000053,-0.06344902550000064
194382.0,2.83019919,-1.214259403,7.5831882455,-0.6191887134007763,-0.3426831813243226,0.7147524712644738,8.184692866536894,1.0058317556848857,0.11493393800000007,0.06109542949999991,-0.2094700439999997
194392.0,2.8805073044999996,-1.0251871909999999,7.310269175999999,-0.48009469866308824,-0.40130530024030814,0.7720429039611877,7.923911062943856,0.9937741741674458,0.0503081144999995,0.18907221200000013,-0.27291906950000033
194402.0,2.9738666125,-0.9509508505,7.125904155999999,-0.3788394221086372,-0.39464337848544584,0.861840093976296,7.779890756913425,1.02079922193891,0.09335930800000058,0.07423634049999994,-0.18436502000000043
194412.0,2.9654328934999996,-1.029894383,7.145027123499999,-0.3212836993656202,-0.3317591655360902,0.9620307196870305,7.804222400824915,1.0671412582300466,-0.008433719000000561,-0.07894353250000008,0.01912296750000042
194422.0,2.866091529,-1.225046718,7.197688833999999,-0.29889985170879285,-0.2598132031103799,1.0552923882673475,7.843592586626131,1.127158394635384,-0.09934136449999942,-0.19515233499999995,0.05266171049999979
194432.0,2.740370276,-1.488453337,7.3425330545,-0.29863281633323774,-0.2171800454719144,1.1253708483934237,7.977337540961636,1.184402075967464,-0.12572125300000003,-0.26340661899999995,0.14484422050000045
194442.0,2.612295427,-1.7529386875,7.4144157989999995,-0.31701986000299803,-0.22730470046273352,1.159745108011452,8.054218961545565,1.2235921436676798,-0.12807484900000032,-0.2644853505,0.07188274449999987
194452.0,2.516582523,-1.863067367,7.327038547499999,-0.33380643674867944,-0.2776661760290299,1.1536172570077,7.96804251278821,1.232622415093691,-0.09571290399999999,-0.11012867950000005,-0.08737725150000042
194462.0,2.4292052715,-1.863067367,7.228873981,-0.32821091116678563,-0.3344242833038855,1.1288353269586324,7.850393448626794,1.222223874280834,-0.08737725149999997,0.0,-0.0981645664999995
194472.0,2.3345710989999997,-1.7098874939999997,7.098347469499999,-0.2949030477217259,-0.3570734210070159,1.1043204322851201,7.6655380930617465,1.1974944061278996,-0.09463417250000017,0.15317987300000024,-0.13052651150000028
194482.0,2.263963219,-1.5470971040000001,6.975077879,-0.24827308609619336,-0.3317591655360902,1.0973932204839547,7.494714826082788,1.173019841929827,-0.07060787999999985,0.16279038999999962,-0.12326959049999964
194492.0,2.1406936285,-1.5063995065,7.000182903,-0.21256539492964138,-0.2614119247052067,1.1176442757948448,7.473578082801935,1.1673255624360575,-0.12326959050000008,0.04069759750000013,0.025105024000000142
194502.0,2.007813521,-1.6093693315,7.111488380499999,-0.19951033212472383,-0.18014241341534273,1.1528178962102864,7.562714576543906,1.1837418483598239,-0.13288010749999968,-0.10296982499999996,0.1113054774999993
194512.0,1.8234485009999999,-1.7075338979999999,7.2264223185,-0.20244073993882228,-0.11645709433932165,1.1810625594953108,7.646032695060435,1.2039324222939385,-0.1843650200000002,-0.09816456649999994,0.11493393800000096
194522.0,1.6246677055,-1.7769649799999998,7.3174280304999995,-0.21523051269743673,-0.09647307440398656,1.1925206460346538,7.703369566299421,1.21562194735858,-0.19878079549999983,-0.06943108199999992,0.0910057119999994
194532.0,1.4906107999999998,-1.8643422315,7.3509667735,-0.22935371700457485,-0.12018686295083351,1.19358529687837,7.728803595533531,1.2213492008651758,-0.13405690550000027,-0.0873772515000002,0.03353874300000026
194542.0,1.3542002985,-1.8726778839999998,7.291048142,-0.23388284641350013,-0.15083135395734995,1.181861920292724,7.648539985817022,1.2141865103109544,-0.1364105014999999,-0.00833565249999979,-0.05991863149999954
194552.0,1.2859460145,-1.9816297655,7.298305063,-0.21922731668450376,-0.17321345628492524,1.159212782589594,7.671099691200438,1.1924084003134021,-0.068254284,-0.10895188150000013,0.00725692099999975
194562.0,1.2679998449999998,-2.1108814125,7.327038547499999,-0.19178201419689292,-0.18547090362168142,1.1147138679807465,7.729756646952665,1.146196669218794,-0.017946169500000053,-0.12925164700000003,0.02873348449999913
194572.0,1.2404431584999998,-2.024680959,7.368912943,-0.16939991186931763,-0.18493857819982315,1.056358784440316,7.74202235702788,1.0857221050122017,-0.027556686500000094,0.08620045350000005,0.041874395500000716
194582.0,1.142278592,-1.8846419969999997,7.371266539,-0.1614063038951836,-0.16548688368634634,1.0153226030674252,7.693649733876548,1.0413058589621662,-0.09816456649999972,0.1400389620000002,0.002353595999999847
194592.0,1.0549013404999998,-1.768531261,7.330568941499999,-0.17739351984345167,-0.13910623204245207,1.0073289950932913,7.614312882027331,1.0322454693681913,-0.0873772515000002,0.11611073599999977,-0.04069759750000035
194602.0,1.084811623,-1.7349925179999999,7.207299351,-0.21123370871036973,-0.11032924333556954,1.0054632381229094,7.492141164569504,1.0333191882700827,0.029910282500000163,0.03353874300000004,-0.12326959049999964
194612.0,1.175817335,-1.8535549165,7.068437187,-0.2586647764625676,-0.06662794419488353,0.9993353871191573,7.401419897582645,1.0344167271842921,0.09100571200000007,-0.11856239850000017,-0.13886216399999984
194622.0,1.2273022475,-2.034291476,6.942715934,-0.3018320048521434,-0.016001178582284014,0.9758868886186134,7.3379777293381245,1.0216231282849877,0.05148491249999987,-0.1807365594999999,-0.12572125300000003
194632.0,1.142278592,-2.0139917105,6.893682684,-0.3231477110067501,0.041022218738874724,0.9417796643761402,7.27212650738322,0.9965220528375665,-0.0850236554999999,0.0202997654999999,-0.04903324999999992
194642.0,1.017734137,-2.0367431385,6.8877006275,-0.32208306016303356,0.08525409797216701,0.9225932599089666,7.254276347086997,0.9809098236303305,-0.12454445500000011,-0.02275142799999985,-0.005982056499999722
194652.0,0.9052518615,-2.1372613009999997,6.9475211925,-0.3036960164932733,0.11509922818127004,0.9212615736896949,7.32498583764761,0.9768326314773784,-0.1124822754999999,-0.10051816249999979,0.05982056499999988
194662.0,0.786689463,-2.230620609,7.0540214115,-0.2730532708160089,0.13295220109992006,0.9300545424612424,7.440011202033987,0.9783842948624151,-0.11856239850000005,-0.09335930800000014,0.10650021899999995
194672.0,0.7340277525,-2.404198314,7.0073417575,-0.24134412896577587,0.12815603631543965,0.9505726331476877,7.444582243543544,0.9890699111385716,-0.052661710500000014,-0.17357770500000003,-0.04667965400000007
194682.0,0.6406684444999999,-2.5394320175,6.736776283999999,-0.18591945323944395,0.11056835344309277,0.972954735475263,7.22795446360497,0.9967107510003639,-0.09335930800000003,-0.13523370349999997,-0.2705654735000005
194692.0,0.483860111,-2.556201389,6.548880869999999,-0.17099863346414443,0.10390817701748241,0.9766862494160268,7.046710352894775,0.9969721519160134,-0.15680833349999995,-0.01676937150000013,-0.18789541400000065
194702.0,0.287530978,-2.5586530514999994,6.411195503999999,-0.18272201004979036,0.11909603216833706,0.9684256060663377,6.908893347835796,0.9926829062292907,-0.196329133,-0.0024516624999995074,-0.13768536599999948
194712.0,0.00980665,-2.5706171644999998,6.327446713,-0.17206328430786097,0.1550672680519402,0.9662928137204005,6.829696236485247,0.9936666610466454,-0.277724328,-0.011964113000000332,-0.08374879099999966
194722.0,-0.2044686525,-2.7118329245,6.3681443105,-0.11344291072112743,0.17478599794097213,0.9641617667037156,6.924529384702682,0.9864214877233429,-0.2142753025,-0.14121576000000013,0.04069759750000035
194732.0,-0.312243736,-3.0099550844999996,6.5536861285,-0.009522516398881062,0.18198024511769276,0.9559011233540263,7.218595959899123,0.973115843854755,-0.10777508350000001,-0.2981221599999997,0.18554181799999991
194742.0,-0.351666469,-3.2876794124999997,6.776297083499999,0.10852108223050343,0.1806485588984211,0.9535030409617862,7.539940808033301,0.9765135822117016,-0.03942273299999999,-0.27772432800000013,0.2226109549999995
194752.0,-0.312243736,-3.408595407,6.9008415385,0.2095110687386513,0.16812407618610978,0.9543024017591996,7.703092414010089,0.9913897653903945,0.03942273299999999,-0.12091599450000023,0.12454445500000055
194762.0,-0.282235387,-3.4181078575,6.892407819499999,0.26227062669718787,0.1396141228547824,0.9484398408017506,7.698597514449174,0.9938893884878216,0.03000834899999999,-0.009512450499999936,-0.008433719000001005
194772.0,-0.40913343799999996,-3.2637511865,6.736776283999999,0.2710635954687353,0.0913836943051711,0.92152860906525,7.4969071408237875,0.9649048811665497,-0.12689805099999996,0.15435667099999995,-0.15563153549999953
194782.0,-0.7670761629999999,-2.9297366875,6.643416976,0.28518505444662146,0.05727647006269791,0.8791607414730876,7.301147308124338,0.9260317049918295,-0.35794272499999996,0.3340144989999998,-0.09335930799999925
194792.0,-1.2482884784999997,-2.9393472044999998,6.5991889845,0.3424754871433353,0.043952626552973204,0.8351941522860985,7.331253737752086,0.903753597330525,-0.48121231549999977,-0.009610516999999597,-0.04422799150000056
194802.0,-1.642221609,-3.2074610155000003,6.6686200665,0.4418650067274044,0.03569372853253604,0.7954914024617314,7.579920287862222,0.910672991703002,-0.39393313050000023,-0.26811381100000053,0.06943108200000037
194812.0,-1.716359883,-3.4911673999999997,6.8409229069999995,0.5631060485464424,0.03835710097107938,0.7619165036411166,7.869712020290949,0.9481964182727108,-0.07413827400000006,-0.2837063844999994,0.17230284049999955
194822.0,-1.6158417205,-3.58334991,7.069613984999999,0.6638289996790352,0.08632049414513555,0.7323401541368207,8.088929653552006,0.992190641905814,0.10051816250000001,-0.09218251000000022,0.22869107799999977
194832.0,-1.5320929295,-3.4528233985,7.2383864315,0.7165885576375718,0.15986517816567258,0.6886388549961346,8.16477411185247,1.0066178563573294,0.08374879099999988,0.13052651149999983,0.16877244650000112
194842.0,-1.6062312035,-3.1978504985,7.316251232499999,0.7112583221019811,0.22967834824544578,0.6406772071513305,8.144553921910735,0.9844327443636313,-0.07413827399999984,0.2549729000000003,0.0778648009999987
194852.0,-1.7199883434999998,-3.042218963,7.3641076844999995,0.6766187724376498,0.2624521409393953,0.6084339945499873,8.151290579382175,0.9470406618634483,-0.11375713999999992,0.15563153549999997,0.04785645200000044
194862.0,-2.0240925599999997,-2.9093388554999997,7.5257212765,0.6699568506827873,0.27071278428908446,0.5937784648209908,8.318514530800206,0.9352542213962575,-0.30410421649999986,0.13288010750000012,0.16161359200000014
194872.0,-2.3568321945,-3.1368531354999996,7.6082932695,0.7237828048142926,0.22461514808541025,0.5916474178043057,8.56041074139827,0.9614365191154213,-0.3327396345000002,-0.22751427999999985,0.08257199300000018
194882.0,-2.3221166534999997,-3.5102903674999997,7.787853030999999,0.8346321562669564,0.14707366007780617,0.5713963624934155,8.852401880228957,1.0221229382193797,0.03471554100000018,-0.3734372320000001,0.1795597614999993
194892.0,-2.2993652255,-3.524706143,7.9207331385,0.9590688959463961,0.11030306339678962,0.5154393613452254,8.969316991057495,1.0943754603382374,0.02275142799999985,-0.014415775500000283,0.132880107500001
194902.0,-2.153344207,-3.3008203235,7.945936228999999,1.042205909535894,0.11536451822757318,0.4480242736576924,8.86962280129126,1.1402753525898572,0.14602101849999993,0.22388581949999997,0.025203090499998915
194912.0,-1.8719914185,-3.005149826,7.961430736,1.0547286469189532,0.2078268260104768,0.40032791585919136,8.713188664993487,1.1471298742763343,0.2813527885,0.2956704975000002,0.015494507000000546
194922.0,-1.623000575,-2.7465484654999996,8.064400561,0.9921114693451527,0.38209446116360657,0.3840736645353682,8.672497664920288,1.1303954726765901,0.2489908434999999,0.25860136050000015,0.10296982499999974
194932.0,-1.6134881245,-2.5059913409999997,8.291816774499999,0.8908544474614497,0.5747456493279928,0.389669190117262,8.811217960699251,1.1295115252665393,0.009512450500000158,0.2405571245,0.22741621349999974
194942.0,-1.8923892505,-2.255725633,8.5683643045,0.8047870260578533,0.7162377464579209,0.4285725791442156,9.060149119159737,1.1594624281780284,-0.27890112600000005,0.2502657079999997,0.2765475300000002
194952.0,-2.4346969955,-2.298874893,8.852070689,0.7943953356914791,0.7647334650538354,0.48479661566796095,9.464234291088498,1.2045368323570402,-0.542307745,-0.043149259999999856,0.2837063845000003
194962.0,-2.906298794,-2.693886755,9.2938602715,0.8719368236990832,0.7109092562515823,0.5282291341038399,10.103436904090426,1.2428563123960534,-0.47160179850000006,-0.39501186200000005,0.4417895825000002
194972.0,-3.343283118,-2.9620986324999996,9.890006524999999,1.0368756740003033,0.569150123746099,0.5162387221426388,10.851903030358534,1.2905601283680073,-0.436984324,-0.26821187749999975,0.5961462534999988
194982.0,-3.6748459545,-3.2481586129999998,10.379554492999999,1.2242001172876025,0.3533157271274721,0.4466925874384207,11.479990358779382,1.3501970959363767,-0.33156283649999985,-0.28605998050000014,0.4895479680000001
194992.0,-3.5803098485000002,-3.2984667274999997,10.6585536855,1.3584962219115584,0.07006624282131235,0.332113467374245,11.717647717454911,1.400257340113744,0.09453610599999962,-0.050308114499999945,0.2789991925000006
195002.0,-3.2762056319999995,-3.0159371409999998,10.599909918499998,1.401663450301134,-0.16175536974558247,0.18955497407134814,11.497281872770033,1.4236419197771606,0.30410421650000075,0.28252958649999993,-0.05864376700000129
195012.0,-2.9134576485,-2.6065095035000003,10.214410506999998,1.3321173155969162,-0.2747357682149314,0.05845631263704608,10.936924122757318,1.3614086180632552,0.36274798349999937,0.40942763749999944,-0.38549941149999967
195022.0,-2.556789788,-2.1695251795,9.7116235615,1.189293532247716,-0.2598132031103799,-0.030009191158790503,10.274222390273025,1.217712017642402,0.3566678605,0.4369843240000004,-0.5027869454999987
195032.0,-2.258667628,-1.9839833614999998,9.415953064,1.044336956552579,-0.11912221210711697,-0.0595872859923384,9.884226906335922,1.0527964783806645,0.29812216000000014,0.18554181800000014,-0.29567049749999974
195042.0,-2.164131522,-2.0857763885,9.520099687,0.952941044942644,0.0727313605891077,-0.048396234828550766,9.983297373000347,0.9569371356024915,0.09453610600000006,-0.10179302700000004,0.1041466230000001
195052.0,-2.2167932324999997,-2.4329317985,9.960614405,0.9036459655493162,0.24406684259888706,-0.06118600758716521,10.490336920085252,0.9380236576090192,-0.05266171049999979,-0.34715541000000005,0.4405147179999993
195062.0,-2.14373369,-2.5849348735,10.433491067999999,0.9009808477815208,0.3634421274475432,-0.10328683980377243,10.960621255198687,0.9769978706984751,0.0730595424999998,-0.1520030750000001,0.4728766629999992
195072.0,-2.0719490119999997,-2.1779588985,10.695622822499999,0.9071086987852729,0.4303231443839659,-0.13233086388621007,11.1100326387039,1.0126873444164715,0.07178467800000021,0.40697597499999993,0.26213175450000037
195082.0,-2.1402032959999997,-1.7601956085,10.833308188499998,0.8519510584344961,0.4535063528382066,-0.1816259432795379,11.18209841824928,0.9820776961648463,-0.068254284,0.4177632900000001,0.13768536599999948
195092.0,-2.2491551775,-1.3902887705,10.783000074,0.7403040915136708,0.45084123507041124,-0.2074742695015739,11.102463351605241,0.8912651343213798,-0.10895188150000035,0.3699068379999999,-0.05030811449999817
195102.0,-2.363991049,-1.0838309579999998,10.6046171105,0.6427785835707316,0.428459132742836,-0.20374275556081006,10.918839099720294,0.7989071575417578,-0.11483587149999996,0.30645781250000015,-0.1783829635000007
195112.0,-2.4154759615,-1.201118492,10.4178984945,0.5836241392328878,0.3783629472228427,-0.1792278608872977,10.761497051717019,0.7182605946623561,-0.05148491249999987,-0.11728753400000014,-0.18671861600000028
195122.0,-2.2551372339999998,-1.720674809,10.353272671,0.5769622174780255,0.3160110596953453,-0.14752046436631672,10.734832124564212,0.6741740707367714,0.1603387275000001,-0.5195563169999999,-0.06462582350000012
195132.0,-2.1402032959999997,-2.1061742205,10.5316556345,0.6267913676224636,0.2904315141781164,-0.1512502329778286,10.951356555194595,0.7071736108832676,0.11493393800000007,-0.3854994114999999,0.1783829635000007
195142.0,-2.2754369994999997,-2.1108814125,10.781823275999999,0.6856787765847522,0.2608534193445685,-0.18882193578551051,11.219676779267168,0.7575312630355947,-0.13523370349999997,-0.004707192000000138,0.25016764149999915
195152.0,-2.4250864785,-1.7637260025,10.9864880615,0.6998019808918904,0.19903385723892936,-0.24850870554521262,11.38835781689266,0.7688262908611915,-0.14964947900000025,0.34715541000000005,0.20466478550000033
195162.0,-2.3784068245,-1.4034296814999998,11.060724402,0.651304516966724,0.13774836588440048,-0.3220533895657497,11.400265707023745,0.7395205013086986,0.04667965400000007,0.3602963210000001,0.07423634050000061
195172.0,-2.3197630575,-1.029894383,11.096616741,0.5697679703013049,0.09271538052444277,-0.4046563324041373,11.38318436026221,0.7049669702346547,0.05864376699999996,0.3735352984999998,0.035892339000000106
195182.0,-2.3340807665,-0.5918313275,10.943436868,0.49435927463963786,0.054878387670457704,-0.4771328749224539,11.205222346239152,0.6892448840486985,-0.014317709000000178,0.4380630555,-0.1531798730000009
195192.0,-2.2658264825,-0.424235679,10.6728713945,0.44133268130554615,0.02103819880353965,-0.5171026601223759,10.918980234603929,0.6801560868674759,0.068254284,0.16759564850000003,-0.2705654734999996
195202.0,-2.0623384949999997,-0.682738973,10.392793470500001,0.4216139514165142,-0.010937978422248465,-0.5232322564553801,10.617416290872248,0.6720490738007165,0.2034879875000004,-0.258503294,-0.28007792399999865
195212.0,-1.74754503,-1.164049355,10.385634615999999,0.458918618848641,-0.0058747782622129135,-0.5288277820372739,10.595769481722932,0.700213992148141,0.3147934649999997,-0.481310382,-0.0071588545000018655
195222.0,-1.6278058334999999,-1.3483163084999998,10.659730483499999,0.5513809266315446,0.049548152134867025,-0.5397517978255064,10.867270249708655,0.7731804116045019,0.11973919650000009,-0.18426695349999989,0.2740958674999998
195232.0,-1.7415629734999998,-1.1412979269999999,11.0188500065,0.641445152022208,0.12282580077984895,-0.5365543546358528,11.213860085384768,0.8452388040481229,-0.11375713999999992,0.20701838149999996,0.3591195230000004
195242.0,-1.9833949625,-0.7546217175,11.301379593,0.6720896430287244,0.1806485588984211,-0.5077773659289703,11.498890825591392,0.8614965138921444,-0.24183198900000025,0.3866762094999999,0.2825295865000008
195252.0,-2.1952186025,-0.3499993385,11.464169983,0.6582334740971414,0.19024088846738194,-0.46620885913422133,11.677700015363929,0.8287421808995142,-0.21182363999999976,0.404622379,0.16279038999999962
195262.0,-2.2742602014999997,-0.1177778665,11.561157751499998,0.6523709131396925,0.15107046406487318,-0.42570674851244095,11.783314459227192,0.793496269148461,-0.07904159899999996,0.23222147199999998,0.09698776849999824
195272.0,-2.325745114,0.0283412185,11.5946964945,0.6880768589769926,0.0804579331876866,-0.3884020810803141,11.825687310238317,0.7942162296629283,-0.05148491250000031,0.14611908499999998,0.033538743000002924
195282.0,-2.2766137975,-0.1536702055,11.5646881455,0.7509628172556002,-0.03758392011244589,-0.3518967744456007,11.78764594046216,0.830174104520675,0.04913131650000002,-0.18201142399999998,-0.030008349000000933
195292.0,-1.95936867,-0.553487326,11.496531928,0.8186431949894363,-0.17321345628492524,-0.32311804040946623,11.67543233360305,0.8969865384601574,0.3172451275000001,-0.39981712049999996,-0.06815621750000034
195302.0,-1.621823777,-0.7318702895,11.322954223,0.8769982785298667,-0.256083434498868,-0.31006123227529664,11.461903804362034,0.964801883149676,0.337544893,-0.17838296350000005,-0.17357770499999958
195312.0,-1.413530531,-0.563097843,11.2055686225,0.8929872398073867,-0.27580216438789995,-0.2898101769644064,11.308400235949245,0.9785105942257375,0.208293246,0.1687724465,-0.11738560050000046
195322.0,-1.3357637965,-0.2686041435,11.115837775,0.851685768388193,-0.22224324563194994,-0.2530395802833899,11.199029535904547,0.9158546486719408,0.07776673449999993,0.2944936995,-0.08973084750000027
195332.0,-1.389602305,0.037853669,11.049937086999998,0.7632185192631044,-0.10153452923477012,-0.21013764194011728,11.137034483783198,0.7981037509830692,-0.05383850849999994,0.3064578125,-0.06590068800000104
195342.0,-1.504536243,0.2868445125,11.0057090955,0.6390470696299677,0.04075518336331959,-0.17363233530540387,11.111774915629967,0.6634684092232537,-0.11493393800000007,0.24899084349999998,-0.0442279914999979
195352.0,-1.6721318914999999,0.430511935,11.0774937735,0.5175407377646265,0.17052215857835,-0.15577936238675388,11.211254786627592,0.5667392977002719,-0.16759564849999986,0.14366742250000003,0.07178467800000021
195362.0,-1.8708146204999998,0.20191892349999999,11.290592277999998,0.4208145906191008,0.2445991680207453,-0.1496515113830018,11.44631786139006,0.509224162362293,-0.19868272899999995,-0.22859301150000003,0.2130985044999978
195372.0,-1.8468863944999998,-0.2338886025,11.458187926499999,0.3605937501082884,0.2283449166969221,-0.16350768031458476,11.60843502766669,0.4570601876343416,0.023928225999999997,-0.43580752599999995,0.16759564850000075
195382.0,-1.668503431,-0.6157595535,11.4929034675,0.33341548299623275,0.1737213470972556,-0.2074742695015739,11.629698776849674,0.4294072230926118,0.17838296349999982,-0.381870951,0.03471554100000063
195392.0,-1.5213056145,-0.728241829,11.416313530999998,0.3091676236982755,0.11429986738385664,-0.2636965606960673,11.540230568420553,0.4221195983961659,0.14719781650000008,-0.1124822755,-0.07658993650000134
195402.0,-1.4087252725,-0.5822208105,11.3540413035,0.27958952886472765,0.042088614911843264,-0.3353754877462224,11.455904236992533,0.4386553019593111,0.112580342,0.14602101850000004,-0.06227222749999761
195412.0,-1.310560706,-0.30685007849999996,11.266664051999998,0.25347591259638846,-0.01520181778487061,-0.40279057543375535,11.346781270272892,0.4761526868440334,0.09816456649999994,0.275370732,-0.08737725150000308
195422.0,-1.2208298585,0.059428299,11.1002452015,0.22469892388950596,-0.0501084028247572,-0.45581716876784706,11.167336334128697,0.510656195276515,0.08973084750000004,0.3662783775,-0.16641885049999772
195432.0,-1.0735339755,0.2833141185,10.930295956999998,0.18446210331402868,-0.0719581797304742,-0.49578520863851727,10.986542303832666,0.5338606749835548,0.14729588299999996,0.2238858195,-0.16994924450000148
195442.0,-0.9203541024999999,0.27252680349999997,10.8452723015,0.14369470264594514,-0.08448091711353352,-0.5320252252269275,10.887665214649907,0.5575267107526,0.15317987300000002,-0.01078731500000002,-0.0850236554999988
195452.0,-0.7718814214999999,0.048640984,10.9290210925,0.12530765897618487,-0.11858814135600672,-0.5695969280346094,10.956352902060576,0.5951519277418397,0.148472681,-0.22388581949999997,0.08374879099999966
195462.0,-0.728830228,-0.116503002,11.0751401775,0.1442270280678034,-0.20678835510554017,-0.6191590428034924,11.099707041268983,0.6685213382666726,0.04305119349999997,-0.165143986,0.14611908500000048
195472.0,-0.5839860075,-0.053053976499999995,11.163694226999999,0.18552849948699723,-0.3634683073863231,-0.6847083735206434,11.179084183211582,0.7970919591649763,0.1448442205,0.0634490255,0.08855404949999901
195482.0,-0.31459733199999995,0.20790097999999999,11.128978686,0.2404191044622189,-0.5427973973702365,-0.7377332215254832,11.13536532369858,0.9469322396690723,0.2693886755,0.2609549565,-0.03471554099999885
195492.0,0.054132707999999995,0.44845810449999995,10.948242126499999,0.2977095371589328,-0.7050728752329133,-0.7715751557216531,10.957556784340035,1.0867782427116797,0.3687300399999999,0.24055712449999997,-0.18073655950000145
195502.0,0.30665394549999997,0.8734783154999999,10.62256328,0.3350142045910596,-0.7986015791887855,-0.779036438273929,10.662825687759497,1.1648591209752068,0.2525212375,0.4250202109999999,-0.3256788464999989
195512.0,0.474249594,1.166795217,10.241967193499999,0.3472716519278158,-0.8217830423137741,-0.7641138731693775,10.319118942455964,1.174646746914605,0.16759564850000003,0.2933169015000001,-0.38059608650000065
195522.0,0.6861713005,1.2804542904999998,9.907952694499999,0.3491374088981977,-0.8002003007836123,-0.7403983392932785,10.013886400401171,1.1447301658009086,0.21192170649999997,0.11365907349999982,-0.33401449900000024
195532.0,0.8130693514999999,1.2229873215,9.662492245,0.35659694612122145,-0.7242575343708348,-0.7169498407927347,9.77346080687816,1.0796885811606187,0.12689805099999996,-0.05746696899999981,-0.24546044949999946
195542.0,1.0417604295,0.9500682519999999,9.484207348,0.3693884642090879,-0.5928918375609777,-0.6988298324985296,9.588434882491905,0.9880949869962424,0.2286910780000001,-0.2729190695000001,-0.17828489699999928
195552.0,1.2045508194999999,0.764526434,9.415953064,0.3864420763303245,-0.45433189357439996,-0.705758789628947,9.523424565170549,0.9240402680705578,0.16279038999999984,-0.18554181799999991,-0.068254284
195562.0,1.2763354974999999,0.7465802645,9.419483458,0.40136289610562403,-0.3336249225064721,-0.7300066489269044,9.53483523764596,0.897389252646382,0.07178467799999999,-0.017946169499999942,0.0035303940000002143
195572.0,1.3241919495,0.8243469989999999,9.462632718,0.4010976060593209,-0.21424963765781593,-0.7502577042377945,9.590331081336295,0.8773077108923582,0.047856452000000216,0.07776673449999982,0.043149259999999856
195582.0,1.3637127489999998,0.9417325995,9.578743454,0.3773820721832219,-0.08607963870836034,-0.7542545082248615,9.721054413400534,0.847777562679617,0.03952079949999976,0.11738560050000013,0.11611073599999955
195592.0,1.422356516,0.9907658494999999,9.676908020499999,0.3307503652284374,0.04661774432076854,-0.73746793147918,9.830934028074866,0.8095850592399058,0.05864376700000018,0.04903324999999992,0.0981645664999995
195602.0,1.3601823549999998,1.0733378425,9.87921921,0.2734616778609755,0.18171495507138963,-0.6993639032496398,10.03001108485075,0.7726004681099466,-0.06217416100000017,0.08257199300000007,0.20231118950000138
195612.0,1.3146794990000001,1.0266581885,10.089866052,0.21004339416050957,0.2779070314658051,-0.6516658001218868,10.226817988426657,0.7389308902848101,-0.0455028559999997,-0.04667965400000007,0.21064684199999917
195622.0,1.2871228125,1.041073964,10.286195184999999,0.15461871843417765,0.3229400168257628,-0.6050358384963542,10.418557074609408,0.7030402324352696,-0.027556686500000094,0.014415775500000061,0.196329132999999
195632.0,1.2440716189999999,1.044604358,10.482524318000001,0.11731405100205085,0.3197425736361092,-0.5525433159133728,10.607649529250827,0.6490778196168004,-0.043051193500000196,0.0035303939999999923,0.19632913300000254
195642.0,1.1721888745,1.0698074485,10.592652997499998,0.10425724286788127,0.2741772628542932,-0.49418648704369045,10.71087355260127,0.5746851556576594,-0.07188274449999987,0.025203090500000025,0.11012867949999716
195652.0,1.1314912769999999,1.1020713269999998,10.6250149425,0.10772172143309001,0.2078268260104768,-0.4366307643006734,10.741777145708754,0.49542141981538046,-0.04069759750000013,0.03226387849999979,0.03236194500000167
195662.0,1.0441140254999999,1.225438984,10.623838144499999,0.12051149419170447,0.13668196971143193,-0.3732124806002075,10.745129674521658,0.41532220835427797,-0.08737725149999997,0.12336765700000019,-0.0011767980000012557
195672.0,1.0117520805,1.3139930334999999,10.5795120865,0.13756510631294105,0.07246432521355257,-0.30926187147788325,10.708701879914399,0.3461475726529786,-0.03236194499999989,0.0885540494999999,-0.044326057999999335
195682.0,0.992629113,1.353513833,10.566371175499999,0.14902319285228383,0.03622605395439431,-0.2391834113518069,10.698855643036536,0.2841283922083172,-0.019122967499999977,0.0395207995000002,-0.013140911000000699
