timestamp,ax,ay,az,gx,gy,gz,acc_mag,gyro_mag,dax,day,daz
72142.0,-0.507396071,1.7505850914999999,10.1027127635,0.16116544845840838,-0.15516151583154789,-0.14783811429017968,10.265807523874296,0.2681520199603572,0.0,0.0,0.0
72152.0,-0.6881326305,1.4740375614999999,9.671710496,0.12679118884038007,-0.23057021149321488,-0.1379787493456637,9.807563263538414,0.2971140576724303,-0.1807365595,-0.27654753,-0.43100226750000026
72162.0,-0.145922952,1.3914655684999997,9.53402513,0.0998782117746275,-0.298252334556303,-0.11186513307732456,9.63613538280326,0.33383217378495705,0.5422096784999999,-0.08257199300000018,-0.13768536599999948
72172.0,-0.1411176935,1.5650432735,9.2850342865,0.09668076858497389,-0.27133935749055044,-0.09054942692271782,9.417066228546284,0.30194604924323587,0.0048052584999999925,0.17357770500000025,-0.24899084349999967
72182.0,-0.242812654,1.6392796139999999,9.061148466999999,0.1124026944869388,-0.21324956399642314,-0.055642841882831216,9.211438930961599,0.2473981974982567,-0.10169496049999999,0.07423634049999994,-0.2238858195000013
72192.0,-0.376967626,1.640456412,8.9115970545,0.14890800112165223,-0.1282485387657953,-0.015406021307353947,9.06916555657118,0.19712591404006305,-0.134154972,0.0011767980000001454,-0.14955141249999926
72202.0,-0.5122013295,1.6057408709999998,8.7750884865,0.18434691158339708,-0.022729422848722154,0.0053773594253945295,8.935487221894856,0.18582068363818577,-0.13523370349999997,-0.03471554100000018,-0.136508568
72212.0,-0.6582223479999999,1.6356511534999998,8.824121736499999,0.21072756322729136,0.11263307794820207,0.001647590813882647,8.998540758140969,0.23894566475935033,-0.14602101849999993,0.02991028249999994,0.04903324999999903
72222.0,-0.8377821095,1.7301872594999999,9.079192702999999,0.22698181455111457,0.2591883752381659,-0.013274974290668871,9.280472345422016,0.344783385530589,-0.17955976150000008,0.09453610600000006,0.25507096649999994
72232.0,-1.0736320419999998,1.851103254,9.495779195,0.23550774794710685,0.35937725561964845,-0.028995154863381795,9.733914502335292,0.4306467580342149,-0.23584993249999986,0.12091599450000023,0.4165864920000022
72242.0,-1.3083051765,1.9025881664999997,9.890791057,0.23764054029304393,0.3727010991293731,-0.04445004538979159,10.156734312730332,0.4442464881326212,-0.23467313450000016,0.05148491249999965,0.3950118619999987
72252.0,-1.526110873,1.9624087315,10.093102246499999,0.24669879911089448,0.29702536809215097,-0.05937261049434311,10.394747490173081,0.39065262529509287,-0.21780569649999992,0.059820565000000325,0.2023111894999996
72262.0,-1.6637962389999998,2.0067347895,10.1158536745,0.2802736979315094,0.16992351064491595,-0.06816557926589054,10.446324617021784,0.3347743888333608,-0.13768536599999992,0.04432605799999978,0.022751428000001184
72272.0,-1.7295988605,1.9600551354999998,9.986503961,0.3407615738178769,0.03429397447243658,-0.06496813607623692,10.322964192300171,0.34859057012657835,-0.06580262150000005,-0.04667965400000007,-0.1293497134999999
72282.0,-1.781083773,2.0175221045,9.7100544975,0.4153709086821305,-0.06669601203571131,-0.05031260634724054,10.076101090849079,0.4236894005735085,-0.05148491250000009,0.057466969000000034,-0.27644946350000055
72292.0,-1.892487317,1.9876118219999999,9.360447425,0.4915789651412109,-0.10373364409228299,-0.02952922561449206,9.754490504180582,0.5032718182566552,-0.11140354400000008,-0.02991028249999994,-0.34960707249999956
72302.0,-2.0240925599999997,1.894252514,9.161764695999999,0.5552625388879799,-0.07575601618281387,-0.011676252695842066,9.571994338857218,0.5605281402010369,-0.13160524299999965,-0.09335930799999992,-0.1986827290000015
72312.0,-2.2012987255,1.8283518259999998,9.0420254995,0.6005608142942408,-0.0016790067404185449,-0.013542009666224004,9.484029292032668,0.6007158202970819,-0.17720616550000035,-0.06590068800000015,-0.11973919649999942
72322.0,-2.3964510605,1.7804953739999998,8.9941690475,0.6272085013136902,0.10064266598700101,-0.033258994226003945,9.476719807887855,0.636101887305848,-0.19515233499999995,-0.047856451999999994,-0.04785645199999955
72332.0,-2.5723823615,1.725382001,9.046830757999999,0.6290725129548201,0.20509538573110564,-0.0732287794259261,9.562386774599002,0.6657017334660428,-0.17593130099999987,-0.055113372999999743,0.052661710499998904
72342.0,-2.7112445254999997,1.678702347,9.179710865499999,0.6253427443433084,0.30288792904959994,-0.13051746679338797,9.717817657326966,0.7069861770960865,-0.13886216399999984,-0.04667965400000007,0.13288010750000012
72352.0,-2.9063968605,1.7301872594999999,9.464594047999999,0.6280078621111036,0.3774972639138536,-0.19260406427458224,10.050832361406561,0.7576241711501105,-0.1951523350000004,0.05148491249999987,0.2848831824999998
72362.0,-3.106354454,1.7972647454999997,9.868039628999998,0.632536991520029,0.38069470710350717,-0.24776170462535904,10.500371644795115,0.7787280449147174,-0.19995759349999975,0.06707748599999985,0.4034455809999997
72372.0,-3.3098424414999994,1.8355106804999999,10.1278177875,0.622677626575513,0.305018976066285,-0.2949257370020018,10.81188464526817,0.7534886812317839,-0.20348798749999952,0.038245935000000175,0.2597781585000014
72382.0,-3.3900608384999997,1.8702262214999998,10.1637101265,0.5978974418556975,0.21149027211041288,-0.34581953799015647,10.876178655384258,0.7223576946573276,-0.08021839700000033,0.03471554099999996,0.035892339000000106
72392.0,-3.3900608384999997,1.8618905689999998,10.060740301500001,0.5707174294143897,0.16912414984750251,-0.3932506057423544,10.778573393259833,0.7134195127803402,0.0,-0.008335652500000013,-0.10296982499999885
72402.0,-3.3947680304999994,1.8451211975,9.939824306999999,0.5456702093190192,0.20776050349890102,-0.4380165557267569,10.664381344850563,0.7299170550433182,-0.004707191999999694,-0.016769371499999908,-0.12091599450000245
72412.0,-3.423501515,1.7673544629999998,9.962575735,0.5184919422069635,0.31940921574897824,-0.48997675288788006,10.681611287474569,0.781622261459765,-0.02873348450000046,-0.07776673450000016,0.022751428000001184
72422.0,-3.5204892834999995,1.7050822355,10.132623045999999,0.48518407876190367,0.46010020675224117,-0.551262244242409,10.861454783655196,0.8665943990499071,-0.09698776849999957,-0.06227222749999983,0.17004731099999937
72432.0,-3.6558210535,1.6846844035,10.3361110335,0.4409504541993594,0.580808923149421,-0.6274703007014893,11.092266694028341,0.9620266558318583,-0.13533177000000052,-0.020397832000000005,0.20348798750000086
72442.0,-3.8030188699999994,1.6727202904999998,10.631781531,0.4017800297968506,0.6490216263051154,-0.7116737104639558,11.414715249130797,1.043616660427012,-0.1471978164999994,-0.01196411300000011,0.29567049749999974
72452.0,-3.907165493,1.7230284049999998,10.976583344999998,0.3796649628448305,0.640495692909123,-0.7982734572894105,11.777951901916484,1.091613818738061,-0.10414662300000055,0.050308114499999945,0.34480181399999843
72462.0,-3.837734411,1.8822884009999998,11.245873953999999,0.37673280970148004,0.5472340243288061,-0.860892380192463,12.030831061201392,1.0874412064852592,0.06943108199999992,0.15925999600000007,0.26929060900000046
72472.0,-3.813806185,1.8080520605,11.396700230999999,0.39218770022788985,0.3668385381719242,-0.9506895702075713,12.1531455198026,1.0918756175497337,0.02392822600000022,-0.07423634049999994,0.15082627700000018
72482.0,-3.6545461889999995,1.8248214319999998,11.42670858,0.42389684207812284,0.2093592250937278,-1.0362246661893093,12.134881543652025,1.1389826059579649,0.1592599960000003,0.016769371499999908,0.030008349000000933
72492.0,-3.4294835715,1.9037649644999999,11.4134696025,0.4753247138173877,0.10357307380109951,-1.1396109897604454,12.068677101258347,1.2391021641353757,0.22506261749999945,0.07894353250000008,-0.01323897750000036
72502.0,-3.1852979864999997,2.0079115874999998,11.478095426,0.5078332164650341,0.10410714455220976,-1.237670568454495,12.079921639413884,1.341849957823344,0.24418558500000032,0.10414662299999988,0.06462582350000012
72512.0,-3.0356485075,2.1324560425,11.820543643999999,0.5064997849165104,0.2125566682833814,-1.3242703152799495,12.38901863240146,1.4336715932471633,0.1496494789999998,0.12454445500000011,0.34244821799999947
72522.0,-2.9829867969999997,2.171976842,12.480138923,0.4934429767823409,0.354581090835168,-1.3999460463171716,13.014206129097548,1.5261266834416976,0.052661710500000236,0.03952079949999998,0.6595952790000013
72532.0,-3.1194953649999997,2.2425847219999997,13.370778876,0.4630672664806315,0.43958211606579584,-1.4644289808613542,13.911799499651082,1.597565638725793,-0.136508568,0.07060787999999985,0.8906399529999991
72542.0,-3.199713762,2.3646775145,14.180023633999998,0.40524450836205944,0.40254448400922416,-1.5251821467940248,14.727625000899248,1.6286330937516558,-0.08021839700000033,0.12209279250000016,0.8092447579999984
72552.0,-3.1733338735,2.5274679045,14.765382572499998,0.3285041264811207,0.2583890144407525,-1.5883351404481878,15.31256557188464,1.6424032276762464,0.02637988850000017,0.16279039000000006,0.5853589385000006
72562.0,-2.9686690879999995,2.844713032,15.131660949999999,0.23177797933559496,0.058541833770393806,-1.630968298086653,15.68032370502064,1.6483949063770382,0.20466478550000033,0.3172451275000001,0.3662783775000005
72572.0,-2.6514239605,3.1750990705,15.2047204925,0.08628907821859966,-0.14423575471406339,-1.6432257454234094,15.757373778039693,1.651799203408232,0.31724512749999967,0.3303860384999999,0.07305954250000113
72582.0,-2.2072807819999998,3.4252667119999995,14.979657875,-0.11862130261179461,-0.25055423142855,-1.6322999843059247,15.524003689479441,1.6556725748423788,0.44414317850000007,0.2501676414999996,-0.22506261750000078
72592.0,-1.8194277744999998,3.5821731119999995,14.642112981999999,-0.36003524474765025,-0.20685467761711596,-1.6125829997461447,15.183338045654212,1.665184123808192,0.38785300749999996,0.1569064,-0.33754489300000046
72602.0,-1.5752421895,3.6778860159999995,14.339185563500001,-0.5979864536475491,-0.057103682466750474,-1.5824725794907386,14.886922990556373,1.6926512027400413,0.24418558499999987,0.09571290399999999,-0.3029274184999977
72612.0,-1.4998290509999999,3.7197604115,14.162077464499998,-0.8010310775075614,0.1075698777881665,-1.551562798437919,14.719053733568774,1.7494482510885518,0.07541313850000009,0.04187439550000027,-0.17710809900000335
72622.0,-1.4111769349999999,3.6647451049999997,14.1656078585,-0.9401250922452496,0.22454708024458248,-1.523583425199198,14.699871530979255,1.8043178860326208,0.088652116,-0.05501530650000008,0.0035303940000019907
72632.0,-1.4506977345,3.6587630484999996,14.226703288,-1.0216616389106687,0.25412517507813037,-1.4814825929825908,14.76110285198035,1.8174605311644445,-0.0395207995000002,-0.005982056500000166,0.06109542949999991
72642.0,-1.4973773885,3.679062814,14.3164341355,-1.0555018277775867,0.19790113855438504,-1.4260579172562589,14.85725171722746,1.7851863074906795,-0.04667965399999985,0.020299765500000344,0.08973084750000027
72652.0,-1.510616366,3.6144369905,14.519922122999999,-1.0634971810809728,0.0739967242968036,-1.3653047513235883,15.03909089744146,1.7322121213525201,-0.013238977500000138,-0.06462582350000012,0.20348798749999908
72662.0,-1.4399104194999999,3.6575862505,14.62171515,-1.0770863146370007,-0.11252661286383041,-1.3069496677831578,15.140866326725524,1.6973198289949447,0.07070594650000017,0.0431492600000003,0.10179302700000115
72672.0,-1.295066199,3.7401582435,14.491286704999998,-1.111458828925777,-0.30997571114194894,-1.241932662487865,15.022096075871803,1.6952352072940242,0.1448442204999998,0.08257199299999973,-0.1304284450000015
72682.0,-1.0329344445,3.768891728,14.150113351499998,-1.1666182146058057,-0.44107611790550294,-1.1667910022017531,14.679823101261128,1.7079073286497715,0.26213175450000015,0.028733484500000017,-0.34117335350000033
72692.0,-0.8258179964999999,3.760458009,13.7837369075,-1.2364313846855788,-0.4701201419879406,-1.0905829457426728,14.31133896377181,1.7143939682823854,0.20711644800000006,-0.008433718999999673,-0.36637644399999836
72702.0,-0.737263947,3.651604194,13.5048357815,-1.3230311315110337,-0.4226890742357427,-1.0181046578951043,14.009224132780057,1.7220959679568797,0.0885540494999999,-0.10885381500000024,-0.27890112599999917
72712.0,-0.7922792535,3.4983262545,13.2641805905,-1.4157604746694923,-0.35980486128638706,-0.9528206172242563,13.740614241577683,1.7440482758367999,-0.05501530649999997,-0.15327793950000013,-0.2406551910000001
72722.0,-0.922805765,3.2086378134999998,12.954192383999999,-1.5034266176679154,-0.3174369936942247,-0.910187459585791,13.377519479328852,1.7859168657205886,-0.13052651150000005,-0.289688441,-0.3099882065000017
72732.0,-0.9886083864999999,2.7932281195,12.646459706999998,-1.5585842580186922,-0.2931891343962675,-0.8984623376708929,12.988934251515715,1.8227395124056414,-0.06580262149999994,-0.4154096939999996,-0.3077326770000006
72742.0,-1.098737066,2.4903987675,12.3723638395,-1.5732397877476887,-0.2859948872195468,-0.910187459585791,12.668255449679526,1.8399232910247507,-0.11012867950000005,-0.3028293520000003,-0.27409586749999804
72752.0,-1.1502219785,2.277300263,12.096993107499998,-1.5655114698198578,-0.2985176246026061,-0.9269740363314724,12.363104356535489,1.843697317448983,-0.05148491250000009,-0.2130985045,-0.2753707320000025
72762.0,-1.1166832354999998,2.1193151315,11.894681918,-1.542062971319314,-0.32543060166835874,-0.9402978798411971,12.1335046876592,1.835217531207195,0.03353874300000026,-0.15798513149999982,-0.20231118949999782
72772.0,-1.0545090744999999,2.0593964999999996,11.7918101595,-1.4980963821323248,-0.38192167356765916,-0.9512218956294295,12.016650538735929,1.8152079852247034,0.06217416099999995,-0.05991863150000043,-0.10287175849999919
72782.0,-0.8593567394999999,2.048609185,11.655301591499999,-1.4424064163596897,-0.4642575810304917,-0.9477591623934728,11.865131638014509,1.7872657332922444,0.19515233499999995,-0.01078731499999952,-0.13650856800000177
72792.0,-0.5588809834999999,2.1168634689999997,11.4913344035,-1.3989721525945586,-0.53433778648582,-0.9243106638929289,11.69804365153282,1.7598267406730146,0.300475756,0.06825428399999955,-0.1639671879999991
72802.0,-0.205743517,2.139614897,11.254307673,-1.3864494152114997,-0.5633818105682576,-0.8771466315162861,11.457736403880066,1.7346547952257951,0.35313746649999994,0.022751428000000296,-0.23702673050000023
72812.0,0.070804013,2.078617534,11.111817048499999,-1.399239187970114,-0.5319397040935798,-0.8017379358546192,11.304784039522575,1.6981206882111928,0.27654753,-0.060997362999999805,-0.1424906245000006
72822.0,0.1677917815,1.9899654179999997,11.036403909999999,-1.425085768862898,-0.46638862804717673,-0.7130053966832276,11.215628725641649,1.6603507149655736,0.09698776849999999,-0.08865211600000045,-0.07541313850000009
72832.0,0.1342530385,1.864244165,11.0674909905,-1.455196189118304,-0.41203034849381337,-0.6349315832537652,11.224205406614836,1.6402753038186917,-0.03353874299999998,-0.1257212529999998,0.031087080500000752
72842.0,0.034911674,1.7984415434999999,11.1129938465,-1.4805104445892299,-0.4064348229119195,-0.5739113819455394,11.2576304364069,1.6390468925994404,-0.0993413645,-0.06580262150000005,0.04550285600000059
72852.0,-0.041776328999999994,1.7039054374999998,11.023262999,-1.4978310920860216,-0.4418754787029164,-0.523549906379243,11.15425327607049,1.6470751116959572,-0.07668800299999999,-0.09453610600000006,-0.08973084750000027
72862.0,-0.034519408,1.6105461294999999,10.8233054055,-1.49596533511564,-0.47838078533762973,-0.48358012117932087,10.942531257689037,1.6433533379184473,0.007256920999999993,-0.09335930799999992,-0.19995759350000064
72872.0,0.068450417,1.4991425855,10.6473741045,-1.4757142798047496,-0.5028956800111422,-0.45959929725691884,10.752613136927428,1.6253824825660492,0.102969825,-0.11140354399999985,-0.17593130099999854
72882.0,0.18809154699999997,1.4416756165,10.4989014235,-1.4445374633763748,-0.5268765039335442,-0.43828184577306006,10.599091381511617,1.5988678212501888,0.11964112999999997,-0.057466969000000034,-0.14847268100000122
72892.0,0.24918697649999996,1.399801221,10.411524171999998,-1.4085662274927715,-0.5708430931205333,-0.39991252749721673,10.508157459407931,1.5715758600353493,0.06109542949999999,-0.04187439550000005,-0.08737725150000131
72902.0,0.416782625,1.3147775654999998,10.267856749499998,-1.383784297443704,-0.6363924238376845,-0.3506157027746369,10.360078669175088,1.5629413520672875,0.16759564850000006,-0.08502365550000013,-0.14366742250000009
72912.0,0.6131117580000001,1.191507975,10.062015166,-1.3669977206980226,-0.6928817504077328,-0.2863980582767575,10.150849544895268,1.5590996556430796,0.19632913300000004,-0.12326959049999986,-0.20584158349999804
72922.0,0.8225818019999999,1.0395048999999998,9.808219064,-1.3470119554334357,-0.7445766575225529,-0.20672726858172036,9.897392205299262,1.5529236203314456,0.2094700439999998,-0.1520030750000001,-0.2537961020000008
72932.0,0.9434977965,0.887501825,9.520884219,-1.317967931350998,-0.7749523678242622,-0.11399792542326163,9.60859427247201,1.5331621465020806,0.12091599450000012,-0.15200307499999988,-0.28733484500000017
72942.0,0.9398693359999999,0.760603774,9.165295089999999,-1.2793315776995995,-0.8053298234552236,-0.02499835087631478,9.24470153961469,1.5119094972227352,-0.003628460500000097,-0.12689805099999996,-0.35558912900000017
72952.0,0.9782133375,0.5378947525,8.8074504315,-1.222575215753996,-0.8391700123221416,0.036020105102658975,8.877917278380075,1.4833050649574009,0.03834400150000006,-0.22270902150000005,-0.35784465849999947
72962.0,1.0823599604999998,0.33440676499999994,8.488930439499999,-1.1397052375400532,-0.8748759581594416,0.08371820823041201,8.564185365534831,1.4392166998165845,0.10414662299999988,-0.20348798750000002,-0.3185199920000006
72972.0,1.1649319535,0.230260142,8.200516862999999,-1.0307216430577713,-0.9161774295786353,0.13274625224818473,8.286046283338425,1.3854204255109586,0.08257199300000018,-0.10414662299999994,-0.2884135765
72982.0,1.2451503505,0.175146769,7.9993824715,-0.9188076407613909,-0.9436244773954983,0.18470644940930792,8.097604319265226,1.3299440242035878,0.08021839699999989,-0.05511337299999999,-0.20113439149999923
72992.0,1.410392403,0.21584436649999997,7.800601676,-0.8338066155307631,-0.9279025514935334,0.23400327413188776,7.930017782363663,1.269249443362304,0.16524205250000001,0.04069759749999996,-0.19878079549999939
73002.0,1.6174107844999999,0.2733113355,7.707242367999999,-0.7986329951153213,-0.8492964126422127,0.28702812213672746,7.879866854904589,1.2006265865418508,0.20701838149999996,0.05746696900000001,-0.09335930800000103
73012.0,1.7754939824999998,0.268506077,7.8306100249999995,-0.7975665989423528,-0.756567069483754,0.34591727642826814,8.033861323106724,1.1524603995397231,0.15808319799999992,-0.004805258499999965,0.12336765700000019
73022.0,1.9251434615,0.29851442599999994,7.903571500999999,-0.8204827720210383,-0.7133998410941782,0.41226596794283255,8.140130876177956,1.1627960013606713,0.14964947900000025,0.030008348999999934,0.07296147599999969
73032.0,2.128631449,0.24820631149999997,7.8640507015,-0.8591191256724368,-0.7062055939174576,0.4954029815323305,8.150826439969318,1.2174712017487739,0.20348798749999975,-0.05030811449999997,-0.03952079949999909
73042.0,2.397922058,0.17642163349999998,7.617511520499999,-0.9134774052258002,-0.649449231971854,0.5945254657408444,7.987968236914814,1.268733937506702,0.269290609,-0.07178467799999999,-0.24653918100000105
73052.0,2.5068739395,0.140431228,7.3648922164999995,-1.0112699485442944,-0.4754486321942793,0.6976464992656775,7.78111658047893,1.3173568038393568,0.10895188150000035,-0.03599040549999999,-0.25261930399999954
73062.0,2.3429067515,0.014808041499999999,7.3050716515,-1.1327762804096357,-0.2801323262620979,0.7989035211493805,7.671603688790649,1.4141792877073907,-0.16396718799999999,-0.12562318649999998,-0.05982056499999988
73072.0,2.0651824235,-0.21986509299999998,7.293107538499999,-1.207120325227586,-0.19433194023405662,0.8926975151515556,7.583055892552735,1.5138735865753283,-0.27772432800000013,-0.2346731345,-0.011964113000000332
73082.0,1.829332491,-0.5622152444999999,7.2966379324999995,-1.1932641562960031,-0.2716046475368536,0.9782326111332939,7.543438769008093,1.566712313332953,-0.23584993250000008,-0.3423501514999999,0.0035303940000002143
73092.0,1.7036112380000001,-0.8734783154999999,7.1218834295,-1.073621836071792,-0.502628644635587,1.0595038677524098,7.374718923543819,1.5899207046518669,-0.1257212529999998,-0.31126307099999995,-0.17475450299999906
73102.0,1.8150147819999998,-1.2218105235,6.8190540775,-0.8708442475873347,-0.7920059799454988,1.1431732067637659,7.161466199465248,1.6408802992564488,0.11140354399999963,-0.3483322080000002,-0.3028293520000007
73112.0,2.0077154545,-1.5450377075,6.467093409,-0.6408866466615698,-1.0192984631034683,1.2185819024254327,6.945600047840808,1.713081114154549,0.19270067250000023,-0.32322718399999983,-0.3519606684999994
73122.0,2.2387601284999996,-1.767746729,6.177404968,-0.44930010934090026,-1.1090973984478285,1.274271868198068,6.80421248562408,1.7480664808806559,0.23104467399999962,-0.22270902150000005,-0.289688441
73132.0,2.3836043489999996,-1.7593130099999998,6.129450449499999,-0.34111587565603174,-1.0560708051137369,1.2987867628715803,6.807856841371057,1.7083596346930572,0.1448442205,0.008433719000000117,-0.04795451850000099
73142.0,2.3644813814999996,-1.467270973,6.234871936999999,-0.31047312997876725,-0.9225740612871947,1.313974618022435,6.827685140840828,1.6352570928774366,-0.019122967499999977,0.29204203699999987,0.10542148750000013
73152.0,2.2507242415,-1.0734359089999999,6.3712824385,-0.32859313827297243,-0.7570993949056122,1.345683759872668,6.841875778844929,1.5786189299104345,-0.1137571399999997,0.3938350640000001,0.13641050150000034
73162.0,2.1261797865,-0.842391235,6.5604527169999995,-0.36456611948582757,-0.6081477605526601,1.3960452354389643,6.947647323325983,1.5657887640208699,-0.12454445500000011,0.23104467399999984,0.1891702784999998
73172.0,1.8209968385,-0.6412568435,6.676563452999999,-0.3890792688300879,-0.5068924839982092,1.4573324721227452,6.950089162528625,1.5912701222830214,-0.3051829479999999,0.2011343915,0.11611073599999955
73182.0,1.5348387915,-0.5467207374999999,6.754330187499999,-0.3946747944119817,-0.4605278124189798,1.4994333043393524,6.948065195612337,1.617453026680398,-0.286158047,0.09453610600000006,0.07776673449999993
73192.0,1.2343630355,-0.37667342649999996,6.700491679,-0.39334310819271007,-0.4786460753839329,1.5271456422025182,6.823644459816782,1.6480275115243936,-0.300475756,0.17004731099999998,-0.05383850849999927
73202.0,1.0787315,-0.18995481049999996,6.419236957,-0.38881397878378476,-0.5183488252083,1.5551232701119875,6.512015631833124,1.6847166527153175,-0.15563153549999997,0.186718616,-0.2812547219999999
73212.0,1.0044951594999998,-0.06541035549999999,6.052860513,-0.38082037080965075,-0.5178164997864416,1.5868324119622206,6.135992945717929,1.7120733588046162,-0.07423634050000016,0.12454445499999997,-0.36637644400000013
73222.0,0.8309174545,0.049523582499999996,5.7236512725,-0.35923588395023687,-0.48717375410917724,1.6268021971621427,5.783862056671758,1.735763254508492,-0.1735777049999998,0.11493393799999999,-0.3292092405
73232.0,0.5771213525,0.055505638999999996,5.496235058999999,-0.3112724907761807,-0.46558926724976335,1.677428962774742,5.526730476081944,1.768454651510105,-0.253796102,0.005982056499999999,-0.22741621350000063
73242.0,0.31861805849999997,-0.10610795299999999,5.267543980999999,-0.24492379926161625,-0.4522671690692906,1.7325883484547708,5.278237959457822,1.8073172507514903,-0.258503294,-0.16161359199999997,-0.22869107799999977
73252.0,0.0767860695,-0.345586346,5.0952411405,-0.1852352841726622,-0.4146954662616087,1.7717570275280277,5.107524674718139,1.8290454900946045,-0.24183198899999997,-0.239478393,-0.17230284049999955
73262.0,-0.157887065,-0.5934003915,5.0054122265,-0.14393381275346837,-0.3592707905352768,1.7853479064133075,5.042936040356089,1.8268167916679476,-0.2346731345,-0.24781404550000002,-0.08982891399999993
73272.0,-0.48709630549999994,-0.7776673449999999,4.938334740499999,-0.11835426723623947,-0.33182548804766593,1.7765531923125082,5.022865648167418,1.8111480149912824,-0.32920924049999994,-0.18426695349999989,-0.06707748600000052
73282.0,-0.8234644005,-1.0027299625,4.8534091515,-0.09383937256272712,-0.3592707905352768,1.7395155602559365,5.023857222140178,1.7787061907879371,-0.3363680950000001,-0.2250626175,-0.08492558899999914
73292.0,-1.1741502045,-1.132079676,4.689343897,-0.03468492822488331,-0.4194916310460891,1.687288327719258,4.964894689705996,1.7389991873549924,-0.35068580400000005,-0.12934971350000013,-0.16406525450000053
73302.0,-1.5093415014999998,-1.190723443,4.545774541,0.06230825429619756,-0.4853079971387953,1.629732604976241,4.935585098391457,1.701597641736422,-0.3351912969999997,-0.05864376699999996,-0.14356935599999954
73312.0,-1.672229958,-1.285259549,4.3793556905,0.16756033483771562,-0.5367358688780602,1.5644503096346452,4.860761401739762,1.6624279322927509,-0.16288845650000017,-0.09453610600000006,-0.16641885050000038
73322.0,-1.7619608054999998,-1.4373606905,4.349445408,0.25869095640134754,-0.5465952338225761,1.5154205202876205,4.907971779858268,1.6316208854602845,-0.08973084749999982,-0.15210114149999998,-0.029910282499999497
73332.0,-1.8313918875,-1.5510197639999999,4.361409521,0.31864476153660476,-0.5111545780315793,1.4573324721227452,4.9781072270280475,1.5769056474630159,-0.06943108200000014,-0.11365907349999982,0.011964112999999443
73342.0,-1.894840913,-1.6432022739999999,4.4499635705,0.3596791975802434,-0.45733036922932613,1.3995097140041732,5.1081025418089006,1.515634398983951,-0.06344902549999998,-0.09218251,0.0885540494999999
73352.0,-1.9786877704999999,-1.6599716455,4.4942896285,0.4039128221427877,-0.4149625016371638,1.3491482384378768,5.183565415988585,1.4681758801098561,-0.08384685749999998,-0.01676937150000013,0.044326058000000224
73362.0,-2.113921474,-1.6169204519999998,4.581666879999999,0.4683957566869702,-0.37925655579986384,1.3094454886135096,5.298562743388357,1.4414845152306726,-0.1352337035000002,0.043051193500000196,0.08737725149999953
73372.0,-2.2109092425,-1.5917173615,4.708564931,0.5486023624623696,-0.35634038272117824,1.2820001861258987,5.43987753050705,1.439259357337658,-0.09698776850000002,0.025203090499999803,0.1268980510000004
73382.0,-2.3509482045,-1.5474893699999999,4.860568006,0.6376001916800644,-0.35021253171742617,1.2606827346420402,5.616653999620734,1.4555080828449276,-0.14003896199999977,0.04422799150000012,0.15200307500000054
73392.0,-2.5604182484999995,-1.420591319,5.068861252,0.7449850645675196,-0.3731269594668597,1.2502910442756658,5.853817190081782,1.5024826686872599,-0.2094700439999997,0.12689805099999996,0.20829324599999932
73402.0,-2.623867274,-1.2529956704999998,5.277154498,0.8411771409619351,-0.40270505430040765,1.2457601695374887,6.025200180709481,1.5561711805717462,-0.06344902550000064,0.16759564850000008,0.2082932460000002
73412.0,-2.5508077315,-1.1608131605,5.392088436,0.8992669344560623,-0.4264205881765066,1.24282976172339,6.076900935371178,1.5922127226134768,0.07305954250000024,0.09218250999999977,0.11493393800000007
73422.0,-2.4215560845,-1.122469159,5.3884599755,0.9147200796532201,-0.40030697190816744,1.2457601695374887,6.013266316308517,1.5965202459991392,0.1292516469999998,0.03834400150000006,-0.003628460499999875
73432.0,-2.3999814544999998,-1.147574183,5.3741422665,0.9176522327965706,-0.30065041694854316,1.2508233696975242,5.996519206007249,1.5802010618112283,0.021574630000000372,-0.02510502399999992,-0.014317709000000178
73442.0,-2.5461005395000003,-1.0949124725,5.407681009499999,0.9261781661925629,-0.14556918626258705,1.264412503253552,6.076551257101777,1.5740823872672243,-0.14611908500000048,0.052661710500000014,0.03353874299999937
73452.0,-2.9434659974999997,-1.1284512155,5.6746180225,0.956023296401666,0.012709487613022707,1.278268672185135,6.491431577509225,1.5962809504056739,-0.39736545799999945,-0.03353874300000004,0.2669370130000006
73462.0,-3.5540280264999997,-1.235049501,6.1606355965,1.033830074455573,0.09851161897031595,1.2841312331425838,7.218718268219833,1.6515151182636085,-0.610562029,-0.10659828550000006,0.4860175739999999
73472.0,-4.1071230865,-1.4121575999999998,6.669404598499999,1.150273206160879,0.07772649290831547,1.2593493030935166,7.958869695716345,1.7073753318217937,-0.55309506,-0.1771080989999998,0.5087690019999993
73482.0,-4.38357255,-1.6719357584999999,7.1697398815,1.2619219184109562,-0.02246238747316702,1.1882044467944715,8.568328159567425,1.7334304988660891,-0.27644946350000055,-0.2597781585000001,0.500335283000001
73492.0,-4.5918657959999996,-1.743818503,7.560044551499999,1.3565152732105448,-0.13677621749103963,1.1024040607664303,9.01556476769729,1.7533214574968705,-0.20829324599999932,-0.0718827445000001,0.390304669999999
73502.0,-4.6182456845,-1.6887051299999998,7.804230136499999,1.4138057059072586,-0.22390828973835256,1.0011487842119793,9.224203284942607,1.7467914541806644,-0.02637988850000017,0.05511337300000019,0.24418558500000032
73512.0,-4.442314383499999,-1.5749479899999999,7.962215268,1.3999495369756758,-0.26041359637306594,0.8982930407334495,9.252647741432089,1.6836283242700896,0.17593130100000032,0.11375713999999992,0.15798513150000026
73522.0,-4.2064644509999995,-1.3355676635,8.0603798345,1.3362642178996544,-0.24176126265700254,0.8055636975749908,9.189548804904833,1.5789184396323879,0.23584993249999986,0.23938032649999985,0.09816456650000127
73532.0,-4.0065068575,-1.1033461915,8.2112061115,1.251530228044582,-0.19299850868553295,0.7368169236681862,9.20290040275494,1.465085497528391,0.19995759349999975,0.23222147199999998,0.1508262769999984
73542.0,-3.8448932654999997,-0.9548735104999999,8.241214460499998,1.1873125835467027,-0.14157238227552002,0.7019103386282997,9.143992750877274,1.3865179529832299,0.16161359200000014,0.1484726810000001,0.030008348999999157
73552.0,-3.7766389814999997,-0.9105474525,8.283088855999999,1.1497408807390206,-0.08428194957880616,0.6755314323136573,9.148861112522749,1.3361699951394974,0.068254284,0.04432605799999989,0.041874395500000716
73562.0,-3.9167760099999995,-0.7669780964999999,8.376448164,1.1372163980267094,-0.025926866038375768,0.6518158984375583,9.278699992843892,1.3110291010421455,-0.14013702849999987,0.1435693560000001,0.09335930800000014
73572.0,-4.286682848,-0.6675386655,8.7199751135,1.1596002456835366,-0.006742206900454095,0.6166422780221166,9.739569995093944,1.3133795666856982,-0.36990683800000035,0.09943943099999997,0.34352694950000107
73582.0,-4.7331796225,-0.648415698,9.207267552,1.2155572468317266,-0.07415729458798706,0.5470961433178985,10.372907404887703,1.3350628879191628,-0.4464967744999999,0.019122967499999977,0.48729243849999904
73592.0,-4.9187214405,-0.6543977544999999,9.4801866215,1.2624542438328143,-0.2220425327679706,0.42745382309368724,10.700280155621936,1.3512255085687612,-0.18554181799999991,-0.005982056499999944,0.27291906950000033
73602.0,-4.626581336999999,-0.6328231245,9.438312225999999,1.2608555222379876,-0.3520765433585561,0.2718402669858728,10.530311374799878,1.3370159576819896,0.2921401035000004,0.021574629999999928,-0.041874395500000716
73612.0,-3.812629387,-0.5394638165,9.133031211499999,1.196637877740108,-0.39710952871851385,0.10530094976057387,9.911580255547642,1.2651981972251893,0.8139519499999994,0.09335930800000003,-0.3052810145000002
73622.0,-2.9901456515,-0.30841914249999997,8.794211454,1.093251554168972,-0.29372145981812575,-0.026597072471141587,9.293774716567514,1.1323332817305154,0.8224837355000001,0.231044674,-0.3388197574999996
73632.0,-2.3401608895,-0.046287388,8.593077062499999,1.003719654200167,-0.09760579308853087,-0.07829197958596164,8.906147815587662,1.0114888378719917,0.6499847619999999,0.2621317545,-0.20113439150000012
73642.0,-2.0277210205,0.147688149,8.760672711,0.9885317990493123,0.09984330518958762,-0.036191147369354415,8.993489349278882,0.994220097599501,0.31243986899999987,0.19397553699999998,0.16759564850000075
73652.0,-2.1522654754999997,0.3199909895,9.195303439,1.0687366594954597,0.16406094968746698,0.07758861189740791,9.449245803008601,1.0840359935251387,-0.12454445499999967,0.1723028405,0.43463072800000013
73662.0,-2.6202388135,0.40383784699999997,9.6214023815,1.2086282897013094,0.07319736349939018,0.198829653716446,9.979985983616176,1.227058852658085,-0.4679733380000002,0.08384685749999998,0.42609894249999947
73672.0,-2.9937741119999997,0.3762811605,9.786644434,1.3336008454611112,-0.12931493493876386,0.26038218044653,10.241224547043766,1.3649221396500595,-0.3735352984999998,-0.027556686499999983,0.16524205250000001
73682.0,-3.1050795895,0.2146675685,9.634641359,1.4273948394632865,-0.3651333514927257,0.22760664242332854,10.124915581803561,1.490833047585796,-0.1113054775000002,-0.161613592,-0.15200307499999965
73692.0,-2.9866152574999996,0.17161637500000002,9.2969983995,1.5169267394320916,-0.5577862849863638,0.10743199677725897,9.766447773720264,1.6197944025259856,0.11846433200000028,-0.04305119349999997,-0.3376429595000001
73702.0,-2.43597186,0.071000146,9.036043443,1.5862058387607547,-0.6681015656879175,-0.04951324554982713,9.358903836840465,1.7218769487040104,0.5506433974999996,-0.10061622900000002,-0.2609549564999991
73712.0,-1.8074636615,0.2350654005,8.942684135,1.6245769023658498,-0.6878202955769493,-0.18327702475192453,9.126542618567884,1.7736790404439298,0.6285081985000001,0.16406525449999998,-0.09335930800000014
73722.0,-1.4315747669999999,0.7354006835,9.068405387999999,1.6464266792715667,-0.6401221924491962,-0.24616298303053225,9.210113829910615,1.783556403845321,0.37588889450000007,0.500335283,0.12572125299999826
73732.0,-1.3453743135,1.0682383844999999,9.4023218205,1.6722732601643508,-0.5673786145553247,-0.22617896309519714,9.557971589505547,1.7803295403554493,0.08620045349999983,0.3328377009999999,0.3339164325000006
73742.0,-1.51414676,1.204648886,9.888339394499999,1.71197775531797,-0.5090235310148942,-0.16142724784620754,10.075865984131594,1.7933297371586818,-0.1687724465,0.13641050150000011,0.4860175739999999
73752.0,-1.892487317,1.2178878635,10.381613889499999,1.7607387639601877,-0.4885054403284489,-0.11159984303102141,10.622742868192082,1.830653731623512,-0.378340557,0.013238977499999915,0.49327449499999965
73762.0,-2.136672902,1.0466637545,10.7526975255,1.7892504626207668,-0.5199492921323787,-0.12438961578963587,11.01278258116535,1.8674145926638475,-0.24418558499999987,-0.17122410899999996,0.3710836360000016
73772.0,-2.2504300419999996,0.8527862839999999,11.032775449499999,1.7967117451730426,-0.5465952338225761,-0.21152343336620077,11.292201465578117,1.8898893109765298,-0.1137571399999997,-0.19387747050000004,0.28007792399999865
73782.0,-2.2659245489999997,0.938888671,11.199194299999998,1.7322270652996081,-0.5063584132470988,-0.3511497735257471,11.464636015480188,1.838563464194205,-0.015494507000000102,0.08610238700000006,0.1664188504999995
73792.0,-2.2838707185,1.282513687,11.4446547495,1.6099213726368533,-0.3781901596268953,-0.4795833171922539,11.740571926078259,1.7218811750642586,-0.017946169500000053,0.34362501600000006,0.24546044950000123
73802.0,-2.401256319,1.676348751,11.798969013999999,1.4772239896077246,-0.19139978709070615,-0.5603222483895116,12.156967008174728,1.5914727820516466,-0.11738560050000002,0.3938350639999999,0.35431426449999925
73812.0,-2.6394598475,1.9457374264999998,12.2083966515,1.357049343961655,0.0036494834659201434,-0.6016237198087054,12.641107199126347,1.48443502414649,-0.23820352850000015,0.2693886754999999,0.40942763750000033
73822.0,-2.9937741119999997,2.0845995905,12.684803708499999,1.2568587182509205,0.16326158889005357,-0.6210754143221822,13.19895768648303,1.4114116530359675,-0.3543142644999997,0.13886216400000007,0.4764070569999994
73832.0,-3.3540704329999995,2.0869531864999997,13.079815570499997,1.16039960648095,0.2956936818728793,-0.6333328616589384,13.663335516280842,1.3546484835106793,-0.36029632099999986,0.002353595999999847,0.3950118619999987
73842.0,-3.685731336,1.8894472555,13.320470761499998,1.0463528118386325,0.41053809198335817,-0.6594464779272774,13.94953646973494,1.3031751183408313,-0.3316609030000004,-0.1975059309999998,0.2406551910000001
73852.0,-4.0172941725,1.8152109149999998,13.4377582955,0.8923379773256449,0.5197887218411953,-0.7164698752484362,14.142382795788574,1.2568915877152795,-0.33156283649999985,-0.07423634050000016,0.11728753400000258
73862.0,-4.243533588,1.816387713,13.3875482475,0.7018178361779438,0.6309033633401623,-0.815327069410647,14.160977710439411,1.2471349402390963,-0.22623941550000026,0.0011767980000001454,-0.050210048000000285
73872.0,-4.299823759,1.8032468019999999,13.257021735999999,0.521689385396617,0.7220339849037942,-0.9616153313250557,14.053071148192503,1.3108001127673696,-0.05629017099999967,-0.013140911000000033,-0.13052651150000116
73882.0,-4.068779085,1.8822884009999998,13.150521517,0.41776899107437065,0.7947775627976658,-1.1342824995541068,13.893674425297023,1.4466509921278896,0.23104467399999962,0.07904159899999996,-0.10650021899999906
73892.0,-3.7072078994999997,2.0749890735,13.186413856,0.40950834772468153,0.8563300895277499,-1.283501169282614,13.853897662642394,1.596362603118928,0.36157118550000034,0.1927006725,0.035892339000000106
73902.0,-3.3588756914999998,2.3850753465,13.561125952499998,0.46706407046769854,0.8837753920153607,-1.3653047513235883,14.173029578004861,1.692118451362234,0.348332208,0.310086273,0.3747120964999979
73912.0,-3.0153487419999996,2.7106561264999995,14.0722485505,0.5243527578351604,0.8573964857007184,-1.3698356260617655,14.644731610345827,1.6989773956028107,0.3435269495000002,0.3255807799999997,0.5111225980000018
73922.0,-2.750765325,3.031431648,14.5714070355,0.5299482834170542,0.7825201154609096,-1.3109464717702248,15.135461364092514,1.6160951599594742,0.26458341699999943,0.3207755215000003,0.4991584850000006
73932.0,-2.5604182484999995,3.1403835294999998,14.735472289999999,0.46386662727804495,0.6876597252857658,-1.2171524777680496,15.282404716829236,1.4729250828943425,0.1903470765000006,0.1089518814999999,0.16406525449999876
73942.0,-2.3353556309999997,3.158329699,14.6612359495,0.36447536236472383,0.6279712101968118,-1.1369476173219022,15.178299376996751,1.3490144606863543,0.2250626174999999,0.017946169500000053,-0.07423634049999883
73952.0,-2.1438317565,3.1152785055,14.423032420999998,0.22165157901552388,0.6210439983956463,-1.0961784713245666,14.910561323579515,1.2792311407321157,0.19152387449999964,-0.04305119349999975,-0.23820352850000148
73962.0,-1.977412906,2.983575196,14.0842126635,0.10494141193466305,0.6687403561941474,-1.0999082399360784,14.531927921019138,1.291520228343636,0.16641885049999994,-0.1317033095000002,-0.3388197574999978
73972.0,-1.8564969114999998,2.8950211464999995,13.921422273499998,0.05671098338505175,0.7313592790971998,-1.1318844171618665,14.339934669941599,1.3488012694878122,0.12091599450000023,-0.08855404950000034,-0.16279039000000317
73982.0,-1.6985117799999998,2.8973747425,13.9884997595,0.07216587391146154,0.7644001071667045,-1.1795807749603675,14.386029618585082,1.4074538151747558,0.15798513150000004,0.002353596000000291,0.0670774860000023
73992.0,-1.3920539674999999,2.934541946,14.195518140999999,0.08975355678380839,0.7388205616494756,-1.2168854423924944,14.562351663544115,1.426436715448031,0.3064578124999999,0.037167203500000134,0.2070183814999993
74002.0,-1.0018473639999999,3.050652682,14.376352767,0.08522268204563112,0.676201638746423,-1.2264777719614555,14.730570213273351,1.4031248294054006,0.3902066035,0.11611073599999999,0.1808346260000011
74012.0,-0.5864376699999999,3.2086378134999998,14.492463502999998,0.060709532701370764,0.5949303821273072,-1.2035633442120217,14.854991219950419,1.3439466248589593,0.41540969399999994,0.15798513149999982,0.11611073599999777
74022.0,-0.21653083199999998,3.4636107135,14.62171515,0.008749335540247573,0.5040667959392303,-1.1521354724727568,15.027908660343199,1.2576072648370238,0.3699068379999999,0.2549729000000003,0.12925164700000202
74032.0,0.24555851599999998,3.8335175514999995,14.505604413999999,-0.07891680745817561,0.4092064057640865,-1.0796571846251883,15.005622786738808,1.15729744721508,0.46208934799999996,0.36990683799999946,-0.11611073600000132
74042.0,0.717258381,4.05014645,14.2470030535,-0.1985591276823869,0.3641734204041288,-0.9792012688681507,14.8288651574556,1.0634298906217698,0.47169986499999994,0.21662889850000022,-0.2586013604999984
74052.0,1.088342017,4.072897878,13.933386386499999,-0.315803365514358,0.3727010991293731,-0.843039407273813,14.55720583306041,0.9743476367185481,0.37108363600000005,0.022751428000000296,-0.31361666700000157
74062.0,1.2331862375,4.0633854275,13.717934286,-0.4002720653231276,0.41533425676783864,-0.6994162631271996,14.360138248073836,0.9065888705746122,0.1448442205,-0.009512450499999936,-0.21545210049999852
74072.0,1.1541446385,3.9077538919999997,13.770595996499999,-0.4591594742854162,0.43398659048390203,-0.5635196915791651,14.360776595499328,0.8465968499488876,-0.07904159899999996,-0.15563153550000042,0.052661710499998904
74082.0,0.972231281,3.7006374439999994,13.9884997595,-0.5156488008554647,0.38176110327647567,-0.4572012148646786,14.502347281637594,0.7878249657584409,-0.18191335750000004,-0.20711644800000029,0.2179037630000007
74092.0,0.649004097,3.6300295639999995,13.9704555235,-0.6027826184320296,0.27837303437608757,-0.3817925192030116,14.448942815567111,0.7659007501438462,-0.32322718400000006,-0.07060787999999985,-0.018044235999999714
74102.0,0.4574802224999999,3.4337004309999997,13.624574978,-0.7093681305220713,0.1597971103248448,-0.3404910477838178,14.058045032470622,0.8029149486025721,-0.19152387450000002,-0.19632913299999988,-0.3458805455
74112.0,0.5053366745,3.1511708444999997,13.079815570499997,-0.8023627637268332,0.08598713625800464,-0.32716720427409307,13.463536615767632,0.8707572404348647,0.04785645200000005,-0.28252958649999993,-0.5447594075000026
74122.0,0.5724141604999999,3.0026981635,12.549570005,-0.8543229608879563,0.05374566898591339,-0.3146444668910337,12.91648410143499,0.9120073787970417,0.06707748599999996,-0.14847268099999988,-0.5302455654999978
74132.0,0.5832014755,2.9584701719999997,12.143770828000001,-0.8665804082247126,0.015374605380818048,-0.2733412501425879,12.512547288327141,0.9087977890812885,0.010787315000000075,-0.04422799150000012,-0.4057991769999987
74142.0,0.5173007875,2.8543235489999996,11.748660899499999,-0.87350936535513,-0.07788706319949895,-0.1992659860294446,12.101479081441418,0.8993286046630851,-0.06590068800000004,-0.1041466230000001,-0.39510992850000193
