timestamp,ax,ay,az,gx,gy,gz,acc_mag,gyro_mag,dax,day,daz
80862.0,-1.4395181535,0.169066646,9.1975589685,0.295491223679648,0.033951889939045694,0.29485417850267004,9.311062615194922,0.4188159269686544,0.0,0.0,0.0
80872.0,-1.4084310729999998,0.34744960950000003,9.3472084475,0.2877646510810691,0.01156978761147041,0.24875654229899583,9.459106991653545,0.3805550837050217,0.031087080500000086,0.17838296350000005,0.1496494790000007
80882.0,-1.3677334755000001,0.214569502,9.5339270635,0.29069505889516756,0.0035761796373363812,0.22397635757918033,9.633924443513639,0.3669902111518784,0.04069759749999968,-0.13288010750000004,0.18671861600000028
80892.0,-1.4873746055,0.33313190049999997,9.636896888499999,0.30162082001265206,-0.021738075833589377,0.20852146705277053,9.756692150508695,0.3673266464985779,-0.11964112999999976,0.11856239849999997,0.10296982499999885
80902.0,-1.6454578034999998,0.43482686099999995,9.796156884499998,0.32320356154281393,-0.0577110570464445,0.19386593732377413,9.942901763966235,0.38128088065598437,-0.15808319799999992,0.10169496049999999,0.1592599959999994
80912.0,-1.9326945819999999,0.48748857149999997,9.984052298499998,0.36237398594532266,-0.12006294457394193,0.18080912918960457,10.181073310502107,0.42240023383986125,-0.28723677850000007,0.052661710500000014,0.18789541399999976
80922.0,-2.0512569805,0.5341682255,10.107321888999998,0.40687290055417014,-0.2117258915594321,0.1485676619175133,10.327194520344927,0.4821262910583041,-0.11856239849999994,0.046679654000000015,0.12326959049999964
80932.0,-2.000948866,0.6132098245,10.1935223425,0.44924076814633246,-0.2778092930276934,0.10086955878976028,10.406138592208768,0.5377452360994884,0.050308114499999945,0.07904159899999996,0.08620045350000183
80942.0,-1.7770630465,0.7304973585,10.315615135,0.46549501947015565,-0.28127202626365017,0.07235786012918093,10.493021255837252,0.5486667712122306,0.22388581949999997,0.11728753400000003,0.12209279250000016
80952.0,-1.7112604249999999,0.8801468374999999,10.4688930745,0.4217954656587216,-0.20826141299422335,0.06862809151766903,10.644284518136788,0.47538831068713266,0.06580262150000005,0.14964947899999992,0.15327793950000057
80962.0,-1.7806915069999998,0.9065267259999998,10.650806432,0.3397248482421923,-0.11313398744352443,0.06276553056022008,10.83661988813794,0.36352686758279373,-0.06943108199999992,0.02637988849999995,0.18191335749999915
80972.0,-1.9506407515,0.850236555,10.812420024,0.25418975226045415,-0.029466393761420264,0.04544662839268034,11.019815257810219,0.2598963149946465,-0.16994924450000015,-0.05629017099999989,0.16161359200000014
80982.0,-2.220029427,0.8047336989999999,10.9105845905,0.1992991472852325,0.005440191278466325,0.012938125745033965,11.163197708967992,0.199792744832142,-0.2693886755000001,-0.045502856000000036,0.0981645664999995
80992.0,-2.4103765034999998,0.664694737,10.976485278499998,0.19290426090592527,-0.025467844445101258,-0.04488463237353817,11.257662415046365,0.19968799463074596,-0.1903470764999997,-0.14003896199999988,0.06590068799999926
81002.0,-2.4414635839999996,0.5773174855,11.0567036755,0.21848380642315415,-0.08382467331478366,-0.12029332803520516,11.337757100894223,0.2631201898282722,-0.031087080499999864,-0.08737725150000009,0.08021839700000122
81012.0,-2.3852714795,0.653907422,11.191937378999999,0.25339039146304076,-0.14457783924745427,-0.19623609444798243,11.461962189909727,0.3515935819258555,0.05619210449999956,0.07658993650000001,0.13523370349999908
81022.0,-2.2678858789999996,0.755700449,11.273332573999998,0.2811027293262067,-0.1789503535362306,-0.2524583856424758,11.523993094964776,0.4180636434163937,0.11738560050000046,0.10179302700000004,0.08139519499999892
81032.0,-2.2152241685,0.8550418135,11.387089713999998,0.28190209012362016,-0.17788570269251405,-0.2873649706823624,11.632030208618978,0.4401030993003232,0.05266171049999979,0.09934136449999997,0.11375714000000059
81042.0,-2.2942657674999998,0.907703524,11.546251643499998,0.24859422667856032,-0.15603592578679706,-0.30815009674436283,11.806926277165907,0.42556172501484957,-0.07904159899999996,0.052661710500000014,0.15916192949999974
81052.0,-2.4115533014999997,0.8359188459999999,11.632452097,0.19370362170333866,-0.13018759956476103,-0.33612772465383195,11.909168377014124,0.4092086893290353,-0.11728753399999992,-0.0717846780000001,0.08620045350000183
81062.0,-2.5168767224999997,0.6814641084999999,11.6923707285,0.13987766757183356,-0.09288293213263422,-0.3784955922459943,11.979590770144014,0.4140675238611909,-0.10532342100000003,-0.15445473749999994,0.05991863150000043
81072.0,-2.5552207239999998,0.5341682255,11.7880836325,0.0975097999796712,-0.06437297880130685,-0.44431195833870046,12.073665738635773,0.4594182819768931,-0.03834400150000006,-0.14729588299999996,0.0957129039999991
81082.0,-2.452250899,0.49709908849999995,11.880266142499998,0.06127152872051293,-0.03959104875223937,-0.522918097190021,12.140896408093829,0.5279819956607262,0.10296982499999974,-0.03706913700000003,0.09218250999999889
81092.0,-2.2858320484999997,0.5761406874999999,11.980784305,0.029562386870279952,-0.03026575455883367,-0.5919319064723808,12.21049379872399,0.5934419369378197,0.16641885050000038,0.07904159899999996,0.100518162500002
81102.0,-2.0751852064999996,0.69823348,12.187900753,0.01197644932718509,-0.05131617066713728,-0.6369648918323385,12.38300643619502,0.6391408750325769,0.21064684200000006,0.12209279250000005,0.20711644799999895
81112.0,-1.8776792754999998,0.875341579,12.278906464999999,-0.001879719604397893,-0.08728740655074041,-0.6390959388490236,12.452447402731208,0.6450319711002396,0.1975059309999998,0.17710809900000002,0.0910057119999994
81122.0,-1.7723558545,0.940065469,12.281260061,-0.0330565360327726,-0.11206933659980789,-0.6247074444955825,12.444047454381565,0.6355404487431215,0.1053234209999998,0.06472389,0.002353596000000735
81132.0,-1.6130958585,0.8550418135,12.3196040625,-0.08235161542610045,-0.10993654425387082,-0.6049887146065505,12.454148666541192,0.6203863128140867,0.15925999600000007,-0.08502365550000002,0.0383440015000005
81142.0,-1.5772035194999998,0.8311135875,12.441696854999998,-0.12658523998864474,-0.08329060256367339,-0.5898008594556958,12.568776446773455,0.6089550075934018,0.035892339000000106,-0.023928225999999997,0.12209279249999838
81152.0,-1.562787744,0.767664562,12.537507825499999,-0.16362287204521642,-0.06357187267464146,-0.5868704516415973,12.657832234905825,0.6125608167861364,0.014415775499999839,-0.06344902549999998,0.09581097050000054
81162.0,-1.5568056875,0.793946384,12.6296903355,-0.21131922984371743,-0.056112335451617694,-0.6063221461550741,12.750022461937904,0.6445393362779899,0.005982056499999944,0.026281821999999955,0.09218251000000066
81172.0,-1.5197365504999998,0.870634387,12.695492956999999,-0.2624800662074272,-0.04998273911861361,-0.638029542676055,12.815738169921742,0.6917194204975531,0.03706913700000025,0.076688003,0.0658026214999996
81182.0,-1.373715532,0.8766164434999999,12.776888152,-0.31310857714927876,-0.03799232715741257,-0.6769346770322606,12.880389031414795,0.7468071738916631,0.1460210184999997,0.005982056499999944,0.0813951950000007
81192.0,-1.214455536,0.93163175,12.797285983999998,-0.3733294176600911,-0.01534318945428215,-0.7147716698862457,12.88849752774977,0.806541262196191,0.15925999600000007,0.05501530650000008,0.020397831999998672
81202.0,-1.0576472024999999,0.9100571199999998,12.841513975499998,-0.42528961482121425,0.010503391438501875,-0.7432833685468252,12.917093432718545,0.856417972525567,0.15680833350000012,-0.02157463000000015,0.044227991499999675
81212.0,-0.969093153,0.9902755169999999,12.878681179,-0.4588627683125772,0.013967870003710619,-0.7616686668873334,12.953000272102598,0.8893195711631731,0.0885540494999999,0.08021839700000011,0.0371672035000028
81222.0,-0.7667819634999999,0.9939039774999999,12.925360833,-0.4809795805938493,-0.007881906902006392,-0.780588035978952,12.986175432331478,0.9169084814299215,0.20231118950000004,0.003628460499999986,0.046679653999998294
81232.0,-0.49023443349999996,1.0297963165,13.016366544999999,-0.49430342410357403,-0.03026575455883367,-0.7891139693749442,13.066239255694855,0.9316398164753444,0.27654753,0.035892338999999995,0.0910057119999994
81242.0,-0.2244742185,1.1256072869999998,13.096486875499998,-0.5230804128104566,-0.06277251187722806,-0.7832531537467472,13.146685853075763,0.9439486264450837,0.26576021499999997,0.09581097049999987,0.08012033049999978
81252.0,0.10355822399999999,1.160322828,13.103743796499998,-0.5689127589678277,-0.08968548894298062,-0.7598046552462034,13.1554237809068,0.9534192825704383,0.32803244249999997,0.03471554100000018,0.00725692099999975
81262.0,0.30341775099999996,1.1698352785,13.118061505499998,-0.6059503910243994,-0.10673910106421722,-0.7190355092488678,13.173614332161312,0.9463515074428731,0.19985952699999998,0.009512450499999936,0.014317709000000178
81272.0,0.56682437,1.0776527685,12.967235228499998,-0.6483182586165616,-0.11766486218170172,-0.6771999670785638,13.024277900410947,0.9448605080428844,0.263406619,-0.09218251,-0.15082627700000018
81282.0,0.70804013,1.048919284,12.812780491,-0.70240950279437,-0.07476466916768108,-0.6449584998064726,12.875127044056212,0.956525133932299,0.14121576000000002,-0.028733484500000017,-0.15445473749999827
81292.0,0.742755671,1.04538889,12.861911807499999,-0.752238652938808,-0.0004206243497306334,-0.6159144757240349,12.92568370578694,0.9722210701823165,0.03471554099999996,-0.0035303939999999923,0.04913131649999869
81302.0,0.777471212,1.0201857994999999,13.027055793499999,-0.8199207760018962,0.07179062812228275,-0.5815402161060066,13.09005054222298,1.0077762629444913,0.03471554100000007,-0.025203090500000025,0.16514398600000035
81312.0,0.7978690439999999,1.02381426,13.152777046499999,-0.9211760525563472,0.11469082113630337,-0.5375736269190174,13.216668819535808,1.0727090512413329,0.020397831999999894,0.003628460500000097,0.12572125300000003
81322.0,0.8098331569999999,0.894562613,13.096486875499998,-1.0242970860811802,0.125881872300091,-0.49307471231017,13.151959568478672,1.1437453555087906,0.011964112999999998,-0.12925164700000003,-0.056290171000000555
81332.0,0.824150866,0.759230843,12.938501744,-1.099173456320989,0.11975402129633893,-0.46029917428696854,12.986935108114697,1.1976638270176394,0.014317709000000067,-0.13533176999999996,-0.1579851314999985
81342.0,0.8505307544999999,0.6035993075,12.748154667499998,-1.131681958968635,0.09364040502799977,-0.4445789937142556,12.790745956153879,1.219476553018087,0.02637988849999995,-0.15563153549999997,-0.19034707650000193
81352.0,0.9342795454999999,0.558194518,12.602133649,-1.1322142843904934,0.03794869392611271,-0.43844939738125155,12.64904075004595,1.2147374873661212,0.08374879099999999,-0.04540478950000004,-0.14602101849999727
81362.0,1.178563197,0.5281861689999999,12.3411786925,-1.1220878840704223,-0.033196162372932145,-0.42086345983815665,12.408572978334847,1.1988783326930514,0.24428365149999998,-0.030008349000000045,-0.2609549565000009
81372.0,1.446677008,0.571335429,12.065807960499999,-1.123686605665249,-0.07023379442950381,-0.37503111368078557,12.165649192606681,1.1866982387532665,0.2681138110000001,0.04314926000000008,-0.27537073200000073
81382.0,1.6238831734999999,0.6143866225,11.8359400845,-1.1298162019982534,-0.06330658262833833,-0.31721010089146545,11.962606119360332,1.1752083312372366,0.1772061654999999,0.04305119349999997,-0.22986787599999836
81392.0,1.7758862485,0.6288023979999999,11.674326492499999,-1.1471351041657931,-0.023603832803971315,-0.2551235034102711,11.825356801248294,1.175399544888815,0.1520030750000001,0.01441577549999995,-0.16161359200000192
81402.0,1.8943505805,0.643120107,11.448087077,-1.1764461636237857,0.028890435108262138,-0.18451097253308454,11.621568969654778,1.1911777919903361,0.11846433200000006,0.014317709000000067,-0.2262394154999985
81412.0,2.0129129789999998,0.5114167975,11.355904567,-1.2164159488237078,0.08644615785127915,-0.1104339630906892,11.5442598002905,1.22447391109972,0.11856239849999972,-0.13170330949999998,-0.09218251000000066
81422.0,2.022523496,0.445614176,11.156045039999999,-1.2633129458247954,0.1304127470382683,-0.041954224559439694,11.34665211506164,1.2707191824462922,0.00961051700000004,-0.06580262150000005,-0.19985952700000098
81432.0,2.0152665749999996,0.373829498,11.050721618999999,-1.2995529624132058,0.13707292346387867,0.009206611804270088,11.239194640298793,1.3067944177125903,-0.007256921000000194,-0.07178467799999999,-0.10532342099999958
81442.0,2.0308591485,0.43482686099999995,10.8878331625,-1.3166065745344426,0.10056761682916526,0.055571283383499454,11.084149685678554,1.3216107162091664,0.015592573500000206,0.06099736299999997,-0.16288845649999928
81452.0,2.1350057715,0.4180574895,10.611383699,-1.3195369823485408,0.041947243242431716,0.11392636692392986,10.832104399250788,1.325110046781632,0.1041466230000001,-0.016769371499999963,-0.27644946350000055
81462.0,2.2763195979999997,0.297141495,10.267758683,-1.3307280335123284,0.00597426202957659,0.18214081540887625,10.521254314605821,1.3431485649846024,0.1413138264999998,-0.12091599450000001,-0.34362501599999895
81472.0,2.2619038225,0.1511204765,10.019944637499998,-1.3349918728749508,0.0014433872913993105,0.25381974245903133,10.273185330715235,1.358907592763765,-0.014415775499999839,-0.1460210185,-0.24781404550000197
81482.0,2.1697213125,-0.0212804305,9.732707859,-1.343519551600195,0.0030421088862261168,0.3177703515813556,9.971647090590368,1.3805911908681017,-0.09218250999999977,-0.172400907,-0.28723677849999874
81492.0,2.103918691,-0.16014259449999999,9.5088220395,-1.3611054891432899,0.006241297405131722,0.36440205853614005,9.74011376154269,1.4090549906354506,-0.06580262150000005,-0.13886216399999998,-0.22388581949999953
81502.0,2.022523496,-0.235555733,9.317298164999999,-1.3746946226993177,-0.007349581480148121,0.40543649457977876,9.537197328918678,1.4332543644320404,-0.08139519500000025,-0.0754131385,-0.1915238745000014
81512.0,2.0428232614999997,-0.34323275000000003,8.935427213999999,-1.3922805602424126,-0.024403193601384716,0.4510018053615947,9.172393095320864,1.4637087492825513,0.0202997654999999,-0.10767701700000004,-0.3818709509999998
81522.0,2.105095489,-0.5408367475,8.54159215,-1.3912159093986962,-0.023603832803971315,0.5037613633201313,8.813780565806942,1.4798021349698196,0.06227222750000028,-0.19760399749999996,-0.39383506399999924
81532.0,2.1708981105,-0.6712651924999999,8.15128748,-1.3667010147251837,-0.0028187067419708422,0.5639822038309437,8.46208503540583,1.4784977291144388,0.06580262150000005,-0.13042844499999995,-0.390304669999999
81542.0,2.162562458,-0.8352323804999999,8.0064432595,-1.3243331471330213,0.020362756383017842,0.6258017659365829,8.335311822708235,1.4648893394014828,-0.008335652500000013,-0.16396718799999999,-0.14484422050000134
81552.0,1.992515147,-0.9023098664999999,7.8664042975,-1.277968475553792,0.011836822987025543,0.6849562102744267,8.164839023393796,1.4500029465077695,-0.17004731100000003,-0.06707748599999996,-0.14003896199999932
81562.0,1.896802243,-1.0052796915,7.752647157499999,-1.2276069999874955,-0.03346319774848728,0.7302544856806874,8.04437592084588,1.428779320216603,-0.09571290399999999,-0.10296982500000007,-0.11375714000000059
81572.0,1.8009912725,-1.0974622015,7.608979735,-1.1769802343748963,-0.09847845771452805,0.7742210748676767,7.895857486998044,1.4122318334863715,-0.09581097050000009,-0.09218251,-0.1436674224999992
81582.0,1.7351886509999999,-1.160911227,7.405491747499999,-1.1218225940241193,-0.1952046048600538,0.8216503972906225,7.694147292184134,1.4041724059350444,-0.06580262150000005,-0.06344902549999998,-0.20348798750000086
81592.0,1.744799168,-1.2051392184999998,7.073928910999999,-1.06000303191848,-0.2676828927076223,0.8813389123795766,7.3849275494416275,1.4042858815779307,0.00961051700000004,-0.0442279914999999,-0.33156283649999985
81602.0,1.6860573344999998,-1.266234648,6.748348130999999,-1.008042834757357,-0.27008097509986256,0.9519514432567632,7.07010198060736,1.4125528804739225,-0.05874183350000006,-0.06109542950000013,-0.3255807800000001
81612.0,1.5317006635,-1.439812353,6.531621165999999,-0.9670066533844662,-0.22078589570653467,1.012971644564989,6.861577194097355,1.4177305216879055,-0.15435667099999995,-0.17357770500000003,-0.21672696500000033
81622.0,1.3089916419999998,-1.59063863,6.455031229499999,-0.9392943155213003,-0.16616058077761617,1.0497422412460056,6.775767007792875,1.4183941352216491,-0.22270902150000005,-0.15082627699999995,-0.07658993649999957
81632.0,1.1139373735,-1.6864496005,6.489746770499999,-0.9123830837847997,-0.140046964509277,1.0638654455531436,6.7971892626527515,1.4084976855099591,-0.19505426849999985,-0.09581097050000009,0.03471554099999974
81642.0,0.9091745215,-1.6517340594999999,6.495728826999999,-0.8721462632093225,-0.14138039605780067,1.0718590535272776,6.763824118631108,1.3890677994424308,-0.204762852,0.03471554100000018,0.005982056499999722
81652.0,0.7834532685,-1.602602743,6.483764713999999,-0.8161892620611323,-0.15203912179973003,1.080386732252522,6.724681363626529,1.362540383727694,-0.12572125300000003,0.0491313164999998,-0.011964112999999443
81662.0,0.7643303009999999,-1.6217257104999998,6.4203156885,-0.7546367353310481,-0.15656825120865533,1.0915777834163096,6.665931940030794,1.336238106343964,-0.019122967500000088,-0.019122967499999755,-0.06344902549999976
81672.0,0.753542986,-1.5511178305,6.320974324,-0.7016101419969565,-0.1749535495491636,1.1155586073387116,6.551985192330037,1.329412103999481,-0.010787314999999853,0.07060787999999985,-0.09934136449999986
81682.0,0.808656359,-1.599072349,6.27429467,-0.649117619413975,-0.20799612294792022,1.1525979847245353,6.525161384232417,1.3390661616910842,0.055113372999999966,-0.0479545185000001,-0.04667965400000007
81692.0,0.808656359,-1.6002491469999998,6.265860950999999,-0.5819695671019972,-0.24636544122376358,1.213618186032761,6.517341167737958,1.3683031861147277,0.0,-0.0011767979999997014,-0.008433719000001005
81702.0,0.706863332,-1.5882850339999999,6.2575252985,-0.5265448913756653,-0.2847365048288589,1.2948876973226249,6.4945306205084625,1.4265547828574463,-0.10179302700000004,0.011964112999999887,-0.00833565249999868
81712.0,0.4447315775,-1.6217257104999998,6.256250433999999,-0.4905719101628102,-0.3140475642868517,1.3857512835107018,6.478306101833067,1.5031943624917072,-0.2621317545,-0.03344067649999993,-0.0012748645000009162
81722.0,0.11189387649999999,-1.833647417,6.164067923999999,-0.4620602115022308,-0.3489541493267383,1.4600953283286524,6.431991640320643,1.5707154437367035,-0.332837701,-0.21192170650000008,-0.09218250999999977
81732.0,-0.19338713800000001,-2.1389284314999997,6.033639479,-0.4180953676444937,-0.3953188209059676,1.487540630816263,6.404468657333742,1.594947596298234,-0.3052810145,-0.3052810144999998,-0.13042844499999973
81742.0,-0.38128255199999994,-2.2621980219999998,5.887618460499999,-0.3485474876110236,-0.4523422182271264,1.4670225401298176,6.318778949419003,1.5742471110850216,-0.18789541399999993,-0.12326959050000008,-0.14602101850000082
81752.0,-0.4663062075,-2.2538623694999997,5.7367921834999995,-0.25875029759591534,-0.4763230421495285,1.437711480671825,6.18127184456952,1.5365056650218143,-0.08502365550000007,0.008335652500000013,-0.1508262769999993
81762.0,-0.5967346525,-2.158051399,5.654122124,-0.17747904097679937,-0.47179391274060317,1.4262551394617342,6.081313598173212,1.512710160250847,-0.130428445,0.09581097049999965,-0.08267005949999984
81772.0,-0.6458659689999999,-2.1724671745,5.685307271,-0.11299436110336489,-0.45553966141678,1.433981712060313,6.120414629735292,1.5088365250378515,-0.04913131649999991,-0.014415775499999839,0.031185147000000413
81782.0,-0.739225277,-2.2334645374999997,5.7618972075,-0.07195992505972622,-0.4294260451484408,1.4574302105608568,6.223686791622962,1.5210811213481992,-0.09335930800000003,-0.060997362999999805,0.07658993649999957
81792.0,-0.9164314425,-2.240623392,5.77023286,-0.046645669588800454,-0.4131717938246176,1.481412779812511,6.25746170840893,1.5386586931140611,-0.1772061655,-0.007158854500000089,0.008335652500000457
81802.0,-1.088734283,-2.2454286505,5.698448182,-0.021331414117874696,-0.41530284084130276,1.502995521342673,6.220900565545545,1.5594636949975005,-0.1723028405,-0.004805258500000242,-0.07178467800000021
81812.0,-1.2516227395,-2.378308758,5.6290170999999996,0.026897269102484613,-0.4475443081133939,1.5197820980883543,6.2376875156187,1.5845368397357342,-0.16288845649999995,-0.13288010750000012,-0.06943108200000037
81822.0,-1.3724406674999998,-2.3795836224999998,5.488978137999999,0.09617811376039953,-0.5040353800126944,1.5227142512317047,6.1379876671202265,1.6068480279028197,-0.12081792799999991,-0.001274864499999584,-0.1400389620000002
81832.0,-1.4132363314999998,-2.3221166534999997,5.308143511999999,0.17558361340913353,-0.5629227889749832,1.5048612783130548,5.9637111118096,1.6162670381503124,-0.04079566400000001,0.057466969000000034,-0.18083462600000022
81842.0,-1.3712638695000001,-2.305347282,5.1358406715,0.2560555092308361,-0.5818421580666017,1.4819451052343693,5.794122029561897,1.6125340354979083,0.04197246199999971,0.016769371499999686,-0.17230284049999955
81852.0,-1.401174152,-2.239446594,5.060427533,0.32160483994798716,-0.5434710944615063,1.475550218855062,5.708444347486939,1.6050043463979713,-0.02991028249999994,0.06590068800000015,-0.0754131384999992
81862.0,-1.6717396255,-2.0826382605,5.134565807,0.3935508023736974,-0.4574036730579099,1.4963335995878104,5.787560930649362,1.6134170556403766,-0.27056547350000004,0.1568083334999999,0.07413827400000006
81872.0,-2.1195112645,-2.1198054639999997,5.350115974,0.4716228704739077,-0.3756000910169357,1.5331059415980792,6.132670229255493,1.6473971556638405,-0.4477716389999997,-0.03716720349999969,0.21555016699999996
81882.0,-2.648580032,-2.1532461405,5.652945325999999,0.5419701113047912,-0.3486871139511832,1.555222753879351,6.603577514213981,1.6834583805866439,-0.5290687675000001,-0.033440676500000155,0.30282935199999894
81892.0,-3.0603612655,-2.1867848834999997,5.734340521,0.5979271124529814,-0.4075762682427238,1.5360363494121774,6.8578787108594605,1.697952564990116,-0.4117812335000002,-0.033538742999999815,0.0813951950000007
81902.0,-3.201675092,-2.2334645374999997,5.609894132499999,0.6637434785456875,-0.5338787648925455,1.4702199833194713,6.83447140698249,1.699155301985968,-0.1413138264999998,-0.04667965400000007,-0.12444638850000089
81912.0,-3.1621542925,-2.1568746009999997,5.3896367734999995,0.765798115897552,-0.6633804500612727,1.376693024692851,6.610560669434823,1.7093285407064636,0.03952079949999998,0.07658993650000001,-0.22025735899999965
81922.0,-3.065166524,-2.170015512,5.2710743749999995,0.8958321264881375,-0.711609133281632,1.2796998421717702,6.472127796092449,1.7165472447539996,0.09698776850000002,-0.013140911000000255,-0.11856239849999994
81932.0,-3.0376098375000002,-2.190413344,5.420723854,1.0154744467123489,-0.642062998577414,1.2197460370365132,6.588568224111719,1.7120787484617201,0.02755668649999965,-0.020397832000000005,0.1496494790000007
81942.0,-3.3249446825,-2.0336050105,5.720022812,1.0903490716229056,-0.5133606742061001,1.1976292247552411,6.921666522609718,1.6990338548122323,-0.28733484499999973,0.1568083334999999,0.2992989579999996
81952.0,-3.7642826025,-1.9773148395,6.140139698,1.130851182244686,-0.41983371557948,1.1941647461900322,7.4686620620393995,1.6973845133512264,-0.4393379199999998,0.05629017100000011,0.42011688599999975
81962.0,-4.3185544605,-1.935440444,6.4071747775,1.152702704479655,-0.40304539350454655,1.1787116009928744,7.965408399448677,1.6972124653251668,-0.5542718579999999,0.04187439550000005,0.26703507950000027
81972.0,-4.7686796954999995,-2.00840192,6.5986986519999995,1.1801480069672659,-0.4731255989598748,1.1259520430343377,8.385511803726727,1.698341883706914,-0.4501252349999998,-0.07296147599999991,0.19152387449999964
81982.0,-5.0487576195,-2.293383169,6.775806750999999,1.2510258278907556,-0.5802434364717748,1.0281594997158436,8.755633442944546,1.7201337228466451,-0.2800779240000004,-0.2849812490000003,0.1771080989999998
81992.0,-5.16614322,-2.423811614,6.8978995434999995,1.3413570886569741,-0.6492572457541346,0.9061190970993921,8.952369330067363,1.7440830337408757,-0.11738560050000046,-0.13042844499999973,0.12209279250000016
82002.0,-5.204389154999999,-2.4490147045,6.9757643445,1.396781764383306,-0.6473914887837526,0.7792842750277122,9.041273565684005,1.7255141316050855,-0.038245934999999065,-0.025203090500000247,0.07786480100000048
82012.0,-5.149373848499999,-2.390272871,7.03921337,1.4149000273482593,-0.5767789579065661,0.6631064333687097,9.043228422297041,1.665630870165674,0.05501530650000053,0.05874183350000006,0.06344902549999976
82022.0,-5.21517647,-2.1987489965,7.073928910999999,1.4223613099005348,-0.4741919951328434,0.5621164468605617,9.059416813500363,1.6012322267495038,-0.06580262150000138,0.19152387450000008,0.03471554099999974
82032.0,-5.282253956,-2.135299971,7.204357355999999,1.4556691733455946,-0.37453369484396715,0.4851090296040679,9.1850137580072,1.5794236294944815,-0.06707748599999963,0.0634490255000002,0.13042844499999973
82042.0,-5.3875773769999995,-2.1616798595,7.509638370499999,1.522019610189411,-0.2754112106354532,0.4310177854262596,9.49176054606394,1.605668508783357,-0.10532342099999958,-0.02637988850000017,0.3052810145000002
82052.0,-5.640196681,-2.1748207705,7.9537815489999995,1.5881012663284204,-0.1906754754511285,0.38225503145479006,9.99021045390809,1.6445490804852705,-0.25261930400000043,-0.01314091099999981,0.44414317850000007
82062.0,-5.886735862,-2.1389284314999997,8.425481414,1.6397944281139885,-0.15470249423827337,0.31750331620580047,10.498448028241858,1.6773988744478476,-0.24653918100000016,0.035892339000000106,0.4716998650000006
82072.0,-6.061490364999999,-2.1304947125,8.9773016095,1.7069442257552183,-0.2000007696445342,0.2346350833211097,11.039593169719144,1.734564072043057,-0.17475450299999906,0.008433718999999673,0.5518201954999995
82082.0,-6.087870253499999,-1.984473694,9.4956811285,1.7834193175898538,-0.3164456466790919,0.13311277139110353,11.452871262691255,1.816161149117068,-0.02637988850000017,0.14602101849999993,0.5183795189999998
82092.0,-5.9370439765,-1.8001086739999999,9.877552079500001,1.835377769421725,-0.4464796572696774,0.016135568934687577,11.664258120443828,1.8889722066319454,0.1508262769999993,0.1843650200000002,0.38187095100000157
82102.0,-5.5432089125,-1.6780158815,10.1899919485,1.8577616170785523,-0.5074998585779031,-0.10643715910362218,11.720871906845517,1.9287724596709066,0.3938350640000001,0.12209279249999994,0.31243986899999854
82112.0,-5.2402814939999995,-1.3991147554999999,10.401815588499998,1.843638412771414,-0.46193454779608717,-0.21622011438331754,11.730977784165233,1.9128871533255194,0.3029274185000004,0.27890112600000005,0.21182363999999865
82122.0,-5.0009011674999995,-1.0950105389999998,10.672381061999998,1.7852833292309835,-0.3076526779075444,-0.32280562647335925,11.836713145977651,1.8401332039655731,0.23938032650000007,0.3041042165000001,0.2705654734999996
82132.0,-4.828500260499999,-0.7598192419999998,11.023164932499999,1.7090752727719032,-0.09155124591336256,-0.43578602494270813,12.058271234934953,1.766134020442393,0.1724009070000001,0.33519129699999994,0.3507838705000008
82142.0,-4.707584266,-0.42590280950000003,11.3942485685,1.627004655355374,0.09657081284209824,-0.5351755445267773,12.33578709549557,1.7154832945559615,0.12091599449999979,0.3339164324999998,0.3710836360000016
82152.0,-4.522042448,-0.061978028,11.8551611185,1.5689166071904987,0.22180865864820337,-0.619911279711102,12.6884811669113,1.7014665427455566,0.18554181799999991,0.3639247815,0.46091254999999975
82162.0,-4.368862575,0.31038047249999995,12.350691142999999,1.549464912677022,0.23246738439013273,-0.693454218402387,13.104307228797849,1.7134063596947648,0.15317987300000002,0.37235850049999997,0.49553002449999894
82172.0,-4.208425781,0.5533892595,12.7960111195,1.5806399837761445,0.10296569922140547,-0.7462137763609236,13.481653748597873,1.7509596493234314,0.16043679399999977,0.243008787,0.44531997650000044
82182.0,-3.7893876264999995,0.6120330265,13.236623904,1.6461910598225478,-0.12778951717252082,-0.7981739735220468,13.781953975592222,1.83394570752431,0.41903815450000037,0.05864376700000007,0.44061278450000074
82192.0,-3.2806186244999997,0.503081145,13.575345595,1.6845603780983909,-0.32923541943770634,-0.8389431195193824,13.975176464773412,1.910488206365124,0.5087690019999997,-0.10895188150000001,0.33872169099999994
82202.0,-2.8628553345,0.5341682255,13.6939079935,1.6307361692961377,-0.4179679586090981,-0.8805116263141313,14.000156873901526,1.8998153574357837,0.4177632899999999,0.031087080499999975,0.11856239849999994
82212.0,-2.575618556,0.631155994,13.722641477999998,1.4956389585455168,-0.37693177723620735,-0.9202143761384983,13.97651809173156,1.7960534393668608,0.28723677850000007,0.09698776850000002,0.02873348449999824
82222.0,-2.475002327,0.6575358825,13.794426155999998,1.346952614238868,-0.2575582377168032,-0.9559203219757983,14.030116996260842,1.671646270233933,0.10061622899999989,0.02637988849999995,0.07178467800000021
82232.0,-2.2954425654999997,0.5773174855,13.990755288999999,1.2246469215761133,-0.12965527414290276,-1.0158741271110556,14.189559034982542,1.5964243842952823,0.1795597615000002,-0.080218397,0.19632913300000077
82242.0,-2.1218648605,0.5904583965,14.3068236185,1.1284530998524458,-0.027333601415483195,-1.0902164265997538,14.475363679545032,1.569307293413521,0.17357770499999958,0.013140911000000033,0.3160683295000002
82252.0,-1.7232245379999998,0.5688837664999999,14.566601776999999,1.0069467679871045,0.0440782902591168,-1.1584308750847003,14.679203618652208,1.5355281767461473,0.39864032250000037,-0.02157463000000004,0.25977815849999963
82262.0,-1.2396586264999998,0.5677069684999999,14.714976391499999,0.8494674549089082,0.10056761682916526,-1.2205174725658945,14.77800984282869,1.490426684994185,0.48356591149999995,-0.0011767980000000344,0.14837461449999978
82272.0,-0.7762944139999999,0.6168382849999999,14.858643814,0.7197004796938777,0.10349976997251574,-1.2503608574457457,14.891689577692983,1.4464035594150138,0.46336421249999993,0.04913131650000002,0.14366742250000186
82282.0,-0.34176175249999996,0.7161796494999999,14.845502902999998,0.63896154849662,0.05606870222031784,-1.2354400376704462,14.866696701984983,1.3920228613442462,0.4345326614999999,0.09934136449999997,-0.013140911000002475
82292.0,0.0436395925,0.8969162089999999,14.788035933999998,0.5830045473484299,0.015034266176679155,-1.1805476873659724,14.815274883891817,1.3167433969963793,0.38540134499999995,0.1807365595,-0.057466969000000034
82302.0,0.405210778,1.0776527685,14.7485151345,0.5281139423732082,0.01903107016374617,-1.096078987557203,14.793384668041273,1.216821952762594,0.3615711855,0.1807365595,-0.039520799499998205
82312.0,0.7583482444999999,1.11599677,14.772443360499999,0.45004012894374584,0.08111592231568845,-0.9932249894079251,14.833934868731465,1.0934403459252824,0.35313746649999994,0.03834400150000006,0.023928225999998887
82322.0,0.9702699509999999,1.0884400834999999,14.846679701,0.3429222914318459,0.11602250735557505,-0.8887722696638204,14.918110595422881,0.9596734171046528,0.21192170649999997,-0.027556686500000094,0.07423634050000061
82332.0,1.112662509,0.9472243234999999,14.887377298499999,0.2581865562475212,0.06885847497893229,-0.8098990954369446,14.958918898298009,0.8528413288490185,0.14239255800000006,-0.14121576000000002,0.04069759749999946
82342.0,1.2875150784999998,0.9268264915,14.8610954765,0.2147540378116423,-0.04811872747748367,-0.7606040160436168,14.945529806077795,0.7918037496199012,0.17485256949999983,-0.020397831999999894,-0.02628182199999962
82352.0,1.5424879785,1.102855859,14.746161538499999,0.18730873532403144,-0.14963929407823784,-0.7203671954681395,14.867576814299104,0.7592136569948897,0.2549729000000003,0.17602936749999998,-0.11493393800000007
82362.0,1.9290661214999998,1.2477000795,14.626422341999998,0.13161702422214439,-0.1952046048600538,-0.6827954926604576,14.805751656571173,0.7222448086494628,0.3865781429999997,0.1448442205,-0.1197391965000012
82372.0,2.2763195979999997,1.3745981305,14.404988185,0.02609790830507121,-0.1906754754511285,-0.6308352954993344,14.648373136379432,0.6595387841546139,0.34725347649999994,0.12689805099999996,-0.22143415699999736
82382.0,2.485789642,1.6642865715,13.938093578499998,-0.12152203982860918,-0.13445143892738318,-0.5522291566480139,14.255506042907513,0.5812072238418295,0.20947004400000013,0.289688441,-0.46689460650000214
82392.0,2.6425979754999998,1.679879145,13.404219552499999,-0.28353048231573086,-0.027333601415483195,-0.4754887747670752,13.765116047950555,0.5542799248556868,0.1568083334999999,0.015592573499999984,-0.5338740259999994
82402.0,2.6449515715,1.7588226775,12.902609405,-0.41223280668704465,0.07791847912603485,-0.3987466475568845,13.287834868196663,0.5787970846818831,0.002353596000000291,0.07894353250000008,-0.5016101474999992
82412.0,2.6198465475,1.78873296,12.514756397499998,-0.4732530079952704,0.12534954687823274,-0.32600306966301285,12.910549532200601,0.5881827266325125,-0.025105024000000142,0.02991028249999994,-0.3878530075000022
82422.0,2.5695384329999995,1.8402178725,12.2034933265,-0.46392596847261275,0.08191528311310185,-0.2505943740013458,12.606116727480456,0.5336056203900758,-0.05030811450000039,0.05148491250000009,-0.3112630709999973
82432.0,2.5288408354999996,2.0210524985,11.791712093,-0.4316845012005215,-0.040657444925207904,-0.17038951355519844,12.228007329781407,0.4658724318245999,-0.040697597499999905,0.180834626,-0.41178123350000106
82442.0,2.5922898610000003,2.165896719,11.136824006,-0.4172960068470803,-0.1571005766305136,-0.07446272720708608,11.637865966810077,0.4520633210638475,0.06344902550000064,0.1448442205,-0.6548880869999998
82452.0,2.638969515,2.3119177375,10.498803357,-0.4098347242948045,-0.18721099688591977,0.044113196844156675,11.069507471203085,0.45272335120758855,0.046679653999999626,0.14602101849999993,-0.6380206489999996
82462.0,2.39478393,2.3801720215,9.964929331,-0.3895836689839143,-0.14271208227707233,0.20239187071976644,10.521407961634305,0.46163258431383786,-0.24418558499999987,0.068254284,-0.5338740259999994
82472.0,2.0092845185,2.2652380835,9.529121804999999,-0.3677338920781973,-0.08355763793922852,0.35560734443534064,9.998634418046745,0.518330664399973,-0.3854994115000001,-0.11493393800000007,-0.4358075260000014
