timestamp,ax,ay,az,gx,gy,gz,acc_mag,gyro_mag,dax,day,daz
189382.0,0.0983606995,0.4843504435,10.48134752,-0.01485100660521975,0.04368733650667006,0.03394141796353373,10.492993663122785,0.0572813723789034,0.0,0.0,0.0
189392.0,-0.952617981,0.2509521735,9.707995101,-0.03989822670059037,0.037025414751807706,0.033409092541675456,9.757849501409053,0.06386640193288892,-1.0509786804999999,-0.23339827000000002,-0.7733524190000001
189402.0,-0.12905551399999998,0.10247949249999999,9.927075662,-0.05775119961924037,0.020771163427984515,0.02115164520491928,9.928443411288075,0.06491559429357614,0.8235624669999999,-0.148472681,0.21908056100000017
189412.0,-0.115914603,0.223395487,9.886378064499999,-0.05588544264885843,0.04288797570925666,-0.013754939834967311,9.889581031218025,0.07177575865402054,0.013140910999999977,0.12091599450000001,-0.04069759750000124
189422.0,-0.242812654,0.47238633049999995,9.807434532,-0.06068335276259085,0.038091810924776245,-0.0401355914788616,9.821806296687583,0.08212381545809969,-0.12689805099999998,0.24899084349999995,-0.07894353249999853
189432.0,-0.2642892175,0.628017866,9.7486926985,-0.07240672934823676,0.05461135229490257,-0.043333034668515215,9.772474843164813,0.10051311430838024,-0.021476563500000018,0.15563153550000003,-0.05874183350000095
189442.0,-0.301456421,0.6987238124999999,9.739180248,-0.07480481174047696,0.09697921988706491,-0.025213026374310086,9.76886497209118,0.12504569424167927,-0.03716720349999997,0.07070594649999995,-0.009512450499999048
189452.0,-0.42835447199999993,0.778844143,9.855290984,-0.060416317387035706,0.14014644827664066,0.0011658799403322121,9.895294140755974,0.1526188639952592,-0.12689805099999996,0.08012033050000011,0.11611073599999955
189462.0,-0.5072980045,0.7454034664999999,9.9307041225,-0.034035665743141416,0.14760773082891643,0.030476939398324982,9.971552635466473,0.1545163828793888,-0.07894353250000002,-0.033440676500000155,0.07541313850000009
189472.0,-0.5899680639999999,0.6687154635,10.052796914999998,-0.0073897240529439915,0.12415923232837262,0.04699822609770331,10.092272712421986,0.13296223618110634,-0.08267005949999995,-0.0766880029999999,0.12209279249999838
189482.0,-0.7192197109999999,0.6292927305,10.156943537999998,0.016591099869458097,0.06873455660204068,0.060320324278176025,10.201803191959302,0.09294216151554567,-0.12925164700000003,-0.03942273299999999,0.1041466230000001
189492.0,-0.940653868,0.6987238124999999,10.174889707499998,0.03444407278810809,-0.0072082098107365804,0.0896313837361688,10.242139680034015,0.09629193834048846,-0.22143415700000002,0.06943108199999992,0.017946169500000053
189502.0,-1.1190368314999999,0.708236263,10.105458625499999,0.047233845546722546,-0.0866137094594706,0.13306564750129968,10.191866171912487,0.16564853569048346,-0.17838296349999994,0.009512450500000047,-0.06943108199999948
189512.0,-1.260350658,0.6065413024999999,9.986994293499999,0.06695257543575447,-0.1633540913404093,0.1743671189204935,10.084464842080664,0.24813524271204343,-0.14131382650000002,-0.10169496050000004,-0.11846433200000028
189522.0,-1.413530531,0.47719158899999997,9.923545267999998,0.09999340350525912,-0.21744708084746953,0.20287881758107287,10.035065075061878,0.3137542483166495,-0.15317987300000002,-0.12934971349999996,-0.06344902550000064
189532.0,-1.619470181,0.36470931349999997,9.8396984105,0.12797277674398022,-0.256083434498868,0.21353754332300223,9.978745480274464,0.357147083735432,-0.20593965000000014,-0.1124822755,-0.08384685749999754
189542.0,-1.8098172574999998,0.2833141185,9.784683103999999,0.13996318870518126,-0.2832634469401757,0.19808265279659243,9.954683763987147,0.3729136788908223,-0.1903470764999997,-0.08139519499999998,-0.055015306500001415
189552.0,-1.923476331,0.233006004,9.707995101,0.1396978986588781,-0.30377979229736907,0.15145094584180796,9.899455635279006,0.3670627386351237,-0.11365907350000026,-0.0503081145,-0.07668800299999923
189562.0,-1.9007249029999997,0.183972754,9.6063001405,0.1442270280678034,-0.31417148266374323,0.08643394054651518,9.794263806967273,0.3563368942767563,0.022751428000000296,-0.04903325,-0.10169496049999971
189572.0,-1.8169761119999999,0.18632634999999997,9.4662611785,0.15301999683935086,-0.29818426671547527,0.020352284407505875,9.640862015393601,0.3357725298918371,0.08374879099999988,0.0023535959999999856,-0.1400389620000002
189582.0,-1.6613445765,0.195936867,9.362016488999998,0.16021424401607148,-0.24702343035176544,-0.04120024232257814,9.510300194947769,0.29729890530547526,0.15563153549999997,0.009610517000000013,-0.10424468950000154
189592.0,-1.6134881245,0.3407810875,9.3201420935,0.17460448369876472,-0.1633540913404093,-0.08383514529029562,9.464910159136787,0.25337643235156654,0.047856451999999994,0.14484422050000004,-0.04187439549999894
189602.0,-1.3237016169999998,0.17073377649999996,9.411147805499999,0.19565489980706835,-0.08634667408391547,-0.11607661256238687,9.50531635508539,0.2433318062396002,0.2897865075000001,-0.17004731100000006,0.0910057119999994
189612.0,-1.297419795,0.32283491799999997,9.672102762,0.20604659017344257,0.006115633698988131,-0.14165790340886777,9.764071504624797,0.25011909142614225,0.026281821999999844,0.1521011415,0.2609549565000009
189622.0,-1.3500815054999997,0.1587696635,9.937862976999998,0.20604659017344257,0.05621007388972938,-0.21120403811308583,10.03040619452514,0.3003696313612034,-0.05266171049999979,-0.16406525449999998,0.26576021499999847
189632.0,-1.3404709885,0.1371950335,10.1725361115,0.2257653200624745,0.0828560155799268,-0.2778197650032054,10.261392492639523,0.3674492085814431,0.009610516999999819,-0.021574629999999984,0.23467313450000127
189642.0,-1.2363243654999998,0.20662611549999998,10.365236783999999,0.25880614813197916,0.08392241175289533,-0.34683357428556516,10.440753127850607,0.4408141578454974,0.1041466230000001,0.06943108199999998,0.19270067249999911
189652.0,-1.0125366125,0.2737036015,10.528027174,0.2947791293448343,0.0727313605891077,-0.4174461051627517,10.580146512672188,0.516183917442216,0.22378775299999987,0.06707748600000002,0.1627903900000014
189662.0,-0.8652407295,0.45444016099999995,10.742302476499999,0.33154972602585087,0.06793519580462729,-0.4781992710954224,10.786668618092122,0.5858455039795245,0.14729588299999996,0.18073655949999995,0.21427530249999904
189672.0,-0.8305251885,0.6675386655,11.061901199999998,0.34887037352264255,0.06074094862790665,-0.5240316172527935,11.113102092450688,0.6324627548264201,0.03471554099999996,0.2130985045,0.3195987234999986
189682.0,-0.8269947945,0.7896314579999999,11.3887568445,0.3483380481007843,0.03675837937625258,-0.5711956496294363,11.446013310001824,0.6700410766248787,0.0035303939999999923,0.12209279249999994,0.32685564450000193
189692.0,-0.8114022209999999,0.8507268874999999,11.661675914,0.3278199574143389,-0.021863739539732963,-0.6188920074279373,11.720784740132672,0.7006934168693054,0.015592573500000095,0.06109542950000002,0.27291906950000033
189702.0,-0.728830228,0.845921629,11.8531997885,0.2923793016233421,-0.10819645098963249,-0.675915404749096,11.905676046733046,0.7443478772735497,0.08257199299999995,-0.004805258499999909,0.19152387449999964
189712.0,-0.568393434,0.8770087094999999,11.856828249,0.2601378343512508,-0.19985939797512267,-0.7350698490869398,11.902797633272504,0.804949162902002,0.160436794,0.031087080499999864,0.003628460499999875
189722.0,-0.40795664,0.9919426474999999,11.710807230499999,0.23695637122626212,-0.26567576406782883,-0.7787694028983738,11.75982078205193,0.856278994468761,0.160436794,0.11493393800000007,-0.14602101850000082
189732.0,-0.19250453950000002,1.1787593299999999,11.4570111285,0.2217667707461555,-0.28272937618906546,-0.810745580124162,11.519098730124808,0.8868059519750079,0.21545210049999997,0.18681668249999994,-0.253796101999999
189742.0,0.019417167,1.3498853725,11.264212389499999,0.22123444532429723,-0.2326349359983242,-0.8312619254813552,11.344824736461513,0.8911004892826981,0.21192170650000003,0.17112604250000008,-0.19279873900000055
189752.0,0.274390067,1.3367444614999997,11.2163559375,0.22549828468691938,-0.11645709433932165,-0.8403219296284579,11.299062623992784,0.8778112989892506,0.2549729,-0.013140911000000255,-0.04785645199999955
189762.0,0.41688069149999996,1.2098464105,11.4234723855,0.2116421157553364,0.036493089329949435,-0.8501812945729738,11.494922322061438,0.8768878858622786,0.14249062449999994,-0.12689805099999973,0.20711644800000073
189772.0,0.45757828899999997,1.0422507619999999,11.829271562499999,0.15755087157752812,0.15879878199270406,-0.8675019420697655,11.883910561798457,0.8958788700443938,0.040697597500000016,-0.16759564850000008,0.4057991769999987
189782.0,0.48268331299999995,0.8829907659999999,12.193196343999999,0.05336344187972663,0.2240810773343,-0.890151079772896,12.234651321424115,0.9194720936327563,0.025105023999999976,-0.15925999599999996,0.36392478149999974
189792.0,0.530539765,0.8183649424999999,12.347651081499999,-0.09185842386171356,0.24673196036668238,-0.9128002174760264,12.386108382047501,0.9500099301191675,0.04785645200000005,-0.06462582350000001,0.15445473750000005
189802.0,0.5401502819999999,0.8985833395,12.2805735955,-0.22748796003419292,0.2515281251511628,-0.9303861550191213,12.325246536263014,0.9902704515201097,0.00961051699999993,0.08021839700000011,-0.06707748599999874
189812.0,0.5245577084999999,1.0003763665,12.116606407499999,-0.32448114255527377,0.25099405440005257,-0.9237242332642589,12.169143950930508,1.010718796865773,-0.015592573499999984,0.10179302700000004,-0.16396718800000087
189822.0,0.577219419,0.9907658494999999,11.987354760499999,-0.3660479040207707,0.26351853711236384,-0.890151079772896,12.042070975554335,0.9978988086277547,0.052661710500000014,-0.009610517000000152,-0.12925164700000025
189832.0,0.5245577084999999,0.912999115,11.986079896,-0.3572549352492233,0.28430191784511233,-0.8469838513833201,12.032241663415546,0.9622059622318175,-0.052661710500000014,-0.07776673449999993,-0.0012748644999991399
189842.0,0.5149471915,0.7980651769999999,11.965780130499999,-0.3324747505294078,0.27151214508649785,-0.8192715135201543,12.003415046070945,0.9249130324169228,-0.00961051699999993,-0.11493393800000007,-0.020299765500000788
189852.0,0.6155634205,0.6447872375,12.0040260655,-0.31195665984296245,0.23953596786070974,-0.8168734311279141,12.037080654689655,0.9066292737398434,0.100616229,-0.1532779394999999,0.03824593500000084
189862.0,0.6323327919999999,0.5334817599999999,12.106995890499999,-0.30769282048034036,0.2040970573989649,-0.8251340744776031,12.135229583352556,0.903978274892751,0.016769371499999908,-0.11130547750000008,0.10296982499999885
189872.0,0.688622963,0.5645688405,12.1991784005,-0.3180862561759666,0.15373558183266853,-0.846716816007765,12.231634936019802,0.9174654554803681,0.05629017100000011,0.031087080500000086,0.09218251000000066
189882.0,0.7700181580000001,0.6806795765,12.186037489499999,-0.3633845315822274,0.11669794977609686,-0.858441937922663,12.229299339905511,0.9394622345041851,0.08139519500000003,0.11611073599999999,-0.013140911000000699
189892.0,0.8489616904999999,0.812382886,12.085421260499999,-0.4553127686140207,0.10630625940972263,-0.8429870473962532,12.142409519907805,0.9639698647418937,0.07894353249999986,0.13170330949999998,-0.10061622899999989
189902.0,0.9208444349999999,0.924963228,11.8173074495,-0.5656297946448263,0.11163474961606132,-0.8120772663434336,11.889165942261503,0.9959261360279752,0.07188274449999998,0.112580342,-0.2681138109999992
189912.0,1.013026945,0.869849855,11.4785857585,-0.664219953431482,0.138814762057369,-0.7670442809834759,11.555985175517428,1.024116503963793,0.0921825100000001,-0.055113372999999966,-0.33872169099999994
189922.0,1.095598938,0.754915917,11.208020285,-0.7361641705279403,0.1777181510843226,-0.7252104841424238,11.28671581035237,1.048547411185593,0.08257199299999995,-0.11493393799999996,-0.2705654734999996
189932.0,1.0907936795,0.6783259804999999,10.9039160685,-0.7620124967499763,0.21848555175240617,-0.6972311109037027,10.979314305363104,1.0557131255884324,-0.00480525850000002,-0.07658993650000012,-0.30410421650000075
189942.0,1.0500960819999998,0.510730332,10.71474579,-0.7412273706879758,0.25978702317159996,-0.6756483693735408,10.778187444917597,1.0360540678470869,-0.04069759750000013,-0.16759564849999997,-0.1891702784999989
189952.0,0.9531083134999999,0.369514572,10.684835507499999,-0.6839386833205139,0.271779180462053,-0.6609928396445446,10.7336231673427,0.9892156385420633,-0.0969877684999999,-0.14121575999999997,-0.029910282500001273
189962.0,0.862200668,0.26654474699999997,10.7962390515,-0.6053325444691933,0.23900364243885147,-0.6593941180497177,10.833891902321463,0.9264722518301081,-0.09090764549999997,-0.10296982500000001,0.11140354400000163
189972.0,0.8562186114999999,0.183972754,10.941083272,-0.515533609124833,0.1457419738585345,-0.6761806947953991,10.976076687493194,0.8626911133745649,-0.005982056500000055,-0.08257199299999998,0.14484422049999957
189982.0,0.8728899165,0.16357492199999998,11.0990684035,-0.40628472459624804,0.01410924167312216,-0.7105549544134274,11.134541435865545,0.8186297645348033,0.016671305000000136,-0.020397832000000005,0.15798513150000026
189992.0,0.864554264,0.26056269049999997,11.173304744,-0.26745774523411503,-0.1385739066205938,-0.7387996176984517,11.209731749394098,0.7978478853723862,-0.008335652500000013,0.09698776849999999,0.07423634049999883
190002.0,0.947126257,0.5167123885,11.10505046,-0.1334269306564625,-0.2928557765091365,-0.7494583434403811,11.157337745101849,0.815631693971963,0.08257199299999995,0.25614969800000004,-0.068254284
190012.0,1.024991058,0.8507268874999999,10.7291615655,-0.0673435291882012,-0.4042374533836587,-0.7369338607280698,10.811533230985225,0.8432168076652682,0.07786480099999993,0.3340144989999999,-0.3758888944999992
190022.0,1.200922359,1.2194569275,10.273054274,-0.12223587949267485,-0.46339189772150247,-0.6985645424522264,10.414649961804935,0.8471517461947249,0.1759313010000001,0.3687300400000001,-0.4561072915000004
190032.0,1.4092156049999998,1.376265261,9.934234516499998,-0.2701228630019104,-0.41676019076671794,-0.6396753881606857,10.127635959039546,0.8098395025823227,0.20829324599999977,0.1568083334999999,-0.3388197575000014
190042.0,1.768335128,1.1763076675,9.8373448145,-0.4507836392050954,-0.24675814030546228,-0.5789222222280151,10.063998303502842,0.7741100752292424,0.35911952300000016,-0.19995759349999997,-0.09688970199999858
190052.0,1.915631011,0.9201579695,9.924722066,-0.6090623130807052,0.011444123905326817,-0.5418845901714434,10.149701520068781,0.8153077813025291,0.14729588300000018,-0.256149698,0.08737725149999953
190062.0,1.755194217,0.7621728379999999,10.188030618500001,-0.7148484643733335,0.2195519479253747,-0.5373537154332662,10.36617490002309,0.9208476531678164,-0.16043679400000022,-0.15798513150000004,0.2633085525000016
190072.0,1.385287379,0.7070594649999999,10.504098948,-0.7646758691885196,0.2978927967303922,-0.5461466842048136,10.618618032438942,0.9857715272470519,-0.3699068379999999,-0.055113372999999966,0.3160683294999984
190082.0,1.0668654535,0.720200376,10.719551048499998,-0.7881261130183155,0.249929403556336,-0.5320252252269275,10.796558023687906,0.9831878340689267,-0.31842192550000004,0.013140911000000033,0.21545210049999852
190092.0,0.9866470565,0.635274787,10.9278442945,-0.795320360195036,0.1177626006198134,-0.5059116089585883,10.990670015696686,0.9499205553753278,-0.080218397,-0.08492558900000002,0.20829324600000199
190102.0,1.0572549365,0.5382870184999999,11.034442579999999,-0.7875920422672053,-0.016800539379697416,-0.48406183205287134,11.098038744136563,0.9246076683742452,0.07060787999999996,-0.09698776850000002,0.10659828549999872
190112.0,1.0201857994999999,0.6220358094999999,10.984134465499999,-0.7950533248194809,-0.13990559283986545,-0.46407781211753624,11.048932870190981,0.931156044878722,-0.03706913700000003,0.08374879099999999,-0.050308114499999945
190122.0,1.106386253,0.8148345484999999,10.814185221,-0.8398192748038834,-0.2496885481195608,-0.4382294858955002,10.901130577896561,0.979635579030493,0.08620045350000005,0.192798739,-0.16994924449999793
190132.0,1.2080812134999999,0.9417325995,10.653748426999998,-0.9056356408965897,-0.3000500236858572,-0.3945299320840662,10.7633022838336,1.0324048615181536,0.10169496049999993,0.12689805100000007,-0.16043679400000244
190142.0,1.303892184,0.9716428819999999,10.513709465,-0.9773128226174927,-0.2963185097450933,-0.3236521111605765,10.638717565198737,1.0713056060381754,0.09581097050000009,0.02991028249999994,-0.14003896199999843
190152.0,1.3781285245,0.960855567,10.310123411,-1.068977514932235,-0.25661575992072627,-0.23412021119177134,10.446105800762584,1.1240003776506786,0.07423634049999994,-0.010787314999999964,-0.20358605400000052
190162.0,1.51218543,0.7489338604999999,10.213233709,-1.1553102263821344,-0.21451492770411906,-0.152049593775242,10.351702734176712,1.1848533463506183,0.13405690550000005,-0.21192170650000008,-0.09688970199999858
190172.0,1.5409189144999997,0.418547822,10.1031050295,-1.1896844860001627,-0.18706962521650822,-0.10035643198967395,10.228506470520172,1.20847657583828,0.028733484499999795,-0.33038603849999987,-0.11012867950000071
190182.0,1.513362228,0.21388303649999998,10.091140916499999,-1.188085764405336,-0.18120706425905928,-0.06438345077681883,10.206230263084407,1.203548508558724,-0.02755668649999965,-0.20466478550000003,-0.01196411300000122
190192.0,1.455895259,0.118072066,10.097122973,-1.1710321522840994,-0.20598899430812675,-0.03160791275361731,10.202228401179447,1.1894313042827835,-0.057466969000000034,-0.09581097049999998,0.00598205650000061
190202.0,1.522972745,-0.08306232549999999,10.097122973,-1.1339927748982757,-0.273936407417518,-0.0030962140930379405,10.211671639051788,1.166614913059154,0.06707748599999985,-0.2011343915,0.0
190212.0,1.583970108,-0.2111371745,10.012099317499999,-1.075105365935987,-0.3757257547230793,0.023549727597159488,10.138820096686661,1.1391119261497002,0.06099736300000003,-0.128074849,-0.08502365550000057
190222.0,1.6019162774999998,-0.29253236949999994,9.7475159005,-1.0082226036703124,-0.5006965651536293,0.06218608124855796,9.882599717575587,1.1274204972455657,0.01794616949999983,-0.08139519499999995,-0.264583416999999
190232.0,1.6641885049999998,-0.39422733,9.418306659999999,-0.9445390299235432,-0.6110118458551829,0.10961714900075585,9.572326723931512,1.130267832940193,0.062272227500000055,-0.10169496050000004,-0.3292092405000009
190242.0,1.8473767269999999,-0.505630874,8.999366572,-0.896575636749487,-0.6576418074807154,0.15598182057998522,9.200927238568635,1.1227960401206878,0.18318822200000007,-0.11140354399999997,-0.4189400879999994
190252.0,1.9778051719999998,-0.6289004645,8.621026015,-0.8872485972268294,-0.627266097179006,0.20181242140810435,8.867317443508213,1.105170160376112,0.13042844499999995,-0.12326959050000008,-0.3783405569999996
190262.0,2.1071548855,-0.8109118885,8.2678885485,-0.9296164648189917,-0.5300076246116221,0.24471261442212497,8.570627798056254,1.0977154082303506,0.12934971350000013,-0.18201142399999992,-0.3531374664999998
190272.0,2.195708935,-0.99047165,8.017720907,-1.0044928350588005,-0.3834523273216582,0.2833507134027754,8.371739386724688,1.1119033994905871,0.0885540494999999,-0.17955976150000008,-0.2501676415000009
190282.0,2.217283565,-1.2622139215,7.8944513165,-1.069242804978538,-0.20758771590295358,0.3075985727007326,8.296498778390562,1.1318081629497576,0.021574629999999928,-0.27174227149999985,-0.12326959049999964
190292.0,2.1634450565,-1.4560913919999998,7.9207331385,-1.0956234566224323,-0.03971671245838296,0.3067992119033192,8.338987354930024,1.1384612125032132,-0.053838508499999715,-0.19387747049999993,0.02628182200000051
190302.0,1.9634874629999999,-1.5494507,8.107549821,-1.0705762365270617,0.031162853794358757,0.2828166426516652,8.484600437798221,1.107740879011791,-0.1999575935000002,-0.09335930800000014,0.18681668249999905
190312.0,1.8234485009999999,-1.5243456759999998,8.3373196305,-0.9970315525065248,-0.014135421611902075,0.2593681441511213,8.669457468426712,1.0303123609071736,-0.140038962,0.025105024000000142,0.22976980950000048
190322.0,1.719301878,-1.445304077,8.5528697975,-0.9045692447236212,-0.13644111427465672,0.2641643089356018,8.842877619625572,0.9521788058341756,-0.10414662299999988,0.07904159899999974,0.21555016699999996
190332.0,1.651047594,-1.3770497929999999,8.648582701499999,-0.8310263060323361,-0.2813976899697938,0.30599985110590583,8.91180155943452,0.9292068069675999,-0.068254284,0.06825428400000022,0.0957129039999991
190342.0,1.740876508,-1.4381452225,8.540807618,-0.7881261130183155,-0.41915827315895815,0.37154918182305685,8.83426892644732,0.9668946284328719,0.08982891399999993,-0.06109542950000013,-0.1077750834999982
190352.0,1.849730323,-1.5866179034999999,8.259552895999999,-0.7566822612143856,-0.5092224985496215,0.42510810057900683,8.611566215349818,1.0062765497831727,0.10885381500000002,-0.14847268099999988,-0.2812547220000017
190362.0,1.8234485009999999,-1.6440848725,7.8644429675,-0.7281705625538062,-0.5446631543406184,0.457084277804795,8.238776771635623,1.0177506359037707,-0.026281822000000066,-0.057466969000000034,-0.39510992849999926
190372.0,1.9120025505,-1.6979233809999998,7.444326081499999,-0.7199116645333691,-0.5356031501935159,0.4791993447568151,7.871257102176634,1.017239180942115,0.08855404950000012,-0.05383850849999994,-0.42011688600000063
190382.0,2.0759697385,-1.7397977765000001,7.033721645999999,-0.7183129429385423,-0.4439402032080257,0.4962529568780517,7.537226734793842,0.9794505527220975,0.16396718799999999,-0.04187439550000027,-0.4106044354999998
190392.0,2.196885733,-1.792459487,6.987041992,-0.7526854572273186,-0.29925066288844376,0.5133065689992883,7.540422649584476,0.9589421205362145,0.12091599449999979,-0.05266171049999979,-0.04667965399999918
190402.0,2.301032356,-1.8618905689999998,7.176114203999999,-0.844882474963919,-0.14043791826172372,0.5455497816006315,7.7626027505689486,1.0154672666272115,0.1041466230000001,-0.06943108199999992,0.18907221199999924
190412.0,2.219637161,-1.9636835959999999,7.2695715785,-0.8544748045328798,-0.017065829426000555,0.5873835784416837,7.850446695992949,1.0370332214246842,-0.08139519499999981,-0.10179302700000004,0.09345737450000069
190422.0,1.9850620929999998,-1.9839833614999998,7.483846881,-0.7995824542284062,-0.021064378742319565,0.6116314377396409,7.992785849128438,1.0069105346520024,-0.23457506800000028,-0.0202997654999999,0.21427530249999993
190432.0,1.7048861025,-2.021150565,7.6657602385,-0.7161801505926052,-0.12018686295083351,0.635879297037598,8.108980593333852,0.96524679255092,-0.28017599049999986,-0.037167203500000356,0.18191335750000004
190442.0,1.4487364045,-2.0881299845,7.5867186395,-0.6071965561103233,-0.26247832087817524,0.6721193136260083,8.001088908194202,0.9430413026121177,-0.256149698,-0.06697941949999997,-0.07904159899999996
190452.0,1.4475596064999998,-2.1791356965,7.288694545999999,-0.501412150146947,-0.38451872349462674,0.7358028873727774,7.743973746276592,0.969883849798025,-0.0011767980000001454,-0.09100571199999985,-0.2980240935000005
190462.0,1.663011707,-2.1995335285,6.933105417,-0.43000025847234696,-0.42342211252158035,0.790428202301696,7.461334090083988,0.9944663144885371,0.21545210050000008,-0.020397832000000005,-0.3555891289999993
190472.0,1.8653228964999997,-2.2629825539999997,6.722458574999999,-0.400422163638799,-0.37838912716162265,0.8210709479789604,7.334300841968956,0.9887738580193048,0.20231118949999982,-0.06344902549999976,-0.21064684200000094
190482.0,1.834235816,-2.2042407204999996,6.544075611499999,-0.38496727311238926,-0.3043138630484793,0.8551781722214336,7.144789975334239,0.9859697940885762,-0.031087080499999642,0.05874183350000006,-0.17838296349999982
190492.0,1.6929219895,-2.1348096384999997,6.485431844499999,-0.3729768611511882,-0.2211768494589814,0.9079377301799701,7.034502346635461,1.0061718837132898,-0.14131382650000002,0.06943108199999992,-0.0586437670000004
190502.0,1.4870804059999998,-2.186294551,6.5225009814999995,-0.35165940966732945,-0.1590919973070391,0.972954735475263,7.0380615975785465,1.0467165429563328,-0.20584158350000026,-0.05148491250000031,0.037069137000000474
190512.0,1.2105328759999998,-2.1839409549999997,6.550057667999999,-0.32154898941192334,-0.12178558454566032,1.0334426113616304,7.009867573137793,1.0891414564568294,-0.27654753,0.002353596000000291,0.02755668649999965
190522.0,0.9758597415,-2.2485667785,6.6493990325,-0.29250496532948567,-0.10046987839105358,1.0854028085227536,7.0868090341045775,1.1286064894175463,-0.23467313449999982,-0.06462582350000012,0.09934136450000075
190532.0,0.8107157554999999,-2.4365602589999997,6.7272638334999995,-0.2682571060315284,-0.0890117918517108,1.1264372445663922,7.200705841615195,1.161355173911663,-0.16514398600000013,-0.18799348049999987,0.0778648009999996
190542.0,0.677835648,-2.702320474,6.8877006275,-0.23708028960315375,-0.10473197242442374,1.13816236648129,7.42983290821288,1.1673000566437561,-0.1328801074999999,-0.26576021500000024,0.16043679400000066
190552.0,0.508965135,-2.8495182905,6.964290564,-0.19977562217102696,-0.15109664400365308,1.1211087543600537,7.541892538107332,1.148749465351666,-0.168870513,-0.14719781649999986,0.07658993649999957
190562.0,0.3617673185,-2.887862292,6.8661259975,-0.15580903298403778,-0.23476598301500926,1.08646745936647,7.457500279841466,1.1224094893587886,-0.14719781649999997,-0.03834400150000006,-0.0981645664999995
190572.0,0.3054771475,-2.8806053709999997,6.6374349195,-0.11530692236225738,-0.31817003198006233,1.0459653487446898,7.242012558790323,1.099350429285153,-0.056290171,0.007256921000000194,-0.22869107799999977
190582.0,0.30067188899999997,-2.8315721209999998,6.271156542,-0.07720289413271718,-0.3725283115334257,1.0011993987602872,6.887351351247347,1.071045221190204,-0.00480525850000002,0.04903324999999992,-0.3662783775000005
190592.0,0.331857036,-2.7573357804999996,5.878498275999999,-0.059883991965177436,-0.36639871520042155,0.9508379231939907,6.501520720547094,1.0207481898970316,0.031185147000000024,0.07423634050000016,-0.39265826600000064
190602.0,0.319892923,-2.7166381829999997,5.5756689239999995,-0.05695183882182697,-0.26807384646006904,0.891950514231702,6.2105183720506245,0.9331038628894865,-0.011964112999999998,0.040697597499999905,-0.30282935199999983
190612.0,0.2109410415,-2.7118329245,5.531342865999999,-0.06867696073672487,-0.0780860307342263,0.858110325364784,6.163950667764986,0.864388387028375,-0.10895188149999999,0.004805258499999798,-0.044326058000000224
190622.0,0.0385401345,-2.786069265,5.7707231925,-0.09185842386171356,0.11403283200830151,0.8405226424924372,6.408191121978363,0.853182143128102,-0.172400907,-0.07423634050000016,0.23938032650000096
190632.0,-0.1326839745,-2.9513113174999996,6.146612086999999,-0.11397523614298571,0.21608746936016596,0.8184075755404171,6.819727536928964,0.8540931498204827,-0.171224109,-0.16524205249999957,0.3758888944999992
190642.0,-0.176911966,-3.1428351919999997,6.469839271,-0.11690564395708418,0.20356473197710662,0.776572033370113,7.194965676107251,0.81127655747379,-0.04422799150000001,-0.19152387450000008,0.3232271840000003
190652.0,-0.16612465099999998,-3.2553174675,6.6339045255,-0.08253312966830785,0.06287199564459174,0.7144871812181707,7.39143953958428,0.7219809813660374,0.01078731500000002,-0.11248227550000012,0.16406525450000053
190662.0,-0.11709140099999998,-3.164409822,6.6003657825,-0.019380136014145035,-0.14656751459472783,0.6489361051717677,7.320657646725126,0.6655641926981244,0.04903325,0.09090764549999975,-0.03353874300000026
190672.0,-0.17936362849999998,-2.8961979444999995,6.341764422,0.06801897160872301,-0.3336249225064721,0.5889823000365104,6.974102797428476,0.6803178074785752,-0.0622722275,0.26821187750000064,-0.25860136050000015
190682.0,-0.326561445,-2.5430604779999997,5.9754860445,0.16554447955166215,-0.44687061102212416,0.5559414719670058,6.5023251564452185,0.7322357803045125,-0.14719781650000002,0.3531374664999998,-0.3662783774999996
190692.0,-0.5408367475,-2.2844591175,5.8270133635,0.2678661522790817,-0.44180741086208863,0.5705970016960021,6.282144744064947,0.7697577555139864,-0.2142753025,0.2586013604999997,-0.14847268100000033
190702.0,-0.629390797,-2.4078267744999997,6.041288666,0.37524927983728484,-0.3368223656961257,0.6233565596545387,6.533829757292994,0.801769747817837,-0.08855404950000001,-0.12336765699999974,0.21427530249999993
190712.0,-0.649788629,-2.6855511025,6.3669675125,0.4738411839531925,-0.1939985823469257,0.6819786785705243,6.9406545290589925,0.8527929617366566,-0.020397832000000005,-0.27772432800000013,0.3256788464999998
190722.0,-0.6187015484999999,-2.7644946349999997,6.6590095494999995,0.5228709733002173,-0.07435626212271441,0.7326054441831238,7.236548236099326,0.9031243797415339,0.031087080500000086,-0.07894353249999986,0.29204203699999987
190732.0,-0.6114446275,-2.7178149809999996,6.662638009999999,0.53619307148069,-0.004276056667386108,0.7629828998140851,7.221573793553826,0.9325578802268678,0.007256920999999972,0.04667965400000007,0.003628460499999875
190742.0,-0.6904862264999999,-2.715461385,6.720104978999999,0.518607133937595,0.009046041513086609,0.7355375973264743,7.280818133368867,0.9000281925133378,-0.07904159899999996,0.002353595999999847,0.057466969000000034
190752.0,-0.777863478,-2.7345843524999998,6.783554004499999,0.4829011881002951,-0.0213296687886227,0.6622599486814923,7.355244938362833,0.8199004524129265,-0.08737725150000009,-0.019122967499999977,0.06344902549999976
190762.0,-0.882010101,-2.5287427689999995,6.9008415385,0.47810502331581467,-0.06502922260005672,0.5823203782816481,7.402303408367078,0.7562474701272495,-0.104146623,0.20584158350000026,0.1172875340000008
190772.0,-1.0125366125,-2.4257729439999998,6.9618389015,0.5020858472382167,-0.06769434036785206,0.5351580912342573,7.441559356608945,0.7369307323814431,-0.13052651149999994,0.10296982499999974,0.06099736300000025
190782.0,-1.0974622015,-2.461665283,7.0348984439999995,0.536460106856245,-0.019997982569351026,0.5487472247902851,7.533526091190121,0.7676671689411354,-0.08492558900000002,-0.035892339000000106,0.07305954249999935
190792.0,-1.098737066,-2.6280841335,7.216811801499999,0.5774945428998838,0.07219903516724943,0.6023061435462351,7.75863531371506,0.837547215571615,-0.001274864500000028,-0.16641885049999994,0.18191335749999915
190802.0,-1.0280311195,-2.9393472044999998,7.5376853895,0.6411798619759048,0.15986517816567258,0.6406772071513305,8.155569324231395,0.9203997905022641,0.07070594649999995,-0.31126307099999995,0.3208735880000013
190812.0,-0.9035847309999999,-3.0841914249999998,7.8034456045,0.7205853616246388,0.20303066122599636,0.6281527244390192,8.439340342380454,0.9772617653452627,0.12444638850000012,-0.1448442205,0.26576021500000024
190822.0,-0.9275129569999999,-2.830395323,7.978200107499999,0.7901314963288569,0.1814479196958345,0.5692653154767305,8.516049255680485,0.9906029115935638,-0.023928225999999997,0.2537961019999999,0.17475450299999906
190832.0,-1.034013176,-2.3886057405,8.015367310999999,0.8354315170643698,0.09191601972702937,0.48479661566796095,8.427380005787,0.9702691033677424,-0.10650021900000006,0.4417895824999998,0.037167203499999246
190842.0,-1.219554994,-1.8918008514999998,8.062046965,0.8655401919905239,-0.008539896030008255,0.4296389753171841,8.370354001533757,0.9663448674706129,-0.18554181799999991,0.4968048890000003,0.04667965400000185
190852.0,-1.3381173924999998,-1.6225102425,8.101469697999999,0.8799304316732172,-0.09061051344653762,0.4331017085531409,8.370000532302289,0.984918737603925,-0.11856239849999994,0.2692906089999998,0.039422732999998544
190862.0,-1.369204473,-1.7146927525,8.2068911855,0.8857912473014141,-0.14576815379731442,0.47173980753379136,8.495172455871442,1.0141069640177465,-0.031087080500000086,-0.09218251,0.10542148750000102
190872.0,-1.253093737,-2.1228455255,8.4163612295,0.8980486946381703,-0.1636211267159644,0.532492973466462,8.769940329573213,1.0567933089494264,0.11611073599999999,-0.40815277299999986,0.2094700439999997
190882.0,-1.12384209,-2.4545064285,8.595920991,0.9225635893116827,-0.14976495778438143,0.5748608410586243,9.009854634472068,1.0972775881637433,0.12925164700000003,-0.33166090299999995,0.1795597615000002
190892.0,-1.0532342099999998,-2.4915755655,8.627008071499999,0.9305571972858167,-0.10926284716260101,0.5860518922224119,9.041156970511965,1.105138854428701,0.07060788000000007,-0.03706913700000003,0.031087080499998976
190902.0,-1.0867729529999999,-2.2570004975,8.575523159,0.9004467770304105,-0.04637688888399333,0.5793899704675496,8.933908671328183,1.0717499484326556,-0.03353874300000004,0.23457506799999983,-0.051484912499999425
190912.0,-1.1645396874999998,-2.090581647,8.605531507999999,0.8690046705557327,0.028764771402118545,0.546349142398045,8.932069012368666,1.0268855412949258,-0.07776673449999993,0.16641885049999994,0.030008348999999157
190922.0,-1.4422640155,-2.070183815,8.627008071499999,0.8943189260266584,0.1177626006198134,0.4997174354432604,8.988384436817347,1.0312089443174,-0.27772432800000013,0.020397832000000005,0.021476563500000267
190932.0,-1.9414225004999999,-2.0055579915,8.648582701499999,0.9556044173811873,0.21528810856275254,0.48373021949499234,9.087869218216237,1.092485101710609,-0.49915848499999993,0.06462582350000012,0.021574629999999928
190942.0,-2.3580089925,-2.2713182065,8.852070689,1.0395407917680985,0.28829872183217936,0.49279022364209496,9.438127371832941,1.1860031261666808,-0.416586492,-0.26576021500000024,0.20348798750000086
190952.0,-2.5160921905,-2.7872460629999996,9.3513272405,1.159715437414168,0.34718787612372,0.4728044583775079,10.077042308421724,1.2996243199346815,-0.15808319800000037,-0.5159278564999994,0.49925655150000026
190962.0,-2.5770895535,-3.0888986169999995,9.890006524999999,1.2900164833803087,0.3780976571765396,0.38940215474170686,10.676840089530511,1.3995479283942978,-0.060997362999999805,-0.3016525539999999,0.5386792844999988
190972.0,-2.5974873854999996,-3.0470242214999996,10.3688652445,1.37768088104948,0.36797125685646853,0.28041856025942496,11.115064722386432,1.4532866285835597,-0.02039783199999956,0.04187439549999983,0.4788587195000016
190982.0,-2.6082747004999995,-2.4927523635,10.598635053999999,1.3851421636017556,0.3322653110191685,0.19035433486876155,11.195891043900023,1.437099099957044,-0.010787314999999964,0.5542718579999995,0.2297698094999987
190992.0,-2.676430918,-1.7362673825000001,10.684835507499999,1.3171947504923647,0.28590063943993915,0.13493140447168162,11.150946897223234,1.3546024030207202,-0.06815621750000034,0.7564849810000001,0.08620045350000005
191002.0,-2.7267390325,-1.130510612,10.7387720825,1.193023300859228,0.2430004464259185,0.12453796877605539,11.137072588211188,1.2238723458854317,-0.050308114499999945,0.6057567705000002,0.053936575000001596
191012.0,-2.7626313715,-0.9305530184999999,10.621386482,1.0733809806350167,0.23420747765437108,0.16344135780300897,11.014168684700982,1.1107263162537853,-0.035892339000000106,0.19995759349999997,-0.11738560050000046
191022.0,-2.7028108065,-1.3016366544999998,10.876359382,1.0134271754997595,0.22941131286989064,0.21060539017965177,11.282492527916451,1.0601975386157196,0.05982056499999988,-0.37108363599999983,0.2549729000000003
191032.0,-2.5867000705,-1.7517618895,11.3169721665,1.0326135799669331,0.24033532865812318,0.2636319835137435,11.740253233621708,1.092498832248678,0.11611073599999999,-0.45012523500000023,0.44061278449999897
191042.0,-2.602292644,-1.8763063445,11.6988431175,1.0629892902686424,0.2283449166969221,0.28361600344907856,12.130761838866698,1.1236216754849402,-0.015592573499999762,-0.12454445499999989,0.3818709509999998
191052.0,-2.6322029264999998,-1.9492678204999998,11.875951216499999,1.1032261108441197,0.1995679279900396,0.2327222024609239,12.31934878875502,1.1450304943750376,-0.02991028249999994,-0.07296147599999991,0.1771080989999998
191062.0,-2.7411548079999997,-1.6835076054999998,11.908313161499999,1.121344373809073,0.17798344113062572,0.14052693005357544,12.335155041245,1.1440450725649944,-0.1089518814999999,0.265760215,0.03236194499999989
191072.0,-2.8453014309999998,-1.2071005485,11.825741168499999,1.0893699419125367,0.15933110741456233,0.03314205716612032,12.22296961265123,1.1014588817044768,-0.1041466230000001,0.47640705699999986,-0.08257199300000018
191082.0,-2.9159093109999996,-0.7187293784999998,11.766999335,1.008898046090834,0.1457419738585345,-0.06838025476388583,12.144190890272844,1.0216613184376016,-0.07060787999999985,0.4883711700000001,-0.058741833499999174
191092.0,-3.0021097645,-0.230260142,11.5946964945,0.8887234004447646,0.12762196556432936,-0.14059150723589925,11.97925997591966,0.9087808429426042,-0.0862004535000005,0.48846923649999985,-0.17230284049999867
191102.0,-3.076346105,0.07374600799999999,11.370810675,0.734708565931777,0.09404881207296645,-0.16324064493902965,11.779842071867455,0.7584783214212354,-0.07423634049999972,0.30400615,-0.2238858195000013
191112.0,-2.9924992474999996,-0.0734518085,11.186445655,0.5964139119915023,0.05621007388972938,-0.1443212758474111,11.580026481261966,0.6161962004799452,0.0838468575000002,-0.14719781649999997,-0.18436501999999955
191122.0,-2.8512834875,-0.463658412,11.1553585745,0.5215375417516936,0.0431532657555598,-0.10835003996380799,11.52331643125273,0.53441869630649,0.1412157599999997,-0.3902066035,-0.031087080500000752
191132.0,-2.664466805,-0.8120886864999999,11.131332282,0.5111458513853193,0.060473913252351526,-0.098490675019292,11.474555754450085,0.5240492234878625,0.18681668249999994,-0.34843027449999986,-0.024026292499998547
191142.0,-2.4837302455,-0.85513988,11.184092059,0.5236703340976306,0.1257579539231994,-0.13233086388621007,11.488433110349067,0.5545783437222772,0.18073655950000012,-0.043051193500000084,0.052759776999998564
191152.0,-2.478924987,-0.553487326,11.1469248555,0.502619917989327,0.2179532263305479,-0.1938833906162941,11.432644096856128,0.5811378149667799,0.004805258499999798,0.301652554,-0.037167203499999246
191162.0,-2.53403836,-0.1979962635,11.096616741,0.4338713987532704,0.3008232045444907,-0.2607661528819688,11.384000001183807,0.5888446123871715,-0.055113372999999743,0.35549106249999995,-0.050308114499999945
191172.0,-2.648972298,0.012748645,11.114660977,0.34647229113040234,0.34985299389151536,-0.32898060136691515,11.425975030480652,0.5921726116021782,-0.11493393800000007,0.2107449085,0.018044235999999714
191182.0,-2.7363495495,0.025889555999999998,11.2055686225,0.2734616778609755,0.3327993817702788,-0.39426464203776307,11.53486225664248,0.5839360630466192,-0.08737725149999997,0.013140910999999998,0.09090764549999975
191192.0,-2.6860414349999995,-0.29851442599999994,11.243912624,0.24574933999780957,0.2112913045756855,-0.4422262898825673,11.564147203716042,0.548270777045389,0.05030811450000039,-0.3244039819999999,0.0383440015000005
191202.0,-2.4394041874999997,-0.682738973,11.198409768,0.2811882504595545,0.032494540013630425,-0.4643431021638394,11.481341673658328,0.543817289035886,0.24663724749999982,-0.384224547,-0.04550285600000059
191212.0,-2.0719490119999997,-0.9222173659999999,11.1349607425,0.37205183664763125,-0.11992157290453039,-0.47287078088908363,11.363573747527488,0.6135230462007307,0.36745517549999995,-0.23947839299999996,-0.06344902549999887
191222.0,-1.7762785145,-0.7713910889999999,11.065529660500001,0.5023528826137719,-0.18413921740240974,-0.48273014583359963,11.233706255758523,0.7206206101357817,0.29567049749999974,0.15082627700000006,-0.06943108199999948
191232.0,-1.6002491469999998,-0.620564812,10.9709935545,0.625724971449495,-0.1790760172423742,-0.48486119285028473,11.104440444761156,0.8115973978390169,0.1760293675000002,0.15082627699999984,-0.0945361060000014
191242.0,-1.4877668715,-0.30331968449999996,10.953047385,0.7045981456763708,-0.11938750215342012,-0.495252883216659,11.057789115053398,0.8694753250641601,0.11248227549999967,0.31724512750000006,-0.017946169500000053
191252.0,-1.5260128064999998,0.013925443,11.048760288999999,0.7557589820400806,-0.024794147353831446,-0.515238648481246,11.153654689264325,0.9150176247297335,-0.03824593499999973,0.31724512749999995,0.0957129039999991
191262.0,-1.7570574804999999,0.24977537549999998,11.327661415,0.7810714921817543,0.047949430540040215,-0.5354897037921362,11.465842832555614,0.9482199358036806,-0.23104467400000006,0.23584993249999997,0.27890112600000094
191272.0,-1.9641739285,0.292826569,11.684427342000001,0.7898662062825538,0.05061454830783556,-0.5573394806978532,11.851985864461223,0.9680277646184291,-0.20711644800000006,0.0430511935,0.3567659270000014
191282.0,-1.866009362,0.010395048999999998,11.944205500499999,0.7967934180837193,-0.06609561877302526,-0.6015713599311455,12.089091944157335,1.0005680801484393,0.09816456649999994,-0.28243152,0.25977815849999786
191292.0,-1.4279463064999998,-0.35235293449999994,12.132198980999998,0.8266368029635703,-0.24142790476987164,-0.6828426165502616,12.22102431710514,1.0990404342846583,0.43806305550000024,-0.3627479834999999,0.18799348049999942
191302.0,-0.9682105544999999,-0.44934070299999995,12.1417114315,0.8852589218795559,-0.39890721784806793,-0.7870300462480629,12.188539503608933,1.2498906435828165,0.45973575199999983,-0.09698776850000002,0.009512450500000824
191312.0,-0.6330192574999999,-0.092574776,11.950187557,0.9119048635697533,-0.4839082430786958,-0.8733627576979625,11.967299867430201,1.3522204607442792,0.33519129700000005,0.356765927,-0.19152387449999964
191322.0,-0.4247260115,0.41619422599999994,11.6437297445,0.867938274382764,-0.47698103127753033,-0.9226595824205424,11.658904416005582,1.3535613977095964,0.20829324599999988,0.508769002,-0.3064578124999997
191332.0,-0.2044686525,0.8962297435,11.321679358499999,0.7586893898541791,-0.3871838412624221,-0.9274557472050228,11.358937392189208,1.2592438525701282,0.220257359,0.4800355175,-0.3220503860000008
191342.0,0.0169655045,1.1774844654999999,11.0392478385,0.6004107159785693,-0.23023685360608395,-0.8896170090217856,11.101880486415968,1.0976886896389138,0.221434157,0.2812547219999999,-0.2824315199999994
191352.0,0.08286619249999999,1.3283107424999998,10.824874469500001,0.4333390733314121,-0.05250648521699741,-0.8323283216543238,10.906382696152436,0.9398457950608031,0.06590068799999999,0.15082627699999995,-0.2143733689999987
191362.0,0.104342756,1.2229873215,10.767505566999999,0.2825216820080781,0.09378177669741132,-0.75532090439783,10.837239571710843,0.8118640225219692,0.021476563500000004,-0.1053234209999998,-0.05736890250000215
191372.0,0.11277647499999999,0.8758319115,10.780646478,0.16874192274131578,0.19130728464035046,-0.6665883652264384,10.81675268063983,0.7137312955883017,0.008433718999999992,-0.34715541000000005,0.013140911000000699
191382.0,0.1642613875,0.4149193615,10.8595900105,0.12344364733505495,0.22807962665061898,-0.594377112754425,10.868754991999884,0.6484927157083212,0.05148491250000001,-0.46091255,0.0789435325000003
191392.0,0.17740229849999997,0.11326680749999998,10.905092866499999,0.13410062774773232,0.2350068384517845,-0.557072445322298,10.907123881765692,0.6193067913553054,0.013140910999999977,-0.301652554,0.045502855999998815
191402.0,0.075707338,0.092967042,10.924313900499998,0.1596819185942132,0.2240810773343,-0.5530756413352311,10.924971792576068,0.6177404870846711,-0.10169496049999997,-0.020299765499999983,0.019221033999999193
191412.0,0.0516810455,0.37667342649999996,11.052388749499999,0.15781616162383125,0.20729450058861854,-0.5536079667570893,11.058926298279113,0.6118486182879573,-0.024026292499999997,0.28370638449999996,0.12807484900000077
191422.0,0.020593965,0.531128164,11.031990917499998,0.14875615747672868,0.1907749592184922,-0.5504105235674358,11.044788130235496,0.6012280964042162,-0.031087080500000003,0.1544547375,-0.02039783200000045
