timestamp,ax,ay,az,gx,gy,gz,acc_mag,gyro_mag,dax,day,daz
107012.0,2.2338568034999997,2.431853067,14.094901911999997,1.2149812881785684,-0.19309799245289666,0.7207598945498384,14.476542593690032,1.4258194804760125,0.0,0.0,0.0
107022.0,2.1763898344999997,2.258275362,13.724995073999999,1.226172339342356,-0.453698339055926,0.7903077745833084,14.078777294341132,1.5277195970456205,-0.057466969000000034,-0.17357770500000003,-0.3699068379999986
107032.0,2.49481176,2.1744285045,13.742941243499999,1.2823963758661014,-0.6623384884978321,0.8451983795585299,14.135793541973854,1.6726006812710765,0.3184219255000005,-0.0838468575000002,0.017946169500000053
107042.0,2.5690481005,2.271416273,13.6591924525,1.3868490956102062,-0.8176850092300914,0.8753087998139362,14.083070634004674,1.8325186720320683,0.07423634049999972,0.09698776850000002,-0.08374879099999966
107052.0,2.6479916329999997,2.478532721,13.456881263,1.4542641832977392,-0.9394583764709877,0.9032881730526573,13.937095732755305,1.9527918167385256,0.07894353249999986,0.20711644800000029,-0.2023111894999996
107062.0,2.8514796204999997,2.640146313,13.26055213,1.4476040068721288,-1.0146017820863515,0.9360619657466067,13.81823257050705,2.0002965131805945,0.20348798749999997,0.1616135919999997,-0.196329132999999
107072.0,3.0059343579999998,2.8352986479999998,13.039019906499998,1.3913799703483836,-1.0156681782593202,0.9709685507864934,13.678106590828232,1.9774478493329977,0.15445473750000005,0.19515233499999995,-0.22153222350000235
107082.0,3.1017453285,3.091448346,12.800816378,1.3114403999485393,-0.943989251209165,1.0205306655553763,13.529182418096473,1.9111448057001132,0.09581097050000009,0.2561496980000002,-0.23820352849999793
107092.0,3.029862584,3.2961131315,12.6440080445,1.2032579115929225,-0.7942365107295476,1.081283831488047,13.413253463755563,1.802169792506877,-0.07188274449999987,0.2046647854999999,-0.15680833350000078
107102.0,3.031039382,3.390747304,12.487199710999999,1.049241331750683,-0.5570846626270621,1.1492329899266902,13.289639710587215,1.652872396382762,0.0011767979999999234,0.09463417250000017,-0.15680833350000078
107112.0,2.9975987054999997,3.613358259,12.38187629,0.8403358922624738,-0.24452411886290953,1.2265056972294872,13.242085046093116,1.5067424072702809,-0.033440676500000155,0.22261095499999994,-0.10532342099999958
107122.0,2.877859509,3.7187797464999996,12.40345092,0.5922582830425038,0.09228428419920016,1.2909903771029216,13.264878170619177,1.4233560400388081,-0.11973919649999987,0.10542148749999969,0.021574629999999928
107132.0,2.6982997474999997,3.7857591659999996,12.5135795995,0.3375204973969234,0.4051101180096558,1.34508162128073,13.349249731102276,1.4447417976178516,-0.1795597615000002,0.06697941949999997,0.11012867950000071
107142.0,2.4217522175,3.8755880799999995,12.609292503499999,0.09184271589844561,0.6627800567985866,1.3895805358895772,13.41190978972143,1.5422861452651078,-0.27654752999999976,0.08982891399999993,0.0957129039999991
107152.0,2.1212764615,3.8923574514999997,12.712262328499998,-0.1274561592853899,0.8405104251876732,1.4322154388572947,13.46298161125394,1.665516109405772,-0.300475756,0.01676937150000013,0.10296982499999885
107162.0,1.838746875,3.8731364175,12.833178322999998,-0.28946634710176355,0.9076584774996511,1.4727175494790752,13.530433904675935,1.7540044636274663,-0.28252958649999993,-0.019221033999999637,0.12091599450000068
107172.0,1.5646510075,3.891082587,12.8846632355,-0.3723363253157063,0.8642259590637722,1.5094898914893438,13.550025947073706,1.7787862659627802,-0.27409586750000003,0.017946169500000053,0.0514849125000012
107182.0,1.2988907925,3.8707828214999997,12.9229091705,-0.391520984453628,0.7339249130976315,1.543597115731817,13.552551729141408,1.7534612955604376,-0.265760215,-0.020299765500000344,0.03824593500000084
107192.0,1.1157025704999999,3.7893876264999995,12.849947694499999,-0.3832603411039388,0.5625894310878522,1.5766379438013216,13.44341498879944,1.7173184220955995,-0.18318822200000007,-0.08139519500000025,-0.07296147600000147
107202.0,0.933789213,3.7534952874999994,12.7469778695,-0.3718022545645961,0.3997816278033171,1.609413481824523,13.320890885114352,1.6994922835679251,-0.18191335749999993,-0.035892339000000106,-0.10296982499999885
107212.0,0.7697239585,3.7151512859999998,12.600956851,-0.38619249424728924,0.2801393075791058,1.6400562275017876,13.159746867281306,1.7080418916499789,-0.16406525449999998,-0.038344001499999614,-0.14602101850000082
107222.0,0.612915625,3.5738374594999995,12.5039690825,-0.44481286783402285,0.22391527105536052,1.656577514201166,13.019109899160174,1.729810855717884,-0.1568083335,-0.14131382650000024,-0.09698776850000002
107232.0,0.45728408949999994,3.41467553,12.397370797,-0.5476686113125527,0.21192485909415948,1.656842804247469,12.867164427021171,1.7578342162177059,-0.15563153550000003,-0.15916192949999974,-0.10659828549999872
107242.0,0.3184219255,3.2135411384999997,12.184370358999999,-0.6795666335442682,0.21325829064268315,1.6365917489365789,12.605043443667649,1.7848592271217971,-0.13886216399999995,-0.20113439150000012,-0.21300043800000168
107252.0,0.23947839299999998,2.9741608119999996,11.946068763999998,-0.8191929737038145,0.2191191062708801,1.6000864423018655,12.313063849041262,1.8109022430095139,-0.0789435325,-0.23938032650000007,-0.23830159500000114
107262.0,0.19152387449999997,2.7610623075,11.737775518,-0.9428320979150928,0.22018550244384863,1.54386240577812,12.059665027328116,1.8223405686974183,-0.047954518500000015,-0.21309850449999956,-0.20829324599999843
107272.0,0.1760293675,2.607784368,11.492413135,-1.0328963233057562,0.1975363647407182,1.4727175494790752,11.785885003415235,1.809638751418962,-0.015494506999999963,-0.15327793950000013,-0.2453623829999998
107282.0,0.14611908499999998,2.4737274624999994,11.207529952499998,-1.0869875674835645,0.14850657539369352,1.4119643835464046,11.47821440738552,1.7880826589401781,-0.029910282500000024,-0.1340569055000005,-0.28488318250000155
107292.0,0.15563153549999997,2.4162604935,10.8986204775,-1.1154992661441439,0.09308364499661359,1.355473311647104,11.164338953107492,1.7579280634660641,0.009512450499999991,-0.05746696899999959,-0.3089094749999983
107302.0,0.16406525449999998,2.375562896,10.5838270125,-1.1274896781053447,0.0629732247412074,1.3093756754434298,10.84839207952546,1.7290642731579815,0.008433719000000006,-0.040697597499999905,-0.3147934649999993
107312.0,0.09581097049999998,2.3300600399999998,10.333659370999998,-1.1346839252820655,0.06270618936565227,1.2704722864164764,10.593529889886987,1.7045643158973458,-0.068254284,-0.04550285600000015,-0.2501676415000027
107322.0,0.041972461999999995,2.2187545625,10.096632640500001,-1.140281196193211,0.0832242800520976,1.2355657013765897,10.337631458578455,1.6833864944213597,-0.053838508499999986,-0.11130547749999975,-0.23702673049999667
107332.0,-0.001176798,1.9326945819999999,9.9732649835,-1.149606490386617,0.11466638652677545,1.1958629515522228,10.158805252747635,1.6627782960555315,-0.043149259999999995,-0.28605998050000014,-0.12336765700000107
107342.0,-0.106500219,1.668111165,9.891869788500001,-1.1634626593182,0.13998064199770122,1.142571068171828,10.032099733758818,1.636676078393394,-0.10532342099999999,-0.2645834169999999,-0.08139519499999892
107352.0,-0.24899084349999998,1.3987224894999999,9.877552079500001,-1.1826473184561217,0.1429110498117997,1.0706251057461176,9.979201176748303,1.6016605024360349,-0.1424906245,-0.2693886755000001,-0.014317709000000178
107362.0,-0.34950900599999996,1.183270389,9.8081209975,-1.205031166112949,0.13012127705318524,0.9829589627476945,9.885419710885305,1.5605255462476444,-0.10051816249999998,-0.21545210049999985,-0.06943108200000125
107372.0,-0.44885037049999993,1.0719649115,9.744671971999999,-1.232743503976115,0.12239470445460635,0.8851681647584522,9.8137254530819,1.5225503900284176,-0.09934136449999997,-0.11130547749999997,-0.06344902550000064
107382.0,-0.5255383735,0.9821359975,9.6345432925,-1.2673830536404465,0.11386702572936205,0.7876426568155129,9.698721882529837,1.496531476126992,-0.07668800300000006,-0.08982891400000004,-0.11012867949999894
107392.0,-0.5865357365,0.848079092,9.507645241499999,-1.3038883602751599,0.11306766493194866,0.6989101176441214,9.5633979502422,1.4837063407088102,-0.06099736300000003,-0.13405690550000005,-0.1268980510000013
107402.0,-0.6631256729999999,0.7726659534999999,9.3687830775,-1.3337317451550106,0.12532511226870482,0.6200369434172456,9.42395058811007,1.4761411053830844,-0.0765899364999999,-0.07541313850000009,-0.13886216399999896
107412.0,-0.6655773355,0.6158576199999999,9.246690285,-1.3611787929718737,0.14477680678218163,0.5542223226537913,9.291047035956536,1.476797350060656,-0.0024516625000000625,-0.1568083335,-0.12209279250000016
107422.0,-0.7338316194999999,0.4494387695,9.097040805999999,-1.385691942316134,0.18661060362323373,0.5033267763363847,9.137650435387467,1.4860361772721635,-0.06825428399999989,-0.16641885049999988,-0.1496494790000007
107432.0,-0.8714189189999999,0.2782146605,9.007211891999999,-1.4067423584244374,0.24603208333663268,0.4574961755082656,9.053542974830044,1.4995861427811348,-0.13758729950000004,-0.171224109,-0.08982891399999993
107442.0,-1.0737301085,0.10228335949999999,9.026334859499999,-1.417668119541922,0.2955941981055156,0.40100510360896513,9.090548895823336,1.5026522951899448,-0.20231118950000004,-0.17593130099999998,0.019122967499999532
107452.0,-1.273687702,-0.044914457,9.12214583,-1.4006145074206855,0.3163793241675161,0.3306596081073337,9.210746018345095,1.4734831697687216,-0.19995759349999997,-0.1471978165,0.09581097050000054
107462.0,-1.5238553435,-0.2352615335,9.261007994,-1.3646415262078302,0.3150458926189924,0.24192706893594199,9.388490409112116,1.421277283358483,-0.25016764150000004,-0.19034707650000002,0.13886216400000073
107472.0,-1.702238307,-0.5166143219999999,9.3915345055,-1.3371962237202195,0.31344717102416564,0.13800667461369562,9.558526349783781,1.3803581824992375,-0.17838296350000005,-0.2813527884999999,0.1305265114999994
107482.0,-1.8530645839999997,-0.81591328,9.543537580499999,-1.3331994197331527,0.31717868496492946,0.018631389765039467,9.755955739104767,1.370536442294576,-0.15082627699999973,-0.29929895800000006,0.15200307499999965
107492.0,-1.932106183,-1.0313653805,9.6465074055,-1.3494536710569758,0.3336982263350558,-0.12126024044081003,9.89200960244414,1.3953794331650706,-0.07904159900000018,-0.21545210050000008,0.10296982500000063
107502.0,-1.9369114414999997,-1.1821916575,9.7674234,-1.3710364125871375,0.34542334824995374,-0.2696812947011558,10.02755019544374,1.439370047926421,-0.004805258499999798,-0.15082627699999995,0.12091599450000068
107512.0,-1.9357346435,-1.1929789725,9.9254085315,-1.3745008911523464,0.33236654011578415,-0.4170342074592811,10.182534161791269,1.4743262010010956,0.0011767979999997014,-0.010787314999999964,0.15798513150000026
107522.0,-1.8866033269999998,-1.1247246885,9.9601240725,-1.365707922380799,0.3059858884718899,-0.5582592692136543,10.19942887018498,1.5067975659857478,0.049131316500000244,0.068254284,0.03471554099999885
107532.0,-1.8100133905,-0.9607575005,9.9242317335,-1.373701530354933,0.2939954765106888,-0.6731054246533851,10.133586677419043,1.5577420028380968,0.07658993649999979,0.16396718799999999,-0.035892339000000106
107542.0,-1.6962562505,-0.8853443619999999,9.848818595,-1.4102068369896463,0.30811868081782695,-0.758373485259568,10.032963053051839,1.6305676274555452,0.11375713999999992,0.07541313850000009,-0.07541313850000009
107552.0,-1.5238553435,-0.9727216135,9.7410435115,-1.4717593637197302,0.34782143064219395,-0.8257868276178492,9.907383667660184,1.7230726209239815,0.1724009070000001,-0.08737725150000009,-0.10777508349999998
107562.0,-1.3275262104999999,-1.127176351,9.686028205,-1.5295821218383023,0.41150500438896304,-0.8838766211119764,9.841341105452736,1.8138896651761507,0.1963291330000001,-0.15445473749999994,-0.05501530649999964
107572.0,-1.1778767314999998,-1.2971255954999998,9.677594486,-1.5572944597014684,0.4618664799552594,-0.938767226087198,9.834925695731918,1.8761051634432977,0.14964947900000003,-0.16994924449999993,-0.008433718999999229
107582.0,-1.0258736565,-1.4263772424999999,9.709956431,-1.5351776474201961,0.45840374671930273,-0.9973893450031835,9.867635111258464,1.8872439984460891,0.15200307499999988,-0.12925164700000003,0.03236194499999989
107592.0,-0.870242121,-1.4814906155,9.770953794,-1.464832151918565,0.4045777925877975,-1.0562784992947243,9.920870618925546,1.850713562824324,0.15563153549999997,-0.05511337300000019,0.06099736300000025
107602.0,-0.7398136759999999,-1.4036258145,9.8081209975,-1.371835773384551,0.3158452534164058,-1.1029084609202566,9.93562918007349,1.7883228697337492,0.13042844500000006,0.07786480100000004,0.037167203499999246
107612.0,-0.615269221,-1.2755509655,9.8081209975,-1.2780417793823757,0.21831974547346672,-1.1370156851627298,9.909834710099776,1.7244880311027213,0.12454445499999989,0.1280748490000001,0.0
107622.0,-0.42374534649999995,-1.1582634315,9.7147616895,-1.2063628523322207,0.13171999864801204,-1.1596648228658604,9.792738584237172,1.678536264405232,0.19152387450000008,0.11728753399999992,-0.09335930800000014
107632.0,-0.2609549565,-1.0649041235,9.583058379999999,-1.1719903380434442,0.09068556260437337,-1.1617976152117975,9.64557547251886,1.6527428482507127,0.16279038999999995,0.09335930799999992,-0.13170330950000064
107642.0,-0.137685366,-0.9942962434999999,9.4058522145,-1.1813156322368499,0.09921149600036568,-1.1519382502672815,9.459262030457943,1.6529704402482899,0.1232695905,0.07060788000000018,-0.17720616549999946
107652.0,-0.0550153065,-1.0660809215,9.250220679,-1.2218177428586303,0.15010529698852032,-1.145276328512419,9.311613062479282,1.6813768362859816,0.0826700595,-0.0717846780000001,-0.15563153549999953
107662.0,-0.005982056499999999,-1.210925142,9.068307321499999,-1.2801728263990608,0.22125189861681718,-1.149006097123931,9.14880173365333,1.734361519211054,0.04903325,-0.1448442205,-0.18191335750000093
107672.0,-0.015494507,-1.2994791915,8.956903777499999,-1.3417253531291449,0.3009244336411063,-1.1660597092451674,9.050691218259654,1.8029081184344014,-0.0095124505,-0.0885540494999999,-0.11140354399999985
107682.0,-0.08492558899999998,-1.3677334755000001,8.899534874999999,-1.3846272914724174,0.3550156778189146,-1.196969490297987,9.004422702595184,1.8643939574273698,-0.06943108199999998,-0.06825428400000022,-0.057368902500000374
107692.0,-0.137685366,-1.4623676479999999,8.7797956785,-1.3947519464632365,0.3704705683453244,-1.2396043932657046,8.901813778895562,1.9024196398210176,-0.05275977700000002,-0.09463417249999972,-0.11973919649999942
107702.0,-0.19152387449999997,-1.5233650109999999,8.6313229975,-1.3872906639109608,0.3536839915996429,-1.291829880473131,8.766815786727522,1.928339231611387,-0.053838508499999965,-0.06099736300000003,-0.14847268099999944
107712.0,-0.21064684199999997,-1.5700446649999997,8.475691462,-1.3806304874853503,0.3254375829853667,-1.345655834604636,8.622456616368634,1.9552083747260527,-0.019122967500000004,-0.04667965399999985,-0.15563153549999953
107722.0,-0.18554181799999997,-1.5868140365,8.2004187965,-1.389688746303201,0.30545356305003163,-1.3941515532005506,8.354595920249563,1.9920329425170735,0.025105024000000004,-0.016769371500000352,-0.27527266550000107
107732.0,-0.196329133,-1.6059370039999998,7.863952634999999,-1.4107391624115047,0.30731932002041357,-1.4341213384004727,8.028656788953208,2.035026820971873,-0.01078731500000002,-0.019122967499999755,-0.33646616150000064
107742.0,-0.1950542685,-1.6059370039999998,7.494045796999999,-1.438718535650226,0.3382291010732331,-1.4602349546688118,7.666668261768597,2.077641950017607,0.0012748645000000003,0.0,-0.36990683799999946
107752.0,-0.20113439149999998,-1.6813501425,7.142183194999999,-1.461367673353356,0.3829933057283837,-1.4767562413681903,7.3401753477740055,2.1126022686191694,-0.006080122999999993,-0.07541313850000009,-0.35186260199999975
107762.0,-0.2034879875,-1.856202712,6.8488662934999995,-1.4629663949481828,0.43175605969985326,-1.4959409005061117,7.098863667893149,2.1364744664147666,-0.0023535960000000133,-0.17485256950000005,-0.2933169014999999
107772.0,-0.222610955,-1.9471103575,6.6393962495,-1.4400502218694973,0.4773213704816692,-1.5209881206014824,6.922599001779927,2.148251660126373,-0.019122967500000004,-0.09090764549999997,-0.2094700439999997
107782.0,-0.3303860385,-1.9890828194999999,6.496905624999999,-1.3846272914724174,0.5156924340867646,-1.557760462611751,6.802601568328283,2.1470326224212224,-0.10777508349999998,-0.04197246199999993,-0.1424906245000006
107792.0,-0.427373807,-2.056062239,6.419138890499999,-1.3017573132584748,0.5274175560016625,-1.5987948986553897,6.7539162266851465,2.1281180674406173,-0.09698776850000002,-0.06697941950000019,-0.07776673449999993
107802.0,-0.42855060500000003,-2.1758014355,6.322151122,-1.209295005475571,0.5210209242931032,-1.6376982876823434,6.699803155106543,2.1014073606269394,-0.0011767980000000344,-0.11973919649999987,-0.09698776849999913
107812.0,-0.48238911349999997,-2.1973760655,6.221534892999999,-1.1202954309286242,0.5151601086649062,-1.6755370258655802,6.6157884832325236,2.080354805115143,-0.05383850849999994,-0.021574629999999928,-0.10061622900000078
107822.0,-0.4968048889999999,-2.157855266,6.135432505999999,-1.0475518530347525,0.5092975477074573,-1.7099095401543567,6.522782112137401,2.068946474031713,-0.01441577549999995,0.03952079949999998,-0.08610238700000039
107832.0,-0.44051471799999997,-2.250037776,6.0180469055,-0.9953246204980744,0.5095645830830124,-1.740554031160873,6.440000913586875,2.0687811628813146,0.056290170999999944,-0.09218251000000022,-0.11738560049999869
107842.0,-0.31479346499999994,-2.3948819965,5.9331213165,-0.9585522784878057,0.5231537166390403,-1.7701303806651691,6.40597246786725,2.0798735169190508,0.12572125300000003,-0.1448442205,-0.08492558900000002
107852.0,-0.1950542685,-2.515797991,5.8301514915,-0.9279095328105413,0.5495326229536827,-1.809833130489536,6.352790891649069,2.1067743507524925,0.11973919649999995,-0.12091599449999979,-0.10296982500000063
107862.0,-0.1016949605,-2.596016388,5.754738353,-0.895401030162895,0.5695183882182697,-1.8689893201566319,6.31400478802834,2.1492359754561754,0.09335930799999999,-0.08021839699999989,-0.07541313850000009
107872.0,0.010787315,-2.682118775,5.575178591499999,-0.8588957235281816,0.5759132745975769,-1.9475954590079523,6.186799965773285,2.2051090756924245,0.1124822755,-0.08610238700000039,-0.1795597615000002
107882.0,0.159259996,-2.6367139854999997,5.371592537499999,-0.8141297735437789,0.5929668867188135,-2.0317971234411667,5.985952787700793,2.267733795607246,0.148472681,0.045404789500000486,-0.20358605400000052
107892.0,0.3423501514999999,-2.540903015,5.129858615,-0.7712295805297583,0.6409302798928697,-2.1085375053221056,5.734879350758644,2.334848410693428,0.18309015549999993,0.09581097049999965,-0.24173392249999903
107902.0,0.5614307125,-2.4091997055,4.903521133,-0.736857066240982,0.7285964228912928,-2.1735545106173983,5.492173264537195,2.407934860859922,0.21908056100000006,0.1317033095000002,-0.22633748199999992
107912.0,0.7781576775,-2.2608250909999996,4.715625719,-0.7142061832085996,0.8421091467825,-2.222051974542565,5.287152861875815,2.4812805695440123,0.216726965,0.14837461450000022,-0.18789541399999976
107922.0,0.9492837199999999,-2.1254933209999995,4.6378589845,-0.6811653551390949,0.955089545251849,-2.254825767236514,5.189277155710612,2.5417359267014517,0.17112604249999996,0.13533177000000007,-0.07776673449999993
107932.0,1.0774566355,-2.0249751584999998,4.598338184999999,-0.6265400402101764,1.0315646370864846,-2.2761432187203727,5.138691590040617,2.5763357651130567,0.12817291549999998,0.10051816249999979,-0.03952079950000087
107942.0,1.2450522839999998,-2.032134013,4.5684279025,-0.552197740721478,1.0805926811042572,-2.293729156263468,5.152694182369612,2.5949559398200024,0.16759564849999986,-0.007158854500000089,-0.029910282499999497
107952.0,1.4281424395,-2.0082057869999996,4.470263336,-0.46932776250753516,1.1205624663041795,-2.3185110863125353,5.104481913341171,2.6175221960671444,0.18309015550000018,0.02392822600000022,-0.0981645664999995
107962.0,1.571809862,-1.7927536865,4.382788017999999,-0.38619249424728924,1.1631956239426446,-2.343558306407906,4.989326891822599,2.6446992716953197,0.14366742250000009,0.21545210049999963,-0.08747531800000097
107972.0,1.7382287124999998,-1.5437628429999999,4.254713169,-0.31104908863192543,1.2084956446781576,-2.3606119185291425,4.848425200294305,2.6701501621906334,0.16641885049999972,0.24899084350000011,-0.128074848999999
107982.0,1.9166116759999998,-1.2755509655,4.023668495,-0.24443336174180585,1.2620545634341076,-2.367539130330308,4.635767330207921,2.6940250412834783,0.17838296350000005,0.2682118775,-0.2310446740000005
107992.0,2.054297042,-0.8984852729999999,3.8788242745,-0.1850118820284069,1.3185438900041562,-2.3710036088955166,4.480255559119176,2.719272972644444,0.13768536600000014,0.3770656925,-0.1448442205
108002.0,2.2038484545,-0.5477014025,3.6992645129999997,-0.10667277855264143,1.3409277376609834,-2.3750004128825837,4.340677686012131,2.729485893076787,0.14955141250000015,0.35078387049999993,-0.1795597615000002
108012.0,2.4803959845,-0.34421341499999997,3.5089174365,0.015899949485668342,1.3134806898441207,-2.376066809055552,4.310840833429531,2.7149913097618685,0.27654752999999976,0.20348798750000002,-0.1903470764999997
108022.0,2.8348083154999997,-0.286746446,3.3580911595,0.18750246687100283,1.2700481714082417,-2.361678314702111,4.403991138210161,2.688066962505647,0.3544123309999998,0.05746696899999998,-0.15082627700000018
108032.0,3.2620840559999995,-0.21731536399999998,3.2192289955,0.40840006364966513,1.219152625090835,-2.335829988480075,4.588229907198178,2.66631308558049,0.42727574049999983,0.069431082,-0.13886216399999984
108042.0,3.6248320394999998,-0.133566573,3.2072648825,0.6647365708900723,1.1626632985207868,-2.2915981092467828,4.841879322177126,2.6542574382884108,0.36274798350000026,0.08374879099999999,-0.011964112999999887
108052.0,3.9923852815,0.0089240515,3.2623782555,0.953848616153681,1.1165656623171123,-2.216721739006974,5.15580563603713,2.659022626641234,0.36755324200000006,0.1424906245,0.055113372999999743
108062.0,4.313160803,0.2758610645,3.3569143615,1.2445593830121167,1.0920507676436,-2.102676689693909,5.472506689798344,2.6763318550464947,0.3207755214999999,0.266937013,0.09453610600000006
108072.0,4.448492573,0.699606411,3.5089174365,1.5067584512099725,1.1061739719507382,-1.9518575530413227,5.7088560043604355,2.70253395795102,0.13533177000000052,0.4237453465,0.1520030750000001
108082.0,4.425741145,1.042054629,3.7974290795,1.7308534911782885,1.1224282232745613,-1.7925142283219964,5.923979249305187,2.732911667629263,-0.022751428000000296,0.3424482179999999,0.2885116430000001
108092.0,4.43652846,1.195234502,4.1638055235,1.9192408399800525,1.113633509173762,-1.644892534859064,6.200697277620499,2.7621253494070617,0.010787314999999964,0.15317987300000002,0.3663764439999997
108102.0,4.417307426,1.3257610135,4.5492068685,2.094307835930596,1.0800603556823989,-1.5231191676181675,6.478080756915498,2.8058060664135263,-0.01922103400000008,0.13052651150000005,0.385401345
108112.0,4.458005023499999,1.5483719685,4.976580675499999,2.2635105255944383,1.0233039937367954,-1.4357200599952995,6.858397754734543,2.869132805177793,0.04069759749999946,0.22261095499999994,0.4273738069999995
108122.0,4.564603309,1.759116877,5.412290134999999,2.431915599790119,0.9468289019021597,-1.3637758428988411,7.295408149027598,2.944585370413673,0.1065982855000005,0.21074490850000016,0.43570945949999995
108132.0,4.809965692,1.9614280665,5.816912514,2.5947234030746538,0.8780821279953552,-1.2926292412705445,7.798682017738688,3.0289450502371,0.2453623829999998,0.20231118949999982,0.404622379000001
108142.0,5.1164235045,2.2522933055,6.195253070999999,2.7482059121657834,0.8453065899721536,-1.2209520595496413,8.344565610331978,3.123764219404504,0.3064578125000006,0.29086523899999994,0.3783405569999987
108152.0,5.4492612055,2.6449515715,6.5950701915000005,2.888099287700885,0.8466382761914254,-1.1476744109046593,8.954617095786928,3.221035612931981,0.3328377009999999,0.3926582660000002,0.3998171205000016
108162.0,5.799947009499999,3.0411402314999996,7.051177482999999,2.9946847997909263,0.8983331833062453,-1.0434869812068577,9.623254289346304,3.296058955521905,0.3506858039999994,0.3961886599999995,0.4561072914999986
108172.0,6.0537431115,3.5344147264999997,7.5802462505,3.0543715695506286,1.0126452679948659,-0.8849430172849448,10.324728874752745,3.3373283128144506,0.2537961020000008,0.4932744950000001,0.529068767500001
108182.0,6.174659105999999,4.1724353755,8.148933884,3.0706258208744517,1.165328416288582,-0.6787009502352789,11.042678818286614,3.3537096221171008,0.1209159944999989,0.6380206490000004,0.5686876334999997
108192.0,6.1650485889999995,4.638153183999999,8.784600937,3.050374765563561,1.3156134821900576,-0.428759329374179,11.69142859899172,3.3495461793252823,-0.009610516999999597,0.4657178084999991,0.6356670530000006
108202.0,6.044230660999999,5.034341844,9.435762496999999,3.0072075371739855,1.435254057085017,-0.15590153543439347,12.284581229550051,3.33579925486619,-0.12081792800000013,0.39618866000000086,0.6511615599999985
108212.0,5.8993864405,5.2042910885,10.118109204,2.9597782147510396,1.4904116974357937,0.11216009372091161,12.816533851719242,3.3157493866382275,-0.14484422049999957,0.1699492444999997,0.6823467070000007
108222.0,5.810734324499999,5.195955435999999,10.677186320499999,2.9413911710812797,1.4523076692062535,0.349044906447842,13.219867397424707,3.2989107193234837,-0.08865211600000045,-0.008335652500000457,0.5590771164999992
108232.0,5.685013071499999,5.3037305195,11.108188587999999,2.9826943878297256,1.3406607022854282,0.5462269693504054,13.558789944282454,3.3154488130401183,-0.12572125300000003,0.10777508350000087,0.43100226750000026
108242.0,5.859865640999999,5.553898160999999,11.367868679999999,3.0927426331557237,1.1903756363839526,0.7204946045035352,13.943179280173386,3.391336554480284,0.1748525694999996,0.25016764149999915,0.259680092
108252.0,5.881342204499999,6.214670237999999,11.4432818185,3.255550436440259,1.0643384297804341,0.936594291168465,14.288492260246652,3.5508638109005535,0.021476563500000267,0.6607720769999998,0.07541313850000009
108262.0,5.7617010744999995,6.694705755499999,11.645593007999999,3.4503344169505823,0.9804038007227748,1.1476342683318634,14.61629641641814,3.7660408408718813,-0.11964112999999976,0.4800355175000002,0.2023111894999996
108272.0,5.261267725,7.295657267499999,12.3447090865,3.618472455770708,0.945230180307333,1.366931398186447,15.274141398758488,3.981871978640585,-0.5004333494999997,0.600951512,0.6991160785000012
108282.0,4.565780106999999,7.717049017999999,13.671156565499999,3.6677692804932875,0.9444308195099196,1.5864973087458376,16.349303207479682,4.1062701784500515,-0.6954876180000005,0.4213917504999998,1.3264474789999987
108292.0,4.106044355,7.7158722200000005,15.232179112499999,3.5374682345271466,0.9396346547254392,1.8132574664819487,17.56170734512668,4.084666134998323,-0.4597357519999994,-0.0011767979999985911,1.5610225470000003
108302.0,3.9181489409999997,7.506402176,16.61834909,3.217446408210719,0.9545554745007387,2.0304235493198473,18.651206160160815,3.922468270520488,-0.1878954140000002,-0.20947004400000058,1.3861699774999998
108312.0,3.67749375,7.3758756645,17.5916591025,2.7482059121657834,1.0030529384259053,2.198561588139973,19.426630486989335,3.659566093103439,-0.24065519099999966,-0.13052651150000028,0.9733100125000007
108322.0,3.294446001,7.312426639,18.078853474499997,2.19396439089022,1.0518156923973747,2.2984851784751523,19.778015591982488,3.347062908721259,-0.38304774900000016,-0.06344902549999976,0.4871943719999976
108332.0,2.7665540315,7.0323487149999995,18.075225013999997,1.6277324576534558,1.0765958771171902,2.303548378635188,19.591363121674362,3.019090387689162,-0.5278919694999997,-0.2800779240000004,-0.003628460499999875
108342.0,2.5905246639999997,6.988022656999999,17.760431548999996,1.1054653682744284,1.0813920419016707,2.278499413210565,19.260742651732098,2.753728745672542,-0.17602936750000042,-0.044326058000000224,-0.31479346500000105
108352.0,2.3893902725,6.850337291,17.26362666,0.6948469911454784,1.0869875674835645,2.2443921889680922,18.72616117442776,2.588754644779753,-0.20113439149999968,-0.13768536599999948,-0.4968048889999963
108362.0,1.9357346435,6.779729410999999,16.801537311999997,0.4646223548441585,1.1061739719507382,2.2790334839616757,18.220961981820626,2.575555941900835,-0.453655629,-0.07060788000000073,-0.4620893480000028
108372.0,1.3432168505,6.710298329,16.442417789,0.36736388227677447,1.0691345945649144,2.3688306739767837,17.809700669008198,2.624759753819433,-0.5925177930000001,-0.06943108199999948,-0.35911952299999683
108382.0,0.8379782425,6.415804629499999,16.325130255,0.3303262502202028,0.9742742043897707,2.482343397867991,17.56059891978441,2.6870717150576136,-0.505238608,-0.29449369950000026,-0.11728753399999903
108392.0,0.35441233099999997,6.0626671629999995,16.313166142,0.294885594429206,0.8205264052523382,2.584932105970966,17.406921922217567,2.7280203606274065,-0.4835659115,-0.3531374664999998,-0.01196411300000122
108402.0,-0.1579851315,5.782491172499999,16.3538637395,0.24239307184622447,0.6150836990000856,2.643020154135841,17.346787099401098,2.724451851881938,-0.5123974625,-0.2801759905000001,0.04069759749999946
108412.0,-0.5410328805,5.4700513035,16.3670046505,0.17124821554717962,0.3432905559040167,2.656876323067424,17.26537051644687,2.6844303219076586,-0.383047749,-0.3124398689999994,0.013140911000000699
108422.0,-0.8067930954999999,5.167221951499999,16.303555625,0.066793750473823,0.028866000498734216,2.6478180642495732,17.121828868800176,2.6488176895463207,-0.2657602149999999,-0.3028293520000007,-0.06344902549999887
108432.0,-1.0270504544999999,5.0044315615,16.048582725,-0.08855277025843629,-0.261312440937843,2.6222367734030927,16.842095337902418,2.6367122483685623,-0.22025735899999999,-0.16279038999999962,-0.25497290000000206
108442.0,-1.3143852995,4.9565751095,15.588846972999999,-0.2756101781701806,-0.475548115961643,2.5899953061310015,16.41058790778892,2.647674954877635,-0.28733484500000017,-0.04785645199999955,-0.4597357520000003
108452.0,-1.575340256,4.902638534499999,14.9879935275,-0.46666264473973984,-0.5917259576206455,2.5529559287451775,15.847949757067012,2.661859802287249,-0.2609549565,-0.05393657500000071,-0.6008534454999985
108462.0,-1.7788282434999998,4.7674048309999995,14.403713320499998,-0.6691749431778938,-0.6103782913367088,2.4940685197828887,15.276103435158605,2.653438249608283,-0.20348798749999975,-0.13523370349999997,-0.5842802070000026
108472.0,-2.003890861,4.641683578,13.772851525999998,-0.873818288632733,-0.5616155373652393,2.409067494552261,14.671477232314226,2.6234665247849827,-0.22506261750000012,-0.12572125299999914,-0.6308617944999995
108482.0,-2.2325819389999997,4.4501597035,13.098938537999999,-1.0467524922373392,-0.48007724537056823,2.295820060707357,14.013227120235571,2.5684537552142155,-0.22869107799999977,-0.19152387450000052,-0.6739129879999997
108492.0,-2.3546747315,4.1724353755,12.4213970895,-1.191174997181366,-0.39161174157473166,2.150865230341472,13.313332254132602,2.489674450433449,-0.12209279250000016,-0.2777243279999997,-0.6775414484999995
108502.0,-2.439698387,3.968947388,11.980784305,-1.3046877210725731,-0.30767711251707236,2.0011124898618546,12.854721473107723,2.4085942896564165,-0.08502365550000013,-0.20348798749999997,-0.44061278449999897
108512.0,-2.477944322,3.683966139,11.476820561499999,-1.4110061977870598,-0.2240077735057162,1.8263142746161185,12.305658242333067,2.318737113700275,-0.03824593499999995,-0.2849812490000003,-0.5039637435000017
108522.0,-2.579737349,3.3979061585,11.008749156999999,-1.4840168110564866,-0.1507301248607343,1.6557781534037526,11.806496900162468,2.2285929999279674,-0.10179302700000026,-0.2860599804999997,-0.46807140449999984
108532.0,-2.6814323095,3.077130637,10.5479346735,-1.5087987411055541,-0.0971712061047843,1.482044589001733,11.310072416391423,2.1171613184277858,-0.10169496049999971,-0.3207755215000003,-0.4608144834999983
108542.0,-2.6227885425,2.7059489345,10.106145091,-1.4832174502590731,-0.08144928020281937,1.2949871810899887,10.785886517812727,1.9706749577710625,0.05864376699999996,-0.37118170249999993,-0.4417895825000002
108552.0,-2.4935368954999997,2.385173413,9.7086815665,-1.4280598099082962,-0.08651248036285493,1.1068651223345278,10.303653537410831,1.8088641820143605,0.12925164700000025,-0.3207755214999999,-0.3974635245000009
108562.0,-2.363010384,2.2318954735,9.305334052,-1.373701530354933,-0.09290736674216214,0.9206070752201969,9.856694034960826,1.656262376629963,0.13052651149999983,-0.15327793950000013,-0.40334751450000006
108572.0,-2.1918843414999998,2.1157847375,8.904242067,-1.3363968629228062,-0.07718718616944922,0.7375482166247718,9.410973850228427,1.5283624598847803,0.17112604250000008,-0.11611073599999999,-0.401091984999999
108992.0,0.10532342099999999,2.2164009664999997,9.136561605499999,1.294653823202858,0.28360378614431464,0.0562030925727214,9.402142534465748,1.326543786334965,2.2972077625,0.10061622899999989,0.23231953849999876
109002.0,-0.6212512775,1.9338713799999998,9.652489462,1.3929786919432103,0.11573278269974399,0.0647290259687137,9.863891953899309,1.3992760842671834,-0.7265746985,-0.28252958649999993,0.5159278565000012
109012.0,-0.500335283,1.9086682894999998,10.021219502,1.5360677653387134,-0.057735491655972415,0.016500342748354394,10.213627677863663,1.537240979163722,0.12091599450000001,-0.025203090500000025,0.3687300399999991
109022.0,-0.661948875,2.084697657,10.4330007355,1.701807721766599,-0.16778373698197088,-0.0876870869494471,10.659814490935506,1.7123054428102882,-0.16161359200000003,0.1760293675000002,0.41178123350000106
109032.0,-0.752954587,2.3707576374999997,10.719060716,1.840901736504287,-0.2554498799803941,-0.21052510503406002,11.003894538714162,1.8704263322825894,-0.09100571199999996,0.2860599804999997,0.28605998049999926
109042.0,-0.7099033934999999,2.6137664244999996,11.074649845,1.929899565721982,-0.3114068811285843,-0.3264376566467594,11.401035345059888,1.9819304031840155,0.043051193500000084,0.24300878699999995,0.35558912900000017
109052.0,-0.627233334,2.919047439,11.3846380515,1.948019574016187,-0.3087417633607889,-0.4258271762308285,11.769632244470298,2.017778610554205,0.08267005949999984,0.3052810145000002,0.3099882064999999
109062.0,-0.6343921884999999,3.254238736,11.7761195195,1.8832696040964494,-0.25225243679074044,-0.5137603546048068,12.233949245328002,1.9683204504206424,-0.007158854499999867,0.33519129700000017,0.3914814680000003
109072.0,-0.58055368,3.391924102,12.152008413999999,1.7441755893587612,-0.1515294856581477,-0.5955639366457811,12.62986540636981,1.8492717686083417,0.05383850849999994,0.13768536599999992,0.3758888944999992
109082.0,-0.5853589385,3.4349752955,12.4920049695,1.5358024752924104,-0.039083157939909026,-0.6736377500752434,12.968881544897766,1.6774994946870436,-0.00480525850000002,0.043051193500000196,0.33999655550000085
109092.0,-0.612915625,3.5571661545,12.742172610999999,1.30078167420661,0.03552792225359657,-0.7527762143484222,13.243566719830726,1.5033187373608268,-0.027556686499999983,0.12219085899999982,0.25016764149999915
109102.0,-0.6104639625,3.6768072844999997,12.9433070025,1.078819426584231,0.06084043239527033,-0.8287189807611995,13.469252919810696,1.361737148815238,0.0024516624999999515,0.11964112999999976,0.20113439150000012
109112.0,-0.6224280754999999,3.7689897945,13.046276827499998,0.8877652146854197,0.05924171080044353,-0.8881404604745985,13.594044278285223,1.2571515955667576,-0.011964112999999887,0.09218251000000022,0.10296982499999885
109122.0,-0.7002928764999999,3.7905644244999994,13.095310077499999,0.721492932835676,0.031796408312832695,-0.9416993792305485,13.650858390410278,1.1867437737593662,-0.07786480100000004,0.021574629999999484,0.049033250000000805
109132.0,-0.788846926,3.749866827,13.116884707499999,0.5690768199175151,-0.02176251044311729,-0.992326144843148,13.665154412692965,1.1441298927864278,-0.08855404950000001,-0.04069759749999946,0.021574629999999928
109142.0,-0.8774009754999998,3.7570256815,13.131202416499999,0.43664472693468936,-0.08198335095392964,-1.0402895380172041,13.686254102067311,1.1311861961240302,-0.0885540494999999,0.007158854500000089,0.014317709000000178
109152.0,-0.9755655419999999,3.7797771095,13.089328021,0.31833583825900175,-0.1470003562492224,-1.0845231625797485,13.659024531992529,1.1397970437009561,-0.09816456650000005,0.02275142799999985,-0.04187439549999894
109162.0,-1.0042990265,3.776148649,13.045001962999999,0.20002520425406212,-0.199759914207759,-1.129289112564151,13.617635307521171,1.1641340152306772,-0.028733484500000128,-0.003628460499999875,-0.04432605800000111
109172.0,-0.9768404065,3.713974488,12.969588824499999,0.06466270345713791,-0.2152148047341688,-1.186577799931613,13.526198947002118,1.2076694716211465,0.02745861999999999,-0.06217416100000017,-0.07541313850000009
109182.0,-0.986352857,3.5954120895,12.855929751,-0.09468236659144039,-0.1941643886258652,-1.258256726981768,13.385619515527914,1.2766654030515134,-0.009512450499999936,-0.11856239849999994,-0.11365907349999915
109192.0,-0.9684066875,3.4889118704999995,12.642831246499998,-0.27321209577794037,-0.13873971289953324,-1.3427254267905377,13.151102595599626,1.377245486093402,0.017946169499999942,-0.1065002190000004,-0.21309850450000134
109202.0,-0.9600710349999999,3.4302681034999996,12.368735379,-0.4557386289515073,-0.04494397356810598,-1.4338560483541694,12.871444772435677,1.5052112230781847,0.008335652500000124,-0.05864376699999996,-0.27409586749999804
109212.0,-0.946930124,3.37152627,12.116116074999999,-0.6297392287290821,0.09175021344808991,-1.5255189953396597,12.61206306644207,1.6529361158284956,0.013140910999999922,-0.05874183349999962,-0.2526193040000013
109222.0,-0.9384964049999999,3.2781669620000002,11.879089344499999,-0.7960115105788258,0.2580224952978337,-1.6219781071096304,12.35879920492115,1.8251090140034498,0.008433719000000117,-0.0933593079999997,-0.23702673050000023
109232.0,-0.9313375504999999,3.2111875425,11.6623623795,-0.9473612273240181,0.43548757364061713,-1.7240327444614947,12.13218081537097,2.014803123336793,0.007158854499999978,-0.06697941950000041,-0.21672696499999944
109242.0,-0.8929935489999999,3.11655337,11.5786135885,-1.0619403473881939,0.5945656083136402,-1.8162280168688434,12.023919286921831,2.186300476434943,0.03834400149999995,-0.09463417249999972,-0.08374879099999966
109252.0,-0.8906399529999999,3.0268225225,11.528305473999998,-1.171723302667889,0.7568410861763171,-1.9172180033769912,11.952268454584319,2.3709636859750405,0.002353596000000069,-0.08973084750000027,-0.05030811450000172
109262.0,-0.8474906929999999,2.9836732625,11.5091825065,-1.2569913632740721,0.8810125358094536,-2.0131447897251036,11.919808244263187,2.5315928424603245,0.04314925999999997,-0.043149259999999856,-0.019122967499997756
109272.0,-0.7398136759999999,3.0615380635,11.5427212495,-1.3017573132584748,0.9534908236570222,-2.097346454158318,11.964729559547713,2.6462386517830434,0.10767701699999999,0.07786480100000004,0.03353874299999937
109282.0,-0.5865357365,3.415852328,11.597736556,-1.2873670735757814,0.9529567529059119,-2.1229277450047985,12.104526612770668,2.6593726263062893,0.1532779394999999,0.35431426450000014,0.05501530649999964
109292.0,-0.5027869455,3.46370878,11.7772963175,-1.2292790254109063,0.8548989195411145,-2.1658279380188192,12.286365686215488,2.63301913058956,0.08374879099999999,0.047856451999999994,0.1795597615000002
109302.0,-0.302829352,3.4948939269999997,11.9604845395,-1.1445432902265815,0.6955538494925362,-2.184745561781186,12.464316250682696,2.5625939339796235,0.19995759350000003,0.031185146999999525,0.18318822200000007
109312.0,-0.0538385085,3.6289508324999997,12.092187849,-1.073930759349395,0.4959737041977326,-2.180748757794119,12.625101572074707,2.4809236859994264,0.2489908435,0.13405690550000005,0.13170330950000064
109322.0,0.25977815849999997,3.7630077379999998,12.15436201,-1.03849184888765,0.3038548414552048,-2.1463762435053426,12.726202410696319,2.40368967705192,0.31361666699999996,0.13405690550000005,0.06217416099999973
109332.0,0.6165440855,3.818121111,12.130433784,-1.0440873744695438,0.1471748891744218,-2.0848237167752584,12.732069714529427,2.336293822180509,0.356765927,0.05511337300000019,-0.023928226000000663
109342.0,0.865534929,3.8360672805,12.107682356,-1.0779275633364618,0.04032408703807699,-2.004351820953556,12.730299875793792,2.2761766376878074,0.2489908435,0.017946169500000053,-0.022751427999999407
109352.0,1.075004973,3.8168462465,11.9963768785,-1.1194960701312107,-0.032953561606904935,-1.9153522464066093,12.634754021048659,2.2187680401692846,0.20947004400000002,-0.01922103400000008,-0.1113054775000002
109362.0,1.283298219,3.7893876264999995,11.94253837,-1.1679935340563772,-0.07132462521200027,-1.8311505819733946,12.594861476875485,2.17311034041547,0.208293246,-0.027458620000000433,-0.05383850850000016
109372.0,1.4246120455,3.6887713974999996,11.897035513999999,-1.213024774087083,-0.0902439943036188,-1.7477482783375937,12.536985599599891,2.129365427889002,0.14131382650000002,-0.10061622899999989,-0.04550285600000059
109382.0,1.5012019819999998,3.601394146,11.887424997,-1.2335428647735283,-0.12435121854609199,-1.671006151127403,12.511375633594584,2.080709682270258,0.07658993649999979,-0.08737725149999953,-0.009610516999998708
109392.0,1.5777919185,3.5044063774999996,11.911353222999999,-1.2284796646134928,-0.18750246687100283,-1.6059891458321103,12.516014821013078,2.030645364898101,0.07658993650000023,-0.09698776850000046,0.023928225999998887
109402.0,1.7154772845,3.4302681034999996,11.913804885499998,-1.2218177428586303,-0.2775666922616662,-1.5484334230890933,12.515923794322518,1.9918654400226556,0.13768536599999992,-0.07413827400000006,0.002451662499998619
109412.0,1.909354755,3.354854965,11.9245922005,-1.2319441431787015,-0.3668315568549162,-1.4850151393886273,12.533817717074541,1.9640574653584684,0.19387747050000015,-0.07541313849999964,0.01078731500000174
109422.0,2.1297101805,3.2733617034999996,11.929397459,-1.2676500890160014,-0.44437129953326826,-1.4168006909036808,12.552333887754159,1.952364412136297,0.22035542549999998,-0.08149326150000036,0.0048052585000011305
109432.0,2.3283929094999998,3.2326641059999996,11.865948433499998,-1.3214742978182545,-0.49553213589697803,-1.3368628658330886,12.516879123396203,1.9439775563376056,0.19868272899999972,-0.040697597499999905,-0.06344902550000242
109442.0,2.440875185,3.1848076539999997,11.755819754,-1.3923538640709963,-0.5155179011615652,-1.2510624798050474,12.421761934212972,1.9415368442518453,0.11248227550000012,-0.047856451999999994,-0.11012867949999894
109452.0,2.5941531244999996,3.0746789744999994,11.6229396465,-1.4765555285042107,-0.5125857480182147,-1.1655273838233091,12.299431176105951,1.9497216366111725,0.15327793949999968,-0.11012867950000027,-0.13288010749999835
109462.0,2.718599513,2.986124925,11.4038590855,-1.564488706878189,-0.47687980218091464,-1.0762625192300592,12.097757123604813,1.9579020072457483,0.12444638850000045,-0.08855404949999945,-0.21908056100000017
109472.0,2.7760664819999996,2.8436343004999998,11.189583782999998,-1.6484250812651005,-0.42092280103272445,-0.9872646900123644,11.874324670659822,1.967021306727077,0.05746696899999959,-0.14249062450000016,-0.2142753025000026
109482.0,2.8371619115,2.7035953384999996,11.055428810999999,-1.7219680199563856,-0.3628347528678492,-0.9014625586550712,11.729510717055255,1.9772348530961454,0.06109542950000035,-0.1400389620000002,-0.13415497199999926
109492.0,2.843143968,2.5300176335,10.940592939499998,-1.7773926956827175,-0.328727528625376,-0.8220570590063372,11.583653599639145,1.9856899030323374,0.005982056500000166,-0.17357770499999958,-0.11483587150000041
109502.0,2.8395155074999994,2.360068389,10.818402080499999,-1.8053703235921865,-0.32393136384089555,-0.7530432497239774,11.431123947077852,1.9827676792156028,-0.003628460500000763,-0.16994924450000015,-0.12219085899999982
109512.0,2.8132336855,2.2403291925,10.697584152500001,-1.8117652099714936,-0.3377875327724785,-0.6912236876183382,11.285905606543889,1.9683454421631033,-0.026281821999999178,-0.11973919649999987,-0.12081792799999747
109522.0,2.8047999664999996,2.094308174,10.5861806085,-1.8133639315663206,-0.37295940785866827,-0.6323362786560497,11.149899078267168,1.956332445552272,-0.008433719000000561,-0.14602101849999993,-0.11140354400000163
109532.0,2.8479492265,1.968586921,10.458105759499999,-1.8122992807226042,-0.42358791880051977,-0.5654535163903749,11.016266397429813,1.9451460323224228,0.0431492600000003,-0.12572125300000003,-0.12807484900000077
109542.0,2.8634437335,1.806973329,10.330030910499998,-1.7979090410399108,-0.487538527922844,-0.48897842455573937,10.870786597046378,1.925946685592111,0.015494507000000102,-0.16161359199999992,-0.12807484900000077
109552.0,2.888646824,1.681252076,10.230689545999999,-1.7680656561600596,-0.5578840234244755,-0.406909552468462,10.76280156852728,1.8981217379227993,0.025203090499999803,-0.12572125300000003,-0.09934136449999897
109562.0,2.8574616769999994,1.5412131139999998,10.047501323999999,-1.7398209928750354,-0.6359578368539378,-0.3240395742545192,10.559010746943624,1.880537450620876,-0.031185147000000413,-0.1400389620000002,-0.18318822200000007
109572.0,2.8287281925,1.4538358624999999,9.885887732,-1.713175051184838,-0.6996431559299588,-0.2393038390701945,10.384898562424361,1.8659409500398287,-0.028733484499999573,-0.08737725149999997,-0.16161359199999836
109582.0,2.8215693379999998,1.3400787225,9.782917907,-1.6897265526842942,-0.737480148783944,-0.1598983394214605,10.269495960695455,1.8505729576664838,-0.007158854500000089,-0.11375713999999992,-0.10296982500000063
109592.0,2.8012695725,1.219162728,9.6716124295,-1.6646793325889235,-0.7662588828200785,-0.09035045938799047,10.142660201427317,1.8347951278987524,-0.0202997654999999,-0.12091599450000001,-0.1113054775000002
109602.0,2.8120568875,1.067159653,9.605809807999998,-1.64362891648062,-0.8038288402985083,-0.030131364206430103,10.065688040615814,1.829908390793332,0.010787314999999964,-0.15200307499999988,-0.06580262150000138
109612.0,2.8012695725,0.9474204565,9.565112210499999,-1.6292386767979268,-0.8480624648610527,0.027159068490283763,10.011797457932575,1.8369448073585999,-0.010787314999999964,-0.11973919650000009,-0.04069759749999946
109622.0,2.818038944,0.8660252614999999,9.5088220395,-1.6191140218071076,-0.9037524306336877,0.08125031266809203,9.955352320351988,1.8560442572302387,0.01676937150000013,-0.08139519500000003,-0.05629017099999878
109632.0,2.8707006545,0.7750195495,9.397516562,-1.605790178297383,-0.9844913618309455,0.13987243158407756,9.85671827145923,1.8887428716882912,0.05266171049999979,-0.09100571199999996,-0.1113054775000002
109642.0,2.9185571064999998,0.6014418445,9.225115655,-1.5916687193194967,-1.0838808814150145,0.21101728788312243,9.694455463013036,1.937197814613341,0.047856451999999994,-0.17357770499999992,-0.1724009070000001
109652.0,3.0705601815,0.399130655,8.947391326999998,-1.5826087151723942,-1.1736798167593747,0.2837626111062461,9.468022848855448,1.9906521235690002,0.1520030750000001,-0.20231118950000004,-0.27772432800000146
109662.0,3.1951046364999995,0.23153500649999997,8.6432871105,-1.5740810364471498,-1.227238735515325,0.35064362804266874,9.217847588887233,2.0265233719695197,0.12454445499999967,-0.16759564850000003,-0.30410421649999897
109672.0,3.2693409769999997,0.14180415899999999,8.2614161595,-1.5575614950770236,-1.2461581046069434,0.41619470408907183,8.885926839888382,2.037676584823002,0.07423634050000016,-0.08973084749999999,-0.3818709509999998
109682.0,3.329161542,0.1046369555,7.9154375475,-1.5330466004035113,-1.2280380963127382,0.486007874168845,8.58768985429498,2.023490325837585,0.059820565000000325,-0.03716720349999998,-0.3459786119999997
109692.0,3.44409548,0.029223817,7.6341828255,-1.5122614743415106,-1.1779436561219971,0.5592837774845749,8.375165378665406,1.9968185614955187,0.11493393800000007,-0.0754131385,-0.2812547219999999
109702.0,3.5434368444999995,-0.0784532,7.4606051204999995,-1.5034685055699633,-1.0937402463595305,0.6320291007076986,8.25970510003724,1.963707223057645,0.09934136449999942,-0.107677017,-0.17357770500000047
109712.0,3.629637298,-0.1634768555,7.2978147305,-1.5021368193506917,-1.0002132877329104,0.7013082000363615,8.152244564414127,1.9361494871121734,0.0862004535000005,-0.08502365549999999,-0.16279038999999962
109722.0,3.685927469,-0.2568361635,7.072752112999999,-1.5024038547262468,-0.9224047643497512,0.7644611936905243,7.9797148178087225,1.9215745649467122,0.05629017100000011,-0.093359308,-0.22506261750000078
109732.0,3.7708530579999997,-0.4148212949999999,6.9171205774999995,-1.50080513313142,-0.8715109633615965,0.8228162772309547,7.889104294879575,1.9206702041134718,0.08492558899999958,-0.15798513149999993,-0.15563153549999953
109742.0,3.8450893985,-0.548976267,6.7674710985,-1.485083207229455,-0.8416675784817454,0.8819707215687985,7.802868222212851,1.9213924114471872,0.07423634050000016,-0.1341549720000001,-0.1496494789999998
109752.0,3.8905922545,-0.5812401455,6.5819292805,-1.4501766221895684,-0.823015244765682,0.9459213306911227,7.66787723239095,1.9170637685059737,0.04550285600000015,-0.03226387850000001,-0.18554181799999991
109762.0,3.9037331654999994,-0.6818563744999999,6.4418903185,-1.39368729561952,-0.8099584366315126,1.025593865715412,7.563201148882327,1.9105600551762036,0.013140910999999367,-0.10061622899999989,-0.1400389620000002
109772.0,3.8391073419999997,-0.759623109,6.348432944,-1.3204096469745379,-0.8062286680200006,1.130313620835072,7.457772676583112,1.916010225026479,-0.06462582349999968,-0.07776673450000005,-0.0934573744999998
109782.0,3.666706435,-0.81591328,6.299399694,-1.2407371119502488,-0.8166203583863748,1.2606129214719604,7.334363439707502,1.9481895001472025,-0.17240090699999966,-0.056290171,-0.04903324999999992
109792.0,3.481164617,-0.918883105,6.221534892999999,-1.1568007375633376,-0.8374037391191234,1.4079675795593376,7.18820907292795,2.0054440091431003,-0.18554181799999991,-0.10296982500000007,-0.07786480100000048
109802.0,3.214227604,-1.0086139525,6.186819352,-1.060074590417812,-0.8589882259785372,1.5598513670556402,7.044522332264619,2.0723791151535464,-0.26693701300000017,-0.08973084749999993,-0.03471554099999974
109812.0,2.8910004199999997,-1.196607433,6.207217183999999,-0.9521573921084985,-0.8912296932506284,1.708537711362289,6.951208380310282,2.1494174040017344,-0.3232271840000003,-0.1879934805000001,0.02039783199999956
109822.0,2.577383753,-1.4348109615,6.174855238999999,-0.8407774605632284,-0.9453209374284367,1.8431008513618,6.843276023080953,2.2355221227315827,-0.3136166669999998,-0.23820352849999993,-0.03236194499999989
109832.0,2.26729748,-1.6921374574999999,6.138962899999999,-0.7365900308654268,-1.001544973952182,1.9518174104685266,6.75949942861639,2.314140966369005,-0.310086273,-0.2573264959999999,-0.035892339000000106
109842.0,1.9309293849999998,-1.9208285354999999,6.032462681,-0.6422619661121414,-1.0537722064888604,2.0314899454928157,6.61881232173154,2.376949241132641,-0.3363680950000001,-0.228691078,-0.10650021899999906
109852.0,1.6723280244999998,-2.135103838,5.850451257,-0.5548628584892733,-1.0881447207776367,2.085048864248766,6.448498222927822,2.4164768758240163,-0.25860136049999993,-0.21427530250000015,-0.1820114240000006
109862.0,1.491591465,-2.273966002,5.6972713839999995,-0.4746579980431259,-1.0972047249247392,2.1146252137530617,6.313055337921408,2.4291558653457503,-0.1807365594999999,-0.13886216399999984,-0.15317987300000002
109872.0,1.340765188,-2.2978942279999997,5.5428166464999995,-0.3965841846136635,-1.0801511128035026,2.129814814233168,6.148234344032918,2.4207677676521127,-0.15082627699999995,-0.023928225999999775,-0.15445473750000005
109882.0,1.1492413135,-2.2763195979999997,5.363256885,-0.3139794964460239,-1.0495083671262382,2.1359426652369202,5.938595029415122,2.400479536683427,-0.19152387450000008,0.021574629999999928,-0.1795597614999993
109892.0,1.006750689,-2.229639944,5.2435176885,-0.22897847121539608,-1.021263703841214,2.141805226194369,5.78613160749863,2.383849894606858,-0.14249062449999994,0.046679653999999626,-0.11973919650000031
109902.0,0.8871095589999999,-2.1901191444999997,5.121424896,-0.14317808518735484,-0.9911532835858078,2.1513975557633302,5.640264018833089,2.37305630750416,-0.1196411300000001,0.039520799500000425,-0.12209279250000016
109912.0,0.7303012254999999,-2.192570807,5.0675863875000005,-0.05684362840820332,-0.9434569257873068,2.1759124504368423,5.569662325352475,2.3723273721964913,-0.1568083335,-0.0024516625000003955,-0.05383850849999927
109922.0,0.5147510585,-2.252391372,5.040029700999999,0.035351643999145144,-0.878439920492014,2.228404973019824,5.544378678612154,2.3955573790721316,-0.21555016699999985,-0.05982056499999988,-0.027556686500001426
109932.0,0.2609549565,-2.342220286,5.050817016,0.1304790695498441,-0.814754601415993,2.2971517469266285,5.57358465321798,2.4408514900598086,-0.253796102,-0.08982891399999993,0.010787315000000852
109942.0,-0.0646258235,-2.435579594,5.0855325570000005,0.21494776935861365,-0.7526697492640506,2.3584389836104096,5.639048310138797,2.4849444127430207,-0.32558078,-0.09335930800000014,0.03471554100000063
109952.0,-0.381870951,-2.519328385,5.0747452420000005,0.279165413856493,-0.7145639757052584,2.390680450882501,5.678545606569168,2.5107544726438564,-0.3172451275,-0.0837487910000001,-0.010787314999999964
109962.0,-0.661948875,-2.634262323,5.036401240499999,0.33911921899175024,-0.7103018816718882,2.3826868429083667,5.722136991963846,2.509328037376708,-0.280077924,-0.11493393800000007,-0.03834400150000139
109972.0,-0.8989756055,-2.6917292919999998,5.0197299355,0.40147110651924767,-0.7417439881465662,2.346980897071067,5.766389888487401,2.4939291338243503,-0.2370267305,-0.05746696899999959,-0.016671304999999137
109982.0,-1.1515949095,-2.6869240335,4.976580675499999,0.49553213589697803,-0.8035635502522053,2.2870270919358098,5.771662396324499,2.4742189467080142,-0.252619304,0.004805258499999798,-0.043149260000000744
109992.0,-1.3922501005,-2.655836953,4.8353649155,0.6231680640953234,-0.8763071281460769,2.2332011378043046,5.689691039881771,2.47859636504986,-0.2406551910000001,0.031087080499999864,-0.1412157599999997
110002.0,-1.607702201,-2.5804238144999996,4.726413034,0.7683899298367636,-0.9285343606827552,2.1937654233554924,5.619810815099033,2.5030393276880774,-0.21545210049999985,0.07541313850000053,-0.10895188149999946
110012.0,-1.75735168,-2.5696364994999996,4.6306020635,0.9093497015448336,-0.9535815807781259,2.160190524534878,5.57976631564906,2.5303473700638928,-0.14964947900000003,0.010787314999999964,-0.09581097050000054
110022.0,-1.8435521334999998,-2.5767953539999997,4.550383666499999,1.0505747632992068,-0.9581107101870512,2.1279490572627866,5.544776846517663,2.559267601592671,-0.08620045349999983,-0.007158854500000089,-0.08021839700000033
110032.0,-1.8590466404999997,-2.607980501,4.4882095054999995,1.1912657543024696,-0.963707981098197,2.0845147934976556,5.513768336665143,2.587092788153677,-0.01549450699999988,-0.031185147000000413,-0.06217416099999973
110042.0,-1.9309293849999998,-2.6174929514999996,4.5348891595,1.3306268044157128,-0.9743649615108744,2.018166101983091,5.580768525029439,2.6063286795880685,-0.0718827445000001,-0.009512450499999492,0.04667965400000007
110052.0,-2.049393717,-2.5887594669999996,4.577940353,1.4673209914319087,-0.9746319968864295,1.9400922885536287,5.644397936085563,2.6204763897728225,-0.11846433200000028,0.028733484500000017,0.043051193500000196
110062.0,-2.2110073089999998,-2.5995467819999996,4.567153038,1.6221369320715617,-0.9522498945588542,1.8601544634830365,5.70132297495683,2.645426755004521,-0.1616135919999997,-0.010787314999999964,-0.010787314999999964
110072.0,-2.4707854675,-2.4846128439999995,4.598338184999999,1.8038641044477155,-0.8925613794699001,1.779682567661334,5.781245183747878,2.6866078175040378,-0.2597781585000001,0.11493393800000007,0.031185146999999525
110082.0,-2.6814323095,-2.4056693115,5.030419183999999,1.958411264382561,-0.7825131341439017,1.704006836624112,6.187280600835766,2.71133560903661,-0.21064684200000006,0.07894353249999941,0.4320809990000001
110092.0,-2.8717793859999996,-2.3948819965,5.6110709304999995,2.052207003713989,-0.6796591359946239,1.629130466384303,6.7428994954779276,2.7069459181400806,-0.1903470764999997,0.010787314999999964,0.5806517465000001
110102.0,-2.9376800739999998,-2.4439152464999996,6.348432944,2.1023014439047296,-0.6380906291998749,1.537467519398813,7.4098101725831205,2.6815363852319702,-0.06590068800000015,-0.04903324999999947,0.7373620135000003
110112.0,-2.913751848,-2.2608250909999996,7.075105709,2.1118937734736907,-0.6703320964719662,1.4375439290636336,7.978621479763467,2.641206727612429,0.023928225999999775,0.18309015549999996,0.726672765
110122.0,-2.8299049904999998,-2.091954578,7.581521114999999,2.078852945404186,-0.7854435419580001,1.3048465460345047,8.358474659222386,2.577047852663463,0.0838468575000002,0.16887051299999944,0.5064154059999995
110132.0,-2.628770599,-2.0285055525,7.850811724,2.0543380507306734,-0.9149452271267274,1.1534950839600604,8.524113699639747,2.5274454502603825,0.20113439149999968,0.0634490255000002,0.26929060900000046
110142.0,-2.363010384,-1.787948428,7.963392065999999,2.061532297907394,-0.9826256048605635,1.0311893912973058,8.496834166494674,2.5057573815848646,0.26576021500000024,0.2405571245,0.11258034199999933
110152.0,-2.0805788639999996,-1.3509641039999998,8.091466915,2.06899358045967,-0.9530492553562676,0.9776304725413557,8.463199705558157,2.4788704403336403,0.28243152000000027,0.4369843240000002,0.12807484900000077
110162.0,-1.9417167,-0.81591328,8.3153527345,2.0673948588648434,-0.8568554336326002,0.9928183276922105,8.577940855630555,2.4482669316085723,0.13886216399999962,0.5350508239999998,0.22388581949999953
110172.0,-2.0183066364999998,-0.47591672449999994,8.737921283,2.0761878276363905,-0.7617280080819012,1.0461119564018573,8.980608373351057,2.446453694482864,-0.07658993649999979,0.3399965555,0.42256854850000103
110182.0,-2.2289534785,-0.341859819,9.1855948555,2.095107196728009,-0.7563995178755626,1.0967387220144569,9.458343120999155,2.4828310898628976,-0.21064684200000006,0.13405690549999993,0.4476735724999994
110192.0,-2.487554839,-0.46150094899999994,9.4178163275,2.1084292949084817,-0.860586947573364,1.105266400739701,9.7517268512549,2.5313430827459977,-0.25860136050000015,-0.11964112999999993,0.23222147200000087
110202.0,-2.5880730014999997,-0.8326826515,9.579429919499999,2.1260169777808287,-1.0396490021817224,1.049574689637814,9.957758776040622,2.5889042598516645,-0.10051816249999979,-0.37118170250000004,0.16161359199999836
110212.0,-2.627593801,-1.0684345175,9.517157692,2.1513312332517547,-1.239496182852081,0.9256702753802325,9.93086562368225,2.6498004304460197,-0.039520799500000425,-0.2357518660000001,-0.06227222749999939
110222.0,-2.5498270665000002,-0.9583058379999999,9.3017055915,2.1870371790890544,-1.400439974495486,0.7580645619819651,9.692352400689073,2.7053697760224265,0.07776673449999993,0.11012867950000016,-0.2154521005000003
110232.0,-2.3176055945,-0.6411587769999999,9.040750635,2.2270052189597247,-1.4934346077002478,0.601119319654879,9.35508163049552,2.7479526213552132,0.23222147200000043,0.317147061,-0.2609549564999991
110242.0,-1.9464238919999999,-0.08561205449999999,8.7797956785,2.275502682884891,-1.499297168657697,0.5030614862900816,8.993370199621019,2.771078367486151,0.37118170249999993,0.5555467224999999,-0.2609549565000009
110252.0,-1.62201991,0.5547621905,8.640933514499999,2.346647539183936,-1.416427190443754,0.4924027605481522,8.809338322397094,2.784866448787419,0.324403982,0.640374245,-0.13886216400000073
110262.0,-1.50237878,1.068336451,8.8025471065,2.4553640982906626,-1.2863931798531685,0.5454276085529919,8.99351546022361,2.825086112761751,0.11964112999999998,0.5135742605,0.16161359200000192
110272.0,-1.6495765965,1.3819531179999998,9.374765134,2.5798025832993545,-1.1968612798843636,0.6203039787928006,9.618581947757814,2.91077915998288,-0.14719781650000008,0.3136166669999998,0.5722180275
110282.0,-1.7896155585,1.3269378115000001,10.246184053,2.6751952988963565,-1.2626776459770697,0.668534407342412,10.485598478425787,3.0328143660118783,-0.140038962,-0.05501530649999964,0.8714189189999999
110292.0,-2.0075193215,1.2957526645,11.214688807,2.6989108327724556,-1.471584830794531,0.6496150382507934,11.466401084542863,3.14192318419828,-0.2179037629999998,-0.03118514700000019,0.9685047539999996
110302.0,-2.081755662,1.3030095855,11.861143174999999,2.628565337270824,-1.7732196134411988,0.5323708004188223,12.112731237587292,3.2151333096673946,-0.07423634050000016,0.007256920999999972,0.6464543679999988
110312.0,-1.7860851644999998,1.343707183,12.033544081999999,2.4622913100918282,-2.062598694080363,0.3301272826854754,12.239355881006565,3.2289589485388395,0.2956704975000002,0.04069759750000013,0.1724009070000001
110322.0,-1.205433418,1.5830875094999999,11.925768998499999,2.238198015452764,-2.2371316192797956,0.09404008542670647,12.090624549358472,3.165933002453652,0.5806517464999998,0.23938032649999985,-0.10777508349999998
110332.0,-0.6188976814999999,2.1169615354999998,11.399053827,2.004243610539932,-2.2507207528358233,-0.10607238528995537,11.610468923940838,3.0156239335429573,0.5865357365,0.5338740259999999,-0.5267151714999994
110342.0,-0.0310870805,2.665251337,10.969326424,1.801466022055475,-2.0905763219898317,-0.24037023524316306,11.288518649150513,2.770120401115403,0.5878106009999999,0.5482898015000002,-0.42972740299999934
110352.0,0.33401449899999996,2.9621966989999997,10.752599458999999,1.6373247872224166,-1.7878751431701954,-0.30325444819251873,11.15816159117602,2.443213712872316,0.36510157949999994,0.29694536199999977,-0.21672696500000121
110362.0,0.5135742605,3.1452868545,10.960892705,1.5214139809389688,-1.4390763281468846,-0.3456223157846811,11.414804282538569,2.1225211341227315,0.17955976150000003,0.1830901555000004,0.2082932460000002
110372.0,0.6225261419999999,2.9705323515,11.3822844555,1.4236214376204748,-1.1075964152911135,-0.4194322898515213,11.77998305069657,1.8518615667993121,0.1089518814999999,-0.17475450299999995,0.42139175050000155
110382.0,0.749424193,2.6784903145,11.825250836,1.305312548944787,-0.8709786379397382,-0.5414726924679728,12.147942390390346,1.660011239380208,0.12689805100000007,-0.2920420370000003,0.4429663804999997
110392.0,0.8607296704999999,2.5946434569999997,12.172406245999998,1.1736798167593747,-0.6953793165673368,-0.6992172955924723,12.475596340547883,1.5329649482729952,0.11130547749999997,-0.0838468575000002,0.3471554099999974
110402.0,0.897896874,2.5096198015,12.519561655999999,1.0399160375572774,-0.5341702348776285,-0.8820108641415944,12.800149780483247,1.4644816043439575,0.03716720350000002,-0.08502365549999968,0.34715541000000094
110412.0,0.8619064684999999,2.319272725,12.6906876985,0.8664477632015609,-0.3660321960575028,-1.0909180489590558,12.929635068099575,1.4404212871421678,-0.0359904055000001,-0.19034707650000016,0.17112604250000096
110422.0,0.806891162,2.1277488504999997,12.705103474,0.6324951036179811,-0.21015160457413326,-1.3320667010486082,12.90728642291495,1.4895017452317154,-0.05501530649999986,-0.19152387450000008,0.014415775499999839
110432.0,0.761388306,1.9961436074999999,12.732562093999999,0.394276859342527,-0.08038462935910283,-1.5892025690864287,12.910555330110409,1.6393537556125928,-0.045502856000000036,-0.13160524299999987,0.0274586199999991
110442.0,0.805714364,1.6656595024999998,12.764924039,0.21201736154451517,0.00648215284190694,-1.8705880417514587,12.898328687704641,1.8825761609680816,0.044326058,-0.33048410500000003,0.03236194500000167
110452.0,1.1013848615,1.1988629624999998,12.688334102499999,0.08757887653582347,0.03446152608062804,-2.2100598172521115,12.792347060358397,2.2120628499722876,0.29567049749999996,-0.46679654000000004,-0.07658993650000134
110462.0,1.5203249495,0.9833127955,12.5722233665,0.0036425021489121657,0.08802044483657802,-2.5948316134882776,12.701932623936989,2.5963266298540546,0.41894008800000004,-0.21555016699999985,-0.11611073599999955
110472.0,2.011147782,1.057549136,12.325586119,-0.06883404036940437,0.22444934180647078,-3.0009208612083023,12.533283638096735,3.0100899733041393,0.49082283250000014,0.07423634050000005,-0.24663724749999894
110482.0,2.7270332319999997,1.4754104925,12.114939276999998,-0.14664256375256354,0.46666264473973984,-3.3870243436637395,12.505410831124609,3.4221648075553284,0.7158854499999996,0.4178613565,-0.21064684200000272
110492.0,3.4836162794999996,2.2079672474999996,12.000005339,-0.24043655775473882,0.8351801896520825,-3.6945234325971086,12.689004290520932,3.7953707436166706,0.7565830474999999,0.7325567549999996,-0.11493393799999829
110502.0,4.1228137264999996,3.138128,12.243014125999998,-0.32090845357644143,1.2609881672611392,-3.8943706132674674,13.294240679980046,4.10599511288441,0.6391974469999999,0.9301607525000004,0.24300878699999906
110512.0,4.5860798725,3.9701241859999996,12.727854901999999,-0.3491531168614656,1.6167159394148674,-3.9977569368386034,14.099372505738586,4.326400218867106,0.4632661460000005,0.8319961859999996,0.4848407760000004
110522.0,5.026692657,4.68954003,13.353911437999999,-0.33476462250802436,1.8008411941832612,-4.022004796136561,15.019533130389151,4.419459122935275,0.44061278449999985,0.7194158440000002,0.6260565360000001
