timestamp,ax,ay,az,gx,gy,gz,acc_mag,gyro_mag,dax,day,daz
38742.0,0.00980665,0.5598616485,9.7355517875,-0.02737548931753106,0.11909603216833706,-0.007894124206770351,9.751641392244682,0.12245652081701386,0.0,0.0,0.0
38752.0,-0.9825282635,0.3060655465,9.6780848185,-0.0572188741973821,0.138814762057369,0.004098033083682686,9.732644227619279,0.150200970717951,-0.9923349135,-0.25379610199999997,-0.057466969000000034
38762.0,-0.027262487,0.2952782315,9.619441051499999,-0.082798419714611,0.12735667551802624,0.021951006002332685,9.624010526827087,0.15348337946095386,0.9552657765,-0.01078731500000002,-0.05864376700000129
38772.0,0.0960071035,0.42570667649999994,9.546381509,-0.0665441683907878,0.16652535459128298,0.029677578600911577,9.556350948647514,0.18176792549893764,0.1232695905,0.13042844499999995,-0.07305954249999935
38782.0,0.06727361899999999,0.5286765015,9.561974082499999,-0.03323630494572802,0.18890920224811025,0.04566653987843163,9.576814341807683,0.1971719339179165,-0.028733484500000003,0.10296982500000007,0.015592573499999318
38792.0,0.12356378999999999,0.5406406145,9.590707566999999,-0.002593559268463574,0.20676217516676026,0.052326716304041995,9.606728471230836,0.21329652802737503,0.056290171,0.011964112999999998,0.028733484500000017
38802.0,0.35215680149999995,0.3515684025,9.599043219499999,0.004867723283812185,0.20010025341189788,0.0453995045028765,9.61193245317028,0.20524356544013803,0.22859301149999994,-0.18907221200000002,0.008335652499999568
38812.0,0.5557428554999999,0.27252680349999997,9.741533844,0.009663888068292601,0.21875258712796128,0.02141693525122242,9.761178341463832,0.22001084114953934,0.20358605399999996,-0.07904159900000002,0.1424906245000006
38822.0,0.5580964515,0.3215600535,9.797824015,0.025918139392115794,0.2392706778144066,0.008360127117052838,9.818972855960777,0.2408154873273893,0.002353596000000069,0.04903325000000003,0.056290171000000555
38832.0,0.6670483329999999,0.393442798,10.0036655985,0.0648215284190694,0.24326748180147365,-0.004429645641561609,10.033597366870394,0.25179459884819677,0.1089518814999999,0.07188274449999998,0.20584158349999981
38842.0,0.9088803219999999,0.4029552485,10.1952875395,0.1021261958511962,0.24220108562850512,-0.013222614413109042,10.243648001815393,0.2631842762981503,0.24183198900000002,0.009512450499999991,0.19162194100000107
38852.0,1.2859460145,0.37069136999999996,10.4741886655,0.12450829817877147,0.24086939940923344,-0.018285814573144592,10.559341714543079,0.271762313247702,0.3770656925,-0.03226387850000001,0.27890112599999917
38862.0,1.56121868,0.38020382049999996,10.850077559999999,0.13223661610660237,0.22967834824544578,-0.022814943982069874,10.968415645384672,0.26600599234037225,0.2752726655000002,0.009512450499999991,0.3758888944999992
38872.0,1.6737990219999999,0.520340849,11.253523140999999,0.14449406344335855,0.16892343698352316,-0.020949187011687936,11.389211599149816,0.22327680212944273,0.11258034199999978,0.14013702850000004,0.4034455809999997
38882.0,1.7719635884999998,0.6783259804999999,11.6880558025,0.18339745247031214,0.05967455245493812,-0.015887732180904383,11.84105694341282,0.1935151100486722,0.09816456649999994,0.15798513149999993,0.43453266150000047
38892.0,1.720478676,0.9584039044999999,12.066298293,0.2500131793604317,-0.08341626626981699,0.0014329153158873446,12.2259616969131,0.2635657727752428,-0.05148491249999987,0.280077924,0.3782424904999999
38902.0,1.7360712495,1.1739540714999999,12.322447990999999,0.32195739645689,-0.24462534795952523,0.05259375167959712,12.499393426732027,0.40775510875199705,0.015592573499999984,0.21555016699999996,0.25614969799999976
38912.0,1.9324003825,1.2457387495,12.402666388,0.3635259032516389,-0.3733276723308391,0.1378618122857801,12.613967250723181,0.5390088241852836,0.1963291330000001,0.07178467800000021,0.08021839700000122
38922.0,2.0365470054999997,1.345080114,12.516423527999999,0.37285119744504464,-0.45086741500919114,0.23565261027502238,12.752161469765085,0.6307389270393142,0.10414662299999966,0.09934136449999986,0.11375713999999881
38932.0,1.8713049529999999,1.376265261,12.609782836,0.3342148437936462,-0.47111847032008136,0.31612450609672493,12.82195427642908,0.6584731416266293,-0.1652420524999998,0.03118514699999997,0.09335930800000192
38942.0,1.7623530715,1.5270915379999999,12.703142144,0.2577397519590106,-0.41702722614227306,0.43709851254020793,12.915406197434349,0.6568078842010601,-0.1089518814999999,0.15082627699999995,0.09335930799999836
38952.0,1.4810983494999999,1.6013278784999998,12.839650712,0.1362334200936694,-0.31923468282377887,0.5500789110095569,13.023614463792876,0.6504284248135815,-0.2812547220000001,0.07423634049999994,0.136508568
38962.0,1.035778373,1.261331323,13.070695385999999,0.007798131097910664,-0.2350330183905644,0.6390784855565037,13.172200705195662,0.6809718358960184,-0.44531997649999977,-0.33999655549999974,0.23104467399999962
38972.0,0.5018062805,0.8351343139999999,13.306545318499998,-0.12143651869526145,-0.18733666059206333,0.7054271770710681,13.342166509936222,0.7399117208323345,-0.5339720925000001,-0.4261970090000001,0.23584993249999897
38982.0,0.034911674,0.47238633049999995,13.416673997999998,-0.22855435620716144,-0.19026706840616184,0.725144161630848,13.425032917607092,0.7837555143081615,-0.4668946065,-0.3627479835,0.11012867950000071
38992.0,-0.2715461385,0.12523092049999998,13.3100757125,-0.3162204992055846,-0.2078530059492567,0.7048931063199578,13.313434401433234,0.8000453534252732,-0.3064578125,-0.34715540999999994,-0.10659828549999872
39002.0,-0.395992527,-0.0016671305000000001,13.118551838,-0.3791047121549403,-0.20119282952364634,0.6539993053318033,13.124527236706742,0.782249339280189,-0.1244463885,-0.12689805099999998,-0.19152387449999964
39012.0,-0.40315138149999996,0.09777230049999999,12.9497793915,-0.44918491761026863,-0.15589280878813352,0.5985746296054713,12.956422220183645,0.764435245948095,-0.007158854499999978,0.099439431,-0.16877244650000023
39022.0,-0.4139386964999999,0.19829046299999997,12.775024888499999,-0.5325872212460697,-0.08714603488132887,0.5508782718069702,12.783267393509819,0.7711747207858813,-0.010787314999999964,0.10051816249999998,-0.17475450300000084
39032.0,-0.34931287299999997,0.23065240799999998,12.517600326,-0.6119927208948036,-0.017865190223413957,0.5135736043748435,12.524597316402431,0.7991320933115575,0.06462582349999996,0.032361945,-0.2574245624999989
39042.0,-0.2882174435,0.2713500055,12.341669024999998,-0.7007252600661954,0.04635070894521341,0.504780635603296,12.348015809953717,0.8648512984291743,0.061095429499999965,0.040697597500000016,-0.1759313010000021
39052.0,-0.2835102515,0.24742177949999997,12.166914521999999,-0.7724041871163505,0.09431410211926959,0.5133065689992883,12.17273200992,0.9321947285365088,0.004707192000000027,-0.023928226000000025,-0.17475450299999906
39062.0,-0.37569276149999997,0.253403836,12.0603162365,-0.819034148741883,0.12042771838760874,0.5343587304368439,12.068827046549657,0.985321787516881,-0.09218251,0.005982056500000027,-0.10659828549999872
39072.0,-0.512103263,0.15043401099999998,11.987354760499999,-0.846746486605049,0.11989539296575047,0.5535433895747656,11.999231404457653,1.0187074172569506,-0.1364105015,-0.10296982500000001,-0.07296147600000147
39082.0,-0.6665580005,-0.0614876955,11.921454072499998,-0.8395522394283284,0.07859392154655666,0.5572731581862774,11.940232305422505,1.010731586559011,-0.15445473750000005,-0.21192170649999997,-0.06590068800000104
39092.0,-0.832976851,-0.20996037649999996,11.831723224999998,-0.7963850110387526,0.0037175513067479217,0.5388878598457693,11.862866781137106,0.9615836060811696,-0.16641885049999994,-0.14847268099999997,-0.08973084750000027
39102.0,-0.9705641505,-0.263798885,11.731106996,-0.7332337627138418,-0.10206859998588037,0.5079780787929496,11.7741435346085,0.8978259733493748,-0.13758729950000004,-0.05383850850000002,-0.10061622899999811
39112.0,-0.9095667875,-0.27095773949999996,11.635394091999999,-0.6660857104018639,-0.23316726142018246,0.4754695761453032,11.67403638480138,0.8509456288386102,0.06099736300000003,-0.007158854499999978,-0.09571290400000088
39122.0,-0.7012735415,-0.205155118,11.509672838999998,-0.6000023089336026,-0.3301604439412633,0.4466925874384207,11.532841890152827,0.8176447621929572,0.208293246,0.06580262149999996,-0.12572125300000003
39132.0,-0.476210924,-0.005197524499999999,11.3671822145,-0.5674938062859562,-0.36986319376563037,0.4360338616964914,11.37715409740252,0.8055889341478008,0.2250626175,0.1999575935,-0.14249062449999883
39142.0,-0.31342053400000003,0.246146915,11.1804635985,-0.5944067833517088,-0.349345103079185,0.4514887522229012,11.18756394450018,0.8241380457931329,0.16279038999999995,0.2513444395,-0.18671861600000028
39152.0,-0.22722008049999998,0.5047482755,11.059547604,-0.6618218710392418,-0.2744687328393763,0.4850619057142641,11.07339121460742,0.8652319496340212,0.08620045350000005,0.25860136050000004,-0.1209159944999989
39162.0,-0.37088750299999995,0.41972461999999994,10.888323495,-0.7372305667009088,-0.17960834266423248,0.5378214636728007,10.902720524175823,0.9300645096012906,-0.14366742249999997,-0.08502365550000007,-0.17122410900000062
39172.0,-0.5528008605,0.30243708599999997,10.827326132,-0.8187688586955799,-0.10686476477036079,0.6041719005166172,10.845646506826958,1.023145252294584,-0.18191335750000004,-0.11728753399999997,-0.06099736300000025
39182.0,-0.7562888479999998,0.059428299,10.707586935499998,-0.8853845855856994,-0.06289817558337166,0.6342805754427713,10.734426977050123,1.0909509124009615,-0.20348798749999986,-0.24300878699999998,-0.1197391965000012
39192.0,-0.8951510119999999,-0.275762998,10.563919513,-0.9197570998744757,-0.03731863006614275,0.6350799362401847,10.605363550698899,1.1183346227021485,-0.13886216400000007,-0.335191297,-0.1436674224999983
39202.0,-1.052057412,-0.5031792115,10.402305921,-0.9216228568448578,-0.014667747033760345,0.6134971947100227,10.46747259805831,1.1072410040180913,-0.1569064,-0.22741621350000002,-0.16161359200000014
39212.0,-1.2231834544999998,-0.6684212639999999,10.273054274,-0.8989737191417272,0.009580112264196876,0.578323574294581,10.3671890532622,1.068973190890849,-0.17112604249999985,-0.1652420524999999,-0.12925164700000025
39222.0,-1.3489047075,-0.819247541,10.180871763999999,-0.8627354478825691,0.024235641993193262,0.5372891382509424,10.30246865165639,1.0166510893410774,-0.12572125300000025,-0.15082627700000006,-0.09218251000000066
39232.0,-1.423141048,-0.8803429705,10.1293868515,-0.8219663018852335,0.03222924996732729,0.481065101727197,10.266684575633576,0.9529380662394287,-0.07423634049999994,-0.06109542950000002,-0.051484912499999425
39242.0,-1.4326534985,-0.8934838814999999,10.0001352045,-0.7985178033846897,0.035959018578839166,0.4288396145197707,10.14167213044993,0.907098202137414,-0.009512450499999936,-0.013140910999999922,-0.12925164700000025
39252.0,-1.5356233235,-0.7474628629999999,9.850485725499999,-0.8006488504013748,0.05168094448080409,0.40778745308221515,9.997445111203191,0.9000000603126374,-0.10296982500000018,0.14602101850000004,-0.1496494790000007
39262.0,-1.54160538,-0.8013013715,9.729569731,-0.8232979881045052,0.09804561606003347,0.41151896702297897,9.88347905274272,0.9256243191841801,-0.005982056499999944,-0.05383850850000016,-0.1209159944999989
39272.0,-1.6613445765,-1.1412979269999999,9.648174535999999,-0.8504780005458128,0.14361092684184942,0.4280402537223573,9.85646481438245,0.9628890831905192,-0.11973919649999987,-0.33999655549999985,-0.0813951950000007
39282.0,-1.8073655949999998,-1.4404988184999998,9.557168824,-0.8590039339418052,0.1659930291694247,0.43203705770942435,9.832653923052877,0.9757548173053285,-0.14602101849999993,-0.29920089149999995,-0.0910057119999994
39292.0,-1.9714308494999997,-1.6799772114999998,9.4697915725,-0.8384858432553598,0.15853174661714894,0.407522163035912,9.817627791483625,0.9456559297073138,-0.16406525449999987,-0.23947839299999996,-0.08737725149999953
39302.0,-2.026446156,-1.8751295464999997,9.296213867499999,-0.7923882070516856,0.11643091440054174,0.3622238876296512,9.69753510484101,0.8790002123277726,-0.055015306500000305,-0.19515233499999995,-0.17357770500000136
39312.0,-1.990553817,-1.9492678204999998,9.034082113,-0.7348324843086687,0.06873455660204068,0.3075985727007326,9.453919248588738,0.7995749503292714,0.035892339000000106,-0.07413827400000006,-0.2621317544999986
39322.0,-1.9653507264999999,-2.0032043955,8.621026015,-0.6559593100817929,0.04421966192852833,0.2575041325099914,9.066284844389756,0.7060781636927871,0.025203090500000025,-0.053936575000000264,-0.4130560980000002
39332.0,-1.9653507264999999,-1.9301448529999998,8.366053115,-0.5563027551221686,0.04928286208856388,0.22472859448678986,8.80788892724685,0.6020004128172705,0.0,0.07305954250000024,-0.2549729000000003
39342.0,-2.082736327,-1.8523781185,8.460687287499999,-0.5453787393339361,0.09111665892961597,0.17383479349863523,8.907992179979008,0.5796194874938925,-0.11738560050000024,0.07776673449999993,0.09463417249999928
39352.0,-2.1294159809999997,-2.1048993559999998,8.328983977999998,-0.5360516998112784,0.1465413346559479,0.11334691761226774,8.850818483327295,0.5671625087798996,-0.046679653999999626,-0.2525212374999999,-0.13170330950000064
39362.0,-2.1377516334999997,-2.1085278165,8.4738281985,-0.49261918137539956,0.18491239826104322,0.05445950864997906,8.990085424353872,0.5289915793016148,-0.008335652500000013,-0.003628460500000319,0.14484422050000134
39372.0,-2.1976702649999997,-2.1193151315,8.7539061225,-0.5267246602886206,0.18677640990217317,-0.004694935687864747,9.27103681482352,0.558879537533108,-0.059918631499999986,-0.010787314999999964,0.2800779240000004
39382.0,-2.1461853525,-2.3048569495,8.900025207499999,-0.5573691512951371,0.1619962251823577,-0.0595872859923384,9.440811713993632,0.5834841835394746,0.05148491249999987,-0.18554181799999991,0.1461190849999987
39392.0,-2.105487755,-2.313192602,8.841283374,-0.5397814684227903,0.14680837003150304,-0.1139455655457018,9.378285045773097,0.5708768020085422,0.040697597499999905,-0.008335652500000013,-0.058741833499999174
39402.0,-2.0779310685,-2.1168634689999997,8.6497594995,-0.5285904172590027,0.14627429928039276,-0.1653734372849667,9.144246708778955,0.5728458550146465,0.027556686500000094,0.19632913300000032,-0.19152387449999964
39412.0,-1.9641739285,-1.931321651,8.429502140499999,-0.5349853036383099,0.17265495092428707,-0.2072072341260188,8.868172803780638,0.599127569939656,0.11375713999999992,0.1855418179999997,-0.22025735900000143
39422.0,-1.8157993139999997,-1.757743946,8.3002504935,-0.5408478645957588,0.2382042816414381,-0.23252148959694455,8.676459484332852,0.6350778972334715,0.14837461450000022,0.17357770500000003,-0.12925164699999847
39432.0,-1.8241349665,-1.630845895,8.302604089499999,-0.5379174567816604,0.33386403261399533,-0.23864934060069665,8.655654878530475,0.6765898982048695,-0.008335652500000235,0.12689805099999996,0.0023535959999989586
39442.0,-2.016835639,-1.5542559584999998,8.5528697975,-0.5197974484874552,0.40874040285380403,-0.237317654381425,8.923839944343522,0.702550904533088,-0.1927006725,0.07658993650000023,0.2502657080000006
39452.0,-2.2551372339999998,-1.812857319,8.889237892499999,-0.4806270240849465,0.40714168125897726,-0.23944870139811006,9.348296417673268,0.6738711787132461,-0.2383015949999998,-0.25860136050000015,0.3363680949999992
39462.0,-2.407140309,-2.10254576,9.238746898499999,-0.43159898006717373,0.31014849873789635,-0.24584358777741727,9.775963757842495,0.585584187385271,-0.1520030750000001,-0.289688441,0.3495090059999999
39472.0,-2.4394041874999997,-2.2521952389999997,9.4087942095,-0.36924534721042435,0.13908005210367214,-0.2871450591966111,9.977398692108457,0.48799351670973284,-0.03226387849999979,-0.1496494789999998,0.17004731100000114
39482.0,-2.3305503725,-2.2269921485,9.394378434,-0.30902625202886397,-0.046111598837690185,-0.3494986920533605,9.93203429461683,0.4687993597877292,0.1088538149999998,0.025203090499999803,-0.014415775499999839
39492.0,-2.1317695769999996,-2.0223273629999996,9.151369647,-0.2727862354404537,-0.17481217787975203,-0.40518865782599556,9.611545968708374,0.5187961798352686,0.19878079550000027,0.20466478550000033,-0.24300878700000084
39502.0,-1.8516916529999998,-1.7853006324999998,8.7658702355,-0.26772478060967014,-0.22783877121384377,-0.43156930946988986,9.135455178140802,0.5566319544340298,0.28007792399999976,0.23702673049999978,-0.38549941149999967
39512.0,-1.5487642345,-1.6260406365,8.540807618,-0.2975681654895212,-0.19000003303060672,-0.43156930946988986,8.83108563956338,0.5575830830833628,0.30292741849999993,0.15925999599999985,-0.225062617499999
39522.0,-1.4565817245,-1.491983731,8.414007633499999,-0.36364982162853055,-0.09727243520139996,-0.40971778723492086,8.668516033919088,0.5563917546092434,0.09218251,0.13405690550000005,-0.12679998450000163
39532.0,-1.426671442,-1.464525111,8.3122146065,-0.4254693837341697,0.006382669074543264,-0.3718807943809358,8.559972947894162,0.5651196866054528,0.02991028249999994,0.02745861999999999,-0.10179302699999937
39542.0,-1.447069274,-1.5961303539999998,8.281127525999999,-0.46970300829671396,0.10124305924968706,-0.32791420519394665,8.556793481941114,0.5817205506230602,-0.020397832000000005,-0.13160524299999987,-0.031087080500000752
39552.0,-1.485315209,-1.7709829234999999,8.311037808499998,-0.517399366095215,0.15959814279011747,-0.3052650674908162,8.626464585201273,0.6215789834348951,-0.03824593499999995,-0.17485256950000005,0.029910282499999497
39562.0,-1.5356233235,-1.9025881664999997,8.239155064,-0.5610989199066491,0.18091559427397622,-0.3111276284482652,8.594280475503453,0.6666054690412883,-0.05030811450000017,-0.13160524299999987,-0.0718827444999981
39572.0,-1.6038776074999999,-1.9828065635,8.1039213605,-0.5717576456485784,0.17345431172170045,-0.330579322961742,8.495733438924903,0.6828439736735603,-0.06825428399999978,-0.08021839700000033,-0.13523370350000086
39582.0,-1.5834797754999999,-2.070183815,7.996146276999999,-0.5714906102730233,0.1481400562507747,-0.35962334704417964,8.41019764990612,0.6912857192474569,0.020397832000000005,-0.08737725149999997,-0.10777508349999998
39592.0,-1.4494228699999998,-2.219833294,7.865717832,-0.5552363589492001,0.11829667137092366,-0.3929312104892394,8.300482125869117,0.6904175931515246,0.13405690550000005,-0.1496494789999998,-0.13042844499999973
39602.0,-1.3632224165,-2.3503598054999997,7.7316609265,-0.4947502283920846,0.10017666307671853,-0.4163797089897832,8.19519049531644,0.6543586282594758,0.08620045349999983,-0.13052651149999983,-0.1340569054999996
39612.0,-1.3955843614999999,-2.3228031189999996,7.6657602385,-0.43293066628644544,0.06074094862790665,-0.4491552470129847,8.13061806223039,0.6267845407879321,-0.03236194499999989,0.027556686500000094,-0.06590068800000015
39622.0,-1.402743216,-2.209045979,7.5831882455,-0.37937174753049546,0.009580112264196876,-0.4803320634413594,8.021989568309065,0.6121548762732931,-0.007158854500000089,0.1137571399999997,-0.08257199300000018
39632.0,-1.354886764,-2.057042904,7.379700257999999,-0.3455315586635774,-0.029857347513866997,-0.5120394599623405,7.779917708439106,0.6184399144553739,0.047856451999999994,0.1520030750000001,-0.20348798750000086
39642.0,-1.26505785,-1.8798367384999999,7.151009179999999,-0.32634515419640375,-0.05144008904402887,-0.5314928998050692,7.501405856218232,0.6258050375089143,0.08982891399999993,0.1772061654999999,-0.22869107799999977
39652.0,-1.0364648385,-1.835608747,6.9008415385,-0.3162204992055846,-0.04051607325579637,-0.5301594682565456,7.215631141694868,0.6186323771772387,0.2285930115000001,0.0442279914999999,-0.25016764149999915
39662.0,-0.812579019,-1.98878862,6.702060743,-0.3212836993656202,0.01917244183315771,-0.5117741699160373,7.037981460619388,0.6045689365135734,0.22388581949999997,-0.15317987300000002,-0.19878079550000027
39672.0,-0.6881326305,-2.1851177529999997,6.6146834915,-0.33034195818347073,0.11350050658644324,-0.5013824795496631,7.00016455551991,0.6110585611307949,0.1244463885,-0.19632913299999966,-0.08737725149999953
39682.0,-0.6461601685,-2.4090035725,6.632629661,-0.34020132312798673,0.20809386138603192,-0.5043128873637616,7.086084771977449,0.6429397201649281,0.04197246199999993,-0.22388581950000042,0.017946169500000053
39692.0,-0.6700883945,-2.4556832265,6.653027493,-0.344732197866164,0.281638545406569,-0.5208341740631398,7.123354082731737,0.6851487396006776,-0.023928225999999997,-0.04667965400000007,0.02039783199999956
39702.0,-0.8089505584999999,-2.404198314,6.721281777,-0.3391366722842702,0.3221406560283494,-0.5490788373481641,7.184023890896395,0.7213015003298104,-0.13886216399999984,0.05148491250000031,0.068254284
39712.0,-0.9514411829999999,-2.2581772955,6.710494462,-0.31861858159782486,0.31814385204128237,-0.5759918144139167,7.143902361255562,0.7310949879481536,-0.14249062450000005,0.14602101849999993,-0.010787314999999964
39722.0,-0.9203541024999999,-2.2126744394999998,6.568003837499999,-0.29330432612689905,0.28616767481549427,-0.598640952117047,6.991541622462098,0.7254587206627717,0.031087080499999975,0.04550285600000015,-0.1424906245000006
39732.0,-0.7874739949999999,-2.24376152,6.442380651,-0.2562666940703274,0.26351853711236384,-0.6159598542845868,6.867230118746069,0.7173013174265501,0.1328801075,-0.031087080500000308,-0.12562318649999948
39742.0,-0.5899680639999999,-2.2952464325,6.281943857,-0.21150074408592484,0.2667159803020175,-0.6279520115750398,6.714092427494868,0.7142784525228973,0.19750593100000002,-0.05148491249999987,-0.16043679399999977
39752.0,-0.32293298449999996,-2.382623684,6.107189353999999,-0.17552776287306973,0.3064187301263845,-0.6258192192291028,6.563455121934386,0.7185764600013101,0.26703507949999994,-0.08737725149999997,-0.17475450300000084
39762.0,-0.1146397385,-2.44970117,5.945575762,-0.15074757815325424,0.3975493516900164,-0.6087656071078662,6.431488881559588,0.7425401563185878,0.20829324599999996,-0.06707748600000007,-0.16161359199999925
39772.0,-0.038049802,-2.413808831,5.9276295925,-0.13156117368608056,0.5227854521668694,-0.580787979198397,6.400368227370011,0.7924188590640273,0.07658993650000001,0.035892339000000106,-0.017946169500000053
39782.0,-0.024908891,-2.2892643759999998,5.9766628425,-0.11051075757777697,0.6445605647370178,-0.5384201116062347,6.4001445740696905,0.8470933630578084,0.013140911000000002,0.12454445500000011,0.04903324999999992
39792.0,-0.10865768199999999,-2.0869531864999997,6.161027862499999,-0.08146673349533932,0.7221003074153699,-0.49738567556259605,6.505800828260993,0.8806010407049452,-0.08374879099999999,0.20231118950000004,0.18436501999999955
39802.0,-0.34215401849999993,-1.9133754815,6.4052134474999995,-0.037500144308350164,0.7319596723598859,-0.4611456589741858,6.693641341871842,0.8659252517250404,-0.23349633649999996,0.1735777049999998,0.24418558500000032
39812.0,-0.45110589999999995,-1.999575935,6.5225009814999995,0.004600687908257053,0.6517548119137384,-0.44196099983626413,6.837018319890213,0.7874865246835732,-0.10895188150000001,-0.08620045350000005,0.11728753399999992
39822.0,-0.277528195,-2.472452598,6.6123298955,0.046169194703006004,0.5214537659475978,-0.44702419999629966,7.064909793854409,0.6883867081392463,0.17357770499999997,-0.47287666299999986,0.08982891400000081
39832.0,-0.033244543499999994,-2.9979909714999997,6.606347839,0.09493194867447556,0.42019848939314686,-0.46407781211753624,7.254852640455766,0.6332038068957064,0.24428365149999998,-0.5255383734999999,-0.00598205650000061
39842.0,0.1642613875,-3.3546588319999997,6.4603268205,0.14182894567556323,0.34692084074816487,-0.49285480082441874,7.281245793832994,0.6191731375572852,0.197505931,-0.3566678605,-0.14602101849999993
39852.0,0.239674526,-3.4193827219999995,6.303518487,0.1780672169347215,0.3133476872568019,-0.5416175547958884,7.175232915653416,0.6505722730943433,0.0754131385,-0.06472388999999978,-0.1568083334999999
39862.0,0.227710413,-3.2852277500000002,6.117878602499999,0.21137508037978128,0.3197425736361092,-0.5994403129144604,6.9478782370221515,0.7115078543122261,-0.011964112999999998,0.13415497199999926,-0.18563988450000046
39872.0,0.17740229849999997,-2.9812215999999996,5.9970606745,0.25187719100156164,0.37649893558171277,-0.6537985924678238,6.69954405444535,0.7953905753489335,-0.05030811450000003,0.30400615000000064,-0.12081792799999924
39882.0,0.127094184,-2.509521735,6.006573125,0.28891656838738533,0.4817510161232308,-0.6927019814947774,6.510973274097837,0.891848002852111,-0.05030811449999997,0.4716998649999997,0.009512450499999936
39892.0,0.139058297,-2.045078791,6.0233424965,0.3065025059304802,0.6021926971448556,-0.7078898366456321,6.362573323860827,0.9786152724449172,0.011964112999999998,0.46444294399999997,0.016769371499999686
39902.0,0.18103075899999999,-2.0414503305,6.2771385985,0.2929133723744523,0.6973183773663025,-0.7081568720211872,6.603238642695054,1.0361164599210746,0.04197246199999999,0.003628460499999875,0.2537961019999999
39912.0,0.2468333805,-2.4173392249999996,6.6817609775,0.2657333599331447,0.7500779353248391,-0.6873717459591867,7.109879422809813,1.0515279572058522,0.06580262150000002,-0.3758888944999996,0.4046223790000001
39922.0,0.2803721235,-2.8315721209999998,7.038526904499999,0.254542308769357,0.7543417746874611,-0.6729832516057456,7.591921376662873,1.042463312032661,0.03353874300000001,-0.41423289600000013,0.35676592699999965
39932.0,0.3150876645,-3.0817397624999994,7.2827124895,0.27239528168800703,0.7282281584191221,-0.6855077343180568,7.914183558953691,1.0365501888525563,0.03471554099999996,-0.2501676414999996,0.24418558500000032
39942.0,0.219276694,-3.1943201045,7.5520030985,0.32728588666322866,0.6821305222154478,-0.7188155977631165,8.202713819114871,1.043606230593897,-0.09581097049999998,-0.11258034200000067,0.26929060900000046
39952.0,0.10081236199999999,-2.9979909714999997,7.785499435,0.3984324882915255,0.6101863051189895,-0.7523887512544796,8.343387468523373,1.047456255743034,-0.118464332,0.19632913300000032,0.2334963365
39962.0,0.06246836049999999,-2.4365602589999997,7.8956281145,0.44106564592999103,0.5379750526469761,-0.7835655676828543,8.263272445846411,1.0478220555744715,-0.038344001499999995,0.5614307125,0.11012867949999983
39972.0,0.20976424349999997,-1.8691474899999998,7.9662359945,0.4423990774785147,0.49347613803812873,-0.8123443017189887,8.185269042450091,1.0483982578687254,0.147295883,0.5674127689999999,0.07060787999999985
39982.0,0.5916351945,-1.559061217,8.040472334999999,0.40749249243862806,0.47882060830913237,-0.8211372704905362,8.211571070850262,1.0342077757027457,0.381870951,0.3100862729999998,0.07423634049999883
39992.0,0.9004466029999999,-1.4752143595,8.184139757499999,0.36432526404905236,0.47402444352465195,-0.7992874935848192,8.364640163307765,0.9981445629188039,0.3088114084999999,0.08384685749999998,0.14366742250000009
40002.0,1.0524496779999999,-1.7290104615,8.435484197,0.3470046165522606,0.422596571785387,-0.7491913080648259,8.674936376627523,0.9275169445747221,0.152003075,-0.2537961019999999,0.2513444395000004
40012.0,1.1841529874999999,-1.8966061099999998,8.595920991,0.36512462484646574,0.32640275006171954,-0.7049594288315336,8.881958720789516,0.858383680655456,0.13170330949999998,-0.16759564849999986,0.16043679400000066
40022.0,1.1052094549999998,-1.8870936594999999,8.7264475025,0.4181512181805575,0.22354875191244172,-0.675915404749096,8.996304598724688,0.8256428526455182,-0.07894353250000008,0.009512450499999936,0.1305265114999994
40032.0,1.0549013404999998,-1.7769649799999998,8.7299778965,0.4978220078755946,0.10417346706378555,-0.646070274539993,8.971228201963969,0.8222442839020287,-0.050308114499999945,0.11012867950000005,0.0035303940000002143
40042.0,0.9902755169999999,-1.3938191645,8.718013783499998,0.5753634958831987,0.023701571242082997,-0.5975745559440786,8.88409487748713,0.8298796700643063,-0.0646258234999999,0.3831458154999998,-0.01196411300000122
40052.0,1.1087398489999998,-1.1723850075,8.666528870999999,0.609737755501227,-0.009072221451866525,-0.5285607466617188,8.815470113978485,0.8069937413619386,0.11846433199999984,0.22143415700000002,-0.051484912499999425
40062.0,1.4056852109999998,-1.375872995,8.6809446465,0.6102700809230852,0.006647959120846402,-0.4550178079704337,8.900998672418247,0.7612588078968675,0.296945362,-0.20348798749999997,0.014415775500001615
40072.0,1.6402602789999998,-1.859536973,8.8688400605,0.6014771121515379,0.05141390910524896,-0.4014588892144837,9.208944323620857,0.7249740314114455,0.23457506800000005,-0.48366397800000005,0.18789541399999976
40082.0,1.6246677055,-2.2377794635,9.160980164,0.6132004887371838,0.07752752537358812,-0.3748129475242863,9.569261185993328,0.7228486025509884,-0.015592573499999762,-0.3782424904999999,0.2921401034999995
40092.0,1.4344186955,-2.1455969535,9.393201636,0.6736883646235512,0.04421966192852833,-0.3676169550183136,9.741323331838519,0.7687350757882491,-0.19024901000000005,0.09218250999999977,0.23222147200000087
40102.0,1.200922359,-1.8726778839999998,9.508135573999999,0.7392376953407024,-0.05730265000147783,-0.37960911230876665,9.764925963013397,0.8329820178477293,-0.2334963365,0.27291906950000033,0.11493393799999829
40112.0,1.0261678559999998,-1.6140765234999999,9.498525057,0.7808062021354512,-0.17081537389268506,-0.3985267360711332,9.689181686337518,0.8931180082244425,-0.17475450300000017,0.25860136049999993,-0.009610516999998708
40122.0,1.1614015594999998,-1.411765334,9.303372721999999,0.808251504623062,-0.22090981408342628,-0.40012545766596,9.4812804486075,0.9285321871406567,0.13523370349999997,0.20231118949999982,-0.1951523350000013
40132.0,1.430790235,-1.3052651149999999,9.210013413999999,0.8143793556268141,-0.15962432272889737,-0.3769439945409713,9.411441165043069,0.9114715762426757,0.2693886755000001,0.10650021900000017,-0.09335930800000014
40142.0,1.7503889585,-1.3471395105,9.181279929499999,0.7909308571262703,-0.019997982569351026,-0.31885420104684403,9.44322760027674,0.853017902266161,0.3195987235000002,-0.04187439550000005,-0.028733484500000017
40152.0,1.9503465519999998,-1.441773683,9.312983239,0.7392376953407024,0.12735667551802624,-0.25277254490783474,9.623628205400735,0.7915718871150114,0.19995759349999975,-0.09463417250000017,0.13170330950000064
40162.0,1.9671159234999998,-1.5315045305,9.541674316999998,0.6992679101407802,0.2040970573989649,-0.19974595157374303,9.861977487052314,0.7553341407361848,0.016769371499999908,-0.08973084749999982,0.22869107799999888
40172.0,1.7420533059999999,-1.4668787069999998,9.9103062905,0.6918066275885043,0.1891744922944134,-0.15791215473269096,10.168611194923296,0.7343838554343022,-0.2250626174999999,0.06462582350000012,0.3686319735000012
40182.0,1.4666825739999998,-1.3076187109999997,10.051620116999999,0.7277796088013595,0.0929824158999979,-0.13153150308879666,10.241879292527893,0.7453921283180136,-0.27537073200000006,0.15925999600000007,0.14131382649999935
40192.0,1.1925867065,-1.0466637545,10.111440682,0.8013242928218965,-0.03411944154723715,-0.10008939661411882,10.235184450370651,0.8082713936992861,-0.2740958674999998,0.2609549564999998,0.05982056500000077
40202.0,0.9040750634999999,-0.7426576045,10.064761027999998,0.8945859614022136,-0.15243007555217675,-0.0689125801857441,10.132537026268977,0.9100922557513725,-0.2885116430000001,0.30400615,-0.04667965400000185
40212.0,0.8944645465,-0.7941425169999999,9.984542631,0.9793199512572863,-0.24569174413249376,-0.03960152072775134,10.055934601642402,1.010445585130338,-0.00961051699999993,-0.05148491249999998,-0.08021839699999767
40222.0,1.2105328759999998,-1.1220768929999998,9.923545267999998,1.048068470493343,-0.2590138423129665,0.0001012290966156711,10.059880570052833,1.0795997867725389,0.31606832949999986,-0.32793437599999986,-0.060997363000002025
40232.0,1.4655057759999999,-1.2765316305,10.0109225195,1.0845737771280564,-0.17081537389268506,0.033409092541675456,10.197833587315914,1.0984508807663522,0.25497290000000006,-0.15445473750000027,0.08737725150000131
40242.0,1.418826122,-1.0466637545,10.076725140999999,1.068319525804233,-0.07009242276009227,0.053393112477010535,10.229807532241994,1.0719470049414495,-0.04667965399999985,0.22986787600000014,0.0658026214999996
40252.0,1.3146794990000001,-0.67077486,10.180871763999999,1.0411395133629255,-0.0008115781021773632,0.07577521480458581,10.287296582334513,1.043893686216794,-0.10414662299999988,0.37588889449999996,0.1041466230000001
40262.0,1.313502701,-0.474445727,10.159297134,1.0033025205089403,0.0532796660756309,0.10215586644848011,10.254838192302374,1.0098962776080338,-0.0011767980000001454,0.196329133,-0.021574629999999928
40272.0,1.1374733334999998,-0.32479624799999995,10.156943537999998,0.9569378489297109,0.11110242419420305,0.11681139617747649,10.22559730388687,0.9704219173395571,-0.1760293675000002,0.14964947900000003,-0.002353596000000735
40282.0,0.7783538105,-0.12493672099999999,10.2813899265,0.9246963816576197,0.15986517816567258,0.13439733372057136,10.311567420102035,0.9479888800781553,-0.35911952299999983,0.19985952699999998,0.12444638850000089
40292.0,0.5700605645,-0.0518771785,10.5004704875,0.9156363775105172,0.21049194377827213,0.14825350265215434,10.516061085202276,0.9511445396283206,-0.208293246,0.07305954249999999,0.21908056100000017
40302.0,0.436003659,-0.16445752049999998,10.897934012,0.9284261502691316,0.27124510971094273,0.18422648386500948,10.90789215186036,0.9846260322594188,-0.1340569055,-0.11258034199999997,0.3974635245000009
40312.0,0.322246519,-0.290080707,11.383951586,0.9340216758510255,0.31760978129017214,0.22845836309830175,11.392205376834337,1.0126527972608896,-0.11375713999999998,-0.1256231865,0.4860175739999999
40322.0,0.19652526599999998,-0.310478539,11.868792361999999,0.9143029459619935,0.30828448709676637,0.2668294267033971,11.874478987965134,1.001092975169719,-0.12572125300000003,-0.020397832000000005,0.48484077599999864
40332.0,0.060114764499999994,-0.185934084,12.180055432999998,0.8764659531080083,0.24033532865812318,0.2988056039291852,12.181622864768741,0.9566809426858166,-0.13641050149999998,0.124544455,0.31126307099999906
40342.0,0.046973853499999996,0.010395048999999998,12.30930708,0.8386289602540233,0.13694900508698704,0.3193219492863785,12.309401097928951,0.9077555123859685,-0.013140910999999998,0.196329133,0.12925164700000202
40352.0,0.191818074,0.1791674955,12.254291773499999,0.8047870260578533,0.031162853794358757,0.31772322769155176,12.257102513849942,0.8657952010622316,0.1448442205,0.1687724465,-0.055015306500001415
40362.0,0.35460846399999996,0.3515684025,12.087872922999999,0.8013242928218965,-0.04238008489692631,0.3012036863214254,12.098182479487296,0.8571116348037745,0.16279038999999995,0.172400907,-0.1664188504999995
40372.0,0.36657257699999996,0.5730025595,12.091501383499999,0.8362308778617832,-0.05970073239371804,0.3052004903084924,12.110619847661983,0.892184733013505,0.011964112999999998,0.22143415700000002,0.003628460499999875
40382.0,0.41325223099999997,0.796888379,12.894666018499999,0.8277031991365389,-0.026659904324213387,0.36888406405526153,12.925874060336126,0.9065753079989347,0.046679654000000015,0.22388581949999997,0.8031646349999999
40392.0,0.19299487199999998,1.1188406985,13.949371225999998,0.651571552342279,0.09857794148189174,0.508777439590363,13.995499602729263,0.8325368348635753,-0.22025735899999999,0.3219523194999999,1.0547052074999996
40402.0,-0.23075047449999997,0.4245298785,14.365957717999999,0.43840227349144767,0.21928491254981955,0.6521335483614212,14.374081276888097,0.8158189696083993,-0.42374534649999995,-0.6943108199999999,0.4165864920000004
40412.0,-0.800614906,0.165928518,14.410283776,0.35659694612122145,0.3192085028849989,0.8184075755404171,14.433460950362663,0.9480751077836646,-0.5698644315,-0.25860136050000004,0.04432605800000111
40422.0,-1.399212822,0.013925443,14.1528592135,0.33234908682326425,0.33333170719213706,0.905806683163285,14.221863955064533,1.0208093307739472,-0.598597916,-0.152003075,-0.2574245625000007
40432.0,-1.919945937,-0.2327118045,13.700380382499999,0.38937248414442294,0.21768619095499275,0.9108698833233206,13.836212263844006,1.0142396923246162,-0.5207331150000001,-0.24663724750000002,-0.4524788310000005
40442.0,-2.1689367804999997,-0.30331968449999996,13.5387667905,0.5218045771272487,-0.017599900177110817,0.8343947914886851,13.714754675033621,0.9842786400509956,-0.24899084349999967,-0.07060787999999996,-0.16161359199999836
40452.0,-2.0036947279999997,-0.40864310549999994,13.6297725025,0.5756305312587539,-0.26780855641376594,0.7035614201006862,13.78232492073064,0.9476658711063487,0.16524205250000001,-0.10532342099999997,0.0910057119999994
40462.0,-1.70439577,-0.357158193,13.602215816,0.5870868724688446,-0.45619765054478184,0.5732621194637976,13.713234557195522,0.9388379784605828,0.2992989579999996,0.051484912499999924,-0.027556686500000538
40472.0,-1.4650154434999998,-0.08776951749999999,13.520820621,0.5652370955631276,-0.5406646050242994,0.49811871384843365,13.600241321504356,0.927325963409167,0.2393803265000003,0.2693886755,-0.08139519499999892
40482.0,-1.4530513305,0.31077273850000003,13.2981115995,0.5015535218163585,-0.518015467321169,0.5034489493840244,13.380871047014057,0.8794070754015113,0.011964112999999887,0.39854225600000004,-0.22270902150000005
40492.0,-1.5320929295,0.565843705,13.0288209905,0.40642609626565956,-0.44687061102212416,0.5599382759540728,13.130790693846484,0.823654288885482,-0.07904159900000018,0.2550709665,-0.26929060900000046
40502.0,-1.6649730369999998,0.5633920425,12.746291403999999,0.32808699278989406,-0.3469470206869448,0.6321495284260862,12.866914562674829,0.7922287146340925,-0.13288010749999968,-0.0024516625000000625,-0.2825295865000008
40512.0,-1.8098172574999998,0.5143587924999999,12.703142144,0.25054550478229,-0.26008023848593503,0.6979658945187923,12.841721995263555,0.78585696556621,-0.1448442205,-0.04903325000000003,-0.043149259999999856
40522.0,-2.1963954004999997,0.1911316085,12.620570150999999,0.1495555182741421,-0.2219762102563948,0.6699865212800713,12.8116929007613,0.7214722653456679,-0.38657814299999993,-0.32322718399999995,-0.08257199300000018
40532.0,-2.107841351,-0.159652262,12.596641924999998,0.08080874436733745,-0.21851173169118607,0.6129648692881645,12.772778546284082,0.6557464151898683,0.0885540494999999,-0.3507838705,-0.023928226000000663
40542.0,-2.048020786,0.061781894999999996,12.502105819,0.015526449025741554,-0.21824644164488294,0.540486581440596,12.668893244948887,0.58309375286256,0.05982056499999988,0.221434157,-0.09453610599999784
40552.0,-2.1581494654999998,0.12170052649999999,12.424241018,-0.05934992121406718,-0.23450069296870613,0.4573495678510981,12.610875663765066,0.5173795660484724,-0.11012867949999983,0.05991863149999999,-0.07786480100000048
40562.0,-2.2299341435,0.12405412249999999,12.285378854000001,-0.1107777929533321,-0.25501703832589945,0.41951257499711303,12.486734132509058,0.503285415871385,-0.07178467800000021,0.0023535959999999995,-0.13886216399999896
40572.0,-2.2299341435,0.17073377649999996,12.111801149,-0.15980583697110481,-0.2688732072574825,0.40912088463073876,12.316553226438911,0.5149860244239631,0.0,0.04667965399999997,-0.17357770500000136
40582.0,-2.2503319755,0.12650578499999998,11.8987026445,-0.2075039400988578,-0.2813976899697938,0.4107196062255656,12.110289936076159,0.5393821836276854,-0.020397832000000005,-0.04422799149999998,-0.21309850449999956
40592.0,-2.2083595135,0.0677639515,11.646181407,-0.2575983802895991,-0.2909900195387546,0.40912088463073876,11.853901680828189,0.5642800858084821,0.04197246199999993,-0.05874183349999998,-0.2525212374999999
40602.0,-2.1138234075,0.082179727,11.376792731499998,-0.30236433027400167,-0.28939129794392776,0.3955317510747109,11.571793973327381,0.5758618563995569,0.09453610600000006,0.014415775499999992,-0.2693886755000019
40612.0,-2.0420387294999998,0.070215614,11.030814119499999,-0.3351381229679512,-0.2824640861427623,0.3734149387934388,11.218454106702398,0.5757970457904895,0.07178467800000021,-0.011964112999999998,-0.3459786119999997
40622.0,-1.875619879,0.039030467,10.739948880499998,-0.35352516663771144,-0.2723376858226912,0.3486330087443713,10.902567370285192,0.5662974777902806,0.16641885049999972,-0.031185146999999996,-0.2908652390000004
40632.0,-1.7798089085,0.0881617835,10.429862607499999,-0.34499748791246715,-0.24702343035176544,0.32758259263606776,10.58099835848076,0.536054285317107,0.09581097050000009,0.049131316499999994,-0.3100862729999996
40642.0,-1.6673266329999998,0.06541035549999999,10.205976788000001,-0.32634515419640375,-0.22437429264863504,0.32438514944641406,10.341480494248033,0.5119284208269963,0.11248227550000012,-0.022751428000000004,-0.22388581949999775
40652.0,-1.6409467444999999,0.010395048999999998,10.031222284999998,-0.30236433027400167,-0.2017251549455046,0.3414387615676507,10.16455777721832,0.49869595372399445,0.02637988849999995,-0.05501530649999999,-0.17475450300000261
40662.0,-1.6744854875,-0.11532620399999999,9.892360121,-0.2671907098585599,-0.18573793899723653,0.3694181348063718,10.033742599086757,0.49229992458000743,-0.03353874300000004,-0.12572125299999998,-0.13886216399999896
40672.0,-1.7857909650000001,-0.20397832,9.7486926985,-0.233617556367197,-0.1830728212294412,0.389669190117262,9.913004885275345,0.48983149984717217,-0.1113054775000002,-0.088652116,-0.14366742250000009
40682.0,-1.9259279935,-0.3044964825,9.577566655999998,-0.20963498711554293,-0.1977283509584376,0.38700407234946665,9.774031910840316,0.48250956530492545,-0.14013702849999987,-0.10051816250000001,-0.17112604250000096
40692.0,-2.0347818085,-0.39422733,9.430270773,-0.19444713196468827,-0.22783877121384377,0.35529493049923366,9.655348727416296,0.4647092428992374,-0.10885381500000002,-0.08973084749999999,-0.14729588299999818
40702.0,-2.0432155275,-0.485233042,9.260321528499999,-0.17925927681383358,-0.24036150859690306,0.2940094391447048,9.495458683395249,0.4199393925853844,-0.008433719000000117,-0.09100571200000002,-0.16994924450000148
40712.0,-1.9606435345,-0.46728687249999995,9.119007702,-0.15421031138921099,-0.23556534381242267,0.22526091990864813,9.339099611832117,0.360575003823494,0.08257199300000018,0.017946169500000053,-0.14131382649999935
40722.0,-1.8002067405,-0.38589167750000003,9.04957662,-0.1326275698590491,-0.2139826022822608,0.14772117723029607,9.234960405792545,0.2918906859913651,0.160436794,0.08139519499999992,-0.06943108199999948
40732.0,-1.5942670904999998,-0.34637087799999994,8.971809885499999,-0.13156117368608056,-0.17721026027199224,0.08190481113758989,9.118938148848985,0.23541498859420687,0.20593965000000014,0.03952079950000009,-0.07776673450000082
40742.0,-1.3716561354999999,-0.24467591749999998,8.950235255499999,-0.14941414660473057,-0.12871454167607782,0.035273104182805395,9.058036099920026,0.20034024139746298,0.22261095499999994,0.10169496049999996,-0.021574629999999928
40752.0,-1.2316171735,-0.15249340749999998,8.8915914885,-0.16726711952338055,-0.07089178355750568,0.009693558665576507,8.977780031820602,0.18192828072956682,0.14003896199999977,0.09218251,-0.058643766999999514
40762.0,-1.146593518,-0.060310897499999995,8.824612068999999,-0.17579479824862487,-0.01253670001707527,0.007028440897781165,8.898993890784357,0.17638134515885306,0.08502365550000013,0.09218251,-0.06697941950000086
40772.0,-0.9981208369999999,0.004314926,8.795878584499999,-0.18911689642909757,0.046884779696323674,0.018219492061568806,8.85232985699842,0.19569193384789366,0.1484726810000001,0.0646258235,-0.028733484500000017
40782.0,-0.9203541024999999,0.023535959999999998,8.8005857765,-0.20057498296844037,0.1177626006198134,0.03314205716612032,8.848610943246166,0.23493988561062637,0.07776673449999993,0.019221033999999998,0.00470719200000147
40792.0,-0.9083899894999999,-0.005197524499999999,8.835301317499999,-0.20430649690920422,0.1838460020880747,0.0555241594936956,8.881877546909886,0.2803986973053912,0.011964112999999998,-0.028733484499999996,0.03471554099999885
