timestamp,ax,ay,az,gx,gy,gz,acc_mag,gyro_mag,dax,day,daz
145972.0,0.6659696015,1.4916895314999998,9.557855289499999,0.501975891495341,-0.05567076715086313,0.6849143223723787,9.696455584569646,0.8509915739585926,0.0,0.0,0.0
145982.0,1.130510612,1.77892631,9.976893444,0.48545635012521476,0.011744320536669845,0.8112185643514523,10.19710919100041,0.9454529898890767,0.46454101049999996,0.28723677850000007,0.4190381545000008
145992.0,1.201118492,2.0051657255,10.2066632535,0.47000145959880496,0.1233930327867471,0.9511101945573018,10.470881051224463,1.0680532827327234,0.07060788000000007,0.22623941550000004,0.22976980950000048
146002.0,1.074220441,2.227874747,10.326402449999998,0.4228374272221622,0.22251726232451305,1.0846086837130962,10.618472724622336,1.185192566074437,-0.12689805099999996,0.22270902150000005,0.11973919649999765
146012.0,1.0287175849999999,2.086658987,10.4832107835,0.35755338655131436,0.2952608402183847,1.2098465295192014,10.738254696597897,1.2956666288017284,-0.04550285600000015,-0.14121576000000013,0.15680833350000256
146022.0,0.916137243,1.8220755699999998,10.671204264,0.28960597344192307,0.3514848767421301,1.3148315746851642,10.864339247041867,1.391472352661289,-0.11258034199999989,-0.2645834170000001,0.18799348049999942
146032.0,0.7138260535,1.5778899849999999,10.831542991500001,0.22885280750925246,0.3922540227394656,1.3785168937611851,10.96912065829032,1.4513943820496022,-0.20231118950000004,-0.24418558499999987,0.160338727500001
146042.0,0.4564995575,1.4138247304999998,10.9225487035,0.18915005768488546,0.4039773993251115,1.4096919648603081,11.02312852120035,1.4785827400857188,-0.25732649599999996,-0.1640652545000001,0.0910057119999994
146052.0,0.22908334399999997,1.3395883899999999,11.057782407,0.18275342597632624,0.3954514659291192,1.4240822045430013,11.1409841573211,1.489224899707102,-0.22741621350000002,-0.07423634049999994,0.13523370349999908
146062.0,0.055505638999999996,1.2390702274999998,11.2553864045,0.20833471682280713,0.36693976726853983,1.4270126123570996,11.32351972750704,1.4880904350418234,-0.17357770499999997,-0.10051816250000001,0.1976039974999999
146072.0,-0.081002929,1.2031778885,11.529482272,0.2624259610006154,0.30938404452552287,1.4203506906022374,11.59237507874224,1.477153328638676,-0.136508568,-0.035892338999999884,0.2740958674999998
146082.0,-0.172008641,1.1827800565,11.7341470575,0.3215804053384592,0.22784575253085176,1.401698356886174,11.794861711850153,1.4560514852646516,-0.09100571199999999,-0.020397832000000005,0.20466478550000033
146092.0,-0.30008348999999995,1.1912137754999998,11.9053711665,0.3604837943654128,0.12659047597640072,1.3827807331238076,11.968579822687449,1.4345927193829027,-0.12807484899999996,0.008433718999999895,0.17122410900000062
146102.0,-0.440122452,1.2581931949999998,12.050215387,0.38926252840154735,0.018673277667087332,1.3707885758333545,12.123714313765001,1.4251088824899079,-0.14003896200000004,0.06697941949999997,0.14484422049999957
146112.0,-0.5490743334999999,1.29055514,12.152008413999999,0.40338573270868544,-0.07805286947843841,1.3753194505715316,12.232674429045174,1.435380051034262,-0.1089518814999999,0.032361945000000114,0.10179302699999937
146122.0,-0.673520722,1.3096781075,12.1938828095,0.39112828537192923,-0.15852476530014098,1.3931724234901817,12.282494245064713,1.4556925631481932,-0.12444638850000012,0.019122967499999977,0.041874395500000716
146132.0,-0.7669780964999999,1.2833962854999998,12.238208867499997,0.34955977857718035,-0.21687984884057138,1.4214170867752058,12.329197772389797,1.479748438826191,-0.09345737449999991,-0.026281822000000066,0.04432605799999756
146142.0,-0.9477146559999999,1.189938911,12.3219576585,0.2864085302522695,-0.25631556328938326,1.4488623892628167,12.41550475087404,1.4989762297001166,-0.1807365595,-0.0934573744999998,0.08374879100000321
146152.0,-1.1619899585,1.0128308119999998,12.4033528535,0.21925873261103965,-0.2933549406752069,1.4597881503803014,12.498768296348965,1.5050292213227936,-0.21427530250000004,-0.17710809900000024,0.08139519499999892
146162.0,-1.4313786339999999,0.8116964204999999,12.4716071375,0.15903963742947927,-0.32932792188806204,1.4488623892628167,12.579693178494663,1.494306765503378,-0.2693886754999999,-0.2011343914999999,0.068254284
146172.0,-1.679094613,0.6153672874999999,12.500340622,0.10628007947094271,-0.3671649147420471,1.4166209219907255,12.62761067201369,1.467283328649153,-0.24771597900000009,-0.196329133,0.028733484500000017
146182.0,-1.8514955199999998,0.48846923649999996,12.490730104999999,0.06257878033025668,-0.40073981356266203,1.3659924110488741,12.636652104554443,1.4249364087442555,-0.17240090699999988,-0.12689805099999996,-0.009610517000000485
146192.0,-2.003498595,0.38549941149999994,12.483571250499999,0.028738591463338632,-0.43191488466178474,1.3068379667110301,12.649196321614426,1.3766633014172778,-0.1520030750000001,-0.10296982500000001,-0.007158854500000089
146202.0,-2.0981327675,0.30175062049999996,12.481217654499998,-0.0027035150113392165,-0.46282466571460434,1.2476835223731864,12.65993715174099,1.3307622448013818,-0.09463417250000017,-0.08374879099999999,-0.002353596000000735
146212.0,-2.210615043,0.25742456249999995,12.477589193999998,-0.036011378456399,-0.4924027605481522,1.1978543722287482,12.67451452198236,1.2956127488726326,-0.11248227549999967,-0.044326058,-0.003628460499999875
146222.0,-2.3662465784999998,0.24546044949999998,12.544666679999999,-0.05919458691063968,-0.5353029535621728,1.157352261606968,12.768243254842613,1.276525561302503,-0.15563153549999997,-0.01196411299999997,0.06707748600000052
146232.0,-2.4775520559999995,0.25389416849999996,12.5973283905,-0.07011860269887218,-0.5899282684910914,1.1208469549722546,12.841160734804523,1.2685542467233772,-0.11130547749999975,0.008433718999999978,0.05266171050000068
146242.0,-2.5410010814999997,0.18799348049999998,12.641556382,-0.08584052860083712,-0.6397556733062775,1.0750163541441353,12.895773563620741,1.2539202843703376,-0.0634490255000002,-0.06590068799999999,0.044227991499999675
146252.0,-2.627201535,0.15210114149999998,12.6440080445,-0.12341048607926705,-0.66666865037203,1.0275852863919375,12.91496272128312,1.2311006288165014,-0.0862004535000005,-0.035892338999999995,0.0024516625000003955
146262.0,-2.7122251905,0.160436794,12.621256616499998,-0.18656347973342985,-0.6717318505320656,0.9809553247664049,12.910384348593064,1.2034545941484631,-0.08502365549999968,0.008335652500000013,-0.022751428000001184
146272.0,-2.7361534164999997,0.159259996,12.556630792999998,-0.2688993871962624,-0.6554775992082424,0.9263300098374865,12.852271244284657,1.1662096941047286,-0.023928225999999775,-0.0011767980000000067,-0.06462582350000012
146282.0,-2.7828330705,0.20593965,12.564966445499998,-0.3557661693972721,-0.6362911947410688,0.8701059733137411,12.871089806782154,1.13513014962553,-0.046679654000000514,0.046679654000000015,0.008335652499999568
146292.0,-2.7660636989999996,0.273017136,12.526720510499999,-0.4351716690460061,-0.6243007827798677,0.818145776152618,12.831382368694985,1.1173577582655485,0.016769371500000574,0.06707748599999999,-0.038245934999999065
146302.0,-2.7660636989999996,0.2886097095,12.513481532999998,-0.5081822823154329,-0.6200369434172456,0.7640545319748095,12.818799632885883,1.1074630337364622,0.0,0.015592573499999984,-0.01323897750000036
146312.0,-2.7804794745,0.31253793550000003,12.454837766,-0.5739986484081392,-0.628831657518045,0.7086298562484777,12.765254789725988,1.1077273920229656,-0.014415775500000283,0.023928226000000052,-0.05864376699999774
146322.0,-2.7852847329999997,0.203586054,12.3651069185,-0.6323554772778215,-0.652545446064892,0.6502747727080473,12.676558185532963,1.1173836802297556,-0.004805258499999798,-0.10895188150000004,-0.08973084750000027
146332.0,-2.7469407315,0.12336765699999998,12.250172980499999,-0.6741892741188736,-0.68452162329068,0.5767318340167622,12.554984707809867,1.1205894156459713,0.038344001499999614,-0.08021839700000001,-0.11493393800000185
146342.0,-2.6823149079999995,0.1293497135,12.149556751499999,-0.7040326589987246,-0.7204946045035352,0.4935948204272643,12.442800081652875,1.1217888869159578,0.06462582350000057,0.005982056500000013,-0.10061622899999989
146352.0,-2.6176890845,0.11620880249999999,11.999907272499998,-0.7200198749469927,-0.7522037463537682,0.42671205816158964,12.282653425766245,1.1253098581847698,0.06462582349999968,-0.013140911000000005,-0.1496494790000007
146362.0,-2.5075604049999995,0.25987622499999996,11.875460883999999,-0.7312126714400323,-0.7788496880439656,0.3632937744611237,12.140097447897938,1.1283887512745157,0.11012867950000027,0.14366742249999997,-0.12444638849999912
146372.0,-2.38301595,0.35441233099999997,11.7078652355,-0.7424037226038199,-0.789508413785895,0.30680444789107525,11.953178719108518,1.1263284565438614,0.12454445499999967,0.09453610600000001,-0.16759564849999897
146382.0,-2.266905214,0.377163759,11.5450748455,-0.7637211740876788,-0.7799143388876821,0.25591064690292054,11.771570198514736,1.1211720059610586,0.11611073599999999,0.022751428000000018,-0.16279038999999962
146392.0,-2.245330584,0.389127872,11.377479197,-0.7890354295586044,-0.7609967151253156,0.2119440577159314,11.603446160963594,1.1165183353314652,0.021574629999999928,0.011964112999999998,-0.16759564850000075
146402.0,-2.199827728,0.38079221950000003,11.215865605,-0.8196781752358689,-0.7402115890633151,0.16824450390449738,11.435903375629378,1.1171802543169622,0.04550285600000015,-0.008335652499999957,-0.16161359200000014
146412.0,-2.137653567,0.37951735499999995,11.0710213845,-0.8737694194136771,-0.7109022749345743,0.11441854977299226,11.281893045553584,1.132230827765179,0.06217416099999973,-0.0012748645000000836,-0.14484422049999957
146422.0,-2.0514531134999996,0.365199646,10.984820930999998,-0.9505115466238678,-0.6767950506921012,0.057129862405530384,11.180703088109578,1.1682412259825006,0.0862004535000005,-0.014317708999999956,-0.08620045350000183
146432.0,-2.0107555159999997,0.356765927,10.853117621500001,-1.026185532331838,-0.6618724855875496,0.009166469231474218,11.043576493958216,1.2211535358435444,0.040697597499999905,-0.008433719000000006,-0.1317033094999971
146442.0,-1.8814058024999998,0.3233252505,10.6544348925,-1.0946670161923395,-0.6493480028752383,-0.03799756314516854,10.824103191018322,1.2733391221440074,0.1293497134999999,-0.03344067649999999,-0.1986827290000015
146452.0,-1.8586543745,0.320873588,10.394656734,-1.147426574150876,-0.6320291007076986,-0.08782671328960666,10.56439513464995,1.3129211929039202,0.02275142799999985,-0.002451662500000007,-0.25977815849999963
146462.0,-1.8215852375,0.283804451,10.108498686999999,-1.1746048412629317,-0.6099122884264264,-0.13552307108810768,10.275235444940716,1.3304345288247106,0.03706913700000003,-0.037069136999999974,-0.2861580470000007
146472.0,-1.7617646725,0.22035542549999998,9.840384876,-1.1799350767985224,-0.5726076209942996,-0.18401878968402213,9.999277263013855,1.3243825686096367,0.05982056499999988,-0.06344902550000003,-0.2681138109999992
146482.0,-1.7509773574999998,0.15092434349999997,9.5231397485,-1.1746048412629317,-0.5310391141995507,-0.2287847396684247,9.683950151327672,1.3092140890753161,0.010787315000000186,-0.069431082,-0.31724512749999967
146492.0,-1.7245974689999999,0.06707748599999999,9.253751073,-1.1639478608502545,-0.486007874168845,-0.26582411705424835,9.413322725810367,1.2890464451445005,0.02637988849999995,-0.08384685749999998,-0.2693886755000001
146502.0,-1.6958639844999999,-0.0573689025,9.0467326915,-1.131172322827053,-0.44070785343333213,-0.3044604707056468,9.204489026358448,1.2515871580637403,0.028733484500000017,-0.12444638849999999,-0.2070183814999993
146512.0,-1.628884565,-0.2393803265,8.871880122,-1.0765470078981345,-0.40073981356266203,-0.3572200286641834,9.023348866465778,1.2029763120142904,0.06697941949999997,-0.18201142399999998,-0.1748525695000005
146522.0,-1.5749479899999999,-0.360296321,8.7366464185,-1.0176595989358457,-0.3772895697328662,-0.4225040693350313,8.884777163892183,1.1646837198742577,0.05393657500000004,-0.12091599449999998,-0.13523370350000086
146532.0,-1.5546482245,-0.3662783775,8.592978996,-0.9696962057617895,-0.3706293933072558,-0.48245787447028854,8.740158978958117,1.1447455958816806,0.0202997654999999,-0.005982056499999999,-0.14366742250000009
146542.0,-1.4767834235,-0.313616667,8.38468575,-0.9387864247089699,-0.3682313109150156,-0.5312206284417581,8.519518755187855,1.1397848944595195,0.07786480100000004,0.05266171049999996,-0.2082932460000002
146552.0,-1.3846009135,-0.28360831799999997,8.148835817499998,-0.9275953735451823,-0.3493119418233971,-0.5637291310894045,8.270494456093584,1.1402817822633462,0.09218251,0.030008349000000045,-0.23584993250000075
146562.0,-1.3068341789999998,-0.33156283649999996,7.8795452085,-0.9355889815193164,-0.3029472702441678,-0.5727873899072551,7.994059180337974,1.1380637877225996,0.07776673450000016,-0.04795451849999999,-0.2692906089999987
146572.0,-1.3247803484999998,-0.42129368399999995,7.561123283,-0.9475793934805173,-0.22514049219026053,-0.5815821040080545,7.687855139157786,1.1343864825865184,-0.017946169500000053,-0.08973084749999999,-0.31842192550000004
146582.0,-1.296046864,-0.660772077,7.3133092374999995,-0.9529096290161081,-0.11402585069129353,-0.6092926965419685,7.456597696988215,1.1367832888272387,0.028733484499999795,-0.239478393,-0.2478140455000002
146592.0,-1.2864363469999998,-0.9061344599999999,7.160031298,-0.9518432328431395,0.02160368548118581,-0.6719116194450211,7.330896692957946,1.165305746781024,0.009610517000000263,-0.2453623829999999,-0.15327793949999968
146602.0,-1.2912416055,-1.0833406255,7.1193337004999995,-0.9534419544379663,0.15723322165366518,-0.7689048019661019,7.316135874470072,1.2349042233957297,-0.004805258500000242,-0.17720616550000012,-0.04069759750000035
146612.0,-1.2709418399999999,-1.1275686169999999,7.190039647,-0.9513109074212813,0.2776749026752898,-0.8896117730340296,7.38805619037496,1.3317300405394419,0.020299765500000122,-0.0442279914999999,0.0707059465000004
146622.0,-1.261331323,-1.0222451959999999,7.320468092,-0.9422509032741787,0.367205057314843,-1.0087200225071307,7.498346153193791,1.4283530385186252,0.009610516999999819,0.10532342100000003,0.13042844499999973
146632.0,-1.1739540714999999,-0.9001524034999999,7.459330255999999,-0.9315921775322493,0.43009101559345064,-1.100384714821873,7.60460718114981,1.5045560101063367,0.0873772515000002,0.12209279249999994,0.13886216399999984
146642.0,-1.1548311039999999,-0.7397156094999999,7.5922103635,-0.9251972911529421,0.46419823983592384,-1.1611378807545436,7.715080833364004,1.5555420957166877,0.019122967499999977,0.160436794,0.13288010750000012
146652.0,-1.1392385305,-0.6008534455,7.695180188499999,-0.9110740868458039,0.4583356788784749,-1.1963097558407332,7.802223236092896,1.572032002910444,0.015592573499999984,0.13886216399999995,0.10296982499999974
146662.0,-1.0829483595,-0.5422096784999999,7.734700987999999,-0.8822970981389215,0.428759329374179,-1.205903830738946,7.828944236521996,1.554505317102718,0.05629017099999989,0.05864376700000007,0.03952079949999998
146672.0,-1.0027299625,-0.561332646,7.848360061499999,-0.8282041086318611,0.3821276224193945,-1.2069684815826627,7.93204370714817,1.5128504489553993,0.08021839700000011,-0.019122967500000088,0.11365907350000004
146682.0,-0.9716428819999999,-0.568589567,7.965745662,-0.7535947737676075,0.3112480561666528,-1.2027046422200405,8.044904470378397,1.4530240507076981,0.031087080499999975,-0.007256920999999972,0.11738560050000046
146692.0,-0.8985833395,-0.499158485,7.976532977,-0.676854391886669,0.23024383492309194,-1.1941787088240483,8.042492744438315,1.3918357948928586,0.07305954249999991,0.06943108199999998,0.010787314999999964
146702.0,-0.800418773,-0.48356591149999995,7.8675810955,-0.6001122646764783,0.1598983394214605,-1.1909812656343948,7.922962734811053,1.3431822602524859,0.09816456650000005,0.01559257350000004,-0.10895188149999946
146712.0,-0.6543977544999999,-0.53740442,7.7669648664999995,-0.5308331653478153,0.11939622879968009,-1.2003065598278002,7.812988107579297,1.3178676513407617,0.14602101850000004,-0.05383850850000005,-0.10061622900000078
146722.0,-0.5371102205,-0.5877125344999999,7.662818243499999,-0.4756755249970386,0.1055400598680971,-1.2221580820627693,7.704068849970799,1.315703723058317,0.11728753399999992,-0.050308114499999945,-0.1041466230000001
146732.0,-0.43414039549999994,-0.6295869299999999,7.5802462505,-0.4439663831468056,0.11433302863964453,-1.2514673961915102,7.618726324238916,1.3327973718959414,0.10296982500000007,-0.04187439549999994,-0.08257199299999929
146742.0,-0.37667342649999996,-0.653515156,7.454524997499999,-0.4405019045815969,0.14337705272208218,-1.2837106087928531,7.4925901975021505,1.3647387421461306,0.05746696899999998,-0.023928226000000108,-0.12572125300000092
146752.0,-0.3431346835,-0.730203159,7.2666295835,-0.4588872029221051,0.2041302186547528,-1.3199488800520116,7.311281937405479,1.4122718070981486,0.03353874299999998,-0.076688003,-0.18789541399999887
146762.0,-0.28811937699999995,-0.8103234894999999,7.1061927895,-0.49112867019419637,0.2907317108094594,-1.362316747644174,7.158045326384858,1.47703731140033,0.05501530650000003,-0.08012033049999989,-0.16043679400000066
146772.0,-0.2509521735,-0.8151287479999999,7.0032229645,-0.52816804758002,0.39944826991618626,-1.410013105442675,7.054965893588756,1.5577732069667973,0.03716720349999997,-0.00480525850000002,-0.10296982499999974
146782.0,-0.21868829499999998,-0.8295445235,7.077459305,-0.5532152676753906,0.5110952368370115,-1.4590428947896996,7.1292635594968665,1.6419718762338598,0.03226387850000001,-0.014415775500000061,0.07423634049999972
146792.0,-0.24742177949999997,-0.8056162975,7.297716664,-0.5473527067179417,0.5739811951156192,-1.5038088447741023,7.346216962749729,1.7001442407980072,-0.02873348449999999,0.023928225999999997,0.22025735900000054
146802.0,-0.2462449815,-0.7469725305,7.461781918499999,-0.5071176314717164,0.5761122421323043,-1.537381998265465,7.503118948243393,1.7183180777361649,0.001176797999999979,0.05864376699999996,0.16406525449999876
146812.0,-0.16475172,-0.6475330995,7.527584539999999,-0.44236766155197876,0.5241520449711811,-1.5533692142137332,7.557180112385707,1.6980519514730485,0.0814932615,0.09943943099999997,0.06580262150000049
146822.0,-0.013925443,-0.521909913,7.485710144499999,-0.35789896174320923,0.4492756747313723,-1.548840084804808,7.503895004777226,1.6519218828444528,0.15082627699999998,0.12562318650000004,-0.041874395500000716
146832.0,0.10934414749999999,-0.365003513,7.355183632999999,-0.27103217954219944,0.37919721460529604,-1.5224611784901656,7.365046502381768,1.5922113584325022,0.12326959049999998,0.1569064,-0.1305265114999994
146842.0,0.3427424175,-0.280077924,7.181605927999999,-0.20095197408687113,0.33896039402981876,-1.477428193130208,7.1952331243227015,1.529074854435273,0.23339827000000002,0.08492558900000002,-0.17357770500000047
146852.0,0.48405624399999997,-0.14121576,7.058336337499999,-0.1588511418702639,0.34242487259502746,-1.426267356766498,7.0763242005649145,1.4753735295249473,0.14131382649999996,0.13886216399999998,-0.12326959049999964
146862.0,0.728241829,-0.16269232349999999,6.891917486999999,-0.13913241198123197,0.3786631438541857,-1.383899489174336,6.932195294511507,1.4414997054159389,0.24418558500000004,-0.02147656349999999,-0.16641885050000038
146872.0,0.8383705085,-0.20819517949999997,6.71951658,-0.14153049437347218,0.45540527106437645,-1.3468618571177642,6.774814640356182,1.4287972927989225,0.11012867949999994,-0.04550285599999998,-0.17240090699999921
146882.0,0.9174121074999999,-0.2752726655,6.5711419655,-0.16178154968436237,0.5710490419722687,-1.3319392920132125,6.6405818078022545,1.4581949649358885,0.07904159899999996,-0.06707748600000005,-0.14837461449999978
146892.0,0.9581097049999999,-0.3925601995,6.475330994999999,-0.18869452675011497,0.7295947512234336,-1.3359360960002795,6.557590198529819,1.5338316002856056,0.040697597500000016,-0.11728753399999997,-0.09581097050000054
146902.0,0.9963556399999999,-0.46797333799999996,6.487295108,-0.2233340764144464,0.9099902373803155,-1.3575205828596935,6.580024424325445,1.649491580670571,0.03824593499999995,-0.07541313849999998,0.011964113000000332
146912.0,0.9903735834999999,-0.500335283,6.636944587,-0.25477792821837625,1.0815910094363979,-1.3836341991280325,6.729057042499932,1.7745969968974833,-0.005982056499999944,-0.032361945,0.1496494790000007
146922.0,0.9556580424999999,-0.397365458,6.901528004,-0.27023281874478605,1.2073629259936134,-1.4052169406581947,6.978701196598312,1.872267518733204,-0.03471554100000007,0.10296982499999996,0.2645834169999999
146932.0,0.8634755325,-0.178284897,7.2163214689999995,-0.24784897108795875,1.2553245738384176,-1.4113447916619466,7.269984253330592,1.9050362251419966,-0.09218250999999988,0.219080561,0.3147934649999993
146942.0,0.900642736,0.035990405499999996,7.4784532235,-0.18949388754752836,1.2241495027392948,-1.402286532844096,7.5325769337773885,1.8710578448221888,0.03716720350000002,0.2142753025,0.26213175450000037
146952.0,1.0287175849999999,0.1976039975,7.620943848,-0.10609158391172731,1.1442099323394506,-1.3649801200827172,7.692599842958507,1.784276470074685,0.12807484899999988,0.161613592,0.14249062449999972
146962.0,1.146005119,0.34244821799999997,7.701162245,-0.010164797563614976,1.0405565733927593,-1.296500381551468,7.793490773626348,1.6624603889727696,0.11728753400000014,0.14484422049999998,0.08021839700000033
146972.0,1.234657235,0.34843027449999997,7.745488302999999,0.0884271065522927,0.932639375083446,-1.2141627287593832,7.851010839123571,1.5335666562095314,0.088652116,0.005982056499999999,0.044326057999999335
146982.0,1.330370139,0.215550167,7.71194956,0.1808894143351963,0.8380442749546052,-1.1326261820939643,7.828825748298451,1.420521473039908,0.09571290399999999,-0.13288010749999998,-0.03353874299999937
146992.0,1.3795014554999998,0.1305265115,7.608979735,0.26056194935948546,0.7756923874271078,-1.0705395846127699,7.734121413811115,1.3474591688022546,0.0491313164999998,-0.08502365549999999,-0.10296982499999974
147002.0,1.4261811094999999,0.039618866,7.4880637404999995,0.32930872326629007,0.7546419713188042,-1.03483363877547,7.622772513556247,1.3224255744791404,0.04667965400000007,-0.0909076455,-0.12091599450000068
147012.0,1.5230708115,-0.0310870805,7.423437916999999,0.3751393240944092,0.7850194269497655,-1.021244505219442,7.578135760922377,1.341612966772255,0.09688970200000013,-0.0707059465,-0.06462582350000012
147022.0,1.6619329755,0.012062179499999999,7.4677639749999996,0.3791361280814762,0.8644249265984996,-1.0257736346283675,7.650468318837506,1.3939821400721482,0.13886216400000007,0.043149259999999995,0.044326058000000224
147032.0,1.8104056565,0.12572125299999998,7.5431771135,0.33010808406370346,0.9688776463426042,-1.0385651527162338,7.758408048058137,1.458188196764426,0.14847268099999988,0.11365907349999999,0.07541313850000009
147042.0,2.023504161,0.329307307,7.6820392774999995,0.24404066266010713,1.0914503743809139,-1.030836834788403,7.95089553780457,1.5210010995145251,0.2130985045,0.20358605400000002,0.13886216399999984
147052.0,2.218656496,0.5723160939999999,7.825608633499999,0.14305067615195924,1.2148224632166373,-0.9828734416143468,8.1541481985186,1.5691709006077386,0.19515233499999995,0.24300878699999995,0.14356935599999954
147062.0,2.346731345,0.8009091055,8.061458565999999,0.06710965506843397,1.301956280793202,-0.8912104946288566,8.434199286963349,1.5791928345318953,0.12807484899999988,0.2285930115000001,0.23584993249999986
147072.0,2.4101803704999996,0.932612415,8.2745570705,0.05431988230981952,1.3291345479052579,-0.7622428802112395,8.66873866533749,1.533154755555418,0.06344902549999976,0.13170330949999998,0.21309850450000134
147082.0,2.4807882504999994,1.000866699,8.497266092,0.1201362484025257,1.3091505279699225,-0.6127571751071772,8.90839915648367,1.450441029035475,0.07060787999999985,0.06825428399999989,0.22270902150000005
147092.0,2.4161624269999997,1.024794925,8.71026653,0.24723810584976072,1.2654509741584885,-0.4558119327800911,9.097075823339637,1.3675735325925138,-0.06462582349999968,0.023928225999999997,0.2130004379999999
147102.0,2.303582085,1.0211664645,8.9700446885,0.3972561363756813,1.2089599022591881,-0.2964668627315128,9.31724063681085,1.3066327272254226,-0.11258034199999978,-0.003628460499999875,0.25977815849999963
147112.0,2.148048616,1.01400761,9.1269510885,0.5198288644139911,1.151138889469868,-0.16030500113717516,9.430989368126166,1.2732008814470128,-0.15553346899999987,-0.007158854500000089,0.15690640000000045
147122.0,2.0318398135,0.9505585845,9.307687648,0.622682862563269,1.08345676640678,-0.022542672618758763,9.574183202917213,1.249848264427094,-0.1162088025000001,-0.06344902549999998,0.18073655949999967
147132.0,1.9816297655,0.8105196225,9.460867520999999,0.68636818163929,1.0253687182419047,0.10269342785809435,9.700093444698654,1.2381551717135932,-0.05021004800000006,-0.140038962,0.15317987299999913
147142.0,1.8846419969999997,0.6261546025,9.562660547999998,0.7132811587050426,0.9835331760716005,0.2164731871248567,9.766699636999375,1.2340859615687603,-0.09698776850000024,-0.18436502,0.10179302699999937
147152.0,1.8032468019999999,0.47169986499999994,9.641702147,0.7127488332831843,0.9414323438549934,0.3089354949077603,9.820214869493878,1.2205518823125667,-0.08139519499999981,-0.15445473750000005,0.07904159900000174
147162.0,1.700276977,0.33999655549999996,9.683576542499999,0.6956952211619477,0.8878734250990434,0.3787486649875335,9.837590869248649,1.189857811242384,-0.10296982499999996,-0.13170330949999998,0.04187439549999894
147172.0,1.5781841844999998,0.22633748199999998,9.6727892275,0.6938294641915659,0.8407093927224006,0.43070886214865667,9.803302780981726,1.1720502260250683,-0.12209279250000016,-0.11365907349999999,-0.010787314999999964
147182.0,1.454914594,0.1760293675,9.709858364499999,0.7154122057217276,0.801806003695447,0.4640167255937165,9.819832599016504,1.1704781131180562,-0.12326959049999986,-0.05030811449999997,0.037069136999999586
147192.0,1.366262478,0.1424906245,9.851172191,0.7593787949087168,0.7631696500440485,0.48133737309050817,9.946485322645023,1.1793090076985937,-0.088652116,-0.03353874300000001,0.14131382650000113
147202.0,1.296831396,0.1077750835,10.073783145999998,0.8345222005240807,0.7231998648441265,0.4986580205872999,10.157484630109384,1.2116538982622722,-0.06943108199999992,-0.034715541,0.2226109549999986
147212.0,1.1496335795,0.19044514299999998,10.328756045999999,0.9339117201081498,0.6850958366145863,0.5269026838723241,10.394283437418272,1.272467620245742,-0.14719781650000008,0.08267005949999999,0.2549729000000003
147222.0,1.0490173505,0.1569064,10.585003810499998,1.0181133845413641,0.6485905299798728,0.5671377591185494,10.638014978759452,1.3337427702446427,-0.10061622899999989,-0.03353874299999998,0.2562477644999994
147232.0,0.956932907,0.147295883,10.812420024,1.0556850873490462,0.6147485957837027,0.6334881959623658,10.855682541463912,1.3761155961956286,-0.0920844435,-0.009610517000000013,0.22741621350000152
147242.0,0.857493476,0.17848102999999998,10.9680515595,1.053554040332361,0.5987613798354346,0.7059647384806823,11.002968033730845,1.402454105438454,-0.09943943099999997,0.031185146999999996,0.15563153549999953
147252.0,0.795319315,0.2334963365,11.108090521500001,1.0170487336976477,0.597429693616163,0.7736468615437705,11.138973399097834,1.4106168267487869,-0.06217416100000006,0.05501530650000003,0.140038962000002
147262.0,0.6492002299999999,0.262229821,11.298437598,0.9690853405235915,0.5913000972831589,0.8293368273164056,11.320111199699133,1.405902477203892,-0.14611908500000004,0.02873348449999996,0.19034707649999838
147272.0,0.534266292,0.16406525449999998,11.48162582,0.9323129985133229,0.5726477635670955,0.8714394048622648,11.49522028275197,1.3987636057111286,-0.11493393799999996,-0.0981645665,0.18318822200000007
147282.0,0.39305053199999995,0.033538742999999996,11.7078652355,0.9123289785779879,0.5350778060886655,0.8903570286246313,11.714509035406348,1.3825295881618942,-0.14121576000000002,-0.1305265115,0.22623941550000026
147292.0,0.26497568299999996,0.009610516999999999,11.990394821999999,0.912594268624291,0.47139248701264447,0.8938215071898401,11.99332616341533,1.3616005517966672,-0.128074849,-0.023928225999999997,0.28252958649999904
147302.0,0.17161637500000002,0.046777720499999995,12.293224173999999,0.9400413164411539,0.3767991322130558,0.8962195895820803,12.294511008068651,1.3523552844587852,-0.09335930799999995,0.037167203499999996,0.30282935199999983
147312.0,0.06864655,0.22035542549999998,12.4465021135,0.978145344670694,0.24836384321729707,0.9063442445728993,12.44864184253584,1.3564338552207535,-0.10296982500000001,0.17357770499999997,0.15327793950000057
147322.0,-0.05226944449999999,0.423843413,12.5781073565,1.0079887295505452,0.10367430289771518,0.935655304030892,12.585354981295174,1.3792173461580994,-0.12091599449999998,0.20348798750000002,0.13160524300000098
147332.0,-0.25575743199999995,0.6082084329999999,12.564966445499998,1.0261087378447502,-0.03408628029144926,0.9982742269339446,12.582277661001461,1.4319959666654156,-0.20348798749999997,0.18436501999999994,-0.013140911000002475
147342.0,-0.4665023405,0.6130136915,12.556630792999998,1.0226442592795415,-0.13507626679959714,1.092069966265372,12.58023795845588,1.5022195878461873,-0.21074490850000005,0.00480525850000002,-0.008335652499999568
147352.0,-0.681954441,0.45375369549999994,12.629592269,0.9925338390241354,-0.18890222093110226,1.2018511762158153,12.656127178444601,1.5701126457843813,-0.21545210050000002,-0.15925999600000001,0.07296147600000147
147362.0,-0.939280937,0.2550709665,12.743349409,0.9333793946862916,-0.20435536612826008,1.2977779625639276,12.780464155750508,1.6115786825988183,-0.257326496,-0.19868272899999995,0.11375714000000059
147372.0,-1.2206337255,-0.029812216,12.839160379499997,0.863032153855408,-0.21261600947794923,1.3529356029147044,12.897087838367751,1.618784980072649,-0.2813527884999999,-0.2848831825,0.09581097049999698
147382.0,-1.4193164544999999,-0.3123418025,12.9348732835,0.8062757919098045,-0.24699026909597754,1.3606639208425353,13.01625765955044,1.6007782954333392,-0.19868272899999995,-0.2825295865,0.09571290400000265
147392.0,-1.539055651,-0.536227622,13.021073736999998,0.7633755988957839,-0.2826962149332775,1.304706919694345,13.12267478922883,1.5378295098044532,-0.11973919650000009,-0.22388581949999997,0.08620045349999828
147402.0,-1.6408486779999998,-0.708628529,13.0833459645,0.7276696530584839,-0.3202679177409595,1.1943916389927915,13.204865785118963,1.4347982612242989,-0.10179302699999981,-0.172400907,0.062272227500001165
147412.0,-1.8059926639999997,-0.661948875,13.1563074405,0.7055528407772117,-0.3852849230362522,1.0694208285622415,13.296172805905135,1.3378752526340396,-0.1651439859999999,0.04667965399999996,0.07296147599999969
147422.0,-1.966429458,-0.4284525385,13.204261958999998,0.6948958603645343,-0.4729510660346754,0.9641670026914715,13.35675672732463,1.279132900325122,-0.16043679400000022,0.2334963365,0.04795451849999921
147432.0,-2.069399283,-0.0980665,13.173076812,0.6754424205218056,-0.5542223226537913,0.9028815113369426,13.334990930846383,1.2564154845759425,-0.10296982500000018,0.3303860385,-0.031185146999998636
147442.0,-2.1891384795,0.215550167,13.0725586495,0.6333415883051983,-0.6152407786327652,0.8847615030427375,13.256341078953067,1.2499782799857149,-0.11973919649999987,0.313616667,-0.10051816250000023
147452.0,-2.242976988,0.4872924384999999,12.9085914615,0.5704573753558426,-0.6490827128289353,0.9007487189910055,13.111069110077466,1.248230042882795,-0.05383850850000016,0.27174227149999997,-0.1639671879999991
147462.0,-2.2705336745,0.5997747139999999,12.7157927225,0.48971844415858495,-0.656809285427514,0.9367217002038607,12.93083282067231,1.2444557587980853,-0.027556686500000094,0.1124822755,-0.19279873900000055
147472.0,-2.2358181335,0.620172546,12.493181767499998,0.39858956792420497,-0.6381569517114506,0.9702965990244755,12.70681263687688,1.2278409623213093,0.03471554100000018,0.020397832000000116,-0.22261095500000216
147482.0,-2.165112187,0.5794749484999999,12.207023720499999,0.30772423640687624,-0.593125711680745,0.9828193364075348,12.41108094047753,1.188455368764655,0.07070594649999995,-0.04069759750000013,-0.2861580469999989
147492.0,-2.1197073975,0.5100438665,11.971173788,0.22378960734921693,-0.5363693497351414,0.96523339886444,12.168085554402909,1.1266984432296931,0.04540478950000004,-0.06943108199999992,-0.23584993249999897
147502.0,-2.0765581374999997,0.48013358399999995,11.850355859999999,0.15690684508354222,-0.47934595241398265,0.9233978566941359,12.040496499959563,1.0521672404504252,0.0431492600000003,-0.02991028250000005,-0.12081792800000102
