timestamp,ax,ay,az,gx,gy,gz,acc_mag,gyro_mag,dax,day,daz
181252.0,-1.0090062185,3.4766535579999998,8.679375582499999,-0.053935909874380766,0.5654570070488788,0.07726048999803299,9.404082837439434,0.5732537767074799,0.0,0.0,0.0
181262.0,-0.5110245314999999,3.7591831444999997,8.8001935105,0.024937264352494982,0.5553323520580598,0.13215284030250665,9.583110654058734,0.571384512912052,0.497981687,0.28252958649999993,0.12081792800000102
181272.0,-0.4978836205,3.8872579935,8.955825046,0.1253931801095326,0.5969008588528087,0.2195519479253747,9.775759052991882,0.6482415774655532,0.013140910999999922,0.12807484900000032,0.15563153549999953
181282.0,-0.5349527574999999,4.288251912,9.256300802,0.24237038256594853,0.5942357410850133,0.3320000209728654,10.21539932898535,0.7225534805493655,-0.03706913699999992,0.40099391849999977,0.30047575600000087
181292.0,-0.5900661305,4.621089613,9.6896566655,0.33243460795661195,0.5806466075289856,0.43671977609252516,10.75137635584432,0.7989914982229106,-0.05511337300000008,0.3328377009999999,0.4333558634999992
181302.0,-0.560155848,4.483404246999999,10.168515385,0.3364314119436789,0.5587968306232685,0.5225201621205663,11.127146685069263,0.8357435687335739,0.02991028250000005,-0.13768536600000036,0.4788587194999998
181312.0,-0.4045243125,4.1877337494999995,10.697682218999999,0.27594528138656343,0.5587968306232685,0.5571597117848978,11.495266797026229,0.8359585161180846,0.15563153549999997,-0.29567049749999974,0.5291668339999998
181322.0,-0.21653083199999998,4.254811235499999,11.346490182999998,0.2397070101274052,0.5921029487390762,0.547567382215937,12.119948173315716,0.8413533090661397,0.1879934805,0.06707748599999963,0.6488079639999995
181332.0,-0.15906386299999997,4.5780384195,12.0252084295,0.2458348611311573,0.5971661488991118,0.5465009860429685,12.868153513843716,0.8459938038096428,0.05746696900000001,0.32322718400000117,0.6787182465000008
181342.0,-0.016671304999999997,4.909601255999999,12.623806345499998,0.263155508627949,0.5124321590440392,0.5840726888506504,13.544923369071277,0.8203526346669454,0.14239255799999997,0.33156283649999896,0.5985979159999992
181352.0,0.099439431,5.1825203255,12.982925868499999,0.2879356933477645,0.35175540277618916,0.6562839413226638,13.979440948465166,0.7983404277148355,0.11611073599999999,0.27291906950000033,0.3591195230000004
181362.0,0.2215322235,5.208900213999999,12.990084722999999,0.31218355264572173,0.15510566529548409,0.7729941084035246,13.997286132539266,0.8479600400819715,0.12209279249999999,0.026379888499999282,0.007158854500000089
181372.0,0.397561591,5.1861487859999995,12.695591023499999,0.31937779982244235,-0.018095573684677208,0.9112887623437993,13.719774993969159,0.9658037260129488,0.1760293675,-0.022751427999999407,-0.29449369950000026
181382.0,0.604678039,5.025711992,12.258704766,0.31697971743020215,-0.11162427764054934,1.053313184895586,13.262701802322654,1.1056241613205582,0.20711644799999995,-0.16043679399999977,-0.43688625749999943
181392.0,0.662145008,4.873708916999999,11.830056094499998,0.3076544232367965,-0.12041724641209678,1.202531854624093,12.811779806813774,1.247090381149778,0.057466969000000034,-0.15200307500000054,-0.4286486715000013
181402.0,0.562705577,4.6390357825,11.496139662,0.30472227009344593,-0.06579193148317825,1.3565466891370808,12.409613921710527,1.391906304299239,-0.09943943099999997,-0.2346731344999995,-0.3339164324999988
181412.0,0.340094622,4.3337547679999995,11.327367215499999,0.3095201802071784,-0.002373647782712288,1.4871147704787764,12.132862101576043,1.518986081810964,-0.222610955,-0.3052810145000002,-0.16877244650000023
181422.0,0.0599186315,3.939919704,11.2961820685,0.33163524715919857,0.04185823145058001,1.5790430075105697,11.9637070693439,1.6140355845725762,-0.2801759905,-0.3938350639999997,-0.031185146999998636
181432.0,-0.22731814699999997,3.4442916129999994,11.4805470885,0.3969192878300465,0.05305102794361964,1.611551510158216,11.988235053860242,1.6605594245646895,-0.28723677849999996,-0.4956280910000004,0.18436501999999955
181442.0,-0.524263509,3.1318517439999995,11.7929869575,0.4984415997600526,0.001090830782496456,1.5907681294254676,12.213021286849129,1.6670298317303618,-0.296945362,-0.31243986899999987,0.3124398690000003
181452.0,-0.664302471,3.1318517439999995,12.1162141415,0.6076904842886377,-0.1081597990753406,1.5316136850876239,12.532056425106662,1.6513106149900048,-0.140038962,0.0,0.3232271840000003
181462.0,-0.6103658959999999,3.4000636215,12.501713553,0.6854972623425448,-0.20328722462603954,1.4969723900940406,12.970189702487449,1.6589630885222089,0.05393657500000004,0.26821187750000064,0.38549941149999967
181472.0,-0.38412648050000003,3.7507494254999996,12.9027074715,0.6830991799503047,-0.2083486794568231,1.4905775037147333,13.442303913429864,1.652832404226341,0.22623941549999987,0.3506858039999994,0.4009939184999993
181482.0,-0.3374468265,4.2559880334999995,13.3767609325,0.5882387897751609,-0.11855148944171484,1.5793100428861249,14.041546835988845,1.6894672358486176,0.046679654000000015,0.505238608,0.47405346100000045
181492.0,-0.5529969935,4.367293511,13.9418201055,0.40704394282086553,0.021341886093386664,1.6896253235876786,14.62030800428523,1.7380949288223435,-0.21555016699999996,0.1113054775000002,0.5650591729999999
181502.0,-0.9647782269999999,4.6725745255,14.655253893,0.1805508204603094,0.15857014386069282,1.8340478285317054,15.412339744241836,1.849722824272533,-0.41178123349999995,0.3052810145000002,0.7134337874999996
181512.0,-1.5692601329999998,4.5025272145,15.3100439135,-0.09017418113353903,0.20706586245660727,1.9115893165393094,16.035360093107816,1.924884767835526,-0.6044819059999998,-0.17004731100000026,0.6547900205000001
181522.0,-1.8697358889999998,3.9962098749999995,15.8427411415,-0.34837644534432816,0.16443095948888978,1.9233126931249553,16.445608913513627,1.9615135491871463,-0.300475756,-0.5063173395000002,0.532697228
181532.0,-2.214537703,3.7663419989999998,16.229417351,-0.5263738491089698,0.06344271830999387,1.874549939153486,16.807245367530623,1.9480841567839648,-0.3448018140000002,-0.2298678759999997,0.38667620949999915
181542.0,-2.5221723134999996,3.6646470385,16.4664440815,-0.6566731497458586,-0.0879087437644504,1.8191270087564058,17.05681012923985,1.9360192785234394,-0.30763461049999963,-0.10169496049999971,0.237026730500002
181552.0,-2.7855789325,3.8297910244999995,16.437710597,-0.8034937370821255,-0.21740868360392565,1.7815553059487237,17.10628770222384,1.966420105010789,-0.2634066190000004,0.16514398599999947,-0.028733484500001794
181562.0,-2.998677437,3.918345074,16.349156547499998,-0.9892194587745982,-0.30880634054311273,1.7762250704131333,17.077482668847157,2.056426997085498,-0.2130985045,0.08855404950000034,-0.08855404950000079
181572.0,-3.2428630219999994,3.8394015415,16.2665845545,-1.169613199602228,-0.3682260749272597,1.7940780433317831,17.025244134667364,2.173085710344923,-0.24418558499999943,-0.07894353249999986,-0.0825719929999984
181582.0,-3.600805747,3.6766111515,16.048680791499997,-1.3596010153280707,-0.41938691129096944,1.8082012476389213,16.8535879483991,2.300867674206027,-0.35794272500000046,-0.16279039000000006,-0.21790376300000247
181592.0,-4.0532845779999995,3.5891358334999994,15.86912103,-1.536532022919744,-0.4870690343540576,1.7887495531254443,16.767230366591694,2.4078604331420275,-0.45247883099999964,-0.08747531800000052,-0.17955976149999664
181602.0,-4.3932811334999995,3.3509323049999997,15.6440584125,-1.6750937122355738,-0.5667415693783466,1.7338589481502227,16.591149147794784,2.476570573053226,-0.33999655549999996,-0.2382035284999997,-0.22506261750000078
181612.0,-4.6039279754999995,3.118710833,15.392713973,-1.7918038793164346,-0.6293604922813992,1.6576491463618903,16.366372643871106,2.5208047254026664,-0.21064684200000006,-0.23222147199999954,-0.2513444395000004
181622.0,-4.819380076,2.9738666125,15.071840384999998,-1.907981720975437,-0.6520096299845296,1.5667855601738137,16.10064220883145,2.5534932537091466,-0.2154521005000003,-0.1448442205,-0.3208735880000013
181632.0,-5.0085503545,2.8972766759999997,14.801274911499998,-2.023625491883329,-0.6266953745136038,1.4599347580374689,15.89205863935365,2.5727838466460247,-0.1891702784999998,-0.07658993650000046,-0.2705654734999996
181642.0,-5.0887687515,2.7859711985,14.472065671,-2.152060780879088,-0.5600796476234844,1.327502665054643,15.591596701776604,2.5898490577651696,-0.08021839700000033,-0.11130547749999975,-0.3292092404999991
181652.0,-5.1725175425,2.757237714,14.013604783499998,-2.290620724865666,-0.47561094781471475,1.1854782425028565,15.190076252840479,2.6226909353396906,-0.08374879099999966,-0.028733484500000017,-0.45846088750000114
181662.0,-5.140253663999999,2.7954836489999995,13.511994635999999,-2.4233198532240467,-0.39194160880335865,1.0325298041628372,14.724501200563111,2.6631213138394068,0.03226387850000023,0.03824593499999951,-0.5016101474999992
181672.0,-5.046894355999999,2.829022392,13.023623466,-2.5227093728081162,-0.31146971298165604,0.8918370678303225,14.25093956619029,2.693779745509083,0.09335930800000014,0.033538743000000704,-0.48837116999999886
181682.0,-5.0205144675,2.979848669,12.573498231,-2.5634785188054514,-0.24378933524781993,0.7796560301583869,13.862825158440037,2.6904867369529812,0.026379888499999282,0.15082627699999973,-0.4501252349999998
181692.0,-4.9140142485,3.1091003159999997,12.196432538499998,-2.5464249066842153,-0.19635826749562205,0.6850626753587983,13.511735916439228,2.6442668631901265,0.10650021899999995,0.1292516469999998,-0.3770656925000022
181702.0,-4.862529336,3.1953007694999997,11.921061806500001,-2.493400058679375,-0.16971232580542464,0.6144501444816116,13.265212140988208,2.5735957542329895,0.05148491250000031,0.08620045350000005,-0.2753707319999972
181712.0,-4.8577240774999995,3.201282826,11.648142737,-2.4430385831130788,-0.14733022347784933,0.5662197159320004,13.020173737961088,2.5121203155978233,0.004805258500000242,0.005982056500000166,-0.27291906950000033
181722.0,-4.737984881,2.979848669,11.3536490375,-2.4187907238151216,-0.11242363843796274,0.5139924833953221,12.65833106256312,2.47535369454157,0.11973919649999942,-0.22143415700000002,-0.29449369950000026
181732.0,-4.675810719999999,2.814704683,11.060332136,-2.4267843317892557,-0.046872562391559715,0.4468444310833442,12.333560528103932,2.4680253596171116,0.062174161000000616,-0.1651439859999999,-0.2933169015000008
181742.0,-4.613538492499999,2.7404683425,10.721610445,-2.469684524803276,0.04212526682613514,0.3623757312745747,11.989488508370862,2.496483999703331,0.06227222750000028,-0.07423634050000016,-0.33872169099999994
181752.0,-4.442314383499999,2.7632197705,10.146940755,-2.5632132287591483,0.17429032443340575,0.27657534524653343,11.41621422659075,2.583976217939174,0.17122410899999974,0.022751428000000296,-0.5746696900000003
181762.0,-4.187341483499999,2.7165401164999996,9.636994955,-2.6785917096207377,0.3906587918031428,0.20462938282082316,10.852883979232859,2.7146530206963226,0.2549729000000003,-0.046679654000000514,-0.5099457999999988
181772.0,-4.1597847969999995,2.6374985175,9.039671903499999,-2.782510358613732,0.6645812365866448,0.14840709162632984,10.294458514661871,2.864621577217615,0.02755668649999965,-0.07904159899999952,-0.5973230515000019
181782.0,-4.1657668535,2.4411693844999998,8.302211823499999,-2.8693771408147417,0.9616868898243875,0.08418944712845047,9.604147156504974,3.0274171686931552,-0.00598205650000061,-0.19632913300000032,-0.73746008
181792.0,-4.2304907435,1.834235816,7.8246279685,-2.8795035411348127,1.2851731947060248,-0.0056094882159097754,9.08219553879836,3.153290701815622,-0.06472388999999978,-0.6069335684999997,-0.4775838549999989
181802.0,-4.3705297055,1.0286195185,7.823451170499999,-2.76092761708357,1.5012746267002064,-0.1556275187418304,9.02030909878896,3.146548384522053,-0.1400389620000002,-0.8056162975000001,-0.0011767980000003675
181812.0,-4.617068886499999,0.506611539,8.0352748105,-2.5472242674816283,1.5308509762045022,-0.37599104476938244,9.281143336593294,2.9955342505036335,-0.24653918099999927,-0.5220079795,0.2118236400000013
181822.0,-4.900775271,0.34744960950000003,8.266319484499999,-2.312472247100635,1.3214114659651828,-0.6171396968589349,9.616150857167911,2.7339563934770528,-0.2837063845000003,-0.15916192949999997,0.23104467399999784
181832.0,-4.885280764,0.377359892,8.28073526,-2.0787831322341064,0.9478307208928045,-0.8343075250260854,9.62179531467002,2.4322400030926983,0.015494506999999658,0.02991028249999994,0.014415775500001615
181842.0,-4.618343751,0.46836560399999994,8.0089929885,-1.8789376968929994,0.5614602030618119,-1.0013791676732426,9.25702079673872,2.2019093228100326,0.2669370129999997,0.09100571199999996,-0.27174227150000085
181852.0,-4.237649598,0.6215454770000001,7.4906134694999995,-1.7331817604004491,0.2811428718990026,-1.1146248561888947,8.628631585881017,2.079747316151299,0.3806941530000003,0.15317987300000013,-0.5183795189999998
181862.0,-3.8725480185,0.7532487864999999,6.8609284729999995,-1.6372549740523368,0.16709607725668513,-1.1735140104804351,7.914313071996464,2.0213015811322084,0.3651015795000001,0.13170330949999987,-0.6296849965
181872.0,-3.637874884,0.6934282214999999,6.263605421499999,-1.5802315767311779,0.22491883537525725,-1.1876354694583213,7.276519033593938,1.989522135318015,0.23467313449999994,-0.05982056499999999,-0.5973230515000001
181882.0,-3.5948236904999997,0.5485840009999999,5.817108647,-1.560247556795843,0.40158280759137527,-1.2086876308958772,6.860208071402455,2.0140920979242876,0.043051193500000196,-0.1448442205,-0.446496774499999
181892.0,-3.6438569405,0.2911594385,5.613522593,-1.5461260978179567,0.6195499965559391,-1.2665086436851973,6.6988135608911445,2.09246081280285,-0.04903325000000036,-0.25742456249999995,-0.20358605400000052
181902.0,-3.7719317895,0.011081514499999999,5.530950599999999,-1.5080203242591645,0.7975456549913288,-1.3696296772100303,6.694699900984706,2.187713377677413,-0.12807484899999988,-0.280077924,-0.08257199300000106
181912.0,-3.8760784124999996,-0.1613193925,5.5620376805,-1.4363431425382616,0.8940065120905514,-1.5249779432715413,6.781317789747573,2.2776933494747933,-0.10414662299999966,-0.172400907,0.031087080500000752
181922.0,-3.799488476,-0.1577889985,5.5692946015,-1.3593357252817677,0.9185196614348118,-1.7104348842592068,6.743741721448226,2.37003364443639,0.07658993649999957,0.0035303939999999923,0.007256921000000638
181932.0,-3.5086232369999997,0.0253992235,5.471130034999999,-1.3103059359347429,0.9339745519612216,-1.8775082722356162,6.499565062344545,2.472700431061182,0.2908652390000004,0.183188222,-0.09816456650000127
181942.0,-3.1123365104999996,0.14396162199999998,5.393265233999999,-1.2812619118523052,0.9675494507818365,-1.9779641879926537,6.228537018230947,2.5475726398776337,0.3962867265000001,0.11856239849999999,-0.0778648009999996
181952.0,-2.7688095609999994,0.17985396099999998,5.2484210135,-1.2551482955839661,0.9984592318346561,-2.0099386198891898,5.936714324213416,2.5714142679205247,0.3435269495000002,0.035892338999999995,-0.14484422049999957
181962.0,-2.5329596285,0.1391563635,5.146726052999999,-1.2135797887892172,1.0229741265081684,-2.0142024592518117,5.737947197190154,2.5644226473260754,0.23584993249999942,-0.04069759749999999,-0.1016949605000006
181972.0,-2.4264594095,0.1079712165,5.04257943,-1.1371046969545817,1.017910926348133,-2.0120714122351266,5.597050147837046,2.5253873195509917,0.10650021899999995,-0.031185146999999996,-0.10414662299999922
181982.0,-2.2552353005,0.0816893945,5.024535194,-1.0211938906711342,0.9931307416283174,-2.016335251597749,5.508058944268818,2.468755451466795,0.17122410900000018,-0.026281821999999996,-0.018044235999999714
181992.0,-2.0685166845,0.0373633365,5.047286622,-0.8778377819000759,0.9459667092516746,-2.0192656594118477,5.454838177030502,2.3964319288524867,0.18671861599999984,-0.044326058,0.022751427999999407
182002.0,-1.8829748664999997,0.12836904849999997,5.092789477999999,-0.7390108025379429,0.8937394767149963,-2.000880361071339,5.431259304039073,2.31266716970418,0.18554181800000036,0.09100571199999997,0.0455028559999997
182012.0,-1.6506553279999998,0.0685484835,5.089259083999999,-0.6321582550723461,0.8721567351848344,-1.9662390660777558,5.3506934065148455,2.241958406205322,0.23231953849999987,-0.05982056499999998,-0.0035303940000002143
182022.0,-1.4795292855,-0.1242502555,5.107205253499999,-0.5591476418029193,0.8836130763949251,-1.924937594658562,5.318645554464214,2.1906170129531453,0.17112604249999985,-0.192798739,0.017946169500000053
182032.0,-1.371754202,-0.3109688715,5.092789477999999,-0.4994608720432173,0.9198530929833354,-1.8942948489812976,5.283456813202332,2.1642420960350663,0.10777508349999998,-0.186718616,-0.014415775499999839
182042.0,-1.2963410635,-0.4594415525,5.058073937,-0.45123044349360597,0.964352007592183,-1.8916297312135022,5.241726685476705,2.1706788679335727,0.07541313850000009,-0.148472681,-0.03471554099999974
182052.0,-1.288005411,-0.550349198,5.139469131999999,-0.38807919516869516,0.9955288240205576,-1.9126801473218058,5.326911406930413,2.1908967221522566,0.00833565249999979,-0.09090764550000002,0.08139519499999981
182062.0,-1.174248271,-0.664106338,5.3417803215,-0.29348584036910647,0.9896662630631086,-1.9337305634301094,5.509493010548511,2.1920052788910405,0.11375714000000015,-0.11375713999999992,0.2023111895000005
182072.0,-0.8714189189999999,-0.649788629,5.540561117,-0.19835841481840755,0.9632856114192143,-1.9361286458223497,5.646185764388303,2.1716029478407064,0.30282935200000005,0.014317708999999956,0.19878079550000027
182082.0,-0.734910351,-0.6114446275,5.779941443499999,-0.10482971086253542,0.9091943672414061,-1.918542708279255,5.858470862502809,2.1256598479518125,0.13650856799999989,0.03834400150000006,0.23938032649999919
182092.0,-0.6594972125,-0.68450417,5.990686351999999,-0.0262235720112148,0.8407128833809046,-1.8644514641014465,6.065624905983036,2.0454009606924726,0.07541313849999998,-0.07305954250000002,0.21074490849999972
182102.0,-0.562509444,-0.7299089594999999,6.096009773,0.010281734623498595,0.7767622742585804,-1.8108925453454965,6.165267156925081,1.9704814527333467,0.09698776850000002,-0.04540478949999993,0.10532342100000047
182112.0,-0.42129368399999995,-0.7586424439999999,5.9894114875,0.00815068760681352,0.740256967623867,-1.7663936307366492,6.051948173325144,1.9152527954636036,0.14121576000000008,-0.028733484500000017,-0.10659828549999961
182122.0,-0.2680157445,-0.7179448464999999,5.724926137,0.01694365637836095,0.7679693054870329,-1.720561284579278,5.77598965684856,1.8842492074178507,0.15327793949999996,0.040697597500000016,-0.2644853505000002
182132.0,-0.12562318649999998,-0.7742350175,5.507022373999999,0.05291663759121607,0.8463084089627984,-1.6837889425690096,5.562599794614585,1.8852541729784784,0.142392558,-0.05629017100000011,-0.2179037630000007
182142.0,-0.0573689025,-0.848471358,5.4447501465,0.11739957213539857,0.9542256072721118,-1.6539455576891584,5.510762106472406,1.913077383931739,0.06825428399999998,-0.07423634049999994,-0.06227222749999939
182152.0,-0.0477583855,-1.0747107735,5.551348432,0.19200890699965217,1.0514858251687478,-1.6542125930647136,5.654622314843971,1.9694946468451968,0.009610516999999999,-0.22623941550000015,0.1065982855000005
182162.0,0.038442067999999996,-1.2554473329999998,5.6961926525,0.2655535910201892,1.0973164259968669,-1.6875204565097732,5.833029790162563,2.0303564562916554,0.0862004535,-0.18073655949999967,0.14484422049999957
182172.0,0.22633748199999998,-1.2949681325,5.8470189295,0.3263067569528599,1.091720900414973,-1.7477412970205857,5.992979349362049,2.086367720548602,0.18789541399999998,-0.0395207995000002,0.15082627700000018
182182.0,0.477779988,-1.135806203,5.8158337824999995,0.3606810165708882,1.0744002529181813,-1.8034312627932207,5.944934989835869,2.129974417406278,0.251442506,0.15916192949999997,-0.031185147000000413
182192.0,0.6764627169999999,-0.7718814214999999,5.6626539094999995,0.38013271108436497,1.071469845104083,-1.8298101691078632,5.754915467243937,2.1542408783546616,0.19868272899999995,0.36392478150000007,-0.15317987300000002
182202.0,0.975761675,-0.363630582,5.445926944499999,0.4115748175590428,1.0965170651994536,-1.8111578353917996,5.544588202147708,2.156857948364586,0.29929895800000006,0.40825083949999996,-0.21672696500000033
182212.0,1.1768960665,-0.0392266,5.2580315305,0.4662001324879614,1.1612670351191912,-1.7445421085016801,5.38827603721477,2.1469305668143526,0.2011343914999999,0.324403982,-0.18789541399999887
182222.0,1.3217402870000001,0.12356378999999999,5.159866963999999,0.5458709221829985,1.2486678880713113,-1.6427545065253708,5.327897566832209,2.1344294148776157,0.14484422050000023,0.16279039,-0.09816456650000127
182232.0,1.3420400525,0.201428591,5.156238503499999,0.6388673007170124,1.329672109314872,-1.5231121863011594,5.331832751011828,2.1203891336908893,0.0202997654999999,0.077864801,-0.003628460499999875
182242.0,1.3025192529999998,-0.07629573699999999,5.3035343865,0.7366580987062546,1.3715059061559243,-1.40107352901396,5.461671395526096,2.094445186371257,-0.0395207995000002,-0.27772432799999996,0.14729588300000085
182252.0,1.1337468065,-0.43551332649999996,5.553702028,0.8573668151034345,1.347258046857967,-1.2824976049627173,5.6849502983420495,2.0481655712366753,-0.16877244649999978,-0.3592175895,0.25016764150000004
182262.0,0.8500404219999999,-0.7406962745,5.773959387,0.9993912376552211,1.2614576608299257,-1.182306979251983,5.883010002780679,1.9969747292233047,-0.2837063845000002,-0.305182948,0.22025735899999965
182272.0,0.6405703779999999,-0.9549715769999999,5.9631296654999995,1.1808513746558194,1.1159687597129304,-1.107430609012174,6.072990740122617,1.9662651895049226,-0.2094700439999999,-0.21427530249999993,0.1891702784999998
182282.0,0.4370823905,-0.9896871179999999,6.226438218,1.4054804853752456,0.9225164654218788,-1.0496095962228538,6.31973531804864,1.9819415551999042,-0.20348798749999997,-0.03471554099999996,0.26330855250000074
182292.0,0.21917862749999997,-0.872399584,6.414431698499999,1.622913603588699,0.7133439905581144,-1.0013791676732426,6.477194942229062,2.036042350008611,-0.217903763,0.11728753399999992,0.18799348049999853
182302.0,0.15210114149999998,-0.7024503394999999,6.5544706605,1.7697341909249664,0.5571981090284417,-0.9816604377842106,6.593758933723963,2.099067901318203,-0.06707748599999999,0.16994924450000004,0.1400389620000011
182312.0,0.18328628849999998,-0.5228905779999999,6.6119376295,1.8358158470639756,0.5052379118673185,-0.9928514889479984,6.635113234641241,2.1473796243388192,0.031185146999999996,0.17955976149999997,0.057466969000000034
182322.0,0.24075325749999998,-0.270271274,6.7496229955,1.8414131179751214,0.5305504220089923,-1.0232289445789595,6.7593209181047795,2.1723911927571766,0.05746696900000001,0.25261930399999993,0.13768536600000036
182332.0,0.397561591,-0.215157901,6.9961621764999995,1.8214273527105345,0.5971661488991118,-1.0767878633349095,7.010751267937723,2.198562510646095,0.1568083335,0.05511337299999999,0.24653918099999927
182342.0,0.6644986039999999,-0.12660385149999998,7.171014746,1.8160988625041956,0.6784374055182278,-1.1156912523618632,7.202849395710147,2.236796674307283,0.26693701299999995,0.08855404950000004,0.1748525695000005
182352.0,0.9601691014999999,0.06374322499999999,7.404413016,1.8160988625041956,0.7586422659643752,-1.1276816643230643,7.46668065566748,2.268351626654702,0.29567049749999996,0.19034707649999996,0.23339827000000035
182362.0,1.0990312654999999,0.227710413,7.6258471729999995,1.822493748883503,0.8050069375436046,-1.0869142636549807,7.708000185566114,2.2695599244676106,0.13886216399999995,0.163967188,0.22143415699999913
182372.0,1.0882439505,0.40128811799999997,7.797071281999999,1.8792501108291066,0.7890197215953366,-1.0088404502255184,7.882869250852568,2.274179446334176,-0.010787314999999964,0.17357770499999997,0.17122410899999974
182382.0,1.023618127,0.67665885,7.950251154999999,1.9919634739229004,0.7210723084859453,-0.924904075838607,8.044386533278043,2.3115603615331155,-0.0646258234999999,0.27537073200000006,0.15317987300000002
182392.0,0.8883844235,0.9160391765,8.196888402499999,2.156637034177817,0.6339384909093805,-0.8372379328401839,8.295621383587804,2.3987348047731865,-0.13523370349999997,0.23938032649999996,0.24663724749999982
182402.0,0.7303012254999999,1.0741223745,8.550025868999999,2.33116995937725,0.5353465867934727,-0.7567660370184812,8.648122404079253,2.508713650913354,-0.15808319800000015,0.15808319799999992,0.3531374664999998
182412.0,0.616642152,1.3482182419999997,8.988186991,2.4308265143368746,0.45753980873956546,-0.7077379930007087,9.109634754306365,2.5727715184448985,-0.11365907349999982,0.2740958674999998,0.43816112200000035
182422.0,0.5651572395,1.5721040615,9.344952917999999,2.4470807656606977,0.4066460077514108,-0.696812231883224,9.493105862950268,2.576647538137257,-0.05148491250000009,0.2238858195000002,0.35676592699999965
182432.0,0.6274294669999999,1.7791224429999999,9.5052916455,2.3935218469047475,0.41064281173847783,-0.7053399106084683,9.690692115079205,2.5288492916621106,0.062272227499999944,0.20701838149999996,0.160338727500001
182442.0,0.766291631,1.8558104459999998,9.479009823499998,2.287470405565816,0.4793895856452825,-0.7181296833670828,9.689316926865011,2.4450041867648205,0.13886216400000007,0.0766880029999999,-0.026281822000001398
182452.0,0.8548456804999999,1.9850620929999998,9.313767771,2.165964073700475,0.5979655096965253,-0.7239922443245317,9.561250061715432,2.360747315828158,0.0885540494999999,0.12925164700000003,-0.16524205249999824
182462.0,0.793750251,2.183744822,9.2383546325,2.0780308953264965,0.7429220853916623,-0.7205277657593231,9.52606829832794,2.3214878608608447,-0.06109542949999991,0.19868272900000017,-0.07541313850000009
182472.0,0.7387349444999999,2.4232232149999997,9.384473717499999,2.090820668085111,0.813799906315152,-0.7154645655992875,9.72039541491953,2.354929064375103,-0.05501530650000008,0.23947839299999973,0.1461190849999987
182482.0,0.805714364,2.7655733664999995,9.8153779185,2.2320457298394842,0.7669029093140644,-0.692548392520602,10.229331129884663,2.4596323888727603,0.06697941950000008,0.3423501514999998,0.4309042010000006
182492.0,0.9745848769999998,3.2947402004999997,10.4641858825,2.4188361023756735,0.6070255138436278,-0.6216705715971123,11.01382380714256,2.5701599880557904,0.1688705129999999,0.5291668340000002,0.6488079640000013
182502.0,1.3300759395,3.8501888565,11.0771015075,2.5755160546564566,0.38106471690493,-0.4929682472257984,11.802340193496049,2.6498133819263328,0.35549106250000007,0.5554486560000003,0.6129156249999994
182512.0,1.7861832309999999,4.228431347,11.5943042285,2.6650479546252615,0.16576439103741344,-0.2936551373065499,12.469882627114451,2.6862970374578503,0.45610729149999996,0.3782424904999999,0.5172027210000003
182522.0,1.9992817354999999,4.5360659575,11.8635948375,2.6320071265557567,0.022673572312658333,-0.04531223804027679,12.857601031959694,2.6324947870865625,0.2130985045,0.30763461050000007,0.26929060900000046
182532.0,2.0722432115,4.504978877,12.0036337995,2.483320782249108,-0.029553660224019982,0.17558535873838554,12.987542146315555,2.4896959140799195,0.07296147600000014,-0.031087080499999864,0.14003896199999843
182542.0,2.0531202439999996,4.105161756499999,11.9330259195,2.2877374409413713,-0.03168470724070506,0.32587042463986127,12.785333917376253,2.3110469603651214,-0.01912296750000042,-0.39981712050000073,-0.07060787999999896
182552.0,1.8831709994999999,3.8405783394999995,11.745130505499999,2.1110717233960012,0.0018901915799098587,0.38396021813398856,12.499778621496505,2.145705674890168,-0.1699492444999997,-0.2645834169999999,-0.18789541400000154
182562.0,1.819721974,3.7591831444999997,11.6325501635,1.9940962662688373,0.06237632213702535,0.3645067782912597,12.359573992775609,2.028096623963201,-0.06344902549999998,-0.08139519499999981,-0.11258034199999933
182572.0,1.8125631194999998,3.8752938805,11.680504681999999,1.970113697017183,0.12845972360528665,0.3354627542088221,12.439351966587175,2.0025946018165603,-0.007158854500000089,0.11611073600000044,0.04795451849999921
182582.0,1.8999403709999998,4.1171258695,12.019226372999999,2.013013890031204,0.17668840682564596,0.33572978958437727,12.84610063186804,2.048452637035944,0.08737725149999997,0.24183198899999958,0.33872169099999994
182592.0,1.9680965885,4.574409959,12.608213772,2.066572808787154,0.1761560814037877,0.3906203945595989,13.556020255779872,2.1105303673910645,0.06815621750000012,0.4572840894999999,0.5889873990000005
182602.0,1.9429915645,5.0879842195,13.274967905499999,2.0854921778787725,0.13538693540645214,0.5169246365386725,14.348782963361534,2.152862821020637,-0.02510502399999992,0.5135742605000004,0.6667541334999996
182612.0,1.8867013934999999,5.6816788105,13.819727312999998,2.042857274911055,0.0767648164904666,0.7101098954541689,15.060742984979116,2.1641198548901506,-0.05629017100000011,0.5936945910000002,0.5447594074999991
182622.0,1.6197643805,6.0851243915,14.236313804999998,1.943467755326986,0.051185270973237704,0.9342049354224848,15.56679177810246,2.156948239835172,-0.26693701299999995,0.4034455809999997,0.4165864920000004
182632.0,1.3659682784999998,6.310187009,14.424209219,1.7867878030462028,0.06557376532667895,1.1836142308617266,15.803231980196495,2.1442605297193227,-0.25379610200000013,0.2250626174999999,0.18789541400000154
182642.0,0.9913542485,6.3856001475,14.564248180999998,1.6013291167292854,0.12073140567745574,1.4034454314674203,15.933486673278162,2.132718943393297,-0.3746140299999998,0.07541313850000009,0.14003896199999843
182652.0,0.569962498,6.154555473499999,14.681633781499999,1.4235987483401988,0.16229991247220468,1.5675849209712271,15.929650994908746,2.123746016434318,-0.4213917505,-0.2310446740000005,0.11738560050000046
182662.0,0.006080123,5.953421081999999,14.822849541499998,1.2802426395691406,0.16816247342965365,1.666709150508993,15.973732440398658,2.108368854359063,-0.5638823749999999,-0.20113439150000012,0.1412157599999997
182672.0,-0.47150373199999995,5.74277424,14.9138552535,1.1949745789629576,0.0962165110039434,1.7037485278948166,15.988272272614294,2.083262083286984,-0.47758385499999995,-0.21064684199999917,0.09100571200000118
182682.0,-0.8103234894999999,5.605088873999999,14.930624624999998,1.1624660763153112,-0.03781430357370914,1.6992176531566394,15.968631661345638,2.059149808279581,-0.33881975749999993,-0.13768536600000125,0.016769371499998798
182692.0,-0.9910600489999999,5.4698551705,14.9258193665,1.1627331116908663,-0.14653086268043594,1.686427880398025,15.92738520185771,2.0536451929493498,-0.1807365595,-0.13523370349999908,-0.004805258499997578
182702.0,-1.0856942215,5.4625982495,14.816867484999998,1.1552718291385906,-0.1976916990441457,1.6696413036523434,15.82903261877014,2.0399600706715026,-0.09463417250000017,-0.00725692099999975,-0.10895188150000301
182712.0,-1.1431611904999999,5.581160647999999,14.508056076499997,1.0902548238432979,-0.20408658542345295,1.6619129857245127,15.586528247339677,1.9980644852914906,-0.05746696899999981,0.11856239849999906,-0.30881140850000044
182722.0,-1.060491131,5.5188884205,14.163254262499999,0.9660833742101612,-0.14653086268043594,1.6720393860445837,15.237471645292176,1.9366218237248882,0.08267005949999984,-0.06227222749999939,-0.34480181399999843
182732.0,-1.0413681635,5.351292772,13.740685714,0.8019421393771025,-0.033550464211087,1.6962872453425408,14.78266639935213,1.8765999166762448,0.019122967499999977,-0.16759564849999986,-0.42256854849999925
182742.0,-1.2448561509999998,5.274702835499999,13.2988961315,0.6191485708279805,0.11433651929814853,1.7234672577838486,14.360807608067867,1.83487252447044,-0.20348798749999975,-0.07658993650000046,-0.4417895825000002
