timestamp,ax,ay,az,gx,gy,gz,acc_mag,gyro_mag,dax,day,daz
173432.0,0.4394359865,1.4055871445,8.757338449999999,0.06067637144558287,0.7126668028083406,0.04852887985170233,8.880301567788296,0.7168895633614186,0.0,0.0,0.0
173442.0,0.827288994,1.5324851954999998,8.814805418999999,0.09718167808029626,0.6945467945141355,0.07277848447891155,8.985194072965367,0.7050788864569768,0.3878530075,0.12689805099999973,0.057466969000000034
173452.0,1.046369555,1.7935382185,9.231391911,0.14541210662990756,0.6878848727592731,0.09729163382317191,9.462043394601785,0.7097858416012334,0.21908056100000006,0.2610530230000001,0.4165864920000004
173462.0,1.1649319535,2.0879338515,9.481559552499998,0.18937869581689673,0.6119438516757478,0.14339101535609813,9.77836927979962,0.6564301572276453,0.11856239849999994,0.29439563299999993,0.25016764149999915
173472.0,1.5958361545,2.3980201245,9.615616457999998,0.21096143734705858,0.49310089224895,0.21746627946924146,10.037792258105204,0.5787441582343978,0.43090420099999993,0.310086273,0.1340569054999996
173482.0,1.946620025,2.6817265089999998,9.722214743499999,0.22668336324902352,0.38145392532812467,0.31366010119290894,10.271438366145857,0.5433922187540683,0.35078387050000015,0.28370638449999985,0.1065982855000005
173492.0,2.16923098,2.875702046,9.8418558735,0.2610576228670518,0.2658084090909804,0.44182835481311256,10.480331690204599,0.5779424607323255,0.22261095499999994,0.19397553700000003,0.11964113000000154
173502.0,2.3404550889999998,2.9738666125,9.972382384999998,0.3028914197081039,0.1725467405106634,0.5779902164074501,10.666303159259373,0.6749727994937099,0.17122410899999974,0.09816456650000038,0.1305265114999976
173512.0,2.3512424039999997,2.9822022649999997,10.236965801999999,0.3343335261827818,0.11685677473802834,0.712553356406961,10.918669333900368,0.7957177252385501,0.010787314999999964,0.008335652499999568,0.26458341700000076
173522.0,2.238662062,2.955920443,10.542148749999999,0.34952312666288843,0.06223145980910981,0.8393899238078929,11.17523931557217,0.9113806092146105,-0.11258034199999978,-0.02628182199999962,0.30518294800000056
173532.0,2.0339972765,2.8194118749999997,10.925294565499998,0.36231289942150285,-0.01903979681000614,0.9499722398850017,11.465090038226661,1.0168974419782506,-0.2046647854999999,-0.13650856800000044,0.38314581549999893
173542.0,1.7658834655,2.6566214849999996,11.284414088499998,0.39029052733097197,-0.15333764676321382,1.03790541825898,11.726635640669796,1.119413590631504,-0.2681138110000001,-0.16279039000000006,0.3591195230000004
173552.0,1.5468029045,2.3729151004999998,11.606366407999998,0.43292543029868946,-0.3233396972244695,1.1018560273813043,11.947010776604385,1.2272162372935858,-0.21908056099999995,-0.28370638449999985,0.32195231949999936
173562.0,1.4725665639999999,2.243565387,11.778767315,0.4497120070443709,-0.4717590061555633,1.1356962162482223,12.080620737034481,1.309428632942357,-0.07423634050000016,-0.1293497134999999,0.17240090700000188
173572.0,1.4282405059999999,2.2711220735,11.887719196499999,0.4158718181774529,-0.5469024117709271,1.157280703107636,12.186703168230226,1.3458641249919627,-0.044326058,0.027556686500000094,0.10895188149999946
173582.0,1.4366742249999997,2.3405531555,12.0134404495,0.35058777750660497,-0.5407728154379231,1.1817938524518963,12.323350734933381,1.3460994529925243,0.008433718999999895,0.06943108199999992,0.12572125300000003
173592.0,1.3840125145,2.3633045835,12.193000210999998,0.2570590735507328,-0.4778886024885674,1.2103055511124758,12.496797723422217,1.3263847144538838,-0.05266171049999979,0.022751428000000296,0.17955976149999842
173602.0,1.1804264604999999,2.3884096075,12.501811619499998,0.16619548736265605,-0.3995477536835499,1.2417494029164058,12.782534993158126,1.314990846788118,-0.20358605400000007,0.025105023999999698,0.30881140850000044
173612.0,0.9075073909999999,2.3633045835,12.791500060499999,0.09318487409322926,-0.3406603447212612,1.2715927877962565,13.039603215469526,1.3197276647857448,-0.2729190695,-0.025105023999999698,0.2896884410000009
173622.0,0.6573397495000001,2.356145729,13.2033793605,0.03776194369614932,-0.31161632063882355,1.2971723333134857,13.428058116490078,1.3346110886674598,-0.2501676414999998,-0.007158854500000089,0.4118793000000007
173632.0,0.4478697055,2.377720359,13.59593956,-0.017130406608324347,-0.30602079505692975,1.3232859495818248,13.809551545864215,1.3583180342609436,-0.20947004400000008,0.021574629999999928,0.3925601995000001
173642.0,0.2095681105,2.311819671,13.865328235499998,-0.1069275966234326,-0.3078848066980597,1.353663405212786,14.058298476782836,1.3923473631703551,-0.238301595,-0.06590068800000015,0.26938867549999834
173652.0,-0.16269232349999999,2.1657986525,14.169432451999999,-0.23376416402436453,-0.33399842296639887,1.3811087077003967,14.3349212975547,1.4400214906076614,-0.372260434,-0.14602101849999993,0.30410421650000075
173662.0,-0.482291047,1.9682927215,14.323789123,-0.36592922163163516,-0.39048949486569934,1.3837738254681924,14.466434105601122,1.4836496354919104,-0.31959872349999996,-0.19750593100000002,0.1543566710000004
173672.0,-0.8199340065,1.8449250644999997,14.396848665499999,-0.4778432239280155,-0.4624337119621576,1.3661861425958455,14.53771962055757,1.519422147013112,-0.33764295950000006,-0.12336765700000019,0.07305954249999935
173682.0,-1.0222451959999999,1.743230104,14.2723042105,-0.5708396024620294,-0.5322468820419307,1.3294155459148287,14.414662809559333,1.5415869384833236,-0.20231118949999982,-0.10169496049999971,-0.12454445499999878
173692.0,-1.16110736,1.6115267945,14.055675312,-0.6641012710423463,-0.5804773105915421,1.2854489567278398,14.19532308146609,1.5589622916107821,-0.13886216400000007,-0.13170330949999998,-0.21662889849999978
173702.0,-1.2832001524999999,1.501398115,13.781579444499998,-0.7608274181878721,-0.6036587737165308,1.2294919555796495,13.922382372143298,1.5668161169028227,-0.12209279249999994,-0.11012867950000005,-0.2740958675000016
173712.0,-1.3861699775,1.4618773155,13.428343911499999,-0.8503575728274252,-0.5924677225527432,1.16527431108177,13.57862189979583,1.559483960802059,-0.10296982500000018,-0.03952079949999998,-0.35323553299999944
173722.0,-1.4878649379999997,1.3900926374999998,13.0441193645,-0.9329622609950649,-0.5290494388522772,1.1010566665838908,13.202088835100502,1.5370873990179486,-0.10169496049999971,-0.07178467800000021,-0.38422454699999875
173732.0,-1.5489603674999999,1.3542002985,12.663425211499998,-1.002775431074838,-0.41473735416365654,1.0464313516549721,12.829476791973903,1.5075092742110907,-0.06109542950000013,-0.035892338999999884,-0.3806941530000021
173742.0,-1.7237148705,1.2954584649999998,12.3833472875,-1.0589977222693314,-0.2777743864426535,0.9907413858823372,12.569673648593929,1.4765511434539877,-0.17475450300000017,-0.05874183350000006,-0.28007792399999865
173752.0,-1.997810738,1.187781448,12.161815063999999,-1.092305585714391,-0.13468531304715042,0.9281224629792846,12.381914963527185,1.439681538542535,-0.27409586750000003,-0.10767701699999987,-0.22153222350000057
173762.0,-2.2899508414999996,1.074024308,11.965485931,-1.1146894333712185,-0.0014538592669112766,0.8441860885923732,12.229891930659909,1.3982792277471285,-0.2921401034999995,-0.11375713999999992,-0.196329132999999
173772.0,-2.5927801935,0.9459494589999999,11.8900727925,-1.1362721749013804,0.11046014302946912,0.7386669726753001,12.206193531225738,1.359759094536417,-0.3028293520000003,-0.1280748490000001,-0.07541313850000009
173782.0,-2.8250016655,0.8657310619999999,11.832703889999998,-1.1773083562742712,0.20265716076606957,0.6192916878266439,12.196024189472999,1.3456028705283607,-0.23222147199999998,-0.080218397,-0.05736890250000215
173792.0,-3.026136057,0.7663896975,11.769254864499999,-1.244723443961804,0.26527608366912214,0.49085814416013723,12.176215038732952,1.3640562929011746,-0.20113439150000012,-0.09934136449999997,-0.06344902549999887
173802.0,-3.2189347959999997,0.7364794149999999,11.569297271,-1.3217308612182979,0.274868413238083,0.36588733372958726,12.031316739841337,1.398713214020884,-0.19279873899999966,-0.02991028250000005,-0.19995759349999886
173812.0,-3.3302402735,0.7077459304999999,11.211354545999999,-1.3902105997495473,0.2548826479734959,0.25263989988468316,11.716905535912437,1.4357846617469208,-0.1113054775000002,-0.028733484500000017,-0.3579427250000009
173822.0,-3.408007008,0.677835648,10.728965432499999,-1.4533635934037101,0.23409926724074745,0.14978590173540537,11.2776181964126,1.479697272388068,-0.07776673449999993,-0.02991028249999994,-0.4823891135
173832.0,-3.4367404925,0.6502789614999999,10.191462946,-1.498927158856274,0.23676438500854277,0.05652423315508835,10.774969369805635,1.5185634627828979,-0.028733484500000017,-0.027556686500000094,-0.5375024864999993
173842.0,-3.4247763794999995,0.6035993075,9.6767118875,-1.5325020576768889,0.28845754679411084,-0.028478537404791473,10.282615344710674,1.5596734722944707,0.011964113000000332,-0.04667965399999985,-0.5147510584999999
173852.0,-3.4379172904999997,0.5233809105,9.208640483,-1.5647435249489803,0.36946176803767167,-0.11214787641614764,9.843386735211674,1.6116765938289026,-0.013140911000000255,-0.080218397,-0.46807140449999984
173862.0,-3.3721146689999997,0.3976596575,8.865015467,-1.5876596980276658,0.4696523937484061,-0.20327675265052758,9.493039016786838,1.6681001546259298,0.06580262150000005,-0.12572125300000003,-0.3436250160000007
173872.0,-3.2943479344999997,0.22888721099999998,8.5658145755,-1.607910753338556,0.578635988230688,-0.29787185277936823,9.180321182330824,1.7346251002034074,0.07776673449999993,-0.1687724465,-0.29920089149999995
173882.0,-3.2763036984999996,0.07090207949999999,8.3239825865,-1.6260307616327612,0.675627425422517,-0.39539736072230736,8.945830264991473,1.804657177589484,0.018044236000000158,-0.1579851315,-0.24183198899999958
173892.0,-3.3410275885,-0.11228614249999999,8.127653453499999,-1.6302946009953834,0.7249225048158447,-0.48173007217220687,8.78827765748819,1.8480900915426755,-0.06472389000000023,-0.18318822199999998,-0.19632913300000077
173902.0,-3.3517168369999997,-0.2415377895,7.879839408,-1.6116422672793198,0.7267882617862267,-0.5606032463990825,8.566458740638142,1.854693498943872,-0.01068924849999986,-0.129251647,-0.2478140454999993
173912.0,-3.3433811845,-0.4199207529999999,7.5649478765,-1.5724718428768112,0.7078688926946082,-0.6376106636555765,8.281483415296476,1.8385574302404561,0.008335652499999568,-0.17838296349999994,-0.3148915314999998
173922.0,-3.301506789,-0.545642006,7.147184586499999,-1.5210439711375463,0.6945467945141355,-0.7143527908657671,7.891762780901867,1.8183151326767997,0.04187439550000027,-0.1257212530000001,-0.4177632900000008
173932.0,-3.2415881575,-0.636647718,6.7749241525,-1.4554946404203952,0.7038720887075411,-0.8025512592860485,7.53742737091421,1.804990052420133,0.059918631499999986,-0.09100571199999996,-0.3722604339999993
173942.0,-3.1601929624999996,-0.6821505739999999,6.533092163499999,-1.369694254392354,0.7297204149295772,-0.894748277022649,7.289268974501363,1.7914041179240991,0.08139519500000025,-0.045502855999999925,-0.24183198900000047
173952.0,-3.0596748,-0.7132376545,6.3259757155,-1.2809617152209622,0.7715542117706293,-0.9856118632107259,7.06316406341007,1.790974472867926,0.10051816249999979,-0.031087080500000086,-0.20711644799999895
173962.0,-2.9088485229999996,-0.7527584539999999,6.184759955499999,-1.2095498235463622,0.8251131305265793,-1.0796728925884562,6.875994526392826,1.8192075221916635,0.15082627700000018,-0.03952079949999987,-0.14121576000000147
173972.0,-2.7448813349999996,-0.7503067914999999,6.0219695655,-1.1658502697349282,0.909848865710904,-1.1740009573417416,6.660439270229154,1.8882028645555406,0.16396718799999999,0.0024516624999999515,-0.16279038999999873
173982.0,-2.6071959689999997,-0.7730582195,5.945281562499999,-1.1471979360188649,1.0063079774808745,-1.2635311119812949,6.537695518216552,1.981219251090671,0.13768536599999992,-0.022751428000000073,-0.076688003000001
173992.0,-2.4874567725,-0.8197378734999999,5.854373916999999,-1.127746241505388,1.088643884943707,-1.343470682381139,6.4135095958731005,2.0644298408695074,0.11973919649999987,-0.04667965399999996,-0.09090764549999975
174002.0,-2.4072383755,-0.902407933,5.847116996,-1.0856454092887808,1.1318111133332829,-1.4143485033046288,6.387324466389137,2.111872164638422,0.08021839699999989,-0.08267005950000006,-0.00725692099999975
174012.0,-2.1954147355,-0.8700459879999999,5.9297870555,-0.996645834741834,1.097970924466365,-1.4609802102594134,6.382726721837681,2.0816594932052195,0.21182363999999998,0.032361945000000114,0.08267005950000073
174022.0,-2.0685166845,-0.8042433665,5.962050933999999,-0.8607510085230514,0.9769969180228818,-1.4913576658903747,6.3617308970298625,1.9797886160167824,0.12689805099999996,0.06580262149999994,0.032263878499998455
174032.0,-1.8326667519999997,-0.789827591,5.9309638535,-0.7168608290008829,0.8219156873369257,-1.4929563874852014,6.2577014373422015,1.8488790171829055,0.2358499325000003,0.01441577549999995,-0.031087080499998976
174042.0,-1.553765626,-0.683327372,5.778960778499999,-0.5972185087766717,0.6729623076547215,-1.4711066105794846,6.023081569869772,1.7244427721557067,0.27890112599999983,0.10650021899999995,-0.15200307500000054
174052.0,-1.278394894,-0.6629295399999999,5.581356780999999,-0.5196787660983196,0.5783689528551329,-1.4330008370206924,5.764140230496181,1.6303582626104667,0.27537073199999984,0.020397832000000116,-0.1976039974999999
174062.0,-1.1370810674999998,-0.7359890825000001,5.295296800499999,-0.47517985148947217,0.5442617286126598,-1.3943644833692939,5.465784617876162,1.5704359372402668,0.14131382650000024,-0.07305954250000013,-0.28605998050000014
174072.0,-1.0257755899999998,-0.8891689555,4.963733964,-0.43760814868179027,0.5631810977042783,-1.3773108712480573,5.146017086818889,1.5510187222152356,0.11130547749999997,-0.1531798729999999,-0.33156283649999896
174082.0,-0.9742906774999999,-0.9778210714999999,4.776917281499999,-0.37578858657615105,0.6196704242743267,-1.3943644833692939,4.972355084507357,1.5714518156796737,0.05148491249999998,-0.08865211599999989,-0.18681668250000083
174092.0,-0.943203597,-1.043623693,4.782899338,-0.26707202746942427,0.6766938215954855,-1.4335349077718025,4.98546983898464,1.6075647196434868,0.031087080499999864,-0.06580262150000016,0.00598205650000061
174102.0,-0.7875720615,-1.0771624359999998,4.9577519075000005,-0.11811864778722024,0.7246572147695416,-1.487893187325166,5.134184710536299,1.6591884253336846,0.15563153549999997,-0.033538742999999815,0.1748525695000005
174112.0,-0.5314223634999999,-0.9598749019999999,5.1228958935,0.0135123390689401,0.7497044348649123,-1.5438501884733562,5.239067845672224,1.7163078766388182,0.2561496980000001,0.11728753399999992,0.16514398599999947
174122.0,-0.19142580799999998,-0.7575637125,5.3623742865,0.0990474350506782,0.7489050740674988,-1.5776903773402742,5.419004023525137,1.7492215786189758,0.33999655549999996,0.20231118949999993,0.23947839299999973
174132.0,0.07198081099999999,-0.5432884099999999,5.532323530999999,0.1595353109370457,0.7022733671127144,-1.5718295617120772,5.559401693100512,1.72895562946641,0.26340661899999995,0.21427530250000004,0.1699492444999997
174142.0,0.4359055925,-0.47983938449999997,5.705901236,0.2421382537754333,0.5970212865711964,-1.5270636117276746,5.7426098975532405,1.6574041826975436,0.3639247815,0.06344902549999998,0.17357770500000047
174152.0,0.8548456804999999,-0.40079778549999995,5.869868424,0.3657773779867116,0.4962983354386036,-1.452187241487866,5.945313727416195,1.577641566499216,0.4189400879999999,0.07904159900000002,0.16396718799999999
174162.0,1.174444404,-0.2368305975,5.979997103500001,0.48008946267533226,0.42541876918586186,-1.353330047325655,6.09883380228282,1.4976545791142772,0.31959872350000007,0.16396718799999996,0.11012867950000071
174172.0,1.4845306769999997,-0.115914603,6.0339336784999995,0.5541664721177275,0.39850753744936124,-1.249941978425267,6.214951581684226,1.4241712276454095,0.3100862729999998,0.12091599449999998,0.05393657499999893
174182.0,1.6652672364999999,-0.1338607725,6.164362123499999,0.592535790393571,0.4134283572246608,-1.1694700826035644,6.386735791076382,1.3746570276107433,0.18073655950000012,-0.017946169499999998,0.13042844499999973
174192.0,1.8053061984999998,-0.17210670749999998,6.3391166265,0.6199810928811818,0.43261476169183444,-1.1132460460798193,6.593417231866777,1.345677839111642,0.140038962,-0.03824593499999998,0.17475450300000084
174202.0,1.9753535094999999,-0.23320213699999998,6.483960847,0.6484927915417611,0.43900964807114173,-1.074876727803976,6.782193818347001,1.3298993765528866,0.17004731100000003,-0.06109542949999999,0.14484422049999957
174212.0,2.111764011,-0.26674087999999996,6.6276282695,0.682067690362376,0.43154836551886594,-1.039436072012979,6.961045497186004,1.3160082347082944,0.13641050150000011,-0.03353874299999998,0.14366742250000009
174222.0,2.250626175,-0.418743955,6.724616038,0.7175066008241209,0.38891346255114845,-0.9970682044208166,7.103599477586767,1.2884930763673739,0.13886216399999984,-0.15200307500000004,0.09698776850000002
174232.0,2.4517605665,-0.520536982,6.7174571835,0.7737306373478662,0.3209660494417572,-0.9333846306740475,7.1698200561262215,1.2541471894652205,0.20113439150000012,-0.10179302699999998,-0.007158854500000089
174242.0,2.6816284425,-0.385205212,6.790418659499999,0.8747206238560141,0.26980521307804745,-0.8502476170845497,7.310902798578484,1.2493406393618596,0.22986787600000014,0.13533176999999996,0.07296147599999969
174252.0,2.8396135739999995,-0.10865768199999999,6.9508554535,1.0239392935845213,0.23729671043040104,-0.7356702423496257,7.509301117744138,1.282954446270878,0.15798513149999938,0.27654753000000004,0.16043679400000066
174262.0,2.9138499145,0.1630845895,7.288498412999999,1.196074136391714,0.21944373751175103,-0.5883155842622486,7.851071711802635,1.350875316364964,0.07423634050000061,0.27174227149999997,0.33764295949999923
174272.0,2.9114963185,0.34019268849999995,7.834336552,1.3498219355291465,0.19839332140344745,-0.43430074974926103,8.364769637470667,1.4317808173201347,-0.002353596000000291,0.17710809899999996,0.5458381390000007
174282.0,2.7726341544999995,0.40128811799999997,8.48079092,1.453742329851393,0.18613587406669124,-0.2960060958089863,8.931536650381185,1.4952033085745917,-0.1388621640000003,0.06109542950000002,0.6464543680000006
174292.0,2.5104043335,0.33666229449999996,9.140386199,1.5078353193584533,0.15442673221645828,-0.19208570148673992,9.484836913994002,1.5278455035256395,-0.2622298209999996,-0.06462582350000001,0.6595952789999995
174302.0,2.2099285775,0.19897692849999998,9.8430326715,1.5155618919570322,0.10699740979351237,-0.13266422177334097,10.090028161900387,1.525115107063603,-0.300475756,-0.13768536599999998,0.7026464724999997
174312.0,2.018404703,0.042168594999999996,10.4655588135,1.5070359585610398,0.038782961308566,-0.1094827586483523,10.658501630826178,1.5115052010909877,-0.19152387450000008,-0.15680833349999998,0.6225261419999999
174322.0,1.9082760235,0.057663101999999994,11.16585169,1.5049031662151027,-0.062474060575137026,-0.10175444072052141,11.32788975839159,1.509632575872465,-0.11012867949999983,0.015494506999999998,0.7002928765000007
174332.0,1.948973621,0.24801017849999998,11.801518742999999,1.5011733976035908,-0.1765191098882025,-0.09029809951043063,11.963939646511667,1.5142107886960876,0.040697597499999905,0.1903470765,0.6356670529999988
174342.0,2.111764011,0.4574802224999999,12.262431293,1.4793236206978737,-0.2647175783084839,-0.054325118297575505,12.451347581996059,1.503803507609362,0.16279039000000006,0.20947004399999994,0.46091255000000153
174352.0,2.306916346,0.7400098089999999,12.5245630475,1.4270963881611953,-0.3249384188192963,0.008026769229921921,12.756729873900312,1.4636439137139141,0.19515233499999995,0.2825295865,0.2621317544999986
174362.0,2.433814397,0.9160391765,12.796305318999998,1.366875547650383,-0.34332546248905654,0.09675930840131364,13.05787157652406,1.4126512307431585,0.12689805099999996,0.1760293675000001,0.2717422714999991
174372.0,2.4876529055,1.0811831625,12.961547371499998,1.3026579031525036,-0.3387945877508793,0.19508417714166618,13.242321710061065,1.3600578007959834,0.05383850850000016,0.1651439859999999,0.16524205250000001
174382.0,2.4482301724999997,1.1889582459999999,13.1351250765,1.227516242866392,-0.3196099286129576,0.29500776747684554,13.414132974723708,1.302296516097803,-0.03942273300000032,0.10777508349999998,0.17357770500000136
174392.0,2.2554314335,1.1494374465,13.3589128295,1.1550379550188232,-0.29882480255095717,0.3938649616390564,13.596644048470784,1.2563990401781668,-0.19279873899999966,-0.03952079949999998,0.22378775299999987
174402.0,1.9836891619999997,1.0093984845,13.5995680205,1.0774982123404713,-0.29989119872392567,0.4892594225653104,13.780499204896513,1.2207833187089039,-0.2717422715000004,-0.140038962,0.2406551910000001
174412.0,1.692823923,0.7364794149999999,13.658211787499999,0.9765082258323234,-0.32787057196264674,0.5593378826913867,13.782409223180242,1.17214602080585,-0.2908652389999997,-0.2729190695,0.058643766999999514
174422.0,1.450991934,0.49219576349999994,13.5397474555,0.8560682901399508,-0.3795637337482148,0.5942444677312734,13.62616583712598,1.1090753052833018,-0.24183198900000002,-0.24428365149999998,-0.1184643319999985
174432.0,1.3061477135,0.28635417999999996,13.273987240499999,0.7529472566151177,-0.4411162604782989,0.6022380757054073,13.341167783475385,1.0602847854854573,-0.1448442205,-0.20584158349999998,-0.265760215000002
174442.0,1.2702553745,0.18103075899999999,12.9172213135,0.703917467268093,-0.5117287913554854,0.5979759816720371,12.98079070450213,1.0559078706420884,-0.035892338999999884,-0.10532342099999997,-0.3567659269999979
174452.0,1.3755787955,0.21574629999999997,12.493475966999998,0.7076472358796049,-0.5708832356933293,0.5939791776849702,12.570827547405122,1.086040304393462,0.10532342100000003,0.03471554099999999,-0.4237453465000023
174462.0,1.5371923875,0.39883645549999996,12.1044461615,0.7228368363597116,-0.5866051615952942,0.6078336012873012,12.208179546151664,1.111782530202129,0.16161359199999992,0.1830901555,-0.3890298054999981
174472.0,1.6089770654999997,0.6263507355,11.790731427999999,0.7129774714151956,-0.5455689802224035,0.6613942653725031,11.916478928290573,1.1150895754127346,0.07178467799999977,0.22751428,-0.31371473350000123
174482.0,1.5264050725,0.7926715194999999,11.6303927005,0.6924593807287502,-0.4600356295699174,0.7591850633617455,11.756882025053404,1.1258306865886238,-0.08257199299999973,0.16632078399999994,-0.16033872749999922
174492.0,1.3025192529999998,0.783159069,11.5058482455,0.6594185526592456,-0.353982442901734,0.8796267443833701,11.605793311112688,1.1549370575526532,-0.2238858195000002,-0.009512450499999936,-0.12454445500000055
174502.0,0.8428815675,0.689799761,11.592048699000001,0.6242449322438038,-0.2617871704943855,0.9907413858823372,11.643103799549952,1.1999094764887817,-0.45963768549999984,-0.09335930800000003,0.08620045350000183
174512.0,0.273017136,0.5018062805,11.639905151,0.6005293983677049,-0.22688058545449888,1.0664171169195593,11.653915214380755,1.2447312262569292,-0.5698644315,-0.18799348049999998,0.04785645199999955
174522.0,-0.24644111449999997,0.3150876645,11.6578513205,0.5810777038542282,-0.2340748326312195,1.085601776057481,11.664712206913622,1.2533848337071072,-0.5194582504999999,-0.186718616,0.017946169500000053
174532.0,-0.549368533,0.18456115299999998,11.627941038000001,0.5621600800918616,-0.2649846136840391,1.049628794844626,11.642374387875172,1.2198202359795272,-0.30292741850000005,-0.1305265115,-0.029910282499999497
174542.0,-0.645081437,0.17504870250000001,11.5309532695,0.5437730364221013,-0.2863020651678978,0.9816813817352347,11.550309753941736,1.1581693843754957,-0.09571290399999999,-0.009512450499999964,-0.09698776850000179
174552.0,-0.5744735569999999,0.34264435099999996,11.392091105499999,0.5171270947319039,-0.2647175783084839,0.9121352470310164,11.411711737288874,1.0814280083517818,0.07060788000000007,0.16759564849999994,-0.13886216400000073
174562.0,-0.41884202149999994,0.5401502819999999,11.267644716999998,0.4763579487345683,-0.1951714436042659,0.8745635442233346,11.288357207080969,1.0148251970687656,0.15563153549999997,0.19750593099999997,-0.12444638850000089
174572.0,-0.4080547065,0.7544255845,11.1814442635,0.43265839492313435,-0.10937105757622466,0.8697673794388543,11.214292774125438,0.9775738382693845,0.010787314999999964,0.21427530250000004,-0.08620045349999828
174582.0,-0.5241654425,0.922021233,11.206549287499998,0.40761117482776366,-0.05074893866023912,0.9046739644787408,11.256625582224043,0.9935579030058049,-0.11611073599999999,0.16759564850000008,0.025105023999998366
174592.0,-0.77080269,0.9770365394999999,11.30118346,0.4129396650341024,-0.038491491323482944,0.948905843712033,11.369498000483881,1.035578612222958,-0.24663724750000005,0.05501530649999986,0.09463417250000283
174602.0,-1.010281083,0.9662492245000001,11.377773396499999,0.4347911872690714,-0.07446447253633806,0.9768852169507543,11.463334283384464,1.0718642923868142,-0.23947839299999996,-0.010787314999999853,0.07658993649999779
174612.0,-1.2712360395,0.922021233,11.465150647999998,0.44864561087140237,-0.12882275208970148,0.9771522523263093,11.572201329200995,1.0829149134795946,-0.2609549565,-0.04422799150000001,0.08737725149999953
174622.0,-1.5381730525,0.9172159744999999,11.5154587625,0.4430500852895085,-0.1938397573849942,0.9640954441921397,11.65388570366782,1.0785857662375085,-0.26693701299999995,-0.004805258500000131,0.05030811450000172
174632.0,-1.7237148705,0.9650724264999999,11.465150647999998,0.424132461527142,-0.24686460538983396,0.9398475848941825,11.63409803656941,1.0602565543993485,-0.18554181800000014,0.047856451999999994,-0.05030811450000172
174642.0,-1.9175923409999998,0.9974343714999999,11.4028784205,0.3945543666935941,-0.2820382258052757,0.901209485913532,11.605932620191108,1.0234242749675735,-0.1938774704999997,0.032361945,-0.06227222749999761
174652.0,-2.158247532,1.0452908235,11.290396144999999,0.35565097766664056,-0.31241568143623694,0.8527137673176176,11.542257596592975,0.9753009509354073,-0.2406551910000001,0.047856452000000105,-0.11248227550000145
