timestamp,ax,ay,az,gx,gy,gz,acc_mag,gyro_mag,dax,day,daz
166672.0,-0.5058270069999999,0.7867875294999999,8.4230297515,0.48361502776436077,0.1842369558405214,0.18320721158184478,8.474805353059233,0.5489914692893693,0.0,0.0,0.0
166682.0,-0.1179739995,0.781982271,8.5750328265,0.5195862636479639,0.18823375982758844,0.1904014587585654,8.611422769337766,0.5845122318719014,0.38785300749999996,-0.004805258499999909,0.15200307499999965
166692.0,-0.10120462799999999,1.032247979,8.630146199499999,0.5451675544944448,0.20768545434106525,0.18000976839219118,8.692249518486136,0.6105279904598301,0.016769371500000005,0.25026570800000014,0.0551133729999993
166702.0,0.067665885,1.2859460145,8.619358884499999,0.5699477392142602,0.2175448192855812,0.16348848169281285,8.715020562454821,0.6315810775186855,0.168870513,0.2536980354999998,-0.010787314999999964
166712.0,0.370495237,1.4116672675,8.795388252,0.6184452031394267,0.2415273885372353,0.15895935228388755,8.915656212427116,0.6826990730756095,0.302829352,0.12572125300000003,0.17602936750000175
166722.0,0.6972528149999999,1.600837546,9.0610504005,0.6861255808732628,0.268705655649291,0.17547889365401387,9.227755777929428,0.7574720352756426,0.32675757799999994,0.1891702785,0.2656621484999988
166732.0,0.9282974889999999,1.9372056409999998,9.492052668,0.7436813036162798,0.30361224068917764,0.21651507502690456,9.73208948662577,0.8319381297660414,0.23104467399999995,0.33636809499999987,0.43100226750000026
166742.0,1.1282550825,2.304758883,9.919426475,0.7780555632343082,0.32919353153565845,0.28472952351185093,10.245969677531034,0.8915210273706733,0.19995759350000009,0.36755324200000006,0.4273738070000004
166752.0,1.329389474,2.6087650329999996,10.296492167499999,0.7855168457865839,0.3518426692387889,0.3945124787915463,10.704703747716437,0.9468210363283178,0.20113439150000012,0.30400614999999975,0.37706569249999866
166762.0,1.4406949515,2.756060916,10.714255457499998,0.7791219594072767,0.3846164619327384,0.5384009129844628,11.156466453342153,1.022172389336943,0.11130547749999997,0.1472958830000004,0.4177632899999999
166772.0,1.4179435235,2.709381262,11.146434522999998,0.7684632336653473,0.40300350560249865,0.689485339683352,11.558300620516777,1.1083039297329829,-0.022751428000000073,-0.04667965400000007,0.43217906549999974
166782.0,1.2611351899999999,2.700947543,11.531933934499998,0.7460793860085201,0.39820734081801823,0.8248478404802762,11.910964690870621,1.1813456295484328,-0.15680833350000012,-0.008433719000000117,0.38549941149999967
166792.0,1.0827522264999998,2.6087650329999996,11.8671252315,0.7194334443183227,0.3771569247097147,0.9245061407691524,12.198633884230565,1.230667880047288,-0.17838296350000005,-0.09218251000000022,0.3351912970000015
166802.0,0.9319259495,2.422046417,12.213103843499999,0.6783990082746839,0.34038458269944616,0.999115475633406,12.485779924120418,1.2547185390428077,-0.15082627699999984,-0.18671861599999984,0.3459786119999997
166812.0,0.7344200184999999,2.3478100765,12.439343259,0.6259047403624505,0.30867544084921317,1.0438814256178086,12.680254162835901,1.2556773879231524,-0.19750593100000002,-0.07423634049999972,0.22623941550000026
166822.0,0.5728064264999999,2.3693847065,12.5865410755,0.5587566880504726,0.3033469506428745,1.0873139440536874,12.820417595963264,1.2595554858119784,-0.16161359200000003,0.021574629999999928,0.1471978165000003
166832.0,0.39324666499999994,2.3669330439999996,12.793657523499999,0.4945390435525933,0.30974183702218167,1.1435379805774328,13.01670802480108,1.2838177379296887,-0.17955976149999997,-0.0024516625000003955,0.20711644799999895
166842.0,0.1813249585,2.2328761385,12.939678542,0.4329865168225092,0.30201351909435076,1.203758821088245,13.132170245650675,1.3144294537226426,-0.21192170649999995,-0.1340569054999996,0.14602101850000082
166852.0,-0.009022117999999999,2.109606548,13.0378431085,0.374898468657634,0.2671069340544642,1.2517222142623012,13.207417389779073,1.3336804256265942,-0.1903470765,-0.12326959050000008,0.09816456650000127
166862.0,-0.26399501799999997,2.0724393445,13.120513167999999,0.32267123612095566,0.23193331363902248,1.2903585679136997,13.285803099467557,1.3501611097879012,-0.25497289999999995,-0.037167203500000134,0.08267005949999806
166872.0,-0.4578724885,2.0760678049999997,13.152777046499999,0.26431615258052527,0.19196527376835232,1.3297942823625115,13.323484858760485,1.3693306862303045,-0.19387747050000004,0.003628460499999875,0.03226387850000023
166882.0,-0.6015399109999999,1.9779032385,13.155228709,0.19370362170333866,0.161587818137391,1.376425989317296,13.31668103813756,1.3993499276805248,-0.14366742249999992,-0.09816456649999972,0.0024516625000003955
166892.0,-0.832584585,1.877385076,13.237800702,0.12229173002873868,0.14346780984318588,1.4230559509428287,13.396161362145458,1.4354882511565257,-0.23104467400000006,-0.10051816250000001,0.08257199300000018
166902.0,-1.1162909694999998,1.8174664445,13.426970980499998,0.06393664648830827,0.10802889938144103,1.4582295713582702,13.595324178432076,1.463622772660176,-0.28370638449999985,-0.059918631499999986,0.1891702784999989
166912.0,-1.4071562085,1.8282537595,13.583779314,0.01304110017090163,0.023560199572671456,1.4803463836395425,13.778303990538904,1.480591290279746,-0.29086523900000016,0.010787314999999964,0.15680833350000078
166922.0,-1.6094673979999998,1.8617925024999997,13.8219828425,-0.022130774915288098,-0.10061125006046512,1.4915374348033301,14.039368444697022,1.4950907378004783,-0.20231118949999982,0.033538742999999815,0.23820352850000148
166932.0,-1.7184192795,1.8043255334999997,14.026647628,-0.035721653800567944,-0.23464206463811768,1.5019291251697042,14.246241579135017,1.5205670100593789,-0.10895188150000013,-0.057466969000000034,0.20466478549999856
166942.0,-1.92798739,1.834235816,14.270833213,-0.06396631708559218,-0.3545496749086321,1.5179180864472244,14.516825995993756,1.5600873305244534,-0.20956811050000002,0.029910282500000385,0.24418558500000032
166952.0,-2.0547873745,1.6091731985,14.473144402500001,-0.13697693035501898,-0.4446139002992955,1.5275104160161854,14.706580106632284,1.5967881108108164,-0.12679998450000007,-0.22506261750000012,0.20231118950000138
166962.0,-2.126670119,1.5266012055,14.48638338,-0.2630141369585375,-0.46086815162311867,1.5323065808006657,14.721023757470869,1.621585442394443,-0.07188274449999987,-0.08257199299999995,0.013238977499998583
166972.0,-2.3517327365,1.3997031544999998,14.579742688,-0.41862769306635195,-0.4190343547820666,1.5093904077219802,14.834376044611128,1.6214494561387982,-0.2250626174999999,-0.12689805100000018,0.09335930800000014
166982.0,-2.6414211775,1.276433564,14.6096529705,-0.5753076453471349,-0.34522438071522643,1.4808787090614008,14.901286803450589,1.6257799699794673,-0.289688441,-0.12326959049999986,0.029910282499999497
166992.0,-2.9322864164999998,1.106386253,14.656332624499997,-0.734118644644603,-0.2642184141424136,1.4323829904654863,14.987677610930946,1.631092451751773,-0.29086523899999994,-0.17004731100000003,0.046679653999998294
167002.0,-3.2686545115,0.9735061454999999,14.777248619,-0.8969281932583899,-0.19493931481375065,1.3572413301793744,15.165714400535602,1.638470490631092,-0.3363680950000001,-0.1328801075,0.12091599450000245
167012.0,-3.5751123239999996,0.8012033049999999,14.801176845,-1.0557391925558581,-0.18161547130402594,1.2682417556324277,15.247891357893517,1.660122457183536,-0.3064578124999997,-0.1723028405,0.023928226000000663
167022.0,-3.721231409,0.7377542795,14.601317318,-1.2228108352030151,-0.22025182495542442,1.1744477616302522,15.086096645493672,1.7097089664280294,-0.14611908500000048,-0.06344902549999987,-0.19985952700000098
167032.0,-3.7403543765,0.69823348,14.300841561999999,-1.3632365361599748,-0.28420417940700066,1.084648826285892,14.798373229372956,1.7651200937832008,-0.019122967499999977,-0.03952079950000009,-0.30047575600000087
167042.0,-3.7403543765,0.712551189,14.0445937975,-1.4434413966061224,-0.35081990629712023,1.0236303703069183,14.551583934250027,1.8040002236987753,0.0,0.014317709000000067,-0.2562477644999994
167052.0,-3.735549118,0.7952212484999999,13.770497929999998,-1.5025975862732182,-0.41929964482836973,0.9863257028747916,14.290322504659953,1.84565708910912,0.004805258500000242,0.08267005949999984,-0.2740958675000016
167062.0,-3.6637644399999996,0.712551189,13.444917149999998,-1.5809366897489836,-0.46673071258056764,0.9639418552179642,13.953375800827478,1.909550280904247,0.07178467800000021,-0.08267005949999984,-0.32558077999999924
167072.0,-3.7008335769999996,0.7424614715,13.031861052,-1.6776628368945095,-0.48378432470180427,0.9498203962400781,13.567491318587496,1.9876515419554237,-0.03706913700000003,0.02991028249999994,-0.41305609799999843
167082.0,-3.8456777974999996,0.6035993075,12.590169536,-1.7570683365432433,-0.48991217570555634,0.9380952743251801,13.178237317313018,2.0511766922668135,-0.1448442205,-0.13886216399999995,-0.44169151600000056
167092.0,-3.8815701364999997,0.281646988,12.1591672685,-1.7989021333842956,-0.5003038660719306,0.9042550854582622,12.766803061603943,2.0746156519891144,-0.035892339000000106,-0.32195231950000003,-0.43100226750000026
167102.0,-3.9403119699999998,0.062566427,11.701883179,-1.8226176672603944,-0.4979057836796903,0.8440342449474498,12.347633089530802,2.0693571796757126,-0.05874183350000006,-0.219080561,-0.4572840894999999
167112.0,-4.0288660195,-0.009316317499999999,11.2685273155,-1.8473995973094621,-0.48538304629663104,0.7659604315179874,11.96710307706185,2.0579546536361244,-0.0885540494999999,-0.0718827445,-0.4333558634999992
167122.0,-4.118596867,-0.176911966,11.005218762999998,-1.8535274483132138,-0.47152687736504806,0.6793606846925329,11.751977621577714,2.0296385238840027,-0.08973084750000027,-0.1675956485,-0.2633085525000016
167132.0,-4.1497820139999995,-0.4055049775,10.756227919499999,-1.86338681325773,-0.4701951911457764,0.5884970985044561,11.536098305177815,2.009881282202403,-0.031185146999999525,-0.22859301149999997,-0.24899084349999967
167142.0,-4.160569329,-0.583887941,10.4473184445,-1.8897674649016243,-0.47499135593025676,0.5008309555060328,11.260449589152763,2.01188208044166,-0.010787315000000852,-0.1783829635,-0.3089094749999983
167152.0,-4.1090844165,-0.8257199299999999,9.975716645999999,-1.9316012617426763,-0.48458368549921765,0.4187603380895035,10.820411764161465,2.0350098288152663,0.05148491250000031,-0.24183198899999991,-0.47160179850000183
167162.0,-4.058776302,-0.9825282635,9.37711873,-1.9739691293348387,-0.4632662340153589,0.3452156540689664,10.264958964105503,2.056779904355344,0.050308114499999945,-0.15680833350000012,-0.5985979159999992
167172.0,-4.061129898,-1.15130071,8.7570442505,-1.9950195454431423,-0.41610220163871614,0.274870158567335,9.721321586003166,2.056404053920236,-0.002353595999999847,-0.1687724464999999,-0.6200744794999995
167182.0,-4.080350932,-1.382345384,8.159721199,-1.9859595412960396,-0.32657204699916303,0.20692274545794373,9.227198520371683,2.023240377249785,-0.01922103400000008,-0.23104467400000006,-0.5973230515000001
167192.0,-4.1581176665,-1.6289826315,7.6928265924999994,-1.9521193524291218,-0.21865310336059762,0.13018061824775307,8.89511708323523,1.9686356034332209,-0.07776673449999993,-0.24663724750000005,-0.46689460650000036
167202.0,-4.219213096,-1.9055301615,7.328901811,-1.903089563082097,-0.13018759956476103,0.04011639285708967,8.668656533807484,1.907959124606265,-0.06109542949999991,-0.27654753,-0.36392478149999974
167212.0,-4.257459031,-2.1879616815,7.015285144,-1.8372731969893907,-0.09528101452487443,-0.06113888369736137,8.492782781396382,1.8407577883046606,-0.03824593499999995,-0.28243152000000005,-0.3136166669999998
167222.0,-4.1473303515,-2.28494945,6.730303895,-1.750141124742078,-0.10540741484494554,-0.15653334462361543,8.229114992062062,1.7602861607127451,0.11012867949999983,-0.09698776850000002,-0.2849812490000003
167232.0,-4.0037609955,-2.30652408,6.440615454,-1.6638066679629264,-0.11766486218170172,-0.23274140108269584,7.926643858974025,1.6841217912989759,0.14356935599999954,-0.021574629999999928,-0.289688441
167242.0,-3.84812946,-2.32809871,6.100716964999999,-1.6025194312791455,-0.10167764623343366,-0.2892307276527443,7.579372759764647,1.6315824481739631,0.15563153550000042,-0.021574629999999928,-0.3398984890000003
167252.0,-3.7415311744999995,-2.386742477,5.7283584645,-1.5641501130033022,-0.05930977864127131,-0.3395922032190407,7.246356731425816,1.6016885122700613,0.1065982855000005,-0.05864376699999996,-0.37235850049999897
167262.0,-3.6828874074999995,-2.4190063554999996,5.328541344,-1.5292435279634158,0.0011780972450961724,-0.39501687894537263,6.914376635604166,1.5794383464962654,0.05864376699999996,-0.03226387849999979,-0.39981712050000073
167272.0,-3.6852410035,-2.4956943584999998,4.945493594999999,-1.468490362030745,0.0659280671648338,-0.4640306882277324,6.653374969375499,1.5414716776620914,-0.002353596000000291,-0.07668800300000012,-0.38304774900000016
167282.0,-3.6302256969999998,-2.6045481734999996,4.543224812,-1.3786914266863848,0.13600827262016213,-0.5554265998376674,6.3720563000976185,1.4925773038763828,0.05501530650000008,-0.1088538149999998,-0.40226878299999935
167292.0,-3.5739355259999996,-2.641715377,4.2032282565,-1.2651787027951775,0.23379907060940439,-0.6574829825187839,6.117091061388834,1.444860902552943,0.05629017100000011,-0.03716720350000058,-0.33999655549999996
167302.0,-3.481753016,-2.6632900069999996,4.015332842499999,-1.1340800413608754,0.3670305243896435,-0.7664648316718138,5.944629135772078,1.4171511155259777,0.09218250999999977,-0.021574629999999484,-0.18789541400000065
167312.0,-3.2854238829999995,-2.575814689,3.986599358,-0.9992498659858096,0.5098543077388435,-0.877846508546336,5.772504295733436,1.4244529484540744,0.19632913300000032,0.08747531799999964,-0.028733484499999573
167322.0,-3.042415096,-2.4537218965,4.0369074725,-0.8649520160326019,0.6220353454107791,-0.9783024243033736,5.619044643287556,1.4464251084577546,0.2430087869999995,0.12209279250000016,0.05030811450000039
167332.0,-2.704870203,-2.2334645374999997,4.1015332959999995,-0.7399812056020518,0.6873193860816269,-1.0542451907161507,5.396967855522577,1.4599359730056738,0.337544893,0.2202573590000001,0.06462582349999924
167342.0,-2.3313349045,-2.027622954,4.149389748,-0.6278001679301164,0.7155640493666512,-1.0931485797431044,5.17337535476938,1.4495305367578317,0.3735352985000002,0.20584158349999981,0.04785645200000044
167352.0,-1.9399515029999999,-1.8815038689999999,4.255889967,-0.5156191302581807,0.7160963747885094,-1.098477069949443,5.041435118521827,1.4090099285236288,0.39138340149999995,0.14611908500000004,0.10650021899999995
167362.0,-1.5137544939999998,-1.8060907304999998,4.2606952255,-0.38372110802646536,0.6787917073563826,-1.0806240970307932,4.868977325835654,1.3325721405629298,0.426197009,0.07541313850000009,0.004805258500000242
167372.0,-1.0983448,-1.7462701655,4.3121801379999996,-0.2326366813275762,0.6124430158418183,-1.0438535003497766,4.780242497317906,1.2324108094888697,0.41540969399999983,0.05982056499999988,0.051484912499999425
167382.0,-0.7104917924999999,-1.7534290199999998,4.343365285,-0.06823015644821433,0.5295730376278754,-0.9809675420711689,4.737524027836814,1.116870751263777,0.38785300750000007,-0.007158854499999867,0.031185147000000413
167392.0,-0.43041386849999996,-1.7965782799999999,4.343365285,0.09378003136815931,0.45496370276362186,-0.9172822229951477,4.719933433143737,1.0281990769003433,0.280077924,-0.04314926000000008,0.0
167402.0,-0.29988735699999997,-1.8372758774999998,4.348072477,0.259785277842348,0.4109971135766327,-0.8749161007322375,4.729825508639484,1.000942156806502,0.1305265115,-0.040697597499999905,0.004707191999999694
167412.0,-0.194563936,-1.8839555314999998,4.449865504,0.4239265126754067,0.40620094879215224,-0.8629239434417844,4.836160313053159,1.0437196132649307,0.10532342099999997,-0.04667965400000007,0.10179302700000026
167422.0,-0.1203275955,-1.8467883279999997,4.6413893784999996,0.5678166921975751,0.4360443336720033,-0.8826426733308164,4.99675907179128,1.1364895712896916,0.0742363405,0.037167203500000134,0.19152387449999964
167432.0,-0.0065704555,-1.6864496005,4.9430419325,0.6861255808732628,0.4709509187118899,-0.9215460623577699,5.2228171490456585,1.2416965110731994,0.11375713999999999,0.16033872749999967,0.30165255400000035
167442.0,0.257914895,-1.509243435,5.303436319999999,0.7865814966303004,0.47867923663972084,-0.9540545650054163,5.520033753470045,1.3259201994987568,0.2644853505,0.17720616550000012,0.3603943874999995
167452.0,0.6733245889999999,-1.346453045,5.583514244,0.8702508356416566,0.45496370276362186,-0.9623152083551055,5.782900061171097,1.374910559999783,0.41540969399999994,0.16279038999999984,0.2800779240000004
167462.0,1.1282550825,-1.1453186535,5.7271816665,0.9358019116880596,0.405666878041042,-0.9439299100145973,5.94855647954492,1.3897102247874404,0.45493049350000003,0.20113439150000012,0.14366742250000009
167472.0,1.6513417935,-0.8759299779999999,5.733163723,0.9904254812877261,0.3353213825394105,-0.9010297170005767,6.030203091110788,1.3803034501479394,0.5230867110000001,0.2693886755,0.005982056499999722
167482.0,2.16138566,-0.688034564,5.6912893275,1.0698327262657121,0.2790973460156652,-0.8378767233464137,6.126642942250488,1.3872544086316096,0.5100438665,0.18789541399999998,-0.04187439549999983
167492.0,2.567184837,-0.48935183499999996,5.6110709304999995,1.1793486461698526,0.25431716129584975,-0.7579388982758215,6.189832000373088,1.4247848333246005,0.405799177,0.198682729,-0.08021839700000033
167502.0,2.9370916749999996,-0.295376298,5.672068293499999,1.3043194566004024,0.2625778046455389,-0.6859929358501112,6.39422500314952,1.4969243990245782,0.36990683799999946,0.19397553699999998,0.06099736299999936
167512.0,3.2063822839999996,-0.1983885295,5.899582573499999,1.4359504434565626,0.2665746086326059,-0.6063221461550741,6.717538232219531,1.581341912095174,0.269290609,0.09698776849999999,0.2275142800000003
167522.0,3.4614532505,-0.0595263655,6.2191812969999996,1.5446687478925414,0.27776565979639356,-0.5263825757552298,7.117823965127352,1.6553651918947514,0.2550709665000004,0.138862164,0.3195987235000004
167532.0,3.6373845515,0.066096821,6.427474543,1.603023831432972,0.28815735016276783,-0.4469770761064958,7.3856187395607025,1.688937112257169,0.17593130099999987,0.12562318649999998,0.2082932460000002
167542.0,3.76183094,0.17151830849999997,6.768647896499999,1.646990420619961,0.30387927606473275,-0.3451877288009345,7.745668783138473,1.7099925813144015,0.1244463885,0.10542148749999997,0.34117335349999944
167552.0,3.7858572324999997,0.31636252899999995,7.144536790999999,1.6949538137940172,0.31054119781959505,-0.23140796953417217,8.091798699459867,1.738635647512739,0.02402629249999988,0.14484422049999998,0.37588889450000007
167562.0,3.7978213454999996,0.5150452579999999,7.466587176999999,1.7485127325499672,0.29322055032280336,-0.10910227687141753,8.39277324022665,1.7762821774255035,0.011964112999999887,0.19868272899999995,0.3220503859999999
167572.0,3.8325368865,0.688622963,7.705967503499999,1.8089988631070826,0.26497588703777913,0.03079109866368396,8.633914276650655,1.8285615109126332,0.03471554100000018,0.17357770500000014,0.23938032650000007
167582.0,3.793016087,0.701763874,8.078326004,1.8833411625957812,0.24072802773982188,0.17627825445142728,8.952027401544013,1.9068292899626793,-0.03952079949999998,0.013140910999999922,0.37235850049999986
167592.0,3.7008335769999996,0.6239971395,8.510407003,1.9712743409697595,0.20955121131144716,0.314572908391702,9.301213305341742,2.007184683137521,-0.09218251000000022,-0.07776673449999993,0.4320809990000001
167602.0,3.5595197505,0.505434741,8.964160698499999,2.0293623891346346,0.1770427086638008,0.4299513892532911,9.658251506361868,2.081949572935445,-0.1413138264999998,-0.11856239850000005,0.45375369549999967
167612.0,3.3895705059999997,0.45041943449999994,9.361526156499998,2.040021114876564,0.15439357096067038,0.5232130578336082,9.966455631815856,2.1116996537821855,-0.16994924450000015,-0.05501530650000003,0.39736545799999945
167622.0,3.1656846864999997,0.46238354749999994,9.720743746,2.01177645159154,0.1570586887284657,0.6074147222668226,10.233680523386365,2.1073358934232185,-0.22388581949999997,0.011964112999999998,0.3592175895000018
167632.0,2.9263043599999996,0.5162220559999999,10.1205608665,1.9667452115608342,0.16798270451669825,0.6934821436704189,10.547772024033659,2.092181254051363,-0.23938032650000007,0.05383850849999999,0.39981712049999985
167642.0,2.6892776294999994,0.6168382849999999,10.411426105499999,1.9185147830112228,0.1802401518534544,0.7835463690610823,10.770816922994177,2.0801755688983468,-0.23702673050000023,0.100616229,0.2908652389999986
167652.0,2.3984123905,0.7150028515,10.7215123785,1.8785449978113007,0.19302992461206883,0.8664163472750251,11.009742901398097,2.077707666497623,-0.2908652389999995,0.09816456650000005,0.31008627300000136
167662.0,2.1110775454999997,0.7077459304999999,11.179973266,1.8521660914966585,0.21487970151778588,0.9431584744852157,11.399533101567288,2.0895550781464602,-0.28733484500000017,-0.007256921000000083,0.45846088749999936
167672.0,1.8106017894999997,0.7688413599999999,11.676778155000001,1.825520149806461,0.2399286669424085,1.0068420482319849,11.841306682882278,2.098528172948398,-0.300475756,0.06109542950000002,0.49680488900000164
167682.0,1.549646833,0.8226798685,12.2370320695,1.7783561174298184,0.2553835574688183,1.0614673631609033,12.362166531115554,2.086740090399676,-0.2609549564999998,0.05383850850000005,0.5602539144999987
167692.0,1.295850731,0.9675240889999999,12.772082893499999,1.7077435865526318,0.24339140017836522,1.1184907604820622,12.874060486818593,2.055881590066941,-0.2537961019999999,0.1448442204999999,0.5350508239999989
167702.0,1.1031500585,1.0752991724999998,13.2090672175,1.6179446512082716,0.21088289753071887,1.189902652156662,13.298596358953862,2.019426852464299,-0.1927006725,0.10777508349999998,0.43698432400000087
167712.0,0.787081729,1.1626764239999998,13.478357826499998,1.5060306489118909,0.15918973574515083,1.2743713519654316,13.551289378292562,1.9792655279519178,-0.3160683295000001,0.08737725149999997,0.2692906089999987
167722.0,0.4566956905,1.0501941485,13.800408212499999,1.3813268738568962,0.0915076126820627,1.344449812091508,13.847842631070817,1.9297623876661416,-0.3303860385,-0.1124822754999999,0.3220503860000008
167732.0,0.16700724949999998,1.2141613365,13.8698392945,1.279537526551335,0.035550611533872505,1.4171951353146315,13.923883123169817,1.9096916451073973,-0.289688441,0.16396718799999999,0.06943108200000125
167742.0,-0.14788428199999998,1.416472526,13.8123723255,1.2134558704123255,-0.003085742117525975,1.4750178934332037,13.885600218788301,1.9100163499799356,-0.31489153149999993,0.20231118950000004,-0.057466969000000034
167752.0,-0.3992287215,1.5553346899999998,13.830318495,1.1772158538239152,0.02329316419711632,1.5264440198432165,13.923223737451288,1.927799544482725,-0.2513444395,0.13886216399999984,0.017946169500000053
167762.0,-0.5835937415,1.4332418974999999,14.088919855499999,1.178814575418742,0.09710488359320851,1.5725416560468908,14.173652552767388,1.967719599343366,-0.18436502,-0.12209279249999994,0.2586013604999984
167772.0,-0.7799228745,1.440400752,14.481578121499998,1.1689552104742262,0.18903312062500185,1.6018527155048836,14.573919819514513,1.9920145398461424,-0.196329133,0.007158854500000089,0.39265826599999976
167782.0,-1.167775882,1.5289548014999998,14.815592620499999,1.109268440714524,0.2798967068130786,1.6125114412468131,14.93998621124614,1.9771220974441392,-0.38785300749999996,0.0885540494999999,0.33401449900000024
167792.0,-1.6298652299999998,1.542193779,15.184224593999998,0.9917589128362498,0.35264203003620226,1.61224615120051,15.34912045822117,1.92542976880463,-0.4620893479999999,0.013238977500000138,0.36863197349999943
167802.0,-2.06920315,1.4679574384999998,15.518239092999998,0.8198893600753602,0.411529438998491,1.598389982268927,15.724256588619088,1.8429393851521154,-0.43933792000000005,-0.07423634050000016,0.33401449900000024
167812.0,-2.5073642720000002,1.4093136714999999,15.728984001499999,0.6061877558026705,0.4480347456332044,1.5688118874353791,15.98980857723512,1.7405083931823613,-0.43816112200000035,-0.05864376699999996,0.2107449085000006
167822.0,-2.9754356765,1.4224545825000001,15.803122275499998,0.38529015902400826,0.4280507256978693,1.5261787297969136,16.143582878613675,1.6312257494582836,-0.46807140449999984,0.013140911000000255,0.07413827399999917
167832.0,-3.468612105,1.4775679554999999,15.700250517,0.19823275111226396,0.34091690812130443,1.4870083053944048,16.14658921551644,1.5384129036667842,-0.4931764285,0.055113372999999743,-0.10287175849999741
