timestamp,ax,ay,az,gx,gy,gz,acc_mag,gyro_mag,dax,day,daz
162302.0,-0.274782333,0.389324005,9.0228044655,0.9008953266481731,0.32040056276411105,0.1483006265419582,9.035379291100341,0.9676063176875267,0.0,0.0,0.0
162312.0,-0.41001603649999996,0.7065691325,9.2681668485,0.9104876562171339,0.32040056276411105,0.17388017205918707,9.304099624403396,0.9807541011786092,-0.13523370349999997,0.3172451275,0.2453623829999998
162322.0,-0.012552512,0.8813236355,9.44772661,0.8851734007462082,0.3140039310555518,0.211451874866869,9.488752658455724,0.9627264998386931,0.39746352449999994,0.17475450300000006,0.1795597615000002
162332.0,0.150237878,0.942419065,9.7422203095,0.8697185102197984,0.37209372454967915,0.2559507894757164,9.788849864662126,0.9799871598655977,0.16279038999999998,0.06109542949999991,0.29449369950000026
162342.0,0.26154335549999996,1.173463739,9.921780071,0.8542636196933886,0.42538560793007396,0.2999173786627056,9.99435549952306,1.0003347846544164,0.11130547749999997,0.23104467400000006,0.1795597615000002
162352.0,0.371672035,1.3805801869999998,10.270210345499999,0.8313474466147031,0.4834754014242012,0.36173694076834473,10.369250806840059,1.0274924112087251,0.11012867950000005,0.20711644799999984,0.3484302744999983
162362.0,0.35009740500000003,1.5721040615,10.842428373,0.8212227916238839,0.5191813472615012,0.4467379659989726,10.961401935738328,1.0693600680274589,-0.021574629999999984,0.19152387450000008,0.5722180275000017
162372.0,0.26399501799999997,1.7181250799999999,11.333153138999998,0.8132291836497498,0.5026600605621229,0.5370692267651911,11.465688258106416,1.0965638129913444,-0.08610238700000006,0.14602101849999993,0.4907247659999978
162382.0,0.15376827199999998,1.9946726099999998,11.756996551999999,0.8020363871567102,0.4456366632409642,0.6266011267339963,11.9259939387163,1.1110730731919671,-0.11022674599999999,0.27654753,0.42384341300000017
162392.0,0.162201991,2.2077711145,12.082577332,0.7860491712084422,0.3848834973082935,0.7089370341968287,12.283698049189631,1.126321590183522,0.008433719000000006,0.2130985045,0.325580780000001
162402.0,0.257914895,2.3729151004999998,12.43090954,0.7684632336653473,0.3385188257290642,0.8157895816624257,12.657991869127851,1.1707447964511062,0.09571290399999999,0.1651439859999999,0.3483322080000004
162412.0,0.30704621149999994,2.5765011545,12.713439126499999,0.7324902524524922,0.3297258569575167,0.9274365485832508,12.975521954756093,1.2269472940319388,0.049131316499999966,0.20358605400000007,0.28252958649999904
162422.0,0.14778621549999998,2.769201827,13.009109623999999,0.6642758039675458,0.35930395179106467,1.0214975779609814,13.301400404972453,1.2703617497742745,-0.15925999599999996,0.1927006725,0.29567049749999974
162432.0,-0.09522257149999999,2.8230403355,13.478357826499998,0.5944626338877727,0.39953902703728994,1.084648826285892,13.771156588070472,1.2998001129320058,-0.24300878699999998,0.05383850850000016,0.4692482024999993
162442.0,-0.279489525,2.931992217,13.9057316335,0.5243824284324443,0.3931441406579827,1.120354772123192,14.214220520945068,1.2979730590430683,-0.18426695350000002,0.1089518814999999,0.42737380700000216
162452.0,-0.35617752799999997,3.0984110675,14.245728189,0.4393814032018165,0.34038458269944616,1.150199902332295,14.58313358676824,1.2774496064206582,-0.07668800299999995,0.16641885049999994,0.3399965554999991
162462.0,-0.38245935,3.2635550534999997,14.433721669499999,0.33466164808215676,0.2537848358739915,1.2072215543242018,14.803019555962955,1.278197575823705,-0.02628182200000001,0.1651439859999999,0.18799348049999942
162472.0,-0.3729468995,3.357012428,14.452844637,0.20356298664785463,0.1741123008497023,1.2975528150904203,14.84228216726972,1.3249136918264701,0.009512450499999991,0.09345737450000025,0.01912296750000131
162482.0,-0.530932031,3.3593660239999994,14.403713320499998,0.06713408967796189,0.11842058974781526,1.409733852762356,14.799803590720265,1.4162909156304382,-0.1579851315,0.0023535959999994027,-0.04913131650000224
162492.0,-0.911626184,3.10674672,14.460003491499998,-0.04105014400690663,0.03315252914163229,1.4997980781530194,14.81805110180746,1.5007259842299543,-0.380694153,-0.25261930399999954,0.056290171000000555
162502.0,-1.2360301660000002,3.056536672,14.433721669499999,-0.09727418053065197,-0.10460805404753214,1.586397824978474,14.80548912502173,1.5928161131360878,-0.3244039820000002,-0.05021004799999984,-0.02628182199999962
162512.0,-1.5568056875,2.8685431914999997,14.331928642499998,-0.1303150086001566,-0.2937965089759615,1.6431541869240773,14.698855826350743,1.6742921107617532,-0.3207755214999999,-0.1879934805000003,-0.10179302700000115
162522.0,-1.7603917414999999,2.5549265245,14.177473905,-0.16149182502853132,-0.47872112454176863,1.6727322817576256,14.51300778460795,1.7473656775465327,-0.20358605399999985,-0.3136166669999998,-0.15445473749999827
162532.0,-1.850122589,2.3370227614999997,13.9129885545,-0.20519137883996535,-0.6111532175245944,1.6881871722840351,14.228699149948499,1.8070937125410171,-0.08973084750000004,-0.21790376300000025,-0.2644853504999993
162542.0,-2.0129129789999998,2.340651222,13.715384556999998,-0.26354646238039575,-0.681765748401781,1.6969801410555825,14.058529096262909,1.8477020519185678,-0.16279038999999984,0.003628460500000319,-0.19760399750000168
162552.0,-2.173349773,2.374189965,13.715384556999998,-0.30804537698924317,-0.7108097724842186,1.711635670784579,14.088009113146537,1.8787866181250301,-0.16043679400000022,0.033538742999999815,0.0
162562.0,-2.4929484965,2.45558516,13.910536892,-0.3165730557144875,-0.7363910633306996,1.737215216301808,14.343909066496025,1.91321901660742,-0.31959872349999996,0.08139519500000025,0.1951523350000013
162572.0,-2.9634715635,2.408905506,14.2181715025,-0.3043156083777313,-0.8235231355780124,1.7782513976746988,14.72213946133555,1.9831733100429145,-0.47052306700000024,-0.04667965400000007,0.30763461050000096
162582.0,-3.512938163,2.1718787754999997,14.556991259999998,-0.28113239992349065,-0.9703437229142795,1.8064960609597227,15.131549375270383,2.0697899374450732,-0.5494665994999997,-0.23702673050000023,0.3388197574999978
162592.0,-3.8983395079999994,1.7911846224999999,14.8167694185,-0.28353048231573086,-1.1387487971099604,1.8014328607996872,15.425370312329976,2.1499531876974713,-0.38540134499999956,-0.38069415299999987,0.2597781585000014
162602.0,-4.221566692,1.4571701234999999,14.973577751999999,-0.35867388793109467,-1.2607891997264118,1.7497396990141192,15.62539602054982,2.1862811754978804,-0.3232271840000003,-0.334014499,0.156808333499999
162612.0,-4.3209080564999995,1.196215167,15.0729191165,-0.5097583146299839,-1.3351314992151102,1.6404908144855341,15.725586407223057,2.1756929406380396,-0.09934136449999986,-0.2609549564999998,0.09934136450000075
162622.0,-4.2647159519999995,0.9807630665,14.991523921499999,-0.7298548052819808,-1.3463225503788978,1.5021961605452596,15.617153640556925,2.145195970350694,0.056192104500000006,-0.21545210050000008,-0.0813951950000007
162632.0,-4.016901906499999,0.8095389574999999,14.6455453095,-1.0165687681533493,-1.3026229965674638,1.3391213218851692,15.207986443404366,2.1268485245307667,0.2478140455000002,-0.17122410900000007,-0.3459786119999997
162642.0,-3.618261584,0.69823348,14.050575854,-1.317671225378159,-1.2000360337937412,1.1811096833851147,14.525771191639048,2.138074840780621,0.3986403224999995,-0.11130547749999997,-0.5949694554999994
162652.0,-3.1561722359999997,0.5784942835,13.271339444999999,-1.5857328545334641,-1.0188411868394458,1.0537390452330724,13.653736832228468,2.159386955919658,0.4620893480000001,-0.11973919649999998,-0.779236409000001
162662.0,-2.879624706,0.53544309,12.630867133499999,-1.7749213094618934,-0.8328501751006702,0.9722024985676534,12.966022608886844,2.188415583742797,0.27654752999999976,-0.04305119349999997,-0.6404723115
162672.0,-2.783911802,0.60605097,12.207121786999998,-1.8487312835287335,-0.7323942593436324,0.939693995920007,12.53520183412309,2.199371163715987,0.09571290399999999,0.07060787999999996,-0.4237453465000005
162682.0,-2.7683192285,0.5461323385,12.010792654,-1.8106272552991933,-0.7377227495499712,0.9516844078812081,12.337787162186688,2.174467549778581,0.015592573500000206,-0.059918631499999986,-0.196329132999999
162692.0,-2.830591456,0.331857036,11.976077112999999,-1.7226940769252153,-0.8141978413846067,0.979396745744374,12.310515834019519,2.142384417690542,-0.06227222750000028,-0.2142753025,-0.03471554100000063
162702.0,-2.981417733,0.026674088000000002,11.910176424999998,-1.6584781777565876,-0.9037297413534118,0.9849922713262678,12.277697898231704,2.1301378091743257,-0.15082627699999973,-0.305182948,-0.06590068800000104
162712.0,-3.121456695,-0.40069971899999995,11.6923707285,-1.661141550195131,-0.9783390762176654,0.9572799334631019,12.108492285014293,2.152422697531839,-0.1400389620000002,-0.42737380699999994,-0.21780569649999748
162722.0,-3.2555136004999996,-0.8496481559999999,11.250581146,-1.7269579162878372,-0.9778050054665551,0.8933293243407776,11.742906238013031,2.1763555672435118,-0.1340569054999996,-0.4489484369999999,-0.4417895825000002
162732.0,-3.3632886839999996,-1.287809278,10.635311925,-1.8367408715675324,-0.8693554817353836,0.8000676557604606,11.22853611342425,2.1839194666250994,-0.10777508349999998,-0.438161122,-0.6152692210000001
162742.0,-3.6098278649999997,-1.533171661,9.9230549355,-1.9651761605632914,-0.6545857359604733,0.6889530142614937,10.669980872052905,2.182900841455972,-0.24653918100000016,-0.24536238300000002,-0.7122569895000002
162752.0,-3.84812946,-1.866009362,9.3005287935,-2.0685624841344277,-0.40224603270713316,0.5690454039909792,10.236695126783552,2.182788421583796,-0.23830159500000025,-0.3328377010000001,-0.6225261419999999
162762.0,-4.047988986999999,-2.0934255755,8.7821492745,-2.1247865206581724,-0.1858793106666481,0.45046947993973646,9.894179670828283,2.1799522079306572,-0.1998595269999992,-0.22741621349999996,-0.5183795189999998
162772.0,-4.1461535535,-2.2921083044999997,8.3045654195,-2.1341135601808303,-0.02306976205286105,0.32656332035290303,9.560865890467962,2.159077697506226,-0.09816456650000038,-0.19868272899999972,-0.47758385500000067
162782.0,-4.144976755499999,-2.5782663514999995,7.933383717,-2.1064012223176642,0.08404807545903893,0.2098531532720422,9.314873422869102,2.1184967628740754,0.0011767980000003675,-0.2861580469999998,-0.3711817024999995
162792.0,-4.058776302,-2.7302694264999996,7.4713924355,-2.077889523657085,0.15918973574515083,0.09873851177307522,8.930271056144043,2.086316260349241,0.08620045349999916,-0.1520030750000001,-0.4619912814999996
162802.0,-3.9725758485,-2.7853827995,7.045195426499999,-2.051775907388746,0.22180865864820337,-0.010512118084761846,8.554209186676022,2.063757243432196,0.08620045350000005,-0.05511337300000019,-0.4261970090000009
162812.0,-3.8624471689999997,-2.744685202,6.552018998,-2.020066765538513,0.26683989867890906,-0.0995099473024567,8.085836254930395,2.040043013853467,0.11012867950000027,0.040697597499999905,-0.4931764284999991
162822.0,-3.7152493525,-2.7541976525,5.9223340014999994,-1.9848931451230711,0.3265284137678631,-0.1717211997744701,7.514168116672076,2.0188882517381437,0.14719781649999986,-0.009512450499999936,-0.6296849965000009
162832.0,-3.5763871885,-2.9397394704999997,5.1825203255,-1.940928301265334,0.4506998634009997,-0.2378046012427314,6.949181995077059,2.0067097612496503,0.13886216399999984,-0.18554181799999991,-0.7398136759999998
162842.0,-3.6840642055,-3.079876499,4.554012127,-1.8887010687286558,0.6254998239759878,-0.30974881833918966,6.617929795049348,2.013550617012963,-0.10767701699999987,-0.14013702850000032,-0.6285081984999996
162852.0,-3.8996143725,-3.267771913,4.113497409,-1.8154234200836736,0.7896393134797945,-0.4040768830924752,6.542643690699499,2.020537197636033,-0.21555016699999996,-0.18789541399999976,-0.4405147180000002
162862.0,-4.0527942455,-3.4928345304999997,3.918345074,-1.7021777315680218,0.9031537827002537,-0.5474329918635334,6.631625922257009,2.0031921190021924,-0.15317987300000047,-0.2250626174999999,-0.19515233499999995
162872.0,-4.0863329885,-3.5227448129999996,3.77948291,-1.549759873320609,0.9420571717272074,-0.7363544114164076,6.5872861921586345,1.957407775342118,-0.03353874299999937,-0.02991028249999994,-0.13886216399999984
162882.0,-3.9199141379999998,-3.1803946615,3.6585669155,-1.3738952619019043,0.9092816337040058,-0.9260769370959472,6.23424004409368,1.889973484863991,0.16641885049999994,0.3423501514999998,-0.12091599450000023
162892.0,-3.420755653,-2.7075179984999997,3.5208815495,-1.1849738423490301,0.8333406126204804,-1.0718311282592456,5.606142152616398,1.802065912001997,0.4991584849999997,0.4728766630000001,-0.13768536599999992
162902.0,-2.716834316,-2.1736439725,3.3318093374999997,-0.9981834698128409,0.7672572111522192,-1.1331183649430265,4.817350960977719,1.6938155438074838,0.7039213370000001,0.5338740259999999,-0.18907221200000013
162912.0,-2.1314753774999997,-1.6277077669999998,3.1246928895,-0.8359079919501642,0.7526016814232228,-1.1059383525017188,4.117805910109503,1.5774191267451507,0.5853589385000002,0.5459362055000001,-0.20711644799999984
162922.0,-1.7112604249999999,-1.2698631084999998,2.9152228454999998,-0.6901520554576137,0.7795146584889754,-1.0172058133303272,3.611023233852917,1.4555619633408141,0.42021495249999985,0.3578446584999999,-0.20947004400000013
162932.0,-1.4969851225,-1.1225672254999999,2.8493221574999996,-0.531873381582004,0.8333406126204804,-0.9178162937462582,3.4087766705921876,1.3489746549673465,0.21427530249999993,0.14729588299999996,-0.06590068800000015
162942.0,-1.479038953,-1.1464954514999999,2.9415046675,-0.3442836482484014,0.9199403594459352,-0.8509335314805834,3.486324390203214,1.29958045937401,0.01794616949999983,-0.023928225999999997,0.09218251000000022
162952.0,-1.6825269404999998,-1.1764057339999998,3.191672309,-0.1481679815188066,1.0179981928107327,-0.8296178253259766,3.7949439369421203,1.3215671785466971,-0.20348798749999975,-0.02991028249999994,0.25016764150000004
162962.0,-1.7998144745,-1.3069322454999999,3.5903126315,0.023434535866527863,1.0912758414557144,-0.8693205751503437,4.223475917873315,1.395403311589836,-0.11728753400000014,-0.13052651150000005,0.3986403224999999
162972.0,-1.698119514,-1.4781563545,3.9829708975,0.15693127969307014,1.129912195107113,-0.95538799655394,4.575217291288828,1.4879836084974964,0.10169496049999993,-0.17122410900000018,0.3926582660000002
162982.0,-1.4599159855,-1.4326534985,4.470263336,0.26884528198945057,1.1309785912800814,-1.0534458299187375,4.916004986233087,1.5688016050970377,0.23820352850000015,0.04550285600000015,0.48729243850000037
162992.0,-1.1689526799999999,-1.1177619669999999,4.780251542499999,0.3791605626910041,1.0750215901318914,-1.1110015526617545,5.046448948768284,1.5917784398485515,0.29096330550000005,0.31489153150000004,0.30998820649999903
163002.0,-0.8134616174999999,-0.897504608,5.037676105,0.49507311430370354,0.9468533365116878,-1.1301862117996762,5.181256108649226,1.5552972393442308,0.35549106249999995,0.22025735899999987,0.2574245625000007
163012.0,-0.3729468995,-0.73353742,5.1968380345,0.6200439247342535,0.8109567649636532,-1.1192621960114437,5.261586461630441,1.5148772909580928,0.4405147179999999,0.16396718799999999,0.15916192949999974
163022.0,0.010198915999999999,-0.5227925115,5.295002600999999,0.742082582021453,0.6883840369253434,-1.0942149759160729,5.320758270450257,1.490592350158913,0.3831458155,0.21074490850000005,0.0981645664999995
163032.0,0.497393288,-0.44737937299999997,5.269897576999999,0.8462700117192544,0.5809991640378884,-1.0513130375728004,5.31219058942766,1.4693508989749795,0.487194372,0.07541313849999998,-0.025105024000000142
163042.0,1.0037106274999998,-0.43904372049999996,5.261463858,0.9472599982274025,0.5133187863040523,-1.0092122053561932,5.374308917554625,1.476247593073179,0.5063173394999998,0.008335652500000013,-0.008433718999999229
163052.0,1.5352310574999999,-0.3144992655,5.249499745,1.0533114395663339,0.4776128404667523,-0.9705758517047948,5.478420553468642,1.509833268282465,0.53152043,0.12454445499999994,-0.011964113000000332
163062.0,2.038018003,-0.1709299095,5.4039544825,1.186809928722128,0.4983962211995008,-0.9252775762985338,5.778015097197793,1.585261869036234,0.5027869455,0.143569356,0.15445473750000005
163072.0,2.5037358114999995,0.07090207949999999,5.7140407555,1.3306983629150446,0.5722061952663409,-0.8805116263141313,6.2389087085947965,1.6951338551985555,0.46571780849999955,0.241831989,0.31008627300000047
163082.0,2.8042115674999994,0.21574629999999997,6.263507355,1.4516723693585276,0.6652025738003549,-0.8168263072381102,6.865979417927466,1.793614325418334,0.300475756,0.14484422049999998,0.5494665994999997
163092.0,2.9837713289999996,0.41933235399999996,6.7913993244999995,1.5236183317842378,0.7467391204657738,-0.7230323132359349,7.429793789311562,1.8443990514436641,0.1795597615000002,0.203586054,0.5278919694999997
163102.0,3.0568308715,0.4959222904999999,7.3420427219999995,1.540137873154364,0.7920391412012867,-0.6063221461550741,7.9684217525707925,1.8349324822557953,0.07305954250000024,0.07658993649999996,0.5506433975
163112.0,3.019663668,0.4480658385,7.872386354,1.5393385123569507,0.7475384812631873,-0.459234523443252,8.443553669523,1.7717994198319214,-0.03716720349999969,-0.04785645199999994,0.5303436320000001
163122.0,2.9526842485,0.37020103749999994,8.323688386999999,1.553461716664089,0.5786010816456482,-0.30735073594694945,8.839636952012494,1.685967672201808,-0.06697941949999997,-0.07786480100000004,0.45130203299999927
163132.0,2.8952172794999997,0.35460846399999996,8.472161068,1.607287670795594,0.340117547323891,-0.1810464939678758,8.960220054239223,1.6528252889120512,-0.05746696900000048,-0.015592573499999984,0.14847268100000122
163142.0,2.9299328204999995,0.3558833285,8.451763236,1.7367876106350693,0.055801666844762704,-0.050480157955431995,8.952288035667111,1.7384168880982869,0.03471554099999974,0.001274864500000028,-0.02039783200000045
163152.0,3.0831126935,0.29243430299999995,8.462550551,1.9102541396615338,-0.12485910935842234,0.0598351227461216,9.011429605263658,1.915265234164148,0.15317987300000047,-0.06344902550000003,0.010787314999999964
163162.0,3.2076571484999996,0.3678474415,8.612200029999999,2.0746624098701476,-0.161896741414994,0.1429703910063675,9.197519528616029,2.0858751646523612,0.12454445499999967,0.07541313850000003,0.14964947899999892
163172.0,3.2566903985,0.664694737,8.800095444,2.1535355840970234,-0.05797634709274764,0.2130505964616958,9.406887437861004,2.1648250103523403,0.04903325000000036,0.29684729550000005,0.18789541400000154
163182.0,3.2100107445,0.9412422669999999,9.143720459999999,2.1260885362801605,0.15012973159804827,0.2857941743555675,9.736412575256624,2.1504580234236608,-0.04667965400000007,0.2765475299999999,0.34362501599999895
163192.0,3.0998820649999996,0.9412422669999999,9.577076323499998,2.040288150252119,0.3691615714063286,0.3604052545490731,10.110172932657493,2.104506580975452,-0.11012867950000027,0.0,0.4333558634999992
163202.0,2.8963940774999997,0.825131531,10.065447493499999,1.9598162544304165,0.5133187863040523,0.42701923610994064,10.506339702295604,2.070439894203705,-0.20348798749999997,-0.11611073599999988,0.48837117000000063
163212.0,2.6222001435,0.7304973585,10.6795399165,1.926775426360912,0.5716738698444827,0.4803128648195875,11.020986018113975,2.0663917840531694,-0.2741939339999995,-0.09463417250000006,0.6140924230000007
163222.0,2.4139068975,0.7520719884999999,11.4779973595,1.9520896818318378,0.5295730376278754,0.5192162538465411,11.753169026708218,2.088225860953546,-0.2082932460000002,0.021574629999999928,0.7984574430000002
163232.0,2.2977961615,0.962816897,12.254978239,2.003515808241851,0.4112641489521878,0.5733074980243494,12.505653730026127,2.1241222378618665,-0.11611073599999999,0.21074490850000005,0.7769808794999999
163242.0,2.2188526289999997,1.3051670485,13.003127567499998,2.0203041303167844,0.3022805544699059,0.663905794166123,13.255492995373233,2.1479695566075985,-0.0789435325000003,0.34235015150000003,0.7481493284999985
163252.0,2.0356644069999996,1.7061609669999998,13.5813276515,1.9518226464562827,0.25991268687774355,0.7926063732081848,13.838618991815606,2.1225906602239273,-0.18318822200000007,0.40099391849999977,0.5782000840000023
163262.0,1.7758862485,1.9468161579999999,14.007524660499998,1.8068678160903975,0.2535178004984363,0.9439578352826292,14.253231641812915,2.054287948361747,-0.25977815849999963,0.2406551910000001,0.42619700899999735
163272.0,1.352140902,2.0234060945,14.2852489885,1.6158136041915865,0.27003908719781466,1.0915777834163096,14.4910591712808,1.968582426354888,-0.42374534650000006,0.07658993650000001,0.27772432800000146
163282.0,0.858866407,1.9312235844999999,14.379785094499999,1.4074404901252353,0.2894907817112915,1.1970968993333828,14.534286890054375,1.870223150411035,-0.49327449499999987,-0.09218251,0.09453610599999962
163292.0,0.429139004,1.8043255334999997,14.292407842999998,1.206261623235605,0.31293928021183526,1.2535862259034312,14.412240383307587,1.7676188849877414,-0.42972740300000006,-0.12689805100000018,-0.08737725150000131
163302.0,-0.0053936575,1.6331014245,14.286425786499999,1.0511803925496488,0.3350543471638554,1.2775687951550851,14.379464910330192,1.6880235956846832,-0.4345326615,-0.17122410899999974,-0.0059820564999988335
163312.0,-0.358531124,1.5122834965,14.361838924999999,0.9576516885937766,0.3385188257290642,1.282897285361424,14.445690127103935,1.6363120719554711,-0.3531374665,-0.12081792799999991,0.07541313850000009
163322.0,-0.7344200184999999,1.3973495585,14.529434573499998,0.8992966050533463,0.3188000958400322,1.285030077707361,14.614938507493994,1.6005218478923287,-0.37588889449999996,-0.11493393800000007,0.16759564849999897
163332.0,-0.9583058379999999,1.557688286,14.631227600499999,0.8420061723566324,0.2897560717575946,1.330061317738067,14.745086095819158,1.6006236548140174,-0.22388581949999997,0.1603387275000001,0.10179302700000115
163342.0,-1.2767277634999998,1.5732808594999999,14.805982103499998,0.7897806851492061,0.24046099236426677,1.407868095791974,14.943973785246111,1.632074629002141,-0.3184219254999999,0.015592573499999762,0.17475450299999906
163352.0,-1.6382008824999998,1.5636703425,14.913757187,0.7348883348447325,0.17224654387932037,1.4960683095415075,15.08472474075122,1.6756939229416623,-0.361473119,-0.009610516999999819,0.10777508350000176
163362.0,-2.046451722,1.4440292124999998,14.908951928499999,0.6504196350359629,0.08644615785127915,1.5653474088701702,15.117871299338209,1.6973011371893083,-0.4082508395000002,-0.1196411300000002,-0.0048052585000011305
163372.0,-2.483436046,1.3661644114999998,14.8167694185,0.5259828953565231,-0.011079350091660004,1.6018527155048836,15.085440523724127,1.686034661677053,-0.436984324,-0.07786480100000004,-0.09218250999999889
163382.0,-2.890412021,1.3553770964999998,14.545027146999999,0.3922173708251737,-0.1059397402668038,1.598122946893372,14.891250566417348,1.648955623396811,-0.40697597499999993,-0.010787314999999964,-0.27174227150000085
163392.0,-3.1382260665,1.2620177885,14.1475636225,0.2787046469339665,-0.16775930237244296,1.574939738439131,14.546295342651193,1.60818364730829,-0.2478140455000002,-0.09335930799999992,-0.3974635244999991
163402.0,-3.317785828,1.1782689975,13.695084791499998,0.18970681771627165,-0.1712237809376517,1.5525576361115558,14.140416121080802,1.573448910290678,-0.17955976149999975,-0.08374879099999988,-0.4524788310000023
163412.0,-3.5691302675,1.2261254495,13.2665341865,0.12335638087245522,-0.122193991590627,1.5363033847877328,13.792860609963018,1.5460841692459841,-0.25134443949999996,0.047856451999999994,-0.4285506049999981
163422.0,-4.006114591499999,1.2835924185,12.9648816325,0.07672641924692272,-0.04598593513154659,1.5323065808006657,13.630286840774692,1.534915342032063,-0.43698432399999954,0.057466969000000034,-0.30165255400000035
