timestamp,ax,ay,az,gx,gy,gz,acc_mag,gyro_mag,dax,day,daz
72692.0,-0.93359308,3.4395844209999997,9.823713571,0.020940460365427967,0.37120709728966594,0.14867238167263297,10.450248100081613,0.40042064011580203,0.0,0.0,0.0
72702.0,-1.2604487245,3.3557375635,9.445471080499999,0.06464001417686198,0.3120509076225702,0.18304664129066128,10.102803052358311,0.3675053377417079,-0.32685564450000004,-0.08384685749999976,-0.3782424905000017
72712.0,-1.140709528,3.1139055744999995,9.737611183999999,0.1269919017043594,0.20253498771842998,0.192373680813319,10.286821555997461,0.3068468631390241,0.11973919650000009,-0.24183198900000047,0.2921401034999995
72722.0,-1.2137690705,3.1869651169999997,9.8393061445,0.20026955034934135,0.11353715850073513,0.19183961006220873,10.413545381793499,0.29966817506430127,-0.07305954250000002,0.07305954250000024,0.10169496050000149
72732.0,-1.230538442,3.316216764,9.8273420315,0.2818078423440124,0.03786142746351299,0.1977021710196577,10.44452822712261,0.3463167569177798,-0.01676937150000013,0.12925164700000025,-0.011964112999999443
72742.0,-1.2232815209999999,3.1929471735,9.8261652335,0.35348502406491555,-0.026621507080669512,0.20276537117969323,10.404078648704354,0.4083799243683005,0.007256921000000194,-0.12326959050000008,-0.0011767980000012557
72752.0,-1.2604487245,3.1761778019999998,9.808219064,0.43022715127510625,-0.05007000558121332,0.192373680813319,10.386433344725429,0.47393041706864586,-0.037167203500000134,-0.01676937150000013,-0.017946169500000053
72762.0,-1.2867305464999998,3.1941239715,9.832147289999998,0.5186926550709429,-0.05460088031939061,0.15080517401857002,10.417736019733915,0.5429231318215938,-0.026281821999999844,0.017946169500000053,0.023928225999998887
72772.0,-1.1431611904999999,3.4442916129999994,9.948258026,0.6114219982294016,-0.030618311067736523,0.09165072968072623,10.58951367980234,0.6190106599586832,0.14356935599999998,0.2501676414999996,0.11611073600000132
72782.0,-0.8893650885000001,3.8741170824999998,10.158904867999999,0.6596506814497609,0.02853613327010729,0.06154030942532006,10.908854272866376,0.6631293554980864,0.2537961019999998,0.42982546950000033,0.21064684199999917
72792.0,-0.585260872,4.3265959135,10.3253237185,0.624211770988016,0.11140611148405005,0.09911026690375001,11.21045370976696,0.641774494446238,0.3041042165000001,0.4524788310000005,0.16641885050000127
72802.0,-0.23928226,4.646194637,10.446239713,0.5226894590580098,0.20093626612360319,0.18597704910475976,11.435397008687394,0.5900568756041782,0.345978612,0.3195987234999995,0.12091599450000068
72812.0,-0.0346174745,4.7563233165,10.542050683499998,0.4211671471280037,0.281942232696416,0.29922448294966386,11.565407146923324,0.5885647624469844,0.2046647855,0.11012867949999983,0.09581097049999698
72822.0,0.012062179499999999,4.6976795495,10.586278674999999,0.3505546162508171,0.33283603368457065,0.4108714498704891,11.581780296255172,0.6344160406328895,0.046679654,-0.058643766999999514,0.04422799150000145
72832.0,-0.052563644,4.5480300705,10.761131244499998,0.33829716891406086,0.3259070765541532,0.49240974186516023,11.682862924822702,0.6805349005944199,-0.0646258235,-0.1496494789999998,0.17485256949999872
72842.0,-0.0716866115,4.5468532725,10.8580209465,0.38039800113066813,0.2662203067944511,0.5446369744018386,11.77181517551754,0.7156852135537861,-0.019122967499999997,-0.0011767980000003675,0.09688970200000213
72852.0,0.024026292499999997,4.599514983,10.999334773,0.4299601158995511,0.1849490501753351,0.5822069318802684,11.922310211955557,0.74701858340643,0.09571290399999999,0.05266171049999979,0.14131382649999935
72862.0,0.1987807955,4.63070013,11.232733043,0.46753181870723304,0.11833332328521555,0.6253741602698442,12.151427451700712,0.7897351563889182,0.174754503,0.031185147000000413,0.23339827000000035
72872.0,0.3580407915,4.7204309774999995,11.430238973999998,0.4683311795046464,0.07383440867636812,0.6858620361562117,12.371783413254052,0.8337819536552389,0.15925999600000001,0.08973084749999938,0.19750593099999847
72882.0,0.501708214,4.8174187459999995,11.676876221499999,0.42276586872283045,0.05704783193068666,0.7642011396319771,12.64154550672264,0.8752078705654868,0.14366742249999997,0.09698776850000002,0.2466372475000007
72892.0,0.571139296,4.810259891499999,11.888797928,0.34149461210371446,0.06637312612409237,0.8561311219930225,12.837769140003495,0.9241127961522786,0.06943108200000003,-0.007158854500000089,0.21192170650000186
72902.0,0.538777351,4.818595544,12.097091174,0.24556782575560218,0.09381842861170318,0.9512585475437215,13.032603689312275,0.9869135113415429,-0.032361945,0.008335652500000457,0.20829324599999843
72912.0,0.432277132,4.794667318,12.324507387499999,0.15417191414566708,0.1295243744490032,1.0551789418659678,13.231371076108836,1.0742197829332358,-0.10650021900000001,-0.023928225999999775,0.22741621349999974
72922.0,0.2334963365,4.706113268499999,12.5771266915,0.0747664144969331,0.16416566944258665,1.1529697398552101,13.430790685925844,1.1669959746211855,-0.1987807955,-0.08855404950000079,0.2526193040000013
72932.0,0.0012748644999999999,4.4858559095,12.894371818999998,0.018010052551329488,0.1607011908773779,1.22438163152981,13.652389148888808,1.2350140138354335,-0.232221472,-0.22025735899999965,0.3172451274999979
72942.0,-0.2178056965,4.318260261,13.196024373,-0.02222676802414779,0.10101267578842382,1.2670165344975277,13.886319536002679,1.2712310917283536,-0.219080561,-0.16759564849999986,0.3016525540000021
72952.0,-0.3949137955,4.2344134035,13.4102996755,-0.06459463561631014,0.00508763476956347,1.2971269547529338,14.068487877676551,1.2987442734135817,-0.177108099,-0.0838468575000002,0.21427530249999904
72962.0,-0.4967068225,4.133895241,13.5526922335,-0.1125562834611143,-0.1065610774805138,1.3192420217049539,14.177844487334868,1.328316111478198,-0.10179302699999998,-0.10051816249999934,0.14239255800000095
72972.0,-0.5074941374999999,4.137425635,13.577895324,-0.1823694535408875,-0.18490018095627928,1.3408265085643678,14.20334758478624,1.3657461039927514,-0.010787314999999964,0.003530393999999326,0.025203090499999803
72982.0,-0.5936945909999999,4.299039227,13.533569265999999,-0.2860245578168308,-0.2094150756297916,1.3704028580686636,14.212378710838209,1.4155100547075272,-0.08620045349999994,0.16161359200000014,-0.04432605800000111
72992.0,-0.6666560669999999,4.318260261,13.455802531499998,-0.4032670503195498,-0.2030201892504844,1.4173016003990033,14.147452907153339,1.4874761637116438,-0.07296147600000003,0.01922103400000008,-0.07776673450000082
73002.0,-0.8126770855,4.330224374,13.326452817999998,-0.5165144841644539,-0.1617187178312906,1.472192205374225,14.035869473775415,1.5685311745748927,-0.14602101850000004,0.011964113000000332,-0.1293497134999999
73012.0,-1.1383559319999998,4.3169853965,13.2845784225,-0.6249640078956256,-0.10522764593199012,1.4897781429173198,14.014715159612287,1.6189786236227857,-0.3256788464999999,-0.01323897750000036,-0.04187439549999894
73022.0,-1.5046343095,4.194892604,13.398335562499998,-0.7073016606877099,-0.08311257897996996,1.5007039040348042,14.120072386845989,1.6611127437900166,-0.36627837750000025,-0.12209279250000016,0.11375713999999881
73032.0,-1.729696927,4.044066327,13.558674289999999,-0.7637909872577585,-0.09003979078113547,1.4895128528710166,14.254261552909554,1.6763449451136383,-0.2250626174999999,-0.1508262769999993,0.160338727500001
73042.0,-1.8577717759999999,4.052500046,13.7837369075,-0.8101556588369879,-0.12654509741584885,1.4708605191549533,14.486734474328914,1.6839823395850562,-0.12807484899999988,0.008433718999999229,0.22506261750000078
73052.0,-1.8757179455,4.113497409,13.909458160499998,-0.8663796953607331,-0.1888969849433463,1.464463887446394,14.625737761344569,1.7120018472795664,-0.017946169500000053,0.06099736300000025,0.12572125299999826
73062.0,-1.9296545205,4.067994553,13.984871299,-0.9444535087901955,-0.23899317046333954,1.486315409681363,14.691792657852128,1.7771448063819981,-0.05393657500000004,-0.0455028559999997,0.07541313850000186
73072.0,-2.0481188525,3.9507070189999998,14.049497122499998,-1.038779828214229,-0.2781618495365963,1.5084304766333831,14.737409751346316,1.8525118215220164,-0.11846433200000006,-0.11728753400000036,0.06462582349999835
73082.0,-2.2564120985,3.7879166289999997,14.0004638725,-1.1371046969545817,-0.3223954740991406,1.545202818643652,14.678307006998102,1.9454042470139894,-0.20829324599999977,-0.16279039000000006,-0.04903324999999903
73092.0,-2.483828312,3.4994049859999996,13.938191645,-1.2138468241647722,-0.3573020591390272,1.5702500387390224,14.583841218015309,2.01662442169081,-0.22741621350000019,-0.2885116430000001,-0.06227222749999939
73102.0,-2.725660301,3.2959169984999996,13.933386386499999,-1.2506191661750408,-0.38607904784590963,1.5710493995364356,14.575031702639695,2.0448231086756024,-0.24183198900000002,-0.20348798749999997,-0.0048052585000011305
73112.0,-2.9339535469999998,3.0648723244999996,13.995658614,-1.2660723113721986,-0.3956731227441225,1.5438711324243801,14.624636262863849,2.0354445193172825,-0.20829324599999977,-0.23104467400000006,0.062272227500001165
73122.0,-3.1674498835,2.9439563300000002,14.121379867,-1.2932523238135063,-0.38527968704849624,1.5076311158359696,14.768648786721965,2.023337241227481,-0.2334963365,-0.12091599449999935,0.12572125300000003
73132.0,-3.2955247325,2.8326508524999996,14.11176935,-1.369727415648142,-0.36263054934536587,1.446612659856996,14.765718008355963,2.024930195378397,-0.12807484900000032,-0.11130547750000064,-0.009610517000000485
73142.0,-3.3277886109999995,2.6878066319999996,14.0602844375,-1.4925671790620068,-0.3018773834126952,1.3645420424404668,14.69660096736416,2.0447155607117615,-0.03226387849999934,-0.1448442205,-0.051484912499999425
73152.0,-3.3074888455,2.5572801204999998,13.913086620999998,-1.6425852095879274,-0.21900740519875245,1.2630197305104607,14.527668202476974,2.0835712740263106,0.020299765499999456,-0.13052651149999983,-0.14719781650000208
73162.0,-3.2523754725,2.5908188634999996,13.637715888999999,-1.8139206915977069,-0.1300095759810576,1.1614974185804545,14.25754478396158,2.1578431404117717,0.05511337300000019,0.033538742999999815,-0.27537073199999895
73172.0,-3.1099829145,2.6602499455,13.3995123605,-1.9769955302577968,-0.04261046835818956,1.0666370284053106,14.010562265669673,2.246784709098387,0.1423925579999996,0.06943108200000037,-0.2382035284999997
73182.0,-2.9423872659999994,2.7105580599999994,13.133752145499999,-2.098234826747583,0.01761037215262278,0.9856310618324977,13.729537983456535,2.3182683415499747,0.16759564850000075,0.0503081144999995,-0.26576021500000024
73192.0,-2.7831272699999996,2.7021243409999998,12.893096954499999,-2.17364352240925,0.04665439623506042,0.9299410960598627,13.463997268024809,2.364676137939563,0.15925999599999985,-0.008433718999999673,-0.2406551910000001
73202.0,-2.6718217925000003,2.6722140585,12.657345088499998,-2.2160113900014125,0.03413165885200111,0.8865068322947318,13.209380922461808,2.386999332730787,0.1113054774999993,-0.02991028249999994,-0.2357518660000011
73212.0,-2.6000371144999996,2.6255344045,12.317348532999999,-2.231733315903377,-0.007969173364606109,0.8542653650226405,12.85965391405958,2.389658221360214,0.07178467800000066,-0.046679653999999626,-0.3399965554999991
73222.0,-2.5772856865,2.4890258364999998,11.928220661,-2.221074590161448,-0.03994535059039422,0.8396098352936441,12.454721966471574,2.3748079167832614,0.02275142799999985,-0.13650856800000044,-0.38912787199999954
73232.0,-2.572480428,2.3585973915,11.54634971,-2.198957777880176,-0.03248406803811846,0.8238896547209312,12.062289535293486,2.348460067093371,0.004805258499999798,-0.13042844499999973,-0.3818709509999998
73242.0,-2.6083727669999996,2.078421401,11.201645962499999,-2.1957603346905223,0.02720270172158362,0.8041709248318993,11.687613797561697,2.3385453407462897,-0.03589233899999966,-0.2801759905000001,-0.34470374750000055
73252.0,-2.7077141315,1.7468585645,11.032873516,-2.211215225216932,0.11620227626853045,0.7732611437790797,11.493803925696053,2.34540157280575,-0.0993413645000003,-0.33156283649999985,-0.16877244649999845
73262.0,-2.8442226995,1.4045084129999998,10.861649407,-2.229335233511137,0.19294265814946915,0.7207686211960982,11.315373369320268,2.3508870364202665,-0.136508568,-0.34235015150000025,-0.17122410900000062
73272.0,-3.0633032604999997,1.1650300199999999,10.652179362999998,-2.2535830928090945,0.23877500430684023,0.6437594586103526,11.144956123503322,2.3558600339211644,-0.21908056099999973,-0.23947839299999996,-0.20947004400000147
73282.0,-3.184219255,0.838272442,10.407993778,-2.270903740305886,0.252097102487313,0.5451692998236968,10.916422831395645,2.3489926164822275,-0.12091599450000023,-0.32675757799999994,-0.24418558499999854
73292.0,-3.3458328469999996,0.6383148484999999,10.133799844,-2.257312861420606,0.25449518487955314,0.438318497687352,10.690928049712715,2.3135151304620116,-0.1616135919999997,-0.19995759350000009,-0.2741939339999995
73302.0,-3.5493208344999996,0.46954240199999997,9.8489166615,-2.2157460999551093,0.2417054121209387,0.34052595436885763,10.47947078142136,2.254752804924223,-0.20348798749999997,-0.1687724464999999,-0.2848831824999998
73312.0,-3.651015795,0.3414675529999999,9.671710496,-2.1573910164146786,0.23424412956866297,0.2414017248310917,10.34352456097668,2.183456228710703,-0.1016949605000006,-0.12807484900000005,-0.17720616550000123
73322.0,-3.7468267655,0.2193747605,9.535299994499999,-2.0990341875449965,0.232380117927533,0.13987941290108555,10.247379278689909,2.116485598780263,-0.09581097049999965,-0.12209279249999994,-0.13641050150000034
73332.0,-3.7684013954999998,0.0685484835,9.404773483,-2.050805504324637,0.21612586660370983,0.028232445980260274,10.131895787005334,2.062355613804143,-0.021574629999999928,-0.150826277,-0.1305265114999994
73342.0,-3.600805747,-0.10865768199999999,9.232372576,-2.0161642093310537,0.22491883537525725,-0.09034347807098249,9.910313410864598,2.030681793271422,0.16759564849999986,-0.17720616549999998,-0.1724009070000001
73352.0,-3.3877072424999994,-0.16975311149999997,8.998974306,-2.0220267702885026,0.2702171107815181,-0.2233078964756665,9.617011752088018,2.0521880916112076,0.21309850450000045,-0.06109542949999998,-0.23339827000000035
73362.0,-3.1709802775,-0.23075047449999997,8.779893744999999,-2.0598655084717397,0.3552181360121459,-0.3429502166998778,9.337820724091143,2.118216393166188,0.21672696499999944,-0.060997363,-0.21908056100000017
73372.0,-3.1254774215,-0.267917678,8.553654329499999,-2.1014322699372365,0.46020492650736083,-0.4359448499046396,9.110729464925697,2.194961063817213,0.04550285600000015,-0.03716720350000002,-0.22623941550000026
73382.0,-3.2260936504999997,-0.3337202995,8.3681125115,-2.1187529174340285,0.5545329912606464,-0.5156173849289288,8.974650772326331,2.2499960113681614,-0.10061622899999989,-0.06580262149999999,-0.18554181799999903
73392.0,-3.3553452975,-0.525244174,8.303486688,-2.0851780186134135,0.6094235962358681,-0.5912931159661509,8.97118245748962,2.251442212881907,-0.12925164700000025,-0.19152387450000002,-0.06462582350000012
73402.0,-3.637874884,-0.5539776584999999,8.3010350255,-2.010835719124715,0.6008976628398757,-0.6592405290755422,9.080099526565384,2.199803710718308,-0.28252958649999993,-0.028733484499999906,-0.0024516625000003955
73412.0,-3.7659497329999994,-0.5516240625,8.212480975999998,-1.9322295802733944,0.537744669185713,-0.7354503308638746,9.051602635940977,2.1362508441868275,-0.12807484899999944,0.002353595999999958,-0.08855404950000079
73422.0,-3.7611444744999996,-0.5061212065,8.0592030365,-1.8744068221548222,0.47326173464153043,-0.8260468816763963,8.90803682172799,2.102315641178495,0.004805258499999798,0.045502855999999925,-0.1532779394999988
73432.0,-3.6534674574999997,-0.4714056655,7.8018765404999995,-1.8496266374350068,0.4503455615628449,-0.9179768640374416,8.627822744915502,2.1134359099902933,0.10767701699999987,0.034715541000000016,-0.2573264960000001
73442.0,-3.4787129544999997,-0.47258246349999994,7.448739074,-1.8576202454091408,0.49218110373314894,-1.0019114930951007,8.23459117364962,2.167215230433275,0.17475450299999995,-0.0011767979999999234,-0.3531374664999998
73452.0,-3.404476614,-0.4629719465,7.0644164604999995,-1.8808017085341293,0.591570623317218,-1.0821163535412484,7.855621169958633,2.2490768487977975,0.07423634049999972,0.00961051699999993,-0.3843226135000002
73462.0,-3.350540039,-0.48336977849999996,6.690979228499999,-1.8970559598579524,0.6997548570020866,-1.1519295236210214,7.498597731037965,2.3271054557368775,0.05393657499999982,-0.02039783199999995,-0.37343723200000056
73472.0,-3.2978783284999995,-0.5024927459999999,6.343823818499999,-1.8954572382631256,0.8167320594585025,-1.230537407801594,7.167468246845638,2.402921494978658,0.05266171050000068,-0.019122967499999977,-0.34715541000000005
73482.0,-3.233252505,-0.537208287,6.039719602,-1.8648144925858614,0.9041311670813705,-1.303813311117324,6.87173394242627,2.448451635073257,0.06462582349999968,-0.03471554100000007,-0.30410421649999897
73492.0,-3.1099829145,-0.5563312545,5.7703309265,-1.8061923736698757,0.9520945602554267,-1.3704290380074435,6.578618182759796,2.459042637000262,0.12326959049999964,-0.019122967499999977,-0.2693886755000001
73502.0,-2.9603334355,-0.6137982235,5.473483631,-1.7246558270044567,0.9603552036051158,-1.4186594665570547,6.252946934632976,2.4309081679001774,0.14964947900000025,-0.057466969000000034,-0.2968472955000001
73512.0,-2.795091383,-0.7287321615,5.202918157499999,-1.6324588092678562,0.9483647916439149,-1.4599609379762488,5.950961582481313,2.386588251542884,0.16524205250000001,-0.11493393799999996,-0.2705654735000005
73522.0,-2.6467167685,-0.7718814214999999,4.9946249115,-1.5264073679289247,0.9366396697290169,-1.4908707190290682,5.705014337238104,2.330216475917214,0.14837461449999978,-0.04314925999999997,-0.20829324599999932
73532.0,-2.517367055,-0.7466783309999999,4.7947653845,-1.4187554596659147,0.9414358345134973,-1.5012624093954425,5.466666306990372,2.270012622586442,0.12934971350000035,0.025203090500000025,-0.1998595270000001
73542.0,-2.421654151,-0.699998677,4.6247180734999995,-1.3161684968921918,0.9611545644025292,-1.494068162218722,5.267107767476837,2.2109629762252685,0.09571290399999999,0.04667965399999996,-0.17004731100000026
73552.0,-2.3736996324999997,-0.73353742,4.457122425,-1.2167772319788708,0.9787405019456241,-1.4786132716923122,5.102790158659159,2.1505294719290826,0.0479545185000001,-0.03353874300000004,-0.16759564849999986
73562.0,-2.3030917525,-0.7406962745,4.3469937455,-1.1107257906399393,0.9840707374812148,-1.4767475147219302,4.974858512049143,2.093535340183427,0.07060787999999985,-0.007158854499999978,-0.11012867949999983
73572.0,-2.2181661635,-0.816109413,4.186655018,-1.0049396393473111,0.9536932818502536,-1.4855404834934776,4.807741251630342,2.031321019109448,0.08492558900000002,-0.07541313849999998,-0.1603387275000001
73582.0,-1.9715289159999998,-0.920256036,3.9890510205,-0.9002198842276513,0.9206524537807488,-1.504194562538793,4.5438227829186575,1.9800500151719982,0.24663724750000005,-0.1041466230000001,-0.1976039974999999
73592.0,-1.7009634424999998,-0.9944923765,3.8466584624999998,-0.7973658860783733,0.9059969240517525,-1.534303237464947,4.321929319963589,1.9521037900604066,0.27056547350000004,-0.07423634049999994,-0.14239255800000006
73602.0,-1.4603082514999999,-0.9586000375,3.6551345879999997,-0.7046365429199147,0.9161215790425715,-1.5574864459191877,4.051101464748558,1.9394729785247244,0.24065519099999988,0.035892338999999995,-0.19152387450000008
73612.0,-1.2006281595,-0.9813514655,3.4850872769999994,-0.6270968002415626,0.9691481723766633,-1.5710755794752158,3.8144976084054143,1.9495581687442973,0.259680092,-0.022751427999999962,-0.17004731100000026
73622.0,-0.977919138,-1.0831444925,3.505485109,-0.5532868261747225,1.0299013383093338,-1.5804026189978733,3.7970980605615767,1.9658320164259182,0.22270902149999994,-0.10179302700000004,0.02039783200000045
73632.0,-0.8654368624999998,-1.1620880249999999,3.5605004155,-0.4621562046110905,1.04215878564609,-1.5710755794752158,3.8440333960045034,1.9411238415884873,0.11248227550000012,-0.07894353249999986,0.05501530650000008
73642.0,-0.643904639,-1.3512583034999999,3.6862216685,-0.35423900630177707,1.028302616714507,-1.5438973123631599,3.9785352048489333,1.888520705803821,0.2215322234999999,-0.1891702785,0.12572125300000003
73652.0,-0.48954796799999994,-1.5919134945,3.8227302364999995,-0.24658709803876683,1.0205760441159282,-1.4993966524250604,4.1697856357366225,1.8304564949886066,0.154356671,-0.2406551910000001,0.13650856799999955
73662.0,-0.5002372165,-1.8145244495,3.983068964,-0.15678990802365858,1.0384290170345782,-1.4397098826653585,4.4054028899278865,1.7820444564942166,-0.010689248500000026,-0.22261095499999994,0.16033872750000056
73672.0,-0.5948713889999999,-2.0455691235,4.1830265575,-0.09310458894763751,1.0762660098885632,-1.4000071328409915,4.694245007369944,1.7683429985526595,-0.09463417249999995,-0.23104467400000006,0.19995759349999975
73682.0,-0.7289282944999999,-2.249057111,4.4403530535,-0.04940503513620349,1.1135706773206901,-1.4024052152332316,5.030539691403808,1.791429847523658,-0.13405690549999993,-0.20348798749999997,0.2573264960000001
73692.0,-0.860631604,-2.422634816,4.6821850425,0.0028204520712228364,1.0823956062215674,-1.4237226667170906,5.34160116273292,1.7884558800936814,-0.1317033095000002,-0.17357770500000003,0.24183198899999958
73702.0,-0.825916063,-2.5375687539999996,4.821047206499999,0.05957681401682644,1.012048365390684,-1.452766690799528,5.51034379069945,1.77153107467946,0.03471554100000007,-0.11493393799999962,0.13886216399999984
73712.0,-0.689407495,-2.666820401,4.8881246925,0.12086405070060732,0.9382383913238438,-1.4919371152020369,5.610791098836259,1.7665717515637709,0.136508568,-0.12925164700000025,0.06707748600000052
73722.0,-0.640374245,-2.6573079505,4.8796909735,0.18801210301258514,0.8756194684207912,-1.5257773040689548,5.5930983108029855,1.769195971612148,0.04903325000000003,0.009512450499999936,-0.008433719000000117
73732.0,-0.5194582505,-2.5867000705,4.8402682404999995,0.2580923084679135,0.8383148009886644,-1.559884528311428,5.512626485508536,1.7895874068936468,0.1209159944999999,0.07060787999999985,-0.03942273300000032
73742.0,-0.36382671499999997,-2.4992247525,4.8582144099999995,0.3204441959954109,0.8407128833809046,-1.5891955877694208,5.475467239933778,1.8262051503638836,0.15563153550000008,0.08747531800000008,0.017946169500000053
73752.0,-0.1650459195,-2.341239621,4.8964603449999995,0.37533654629988455,0.8612309740673499,-1.6129111216455196,5.429914090355513,1.8665686700491708,0.19878079549999997,0.15798513149999982,0.03824593499999995
73762.0,0.0814932615,-2.272985337,4.985112461,0.4352903514351418,0.8828137155975118,-1.6262332198259923,5.479457066416743,1.9009135255884808,0.246539181,0.068254284,0.08865211600000045
73772.0,0.42148981699999993,-2.271808539,5.102399995,0.4984415997600526,0.9203854184051937,-1.6283660121719297,5.601183215418328,1.935750298044915,0.33999655549999996,0.0011767980000003675,0.11728753399999992
73782.0,0.6118368934999999,-2.2742602014999997,5.2329265065,0.5570637186760381,0.9830043413082463,-1.6185066472274134,5.738477469747951,1.97387468923824,0.1903470765,-0.0024516624999999515,0.13052651150000028
73792.0,0.711178258,-2.272985337,5.3502140405,0.5999639116900587,1.0653419941003308,-1.5883962269720073,5.856366376519851,2.004473206002768,0.09934136450000008,0.001274864499999584,0.11728753399999992
73802.0,0.6728342565,-2.268278145,5.43876809,0.6279415395995279,1.1535404625206123,-1.5606838891088413,5.931103608655542,2.0397794923841137,-0.03834400150000006,0.004707192000000138,0.0885540494999999
73812.0,0.561528779,-2.319664991,5.6614771115,0.6604500422471743,1.2273504365874526,-1.5465606848017035,6.1439794371526535,2.081930187174877,-0.11130547749999997,-0.051386845999999764,0.22270902150000005
73822.0,0.35568719549999994,-2.2981884275,5.922432068,0.7220025689772582,1.1956412947372195,-1.5348373082160573,6.36265550139345,2.075228030357765,-0.20584158350000004,0.021476563499999823,0.2609549565
73832.0,0.3209716545,-2.2742602014999997,6.234871936999999,0.8411125637796113,1.0229741265081684,-1.5271089902882264,6.644464638923847,2.021387710626585,-0.03471554099999996,0.02392822600000022,0.3124398689999994
73842.0,0.465815875,-2.144910488,6.2887104455,0.9964590845118706,0.7911507686120216,-1.506325609555478,6.660743539446269,1.971767503481156,0.1448442205,0.1293497134999999,0.05383850850000016
73852.0,0.7614863725,-1.9090605555,6.22526142,1.138218217017354,0.6064931884217695,-1.4775468755193437,6.5557801555123545,1.9612545644329662,0.29567049749999996,0.23584993249999986,-0.06344902549999976
73862.0,1.1720908079999999,-1.7379345129999997,6.079240401499999,1.2338779679899112,0.5393451361097917,-1.4535660515969413,6.430503642243313,1.9814646810103187,0.4106044354999999,0.1711260425000003,-0.14602101850000082
73872.0,1.510812499,-1.5427821779999997,5.8936985835,1.2525303017059748,0.6187506357585257,-1.4258537137337757,6.276815613751846,1.9961821858015967,0.33872169100000016,0.19515233499999995,-0.18554181799999903
73882.0,1.625746437,-1.285455682,5.684228539499999,1.1976396967307528,0.8161979887073922,-1.4034716114062002,6.050281140333114,2.017486694870238,0.11493393800000007,0.2573264959999997,-0.20947004400000058
73892.0,1.6604619779999998,-1.3333121339999998,5.620779514,1.128625887448393,1.065874319522189,-1.3866832893312666,6.010658663745378,2.0815318887170915,0.03471554099999974,-0.04785645199999977,-0.06344902549999976
73902.0,1.5730847264999999,-1.5356233235,5.761995273999999,1.1086401221838063,1.2992946536839107,-1.365100547801105,6.1671163509393185,2.186492401819452,-0.08737725149999997,-0.20231118950000027,0.1412157599999997
73912.0,1.401958684,-1.724793602,6.110327482,1.1438137425992478,1.4458499509738745,-1.3504450180721084,6.502038377188157,2.285277599182609,-0.17112604249999985,-0.1891702785,0.3483322080000004
73922.0,1.2737857685,-1.9629971304999998,6.4431651830000005,1.2261496500620805,1.4575733275595204,-1.3312603589341867,6.854944601804437,2.32383672249792,-0.12817291549999998,-0.2382035284999997,0.33283770100000076
73932.0,1.4282405059999999,-1.9629971304999998,6.689704364,1.3423274917210828,1.3720399769070344,-1.2891577813883275,7.116556270771068,2.3121990784911546,0.15445473749999983,0.0,0.24653918099999927
73942.0,1.461779249,-1.8708146204999998,7.022542064999999,1.4856853458213932,1.236143405359,-1.2563839886943782,7.41301847912023,2.3051707512565254,0.03353874300000004,0.09218251,0.332837700999999
73952.0,1.427063708,-1.623000575,7.342140788499999,1.6444963451188612,1.0728015313233545,-1.1855044224416365,7.653605232261227,2.293619866139048,-0.03471554099999996,0.24781404549999975,0.3195987235000004
73962.0,1.4665845074999997,-1.3177195604999998,7.6090778015,1.7923833286280966,0.900933723891717,-1.103433805025107,7.860363855893912,2.289516484688747,0.03952079949999976,0.3052810145000002,0.2669370130000006
73972.0,1.4641328449999997,-1.0292079175,7.883271735499999,1.9186858252779182,0.7287988810845242,-1.0266934231441684,8.083868330260312,2.2949079481146843,-0.0024516624999999515,0.2885116429999999,0.2741939339999995
73982.0,1.532387129,-0.7826687365,8.074795609999999,2.0207422079590347,0.5603955522180953,-0.9480872842928477,8.256095009597129,2.3013717093530905,0.06825428400000022,0.24653918099999994,0.19152387449999964
73992.0,1.6677188989999998,-0.6210551445,8.2627890905,2.0884225856928706,0.42050217668299383,-0.8777400434619642,8.452258832565263,2.304074339278974,0.13533176999999985,0.16161359200000003,0.1879934805000012
74002.0,1.7670602635,-0.3564717275,8.386058681,2.1363859788669273,0.3000604956613691,-0.8199172853433921,8.577619382353298,2.3079093800581996,0.09934136450000008,0.264583417,0.12326959049999964
74012.0,1.8951351125,-0.09669356900000001,8.350166342,2.163831281354538,0.21878923904225317,-0.7583647586133081,8.56306981636761,2.303291482291317,0.1280748490000001,0.25977815849999997,-0.035892339000000106
74022.0,2.029192018,0.05295591,8.224445089,2.1630319205571245,0.22651755697008408,-0.6872199023142633,8.471240853398932,2.2808525789935574,0.13405690549999982,0.149649479,-0.12572125300000003
74032.0,2.054297042,0.18465921949999997,8.1490319505,2.1624995951352664,0.33523411607681086,-0.6166073714370767,8.406007202851193,2.273541524154009,0.025105024000000142,0.13170330949999998,-0.07541313850000009
74042.0,2.065084357,0.18103075899999999,8.202870459,2.171824889328672,0.4895159859653536,-0.565446535073367,8.460758199142974,2.296993477232708,0.010787314999999964,-0.003628460499999986,0.05383850850000016
74052.0,2.0135994445,0.2301620755,8.430384738999999,2.188079140652495,0.6472623344191051,-0.5302729146579251,8.670579228140024,2.3426114102292,-0.05148491249999987,0.04913131650000002,0.2275142799999994
74062.0,1.889153056,0.377359892,8.933073618,2.2227204356460786,0.756244183572135,-0.4985637728076922,9.13844100608479,2.4001994158364464,-0.1244463885,0.14719781649999997,0.5026888790000008
74072.0,1.891506652,0.5892815985,9.511273701999999,2.280276158389096,0.7693009917063046,-0.47298422729046335,9.71541958184245,2.4525899481208824,0.002353595999999847,0.21192170649999997,0.5782000839999988
74082.0,2.017227905,0.9675240889999999,10.0942790445,2.3396976381024945,0.7157420729503546,-0.43754531682871844,10.339235015789988,2.485541723047997,0.12572125300000003,0.3782424904999999,0.5830053425000017
74092.0,2.200416127,1.4930624625,10.478601657999999,2.3676752660119638,0.6413997734616561,-0.3911806452494891,10.81074277540302,2.4840092857916805,0.18318822200000007,0.5255383735000001,0.3843226134999984
74102.0,2.4494069704999997,2.1083316835,10.676107588999999,2.3562171794726208,0.5747840465715365,-0.33309085175536185,11.15454751420636,2.4480779425006416,0.24899084349999967,0.6152692209999999,0.19750593100000025
74112.0,2.7690056939999996,2.623082742,10.793395122999998,2.3359661241617307,0.5531995597121228,-0.2587485522666634,11.447503390957472,2.414480958590678,0.31959872349999996,0.5147510584999999,0.11728753399999903
74122.0,3.0683046519999997,3.0780132355,10.9347089495,2.319179547416049,0.6027616744810056,-0.14097198901283398,11.766754808598392,2.4003725775517206,0.29929895800000006,0.45493049350000003,0.14131382650000113
74132.0,3.233448638,3.4730250975,11.025616595,2.278677436794269,0.7016206139724684,0.030096457621390217,12.003387635263154,2.3844387481476135,0.16514398600000035,0.39501186200000005,0.09090764550000152
74142.0,3.3184722935,3.6813183434999996,11.26391819,2.203535776508157,0.8204618280700143,0.24379980722333192,12.306104830527392,2.363930175718718,0.08502365550000013,0.20829324599999977,0.23830159499999937
74152.0,3.1592122975,3.693380523,11.6517711975,2.124662602281281,0.9012007592672721,0.49027869484847514,12.62479520892286,2.3593912733285456,-0.1592599960000003,0.012062179500000436,0.3878530075000004
74162.0,2.8240210004999997,3.5377489875,12.086303859000001,2.060444957783402,0.8958705237316814,0.7290275192165355,12.90618082477929,2.362096218006654,-0.33519129700000017,-0.15563153549999997,0.43453266150000047
74172.0,2.4469553079999997,3.3605428219999998,12.597426457,2.0236726157731333,0.7882203607979232,0.9006300366018699,13.265594282857013,2.3511011581461077,-0.3770656925,-0.17720616550000035,0.5111225979999983
74182.0,2.0830305264999995,3.1713725435,13.102665065,2.0337990160932042,0.5763827681663634,1.0048174662996714,13.640984267624091,2.3405584106964086,-0.3639247815000002,-0.1891702784999998,0.5052386080000009
74192.0,1.86522483,3.1438158569999994,13.428245845,2.056713443842638,0.32724050810267685,1.0581093496800662,13.916911592840307,2.335969164202883,-0.21780569649999948,-0.027556686500000538,0.32558077999999924
74202.0,1.8460037959999998,3.2504141425,13.677236688499999,2.0540500714040943,0.06264335751258047,1.0940823308929215,14.178847821521353,2.3281026680212586,-0.019221034000000303,0.1065982855000005,0.24899084349999967
74212.0,1.9526020815,3.465866243,13.7933474245,1.9970266740829359,-0.11562108162761636,1.1377818847043555,14.355532622511985,2.3013107979316674,0.10659828550000028,0.21545210049999985,0.11611073600000132
74222.0,2.0602790984999997,3.881275937,13.825709369499998,1.892306918963276,-0.2006221068582442,1.2179867451505029,14.507215185304561,2.25932875356351,0.10767701699999965,0.41540969400000005,0.032361944999998116
74232.0,2.132161843,4.3505241395,13.8639553045,1.7867878030462028,-0.20115443228010246,1.3346969122313637,14.686130569291935,2.2393056080536535,0.07188274450000032,0.4692482025000002,0.03824593500000084
74242.0,2.099799898,4.75034126,13.9418201055,1.6722086829820273,-0.15772191384422357,1.462599875805264,14.877810643781672,2.227185775424391,-0.03236194499999989,0.39981712049999985,0.07786480100000048
74252.0,1.9441683625,5.0891610174999995,14.031550952999998,1.55869595909082,-0.08710938296703698,1.6003604589944285,15.052035497912657,2.2356821635017368,-0.1556315355000002,0.3388197574999996,0.08973084749999849
74262.0,1.6832134059999997,5.255579867999999,14.067443291999998,1.4438498036510892,-0.014098769697610194,1.718669347670116,15.11116434602909,2.2447105286497626,-0.2609549565000002,0.1664188504999995,0.035892339000000106
74272.0,1.3875429085,5.347762378,13.980066040499999,1.3191460285960943,0.05385038874103304,1.8159295655667522,15.032168315689596,2.245138369060549,-0.29567049749999974,0.09218251000000066,-0.08737725149999953
74282.0,1.1217826935,5.3692389415,13.798152682999998,1.2019017907641232,0.11673460169038873,1.8788137785161079,14.848438998283159,2.2334135524384626,-0.265760215,0.021476563500000267,-0.18191335750000093
74292.0,0.8297406565,5.2531282054999995,13.634087428499999,1.1334220522328735,0.17828712842047276,1.916917806745648,14.634622151201937,2.2340558915270545,-0.292042037,-0.11611073600000044,-0.16406525449999876
74302.0,0.4143309625,5.293825802999999,13.6425211475,1.1129039615464282,0.22305307840487532,1.9382352582295068,14.639489234224651,2.2461219511984716,-0.41540969399999994,0.04069759749999946,0.008433719000001005
74312.0,-0.016671304999999997,5.2962774655,13.787365368,1.098515467192987,0.23424412956866297,1.9611514313081924,14.769640371881072,2.260026876039703,-0.43100226750000004,0.0024516625000012837,0.14484422049999957
74322.0,-0.40932957099999995,5.317754029,13.9920301535,1.070803129329821,0.2337118041468047,2.0067149967607563,14.974076479940058,2.2865138590012117,-0.392658266,0.02147656349999938,0.20466478550000033
74332.0,-0.8774009754999998,5.303436319999999,14.271029346,1.0201746183879696,0.23504349036607636,2.0570782176563047,15.249870421301837,2.308153480148698,-0.4680714044999999,-0.014317709000000178,0.2789991925000006
74342.0,-1.299969524,5.0760201065,14.6276972065,0.9343742323599282,0.21932330979336342,2.101310096889597,15.537870718022111,2.310121651257156,-0.42256854850000014,-0.22741621349999974,0.3566678605
74352.0,-1.753625153,4.831736455,14.9138552535,0.7886182958673779,0.17349096363599234,2.119430105183802,15.774788647400628,2.2680392196343377,-0.453655629,-0.24428365149999998,0.2861580469999989
74362.0,-2.1151963384999997,4.6066738375,14.9354298835,0.5901045467455428,0.08182801665050214,2.0821254377516754,15.772208634191205,2.1656790018216743,-0.36157118549999967,-0.2250626174999999,0.021574629999999928
74372.0,-2.2899508414999996,4.4176016255,14.6480950385,0.37533654629988455,-0.025822146283256107,2.006182671338898,15.470157311256893,2.04115487335172,-0.17475450299999995,-0.18907221200000013,-0.28733484500000017
74382.0,-2.319861124,4.355329398,14.054302381,0.1898778599829671,-0.10309659891530505,1.9163854813237897,14.895437731611375,1.9285268531830786,-0.029910282500000385,-0.06227222749999939,-0.5937926574999999
74392.0,-2.2504300419999996,4.308649743999999,13.368425279999999,0.06970321433689754,-0.130808936778471,1.8444395188980796,14.22475632330306,1.85038554223248,0.06943108200000037,-0.04667965400000096,-0.6858771010000009
74402.0,-2.2671994134999998,4.230784943,12.799737646499999,0.004686209041604775,-0.08124682200958804,1.8188599733808506,13.6701506295183,1.8206797108247315,-0.01676937150000013,-0.0778648009999996,-0.5686876334999997
74412.0,-2.4503876355,4.087215586999999,12.496908294499999,-0.02222676802414779,-0.00024260076602721178,1.8271206167305398,13.37469430454281,1.8272558212121583,-0.18318822200000007,-0.14356935600000043,-0.30282935199999983
74422.0,-2.687414366,3.929132389,12.366381783,-0.037946948596860715,0.05997823974478514,1.8423084718813945,13.250949992652838,1.843675097655944,-0.23702673050000023,-0.15808319799999948,-0.1305265114999994
74432.0,-2.9447408619999997,3.6813183434999996,12.355594467999998,-0.0696560904470937,0.09568418558208514,1.845238879695493,13.224383469492793,1.8490305452984703,-0.2573264959999997,-0.2478140455000002,-0.01078731500000174
74442.0,-3.188926447,3.4742999619999995,12.289791846499998,-0.1296098955823509,0.09195441697057324,1.8204586949756774,13.163547992111667,1.8273817882275758,-0.24418558500000032,-0.20701838150000018,-0.0658026214999996
74452.0,-3.3792735234999998,3.3808425874999997,12.086303859000001,-0.21781010933188436,0.05544911033585985,1.7653010546249006,12.997243058439745,1.7795515336803236,-0.1903470764999997,-0.0934573744999998,-0.2034879874999973
74462.0,-3.4834201465,3.3221988205,11.765430271,-0.31267049950702813,0.019476129123004723,1.694688523747714,12.712063970171673,1.7234011005537269,-0.1041466230000001,-0.058643766999999514,-0.3208735880000013
74472.0,-3.5648153414999997,3.3784889915,11.321287092499999,-0.38914559134166365,-0.0005078908123303499,1.6179463965375234,12.340730842032311,1.6640868641037005,-0.08139519499999981,0.05629017099999967,-0.44414317850000096
74482.0,-3.6295392315,3.3545607654999996,10.9370625455,-0.42245345478672347,0.005886995566976873,1.544136422470683,12.001915267431631,1.600893147395729,-0.06472389000000023,-0.02392822600000022,-0.38422454699999875
74492.0,-3.662979908,3.327004079,10.643745644000001,-0.4064644935092034,0.03546334507127278,1.4737909269690517,11.737789369479387,1.52922553266143,-0.033440676500000155,-0.02755668649999965,-0.293316901499999
74502.0,-3.6941650549999996,3.3138631679999997,10.4630090845,-0.375821747831939,0.09275377776798666,1.3917203095525223,11.580289445956852,1.444552065331899,-0.031185146999999525,-0.013140911000000255,-0.18073655950000145
74512.0,-3.799488476,3.3545607654999996,10.2427517255,-0.356103017942907,0.1692271242733702,1.2952611977825517,11.428173673816914,1.3539382369439794,-0.10532342100000047,0.040697597499999905,-0.22025735899999965
74522.0,-3.9204044705,3.337791394,10.018865906,-0.33958347657278076,0.25849198886662017,1.1774846345287224,11.264461666878985,1.252439663385313,-0.12091599449999979,-0.016769371499999686,-0.22388581949999953
