timestamp,ax,ay,az,gx,gy,gz,acc_mag,gyro_mag,dax,day,daz
72862.0,-1.0328363779999998,-0.382263217,9.263949989,0.03444407278810809,0.12842132636174275,0.023015656846049223,9.329182469513846,0.13493758436698364,0.0,0.0,0.0
72872.0,-0.163771055,-0.30685007849999996,9.174121074999999,0.010995574287564275,0.09484817287037985,0.051262065460325454,9.18071214165276,0.10837378791027606,0.8690653229999998,0.07541313850000003,-0.0898289140000017
72882.0,0.4563034245,-0.35951178899999997,9.346521982,0.015526449025741554,0.1294877225347113,0.06085439502928629,9.3645573681648,0.1439145520819759,0.6200744794999999,-0.052661710500000014,0.17240090700000188
72892.0,0.5102399995,-0.254188368,9.3177884975,0.0546951280989983,0.18731048065328346,0.06618288523562497,9.335209642405445,0.20605083716996106,0.05393657499999999,0.10532342099999997,-0.028733484500000017
72902.0,0.680189244,-0.102185293,9.156174905499999,0.07041705400096322,0.22967834824544578,0.06991439917638885,9.181973542864664,0.25019737880147,0.16994924450000004,0.152003075,-0.16161359200000192
72912.0,0.968700887,-0.23869386099999998,9.358486095,0.07921002277251066,0.32427170304503444,0.049396308489943516,9.411515189280736,0.3374408991153596,0.288511643,-0.136508568,0.20231118950000138
72922.0,0.8825004335,-0.10699055149999999,9.929527324499999,0.09573130947188899,0.484149098515471,0.04006926896728581,9.969241038375493,0.4951468262264422,-0.08620045350000005,0.13170330949999998,0.5710412294999987
72932.0,0.5018062805,0.06305675949999999,10.563919513,0.12424300813246834,0.5800758848635834,0.08057312491831822,10.576019155391599,0.5986788669471946,-0.380694153,0.17004731099999998,0.6343921885000015
72942.0,0.37971348799999993,0.0546230405,11.2738229065,0.1767355307154498,0.5542293039707993,0.14825350265215434,11.28034790849319,0.6003204729524562,-0.12209279250000005,-0.008433718999999992,0.7099033934999994
72952.0,0.3641209145,-0.0854159215,11.957346411499998,0.2500131793604317,0.47882060830913237,0.20580922539517132,11.96319410210475,0.5780425607627863,-0.015592573499999929,-0.140038962,0.6835235049999984
72962.0,0.251638639,-0.21231397249999998,12.503282617,0.30463674896009824,0.3354627542088221,0.24524668517323522,12.507616696562573,0.5152521177703265,-0.1124822755,-0.12689805099999996,0.5459362055000021
72972.0,0.17504870250000001,-0.196721399,13.013228417,0.3507361304930245,0.14227749529332573,0.2599022149022316,13.015892408516896,0.45913819293459784,-0.07658993649999998,0.015592573499999984,0.5099458000000006
72982.0,-0.024908891,-0.1189546645,13.399904626499998,0.39416864892890335,-0.087413070256884,0.2591028541048182,13.400455763307203,0.4797335277583116,-0.1999575935,0.07776673449999999,0.38667620949999737
72992.0,-0.1709299095,0.061781894999999996,13.624967243999999,0.4296075593906482,-0.3458806245139762,0.2670964620789522,13.626179451210247,0.6128103960890845,-0.14602101850000002,0.1807365595,0.22506261750000078
73002.0,-0.085906254,0.16357492199999998,13.700380382499999,0.45971797964605443,-0.5864969511816706,0.27349134845825945,13.701626154029105,0.793798974701254,0.0850236555,0.10179302699999998,0.07541313850000009
73012.0,-0.026085689,0.2833141185,13.488458675999999,0.48609863128994873,-0.7557013861747647,0.2777551878208816,13.491458957691405,0.9404915782556671,0.059820565000000006,0.1197391965,-0.21192170650000008
73022.0,0.045698988999999995,0.43168873299999994,13.329296746499999,0.494624564685941,-0.8377702582620422,0.282551352605362,13.336363646663592,1.0130882155460723,0.07178467799999999,0.14837461449999995,-0.15916192949999974
73032.0,0.08286619249999999,0.752562321,13.179647267499998,0.4530578032204441,-0.7948700652480216,0.3020030471188388,13.20137564606691,0.9634758088065275,0.037167203499999996,0.32087358800000004,-0.1496494790000007
73042.0,0.043345393,0.9871373889999999,13.268201316999999,0.3579303776697451,-0.6413875561568922,0.3571606874696156,13.30494213577408,0.8167349074978278,-0.03952079949999999,0.23457506799999994,0.08855404950000079
73052.0,-0.18887607899999997,1.146397385,13.478848159,0.19432146825854468,-0.43461316368536795,0.4360338616964914,13.528830283174186,0.6455811053777178,-0.23222147199999998,0.15925999600000007,0.21064684200000094
73062.0,-0.5624113774999999,0.9799785344999999,13.69792872,0.02964790800362768,-0.24675814030546228,0.47706829774013004,13.744450360193493,0.537924473290319,-0.37353529849999995,-0.16641885050000005,0.21908056100000017
73072.0,-0.8879921575,0.8267986614999999,13.986440363,-0.10971139678036355,-0.1215202944993572,0.5039812748058826,14.038968627580706,0.5299064992181841,-0.3255807800000001,-0.15317987300000002,0.28851164299999965
73082.0,-1.3093839079999998,0.866319461,14.146877156999999,-0.22109307365488567,-0.0780860307342263,0.5154393613452254,14.233732079896862,0.5662661129168556,-0.4213917504999998,0.03952079950000009,0.16043679399999888
73092.0,-1.699688578,0.7429518039999999,14.155212809499998,-0.31835154622226974,-0.13431006725797165,0.5109084866070481,14.276237891247236,0.6167774175795148,-0.39030467000000013,-0.12336765700000007,0.008335652499999568
73102.0,-1.9965358734999998,0.522694445,14.003209734499999,-0.3660479040207707,-0.2507549442925293,0.4874599881065043,14.15447801387963,0.6591557859337519,-0.2968472954999999,-0.22025735899999999,-0.15200307499999965
73112.0,-2.150990611,0.21741343049999998,13.671646897999999,-0.3596530176414635,-0.3975755316287963,0.451221716847346,13.841530194019914,0.7007265045673651,-0.15445473750000027,-0.3052810145,-0.33156283649999985
73122.0,-2.0551796405,0.1803442935,13.2275037195,-0.33567219371906143,-0.504159298389586,0.42111129659193985,13.387424773581738,0.7376904119657456,0.09581097050000009,-0.037069136999999974,-0.4441431784999992
73132.0,-1.8217813704999999,0.338329425,12.7522734605,-0.3503277234480578,-0.5134863379122437,0.3886027939442935,12.886187666377296,0.7330824404527344,0.23339827000000013,0.15798513150000001,-0.47523025899999993
73142.0,-1.5631800099999997,0.5167123885,12.3488278795,-0.4334629917083037,-0.4279512419305056,0.3544955697018203,12.458092688433869,0.7047691392142488,0.25860136050000015,0.1783829635,-0.4034455809999997
73152.0,-1.3022250534999997,0.5130839279999999,12.110624350999998,-0.5512395549621331,-0.25208663051180097,0.340107075348379,12.191237319409753,0.6950435518294316,0.2609549565,-0.003628460500000097,-0.23820352850000148
73162.0,-1.229165511,0.408937305,12.042370067,-0.6524965768458361,-0.04504520266472165,0.3542285343262651,12.111843559236972,0.7438136242430451,0.0730595424999998,-0.10414662299999994,-0.06825428399999822
73172.0,-1.3285068755,0.2748803995,12.126216924499998,-0.7412273706879758,0.17052215857835,0.38167558214312797,12.201869801481665,0.8509830031366816,-0.09934136450000008,-0.1340569055,0.08384685749999754
73182.0,-1.6015240115,0.16239812399999998,12.2650790885,-0.8174354271470562,0.32187362065279423,0.41205129244483724,12.370263431198616,0.9703553848115081,-0.273017136,-0.1124822755,0.1388621640000025
73192.0,-2.016835639,-0.030400614999999995,12.4421871875,-0.8765898714849,0.3879570221210556,0.4328364185068378,12.604625032142847,1.0517926692028126,-0.41531162749999995,-0.19279873899999997,0.1771080989999998
73202.0,-2.4634304799999995,-0.207508714,12.53682136,-0.9325486179623422,0.34931892314040514,0.447224912860279,12.778240857361048,1.0916413136238161,-0.4465948409999996,-0.17710809900000002,0.09463417249999928
73212.0,-2.7890112599999997,-0.39305053199999995,12.510441471499998,-0.981576661980115,0.22354875191244172,0.4288396145197707,12.8235805585234,1.0942441239536544,-0.3255807800000001,-0.18554181799999994,-0.02637988850000106
73222.0,-2.7938165184999995,-0.8036549674999999,12.437381928999999,-1.0146174900496197,0.05967455245493812,0.375813021185679,12.772616853787113,1.08362591802614,-0.004805258499999798,-0.4106044354999999,-0.07305954249999935
73232.0,-2.6632900069999996,-0.99047165,12.180055432999998,-1.0119541176110762,-0.07089178355750568,0.29693984695880327,12.507113899768905,1.0570004985040895,0.13052651149999983,-0.18681668250000016,-0.257326496000001
73242.0,-2.5435508104999998,-0.9436939294999999,11.7131608265,-1.0004960310717335,-0.14443646757804274,0.20607626077072647,12.02324188834378,1.0316596466906895,0.11973919649999987,0.046777720500000175,-0.4668946064999986
73252.0,-2.3820352849999997,-0.853963082,11.176835138,-1.0087566744214227,-0.15615984416368867,0.1338650082987131,11.459711547261364,1.0295123921380502,0.16151552550000003,0.08973084749999982,-0.5363256884999998
73262.0,-2.1916882085,-0.7941425169999999,10.757895049999998,-1.027409008137486,-0.0890117918517108,0.07577521480458581,11.007564010597417,1.034037838896327,0.1903470764999997,0.0598205650000001,-0.41894008800000115
73272.0,-2.026446156,-0.8240527994999999,10.470560205,-1.0519221574817463,0.047949430540040215,0.02115164520491928,10.696643307414742,1.0532268347250942,0.16524205250000001,-0.02991028249999994,-0.2873348449999984
73282.0,-1.8923892505,-0.7881604604999999,10.3125750735,-1.0878951386946014,0.20995961835641386,-0.04120024232257814,10.514349177836785,1.1087363681701599,0.13405690550000005,0.035892338999999995,-0.15798513150000026
73292.0,-1.875619879,-0.62174161,10.153315077499999,-1.1539785401628628,0.36637253526164165,-0.09182875326442966,10.343805857763098,1.2142190188250859,0.016769371499999908,0.16641885049999994,-0.15925999600000118
73302.0,-1.8600273054999998,-0.46728687249999995,10.0803536015,-1.2427093340050024,0.4729580473516834,-0.12966574611841472,10.261168906595898,1.3359749283180127,0.015592573500000206,0.1544547375,-0.07296147599999792
73312.0,-1.784614167,-0.5044540759999999,10.070743084499998,-1.3261133829700555,0.5187886481798025,-0.152049593775242,10.24007753456265,1.432074524925197,0.07541313849999987,-0.03716720349999997,-0.009610517000002261
73322.0,-1.8229581684999998,-0.5845744065,10.094671310499999,-1.3522269992383946,0.4724257219298251,-0.1776291392924709,10.274594521822623,1.4433488945282682,-0.038344001499999836,-0.08012033050000011,0.023928226000000663
73332.0,-1.977412906,-0.5378947525,9.8852012665,-1.3098591316462325,0.3320000209728654,-0.201611708544125,10.095379965350268,1.3662365240708092,-0.15445473750000027,0.04667965400000007,-0.2094700439999997
73342.0,-2.1832544895,-0.3966789925,9.522453282999999,-1.23178531821677,0.12469155775023089,-0.1930840298188807,9.777580013271699,1.253046087468321,-0.20584158349999981,0.14121575999999997,-0.36274798350000026
73352.0,-2.316134597,-0.2242780855,9.011330685,-1.1369249280416263,-0.09940348221808505,-0.15258191919710026,9.306925423870037,1.151416773520956,-0.13288010750000012,0.172400907,-0.5111225979999983
73362.0,-2.086266721,-0.2578168285,8.436660994999999,-1.0516568674354432,-0.24649110492990717,-0.09902300044115028,8.694609082228151,1.0846868609188847,0.22986787600000014,-0.03353874299999998,-0.5746696900000021
73372.0,-1.8038352009999998,-0.460128018,7.9052386315,-0.9866398621401504,-0.2622112855026201,-0.05585577205157453,8.121473822298222,1.0224152009239442,0.28243152000000005,-0.20231118950000004,-0.531422363499999
73382.0,-1.577497719,-0.5953617215,7.482572016499999,-0.9482687985350552,-0.16948368767341335,-0.032941344302140976,7.670191563121909,0.9638586861293145,0.22633748199999992,-0.13523370349999997,-0.4226666150000007
73392.0,-1.469820702,-0.7114724575,7.119922099499999,-0.9445390299235432,-0.02692519437051652,-0.019350465416861133,7.304783135504937,0.9451208312446865,0.10767701699999987,-0.11611073599999999,-0.3626499169999997
73402.0,-1.481784815,-0.7210829744999999,6.868479593499999,-0.9767804971956345,0.11909603216833706,-0.011356857442727101,7.063402779142944,0.984079764445427,-0.011964112999999887,-0.00961051699999993,-0.25144250600000007
73412.0,-1.67693715,-0.8958374775,6.7284406315,-1.0226128433530055,0.2227493911150283,-0.0012322024519079967,6.991892184721086,1.046592488486095,-0.19515233500000018,-0.17475450300000006,-0.14003896199999932
73422.0,-1.889937588,-1.1927828395,6.800225309499999,-1.0276742981837892,0.2906968042244195,0.030743974773880117,7.158048564287986,1.0684401186396602,-0.2130004379999999,-0.296945362,0.07178467799999932
73432.0,-2.210811176,-1.5650432735,7.0169522744999995,-0.9751817756008078,0.2981580867766953,0.07231248156862907,7.521613239622522,1.0223046684647865,-0.320873588,-0.372260434,0.21672696500000033
73442.0,-2.6333797244999997,-1.9445606284999999,7.155814438499999,-0.8680639380889078,0.16972279778093657,0.10721906660851566,7.869033300829592,0.890975171899539,-0.4225685484999997,-0.37951735499999995,0.13886216399999984
73452.0,-2.7626313715,-2.3479081429999997,7.111488380499999,-0.7161801505926052,-0.0501084028247572,0.1152126745826497,7.982360035023989,0.7271167860261393,-0.12925164700000025,-0.40334751449999984,-0.044326058000000224
73462.0,-2.7890112599999997,-2.4664705415,6.862497536999999,-0.5536376373543732,-0.2590138423129665,0.09016545448727906,7.807428077531368,0.6178451368975533,-0.026379888499999726,-0.11856239850000039,-0.24899084349999967
73472.0,-2.7483136624999998,-2.3993930555,6.411195503999999,-0.4246700229367563,-0.39144593529579225,0.04326671215693943,7.376567142836537,0.5791774831790115,0.040697597499999905,0.06707748600000007,-0.45130203300000016
73482.0,-2.549532867,-2.3838985485,5.860552106499999,-0.34046835850354185,-0.402904021835135,-0.009225810426042026,6.821228710610371,0.5275750842591417,0.19878079549999983,0.015494507000000102,-0.5506433975
73492.0,-2.2981884275,-2.3299619734999997,5.460734985999999,-0.3175521854248563,-0.26274535625373036,-0.0790389805058152,6.366319143239314,0.4196685276982307,0.25134443949999996,0.053936575000000264,-0.39981712049999985
73502.0,-2.0922487775,-2.355165064,5.241654424999999,-0.3974917558247006,-0.014667747033760345,-0.16963553131833686,6.115492501569962,0.43242462029503387,0.20593964999999992,-0.025203090500000247,-0.21908056100000017
73512.0,-2.048020786,-2.4377370569999997,5.227238649499999,-0.5181987268926284,0.26032109392271024,-0.2445119015581456,6.12053714944903,0.6293513029285295,0.04422799150000012,-0.08257199299999973,-0.014415775499999839
73522.0,-2.0623384949999997,-2.4652937434999997,5.441513952,-0.6301127291890088,0.4932091026625736,-0.2900772123399616,6.319888242643992,0.8511416213264191,-0.014317708999999734,-0.027556686500000094,0.21427530250000082
73532.0,-2.232385806,-2.5059913409999997,5.841429139,-0.7225750369719124,0.6352335252143602,-0.332710369978427,6.736900873098514,1.0180041777431001,-0.17004731100000026,-0.040697597499999905,0.3999151869999995
73542.0,-2.416750826,-2.5621834454999997,6.1729919755,-0.7761339557278624,0.6461592863318446,-0.38920144187772754,7.1071301165064735,1.082304718139194,-0.18436502,-0.056192104500000006,0.33156283649999985
73552.0,-2.6214156115,-2.5478657365,6.4136471665,-0.7585480181847675,0.5547616293926576,-0.4483558862155713,7.382297040610062,1.0412389553040096,-0.2046647854999999,0.014317708999999734,0.2406551910000001
73562.0,-2.765083034,-2.4329317985,6.4411057865,-0.694063338311333,0.37410085318947256,-0.513105856135309,7.4197496638330644,0.9407193978787255,-0.14366742250000009,0.11493393800000007,0.02745861999999999
73572.0,-2.7471368645,-2.3383956925,6.3214646565,-0.6045331836717799,0.17878280192803914,-0.5703962888320229,7.278445628729812,0.8501620943907832,0.017946169500000053,0.09453610600000006,-0.11964112999999976
73582.0,-2.4262632765,-2.4209676855,6.1274891195,-0.5091387227455259,0.08578816872327728,-0.5890486225480862,7.020965811818102,0.7833007906402474,0.320873588,-0.08257199300000018,-0.19397553700000003
73592.0,-2.1018592944999996,-2.5382552195,5.947929357999999,-0.4100144932077599,0.13481621274105,-0.57865518685246,6.7998835064251875,0.7218927351965191,0.3244039820000002,-0.11728753399999992,-0.17955976150000108
73602.0,-1.946227759,-2.575422423,5.76238754,-0.33194067977829755,0.2688470273187025,-0.562935006279747,6.604976404798173,0.7066534937895378,0.15563153549999975,-0.037167203500000134,-0.18554181799999903
73612.0,-1.8193297079999997,-2.6172968185,5.704920571,-0.2893075221398321,0.43325529752731634,-0.5639996571234636,6.535007417284279,0.7677920346275788,0.12689805100000018,-0.04187439549999983,-0.057466969000000034
73622.0,-1.8636557659999997,-2.5370784215,5.818677710999999,-0.2709222237993238,0.5790094886906147,-0.5895809479699445,6.615662478956598,0.8696301130660532,-0.044326058,0.08021839699999989,0.1137571399999997
73632.0,-1.9007249029999997,-2.4186140894999997,5.994609012,-0.27918112181976096,0.6501560903189116,-0.6162268896601419,6.737787951365336,0.9382860012275179,-0.03706913700000003,0.11846433200000028,0.17593130100000032
73642.0,-1.9522098154999998,-2.403021516,6.169363515,-0.2839790319334934,0.6336348036195334,-0.6335475371569336,6.902657586053841,0.9399572526309188,-0.05148491250000009,0.015592573499999762,0.17475450299999995
73652.0,-1.8109940555,-2.5382552195,6.363339052,-0.27145454922118206,0.5582261079578664,-0.6239552075879728,7.086220637200312,0.8801272981647672,0.1412157599999999,-0.13523370349999997,0.19397553700000003
73662.0,-1.70439577,-2.8794285729999998,6.6721504605,-0.19338073579171972,0.4798852591528489,-0.6234211368368625,7.464158734603188,0.8101480634936492,0.10659828549999983,-0.3411733534999999,0.30881140850000044
73672.0,-1.7774553124999999,-3.1895148459999993,6.906823595,-0.04283037984394085,0.38289382196101995,-0.640209458911796,7.812590128327327,0.7472016271486754,-0.0730595424999998,-0.3100862729999996,0.2346731344999995
73682.0,-1.7570574804999999,-3.225407185,6.9666441599999995,0.12504236892988174,0.253926207543403,-0.6708522045890604,7.875571938017754,0.72811866705021,0.020397832000000005,-0.03589233900000055,0.05982056499999988
73692.0,-1.699688578,-2.9632754305,6.874461649999999,0.25054550478229,0.15933110741456233,-0.7222783309990733,7.676468297108334,0.7809260139010419,0.05736890249999993,0.2621317544999999,-0.09218251000000066
73702.0,-1.5392517839999997,-2.681922642,6.709317663999999,0.29744250178337767,0.12389219695281747,-0.7675783517345862,7.387621310589887,0.8324649208132043,0.16043679400000022,0.2813527885,-0.16514398599999947
73712.0,-1.218378196,-2.4090035725,6.499749553499999,0.2675991169035266,0.15560133880305047,-0.8139430233138155,7.038074161233982,0.8708181837824033,0.32087358799999977,0.2729190694999999,-0.20956811050000024
73722.0,-0.7994381079999999,-2.2892643759999998,6.369321108499999,0.19778594682375342,0.2427334110503634,-0.8475161768051785,6.815283123607482,0.9035056499809948,0.41894008800000004,0.11973919650000031,-0.13042844499999973
73732.0,-0.385205212,-2.2809287234999998,6.375303165,0.12557469435174,0.3780976571765396,-0.8507136199948321,6.781998919396723,0.9393830451251675,0.4142328959999999,0.008335652500000013,0.00598205650000061
73742.0,-0.046483521,-2.288087578,6.518970587499999,0.08800299154405809,0.5259846406857751,-0.8405889650040129,6.909014618815953,0.9954869044063639,0.33872169100000005,-0.007158854500000089,0.1436674224999992
73752.0,0.027752819499999998,-2.2055155849999997,6.7307942275,0.09999340350525912,0.6360328860117735,-0.814742384111229,7.0829838449353675,1.0384323113714637,0.0742363405,0.08257199300000018,0.21182364000000042
73762.0,-0.023732092999999996,-2.1336328405,7.0181290725,0.14662511046004362,0.6821305222154478,-0.7814345206661691,7.335331484573002,1.0475881263378777,-0.051484912499999994,0.07188274449999987,0.28733484500000017
73772.0,-0.046483521,-2.090581647,7.330568941499999,0.2241665984676477,0.6581496982930458,-0.7518564258326214,7.622987166890825,1.0240604348853573,-0.022751428000000004,0.04305119349999975,0.3124398689999994
73782.0,0.000196133,-2.0678302189999997,7.531703333,0.3104993099175472,0.5683507629486855,-0.7305389743487625,7.810408244733501,0.9762784460624785,0.046679654,0.022751428000000296,0.201134391500001
73792.0,0.1534740725,-1.9660371919999997,7.666937036499999,0.37631567601025334,0.42606105035059577,-0.7174821662145929,7.9164878609717055,0.9153808854640191,0.15327793950000002,0.10179302700000004,0.13523370349999908
73802.0,0.436003659,-1.9025881664999997,7.781870974499999,0.43547012034809723,0.267782376474986,-0.6966987854818445,8.022933178441212,0.8641358831563787,0.2825295865,0.06344902549999998,0.11493393800000007
73812.0,0.781982271,-1.8415908035,7.8968049124999995,0.5002200902678348,0.13002004795656957,-0.6596611534252728,8.14631700744442,0.8380203988666091,0.34597861199999996,0.060997362999999805,0.11493393800000007
73822.0,0.9758597415,-1.6117229274999998,7.7998171439999995,0.5625737231245842,0.024235641993193262,-0.590647344142913,8.0241573083998,0.8160519869690627,0.19387747050000004,0.22986787600000014,-0.09698776850000002
73832.0,1.0704939139999998,-1.2765316305,7.615452124,0.6054739161386048,-0.030389672935725268,-0.5056445735830332,7.795550094542023,0.7894293066129012,0.09463417249999984,0.3351912969999997,-0.18436501999999955
73842.0,1.1841529874999999,-1.108935982,7.3617540885,0.6222604928842863,-0.014135421611902075,-0.4049216224504404,7.538393765884476,0.742542558697236,0.11365907350000004,0.16759564850000008,-0.25369803550000025
73852.0,1.2392663605,-1.0838309579999998,7.280260827,0.6225275282598415,0.06420368186386341,-0.3161908286083007,7.464091931838516,0.7011699339690683,0.05511337300000019,0.025105024000000142,-0.08149326149999947
73862.0,1.0524496779999999,-1.0107714154999998,7.232404375,0.6121358378934673,0.19610344942483088,-0.2335861404406611,7.378142193169857,0.683907400103127,-0.18681668250000016,0.07305954250000002,-0.04785645200000044
73872.0,0.8801468374999999,-1.064609924,7.4466796775,0.5897519902366399,0.30721809092379787,-0.16377297036088792,7.573710515007293,0.6848444722707259,-0.1723028405,-0.05383850850000016,0.21427530249999993
73882.0,0.8358207795,-1.4956121915,7.9087690255,0.5655041309386828,0.366906606012752,-0.10088875741153222,8.092223409021505,0.6816112682582021,-0.04432605799999989,-0.43100226750000004,0.4620893480000001
73892.0,0.8238566665,-1.9804529674999998,8.431953802999999,0.5577775583401039,0.34452275835592466,-0.05852088981936987,8.700504508322618,0.65820698124395,-0.011964112999999998,-0.48484077599999975,0.5231847774999991
73902.0,0.933985346,-2.404198314,8.801860641,0.5391252246240404,0.23420747765437108,-0.06225240376013375,9.171981732601092,0.5910875672766764,0.11012867950000005,-0.42374534650000006,0.36990683800000035
73912.0,0.874164781,-2.462842081,8.63181333,0.49435927463963786,0.06900159197759582,-0.1006217220359771,9.01875582019221,0.5091925402666038,-0.0598205650000001,-0.05864376699999996,-0.17004731099999937
73922.0,0.7100995265,-2.1168634689999997,7.942307768499999,0.44666117151188484,-0.08767836030318714,-0.15178255839968688,8.25018817806586,0.4798245950721777,-0.16406525449999998,0.34597861200000013,-0.6895055615000008
73932.0,0.5149471915,-1.6775255489999998,7.086383356499999,0.4309409909391719,-0.14603518917286956,-0.19148530822405388,7.300417224574338,0.49366287830264505,-0.19515233499999995,0.4393379199999998,-0.8559244120000002
73942.0,0.4767012565,-1.411765334,6.475821327499999,0.46478117980608996,-0.05490456760923762,-0.20534147715563686,6.64504231077099,0.5110784469010186,-0.03824593500000001,0.2657602149999998,-0.6105620289999996
73952.0,0.3713778355,-1.2836904849999997,6.226830484,0.5569781975426904,0.14441028763926284,-0.20107938312226672,6.3686105733081115,0.6095178110857714,-0.10532342100000003,0.12807484900000032,-0.24899084349999967
73962.0,0.389324005,-1.569848532,6.5129885309999995,0.7000672709381935,0.35278340170561384,-0.15791215473269096,6.710813452870623,0.7996790362202549,0.017946169499999998,-0.28615804700000025,0.2861580469999998
73972.0,0.4994526845,-2.103722558,7.451484935999999,0.8431580896629486,0.4972059066496406,-0.10222044363080389,7.758848454282841,0.9841637551075747,0.11012867950000005,-0.5338740259999999,0.9384964049999995
73982.0,0.46954240199999997,-2.529919567,8.4414662535,0.9388178406355059,0.4865471809077112,-0.0835681099147405,8.824925812251609,1.060702939629884,-0.02991028250000005,-0.426197009,0.9899813175000007
73992.0,0.506611539,-2.7669462975,9.0855670255,0.9827844298224949,0.3042876831096994,-0.13366429543473374,9.511055421957641,1.0374595767873847,0.03706913700000003,-0.23702673050000023,0.6441007719999998
74002.0,0.6203686789999999,-2.830395323,9.11430051,0.9737244256753925,0.03915646176849279,-0.24797638012335435,9.563810368724942,1.0055668902435992,0.11375713999999992,-0.06344902549999976,0.028733484500000017
74012.0,0.7687432934999999,-2.5322731629999997,8.560028652,0.9342887112265805,-0.1737457817067835,-0.39986016761965687,8.959769201626356,1.0310049205678633,0.1483746145,0.29812216000000014,-0.5542718579999999
74022.0,0.829838723,-1.7997164079999999,7.903963767,0.8772653139054217,-0.20545492355701647,-0.5440156371881285,8.148635142492486,1.0525013872202749,0.06109542950000002,0.7325567549999998,-0.6560648850000002
74032.0,0.8418028359999999,-1.1160948364999999,7.464625846999999,0.8668736235390476,-0.05303881063885568,-0.6098320032808348,7.594401802279101,1.061215372507965,0.011964112999999998,0.6836215715,-0.4393379200000007
74042.0,0.9387906044999998,-0.7114724575,7.4659007115,0.9321559188806435,0.19823449644151597,-0.5909126341892161,7.55825338890241,1.1213337210340535,0.0969877684999999,0.40462237899999987,0.0012748645000009162
74052.0,1.0896168815,-0.8815197684999999,8.0788163365,1.0454033527255475,0.44551274486407255,-0.5064439343804465,8.199488730988374,1.2441202652464438,0.15082627700000018,-0.17004731099999992,0.6129156249999994
74062.0,1.1494374465,-1.075397239,9.050851484499999,1.1810328888980268,0.6013933363474421,-0.3860039986880739,9.186707694247222,1.3804027371260565,0.05982056499999988,-0.19387747050000004,0.9720351479999998
74072.0,1.013026945,-0.8923070835,10.159297134,1.2894824126291986,0.6136507836841982,-0.29407401632702856,10.248597649408474,1.458016359261774,-0.1364105014999999,0.18309015549999996,1.1084456495000001
74082.0,0.7999284405,-0.573885158,11.12662509,1.3209245191038765,0.45617147060600194,-0.22985637182914923,11.170094698699332,1.4162513715563032,-0.2130985045,0.31842192550000004,0.9673279560000001
74092.0,0.8369975774999999,-0.31528379749999996,11.452205869999998,1.2734951966809307,0.22328171653688658,-0.1776291392924709,11.487079180826138,1.3050658420305257,0.03706913699999992,0.2586013605,0.32558077999999924
74102.0,0.759230843,0.21143137399999998,11.763468941,1.121878444560183,0.04874879133745362,-0.13872575026551728,11.78984038164833,1.1314736067679037,-0.07776673449999993,0.5267151714999999,0.31126307100000083
74112.0,0.574865823,0.6472389,11.859181845,0.9723927394561207,-0.0306567083112804,-0.03400599514585752,11.890735172431699,0.9734700207080453,-0.18436502,0.43580752599999995,0.09571290400000088
74122.0,0.3378390925,0.7705084904999999,12.0363880105,0.8519510584344961,-0.0493090420273438,0.1325333220794414,12.065755464357048,0.8636070107721021,-0.2370267305,0.12326959049999997,0.17720616549999946
74132.0,0.1164049355,0.417371024,12.3500046775,0.7877334139366168,-0.08421562706723039,0.31212770210965796,12.357603498047485,0.8514927514070918,-0.221434157,-0.35313746649999994,0.3136166669999998
74142.0,-0.07992419749999999,-0.0063743225,12.636162724499998,0.7834713199032466,-0.1612230443237242,0.46614428195189755,12.636417091461352,0.9258027169588535,-0.196329133,-0.42374534649999995,0.2861580469999989
74152.0,-0.278704993,-0.22663168149999996,12.755803854499998,0.8095831908423338,-0.28272937618906546,0.5724627586663842,12.760860878744023,1.0310550194410768,-0.19878079550000002,-0.22025735899999996,0.11964112999999976
74162.0,-0.3325435015,-0.215942433,12.6612677485,0.8335657600939878,-0.41436210837447773,0.6158952771022631,12.66747478047484,1.1161786710085817,-0.05383850849999999,0.01068924849999997,-0.09453610599999784
74172.0,-0.31577413,-0.16798791449999997,12.445815648,0.8460884974770471,-0.5086901731277633,0.6137642300855779,12.450954195747288,1.162470630997731,0.01676937150000002,0.047954518500000015,-0.2154521005000003
74182.0,-0.2535019025,-0.030400614999999995,12.506813010999998,0.8218406381790899,-0.5633154880566817,0.6063029475333022,12.509418815599801,1.1663402753205094,0.0622722275,0.13758729949999998,0.06099736299999847
74192.0,-0.11826819899999999,0.025889555999999998,12.4433639855,0.7776087589457976,-0.5683769428874654,0.5969759080106445,12.443952945573324,1.1331848772113304,0.1352337035,0.05629017099999999,-0.06344902549999887
74202.0,-0.1709299095,-0.08178746099999999,12.584677811999999,0.7131240790723632,-0.5361354756153741,0.6047042259384753,12.586104316053621,1.0778007242686285,-0.052661710500000014,-0.10767701699999999,0.14131382649999935
74212.0,-0.4463006415,-0.2817450545,12.6253754095,0.6462430621359404,-0.5017612159973458,0.6244229558275073,12.636402524814798,1.0292222505379163,-0.27537073199999995,-0.19995759349999997,0.04069759750000124
74222.0,-0.716866115,-0.3619634515,12.630180668,0.6121358378934673,-0.4868403962220463,0.6449393011847007,12.655685610561678,1.0137408730241602,-0.2705654735,-0.080218397,0.004805258499999354
74232.0,-0.8509230204999999,-0.463658412,12.5116182695,0.5897519902366399,-0.4679210271304277,0.6438746503409841,12.549089243109293,0.9906220585927797,-0.13405690549999993,-0.10169496050000004,-0.11856239849999994
74242.0,-0.7910043889999999,-0.40864310549999994,12.304501821499999,0.5742970997102301,-0.40716786119775716,0.6134971947100227,12.336670628917137,0.9337995683469796,0.059918631499999986,0.05501530650000008,-0.20711644800000073
74252.0,-0.7012735415,-0.24820631149999997,12.111801149,0.5519149973826548,-0.2702066388060061,0.5775242134971676,12.134624758351373,0.8433006635632735,0.08973084749999993,0.16043679399999997,-0.19270067249999911
74262.0,-0.6665580005,-0.1213082605,11.927436128999998,0.5135439337775596,-0.0796847523290531,0.5623363583463129,11.946662624912054,0.7657017771898311,0.03471554099999996,0.12689805099999996,-0.18436502000000132
74272.0,-0.707255598,-0.038736267500000005,12.158480802999998,0.43147331636103015,0.11136771424050616,0.5559414719670058,12.179095467900794,0.7124906390680383,-0.040697597500000016,0.082571993,0.23104467399999962
74282.0,-0.9071151249999999,-0.060310897499999995,12.484061582999999,0.3440742087381621,0.2624521409393953,0.5628686837681712,12.517119830955421,0.7099924947274993,-0.19985952699999987,-0.02157462999999999,0.325580780000001
74292.0,-1.2363243654999998,-0.183580488,12.759432314999998,0.30170634114599976,0.32640275006171954,0.5921797432261641,12.82050360685451,0.7404338726874705,-0.3292092404999999,-0.1232695905,0.27537073199999895
74302.0,-1.6254522375,-0.241047457,13.016856877499999,0.28838249763627505,0.28456895322066744,0.6340152853964681,13.12016622692864,0.7524090218733475,-0.3891278720000002,-0.05746696900000001,0.2574245625000007
74312.0,-2.0108535825,-0.22545488349999998,13.220344865,0.2766591210506292,0.1449426130611211,0.653732269956248,13.374299248344899,0.7245098419784519,-0.3854013449999998,0.015592573500000012,0.20348798750000086
74322.0,-2.2167932324999997,-0.30930174099999996,13.203575493499999,0.27026423467132193,-0.03598519851761908,0.6494701759228779,13.391947043473445,0.7043785917162175,-0.20593964999999992,-0.08384685749999998,-0.016769371500000574
74332.0,-2.2515087735,-0.333229967,12.9713540215,0.3208910002839214,-0.1977283509584376,0.6286850498608775,13.169523875947016,0.733015979876655,-0.03471554100000018,-0.023928226000000052,-0.2322214719999991
74342.0,-2.190413344,-0.196721399,12.559474721499999,0.4082918532360415,-0.2909900195387546,0.5988416649810264,12.750569211074275,0.7810177773951973,0.06109542949999991,0.13650856800000002,-0.4118793000000007
74352.0,-2.0671437535,0.1348414375,12.461310154999998,0.454921814861574,-0.29551914894767983,0.5708640370715573,12.632320305074883,0.7875094754054364,0.12326959050000008,0.33156283649999996,-0.09816456650000127
74362.0,-1.9546614779999998,0.22221868899999997,12.690001232999998,0.35446589910453635,-0.2337013321712927,0.5418182676598677,12.8415814420522,0.688352686823088,0.11248227550000012,0.08737725149999997,0.22869107800000066
74372.0,-1.946227759,0.11571846999999999,12.775024888499999,0.25134486557970337,-0.13537646343094017,0.5239652947412177,12.922942937117526,0.5966914264488798,0.008433718999999895,-0.10650021899999998,0.08502365550000057
74382.0,-2.1186286659999998,0.15396440499999997,12.956938245999998,0.15595214998270132,-0.0756879483419861,0.5085104042148079,13.12991017383826,0.53724535344957,-0.17240090699999988,0.03824593499999998,0.18191335749999915
74392.0,-2.3209398555,0.2042725195,13.0982520725,0.059491292883478715,-0.09460731743360463,0.4943889452369218,13.303860207842751,0.5068630856685133,-0.20231118950000004,0.05030811450000003,0.14131382650000113
74402.0,-2.4406790519999997,0.18632634999999997,13.135321209499999,-0.016716763575601687,-0.17348049166048038,0.47973341550792536,13.361448088448963,0.5104106984831963,-0.11973919649999987,-0.017946169500000025,0.037069136999999586
74412.0,-2.464607278,0.20191892349999999,12.855243285499999,-0.05082398781807487,-0.27820024678014016,0.45948236019703514,13.09092587313177,0.5395391499960875,-0.02392822600000022,0.015592573500000012,-0.2800779240000004
74422.0,-2.2574908299999996,0.2162366325,12.3823666225,-0.04362974064135425,-0.3650670289811499,0.41951257499711303,12.58832897182033,0.5578246054973408,0.20711644800000029,0.014317709000000012,-0.4728766629999992
74432.0,-1.955838276,0.1575928655,11.9549928155,-0.005258677036258915,-0.40130530024030814,0.36089045608112746,12.114949116351243,0.5397365273682889,0.3016525539999997,-0.058643766999999986,-0.4273738069999986
74442.0,-1.562003212,0.0079433865,11.548016840499999,0.0368421551803483,-0.39517744923655607,0.30999665509297286,11.653180256057098,0.503607473090179,0.3938350639999999,-0.149649479,-0.4069759750000017
74452.0,-1.2686863105000001,-0.069823348,11.3756159335,0.06242344602682919,-0.33335788713091696,0.26603006590598366,11.44635654349781,0.4310407909840966,0.2933169014999999,-0.07776673449999999,-0.17240090699999833
