timestamp,ax,ay,az,gx,gy,gz,acc_mag,gyro_mag,dax,day,daz
75432.0,-0.9007408025,0.299495091,8.714189189999999,0.6798912647851392,-0.22408980398055994,0.0969251146802531,8.76573582432954,0.7224007544534835,0.0,0.0,0.0
75442.0,-0.7761963474999999,0.45394982849999993,8.815982217,0.7057378456779231,-0.2246221294024182,0.068947486770784,8.861720694488614,0.7438244172998089,0.12454445500000011,0.15445473749999994,0.10179302700000115
75452.0,-0.8731841159999999,0.8047336989999999,8.8578566125,0.6958784807334071,-0.11590557029569143,0.03484026252831081,8.937095198908361,0.7063248580267056,-0.09698776850000002,0.3507838705,0.04187439549999894
75462.0,-0.933004681,0.9698776849999999,9.026629059,0.6527112523438313,0.050633746929607495,-0.02031737782246599,9.1264008583566,0.6549874434719837,-0.0598205650000001,0.16514398600000002,0.16877244650000023
75472.0,-1.0336209099999998,1.0213625975,9.264832587499999,0.5892929686433654,0.2379564448876549,-0.09306270104558964,9.378095575092157,0.6423006608139079,-0.10061622899999978,0.05148491250000009,0.2382035284999997
75482.0,-1.1700314115,1.0704939139999998,9.6347394255,0.532803642073317,0.38770918536727234,-0.18179524021698137,9.764380908234367,0.6835551497796613,-0.13641050150000011,0.0491313164999998,0.36990683800000035
75492.0,-1.2945758664999998,1.0896168815,10.1423316295,0.501361535598639,0.49402766208175897,-0.27478987342174327,10.282513433267672,0.7556031993149127,-0.12454445499999989,0.0191229675000002,0.5075922039999998
75502.0,-1.4178454569999999,1.222496989,10.598438921,0.48777240204261124,0.5547808280144295,-0.35872624780865453,10.762513284090163,0.8212114247827237,-0.12326959050000008,0.1328801074999999,0.4561072915000004
75512.0,-1.575928655,1.4810983494999999,11.079651236499998,0.47604728012771336,0.5694363577434259,-0.42161046075801023,11.288749929421668,0.8536007023530816,-0.15808319800000015,0.25860136049999993,0.48121231549999877
75522.0,-1.7195960774999999,1.6977272479999999,11.569297271,0.4648562289639257,0.5473195454621538,-0.4599815243631056,11.818964752596697,0.8527795736336949,-0.14366742249999986,0.2166288985,0.48964603450000155
75532.0,-1.8631654334999999,1.824625299,12.0157940455,0.4560632601923783,0.49269423053323524,-0.4789008934547241,12.295525586904096,0.8246740979622015,-0.14356935599999998,0.12689805100000018,0.4464967744999999
75542.0,-1.9410302345,1.813837984,12.395311400499999,0.4427394166826536,0.4015653542988553,-0.49888491339005914,12.676803671226022,0.7785621886952052,-0.07786480100000004,-0.010787314999999964,0.37951735499999906
75552.0,-1.9278893234999999,1.7348944515,12.730502697499999,0.41582643961690097,0.289649606673223,-0.5359225454466308,12.99200965719182,0.7375781295892775,0.013140911000000033,-0.07894353250000008,0.3351912969999997
75562.0,-1.8309015549999998,1.720478676,12.918398111499998,0.366264324848018,0.1819994437394647,-0.585751695591069,13.160442893226612,0.714407728167649,0.09698776850000002,-0.014415775500000061,0.18789541399999976
75572.0,-1.7099855604999998,1.755194217,12.995086114499998,0.29405307237600464,0.10232690871517554,-0.6302506101999164,13.22410754946357,0.7029607651059472,0.12091599450000001,0.03471554099999996,0.07668800299999923
75582.0,-1.5160100235,1.7803973074999997,13.035783711999999,0.21091780411575875,0.05489758629222964,-0.661160391252736,13.243857366717227,0.6961559653089222,0.1939755369999998,0.025203090499999803,0.04069759750000124
75592.0,-1.3496892395,1.7803973074999997,13.0800117035,0.13071119834035932,0.030382691618717286,-0.681144411188071,13.269445420946285,0.6942378801349828,0.16632078400000005,0.0,0.04422799150000145
75602.0,-1.162872557,1.7455836999999998,13.172194213500001,0.052105059489038714,0.01732588348454771,-0.6995314548578312,13.338142128336026,0.7016832474830722,0.18681668249999994,-0.034813607499999843,0.09218251000000066
75612.0,-0.9869412559999998,1.7133198214999998,13.233289642999999,-0.029965557927490647,0.005335471523346666,-0.7195154747931664,13.380189558786928,0.7201589549433637,0.1759313010000002,-0.03226387850000001,0.06109542949999813
75622.0,-0.8181688095,1.683409539,13.245253756,-0.11869635176963036,-0.010386454378618255,-0.7426986832474071,13.376846225387617,0.7521954775558088,0.16877244649999978,-0.02991028249999994,0.01196411300000122
75632.0,-0.7331451539999999,1.7241071364999998,13.257217869,-0.2106263341306757,-0.01491558378754354,-0.772542068127258,13.388945920463524,0.8008790010328597,0.08502365550000013,0.040697597499999905,0.011964112999999443
75642.0,-0.6110523615,1.7300891929999997,13.326648951,-0.294562708517587,-0.010386454378618255,-0.808248013964558,13.452366552670927,0.8603138495696954,0.12209279249999994,0.005982056499999944,0.06943108199999948
75652.0,-0.41707682449999994,1.8078559275000001,13.36254129,-0.3752998943855927,-0.0018587756533739608,-0.8426222735825863,13.490730367889158,0.9224238514426292,0.19397553700000003,0.07776673450000038,0.035892339000000106
75662.0,-0.2076067805,1.9299487199999998,13.388921178499999,-0.45497242940988186,0.007199483164476609,-0.8660707720831302,13.528895481938836,0.978330376885863,0.20947004399999994,0.12209279249999971,0.026379888499999282
75672.0,0.212608172,2.205319452,13.318215231999998,-0.5522309019772659,0.02531949145868174,-0.8524798931978503,13.501240427680989,1.0160324867114088,0.4202149525,0.27537073200000006,-0.0707059465000004
75682.0,0.4053088445,2.310642873,13.212891810999999,-0.6745383399692725,0.05569694708964304,-0.8514152423541338,13.419532620593253,1.0876635678906215,0.19270067249999998,0.10532342100000003,-0.10532342099999958
75692.0,0.6207609449999999,2.22807088,13.0298016555,-0.7829878637004442,0.08394161037466728,-0.8375590734225508,13.233494443222916,1.1496179322396287,0.2154521004999999,-0.08257199299999973,-0.18309015549999863
75702.0,0.8122848195,2.225717284,12.8107210945,-0.8890393050393756,0.11485139142748685,-0.8186397043309324,13.027977549004056,1.2139821635941617,0.19152387450000008,-0.002353596000000291,-0.21908056100000017
75712.0,1.0529400105,2.0245828925,12.573694364,-0.9780388795863224,0.15428710587629874,-0.7989209744419004,12.779100457919593,1.2722575542811088,0.240655191,-0.20113439150000012,-0.23702673050000023
75722.0,1.2635868524999998,1.9478948895,12.379718827,-1.0481173397123988,0.19825369506328788,-0.778404629084707,12.595570033544703,1.3205181755631172,0.21064684199999983,-0.0766880029999999,-0.19397553700000003
75732.0,1.4419698159999998,1.8450231309999998,12.230069347999999,-1.106207133206526,0.23902284106062344,-0.7576195030227065,12.452228056097802,1.36191536134448,0.17838296350000005,-0.10287175850000008,-0.1496494790000007
75742.0,1.592796093,1.768335128,12.052961248999999,-1.1626964597765743,0.25367837078961986,-0.7229799533583751,12.285677978389733,1.3924495633025753,0.15082627700000018,-0.0766880029999999,-0.1771080989999998
75752.0,1.74362237,1.661834909,11.983530167,-1.2002681625842566,0.2408868527017534,-0.675283595559874,12.22321191411384,1.3980980195788189,0.15082627699999995,-0.10650021899999995,-0.06943108199999948
75762.0,1.8525742514999999,1.5840681745,11.8985065115,-1.2181211355029065,0.19745433426587447,-0.6123976372812664,12.145606635446105,1.3776204778628065,0.1089518814999999,-0.07776673449999993,-0.0850236554999988
75772.0,1.9447567614999997,1.4954160584999998,11.726105604499999,-1.232776665231903,0.11991284625827041,-0.5463159811422571,11.979979160971272,1.3537276492298878,0.09218250999999977,-0.08865211600000023,-0.17240090700000188
75782.0,2.0500801825,1.4032335484999998,11.4160193315,-1.2458334733660723,0.018657569703819384,-0.47916618350102724,11.683209769729244,1.3349342229778833,0.10532342100000025,-0.09218251,-0.3100862729999996
75792.0,2.181783492,1.3517486359999997,11.117995238,-1.241037308581592,-0.0738047380790842,-0.4042915585904705,11.410399716621775,1.3073149601384801,0.1317033095000002,-0.05148491250000009,-0.2980240934999987
75802.0,2.364971714,1.2835924185,10.876163249,-1.2157230531106662,-0.12922941380541614,-0.3248843136124845,11.204089776673024,1.2650030041421507,0.18318822200000007,-0.06815621749999967,-0.24183198900000136
75812.0,2.3937051984999997,1.2942816669999997,10.612854696499998,-1.1978700801920164,-0.17905681862060224,-0.23082328423475407,10.956170609290469,1.232977478244707,0.028733484499999573,0.010689248499999637,-0.2633085525000016
75822.0,2.4403848525,1.3206615555,10.295609569,-1.2026662449764967,-0.24753830248110376,-0.12503713294212576,10.662982770771576,1.2342267184822568,0.04667965400000007,0.026379888500000392,-0.3172451274999979
75832.0,2.575618556,1.2153381344999998,9.996310610999998,-1.210926888326186,-0.3053610605996759,-0.006462954220135003,10.394088875835758,1.2488519031411007,0.13523370349999997,-0.10532342100000025,-0.2992989580000014
75842.0,2.7049682695,1.0788295664999998,9.674260225,-1.203732641149465,-0.33973357488845224,0.11531041302076137,10.103070695267526,1.2560603745943795,0.12934971350000035,-0.136508568,-0.322050385999999
75852.0,2.7863634645,0.9208444349999999,9.401341155499999,-1.179484781851508,-0.3447967750484878,0.22935720766307882,9.84870505964459,1.250069556228829,0.08139519499999981,-0.15798513149999993,-0.27291906950000033
75862.0,2.8043096339999996,0.7735485520000001,9.1702964815,-1.1531041302076137,-0.34000061026400735,0.33434399815829374,9.620647974240496,1.247812269208084,0.01794616949999961,-0.14729588299999985,-0.23104467399999962
75872.0,2.7815582059999997,0.6167402184999999,8.976419010999999,-1.1307220278800385,-0.35279038302262183,0.4276056667386107,9.417724396664173,1.25930137969962,-0.02275142799999985,-0.15680833350000012,-0.19387747050000037
75882.0,2.7204627765,0.45993188499999993,8.804018103999999,-1.098478815278695,-0.4015531369940914,0.5107409349988566,9.226222945101721,1.2762276176800857,-0.06109542949999991,-0.1568083335,-0.1724009070000001
75892.0,2.668977864,0.31391086649999994,8.62200668,-1.0403907671138197,-0.47456375026351816,0.5912128308205592,9.031111895032273,1.2873058349462712,-0.05148491249999987,-0.1460210185,-0.1820114239999988
75902.0,2.664270672,0.2121178395,8.3718390385,-0.9604511967139756,-0.5678254188438352,0.6700860050474349,8.788118176155011,1.3015020021939712,-0.004707192000000138,-0.10179302699999995,-0.2501676415000009
75912.0,2.6953577524999996,0.17142024199999997,8.1300070495,-0.8866412226471354,-0.6562909226396717,0.7510902262909958,8.56687533107894,1.3345362343774327,0.031087080499999864,-0.040697597500000016,-0.24183198899999958
75922.0,2.7312500914999998,0.1630845895,7.798444213,-0.8288202098578152,-0.7149130415556573,0.8432872440275963,8.26450578007689,1.3817297033771738,0.035892339000000106,-0.008335652499999985,-0.33156283649999985
75932.0,2.8102916904999997,0.1403331615,7.441678285999999,-0.7821885029030307,-0.7295685712846537,0.9469406029742874,7.955878863722965,1.428560695189855,0.07904159899999996,-0.02275142799999999,-0.35676592700000054
75942.0,2.8353967145,0.1438635555,7.093346077999999,-0.7427527884542189,-0.7042543158137279,1.059121640646223,7.640401156580488,1.4728864504040786,0.025105024000000142,0.0035303939999999923,-0.3483322080000004
75952.0,2.8365735125,0.111599677,6.797675580499999,-0.7035823640517102,-0.652828189403715,1.1800956470897062,7.366613677765999,1.5211306729419396,0.0011767979999999234,-0.032263878499999996,-0.29567049749999974
75962.0,2.842555569,0.0026477955,6.5342689615,-0.6577500178943391,-0.5683594895949454,1.3069322144906377,7.1257841698227296,1.5696303414262964,0.005982056500000166,-0.1089518815,-0.2634066189999995
75972.0,2.6881988979999996,-0.09316317499999999,6.2900833765,-0.6087219738765663,-0.4700346208545929,1.4303043033263612,6.841070206897904,1.6239597859540769,-0.1543566710000004,-0.09581097049999998,-0.24418558499999943
75982.0,2.4727467974999997,-0.22123802399999998,6.122487727999999,-0.5500998549605808,-0.37144271673868523,1.5435499918420132,6.606684415599138,1.6802160931146166,-0.21545210049999985,-0.128074849,-0.16759564850000075
75992.0,2.2512145739999996,-0.4510078335,6.085418591,-0.4837511634460163,-0.2832442483184038,1.6280186916507826,6.504129038676646,1.7218267487483048,-0.22153222350000012,-0.22976980950000003,-0.037069136999999586
76002.0,2.0334088775,-0.7467763974999999,6.1308233805,-0.40274519687320354,-0.21849427839866614,1.688239532161595,6.502262834878665,1.7493130541016924,-0.2178056964999997,-0.2957685639999999,0.04540478950000004
76012.0,1.6323168924999998,-0.848471358,6.225457553,-0.3062860851032329,-0.19451170914701205,1.7167512308221744,6.4915856173274005,1.7546739752593947,-0.4010919850000001,-0.10169496050000004,0.09463417250000017
76022.0,1.359397823,-0.9885103199999999,6.347550345499999,-0.20822825173843548,-0.21955892924238268,1.7287416427833755,6.566316355657927,1.7550250128489537,-0.2729190694999999,-0.140038962,0.12209279249999927
76032.0,1.1104069795,-1.0507825474999999,6.4085477084999996,-0.12562530890004786,-0.2573976674256197,1.7132867522569657,6.588370918092992,1.7370626853661912,-0.2489908434999999,-0.062272227499999944,0.06099736300000025
76042.0,0.910449386,-1.020872265,6.3020474895,-0.06220702519958189,-0.2776487227365099,1.67251760625963,6.448790648317501,1.69654757388935,-0.19995759349999997,0.02991028249999994,-0.10650021899999995
76052.0,0.782374537,-0.9130971815,6.316463264999999,-0.004651302456564889,-0.2299523649380089,1.622690201444444,6.4298961544572135,1.6389091538639158,-0.128074849,0.10777508349999998,0.014415775499999839
76062.0,0.552506661,-0.6737168549999999,6.3631429189999995,0.020395917638805737,-0.13162749619765635,1.5763255298652146,6.422518650714865,1.5819430986342216,-0.22986787600000003,0.23938032650000007,0.04667965400000007
76072.0,0.3813806185,-0.5408367475,6.425317079999999,0.005208062487951079,-0.03623303527140228,1.5566067999761826,6.459307636438563,1.5570371500037974,-0.17112604250000002,0.1328801074999999,0.06217416099999973
76082.0,0.1156204035,-0.5288726345,6.405017314499999,-0.03342829116344739,0.04077438198509152,1.5584725569465645,6.427855096396717,1.5593642010870767,-0.265760215,0.011964112999999998,-0.0202997654999999
76092.0,-0.29145363799999996,-0.7814919384999999,6.415804629499999,-0.037959165901624674,0.07594800240053325,1.549145517423907,6.469793189658966,1.551470538392258,-0.40707404149999993,-0.2526193039999999,0.010787314999999964
76102.0,-0.5524085944999999,-0.8903457534999999,6.3463735475,0.01773254520026239,0.09166818297324618,1.5632687217310453,6.432287930469273,1.5660544675302681,-0.26095495649999995,-0.10885381500000002,-0.06943108199999948
76112.0,-0.8743609139999999,-0.9981208369999999,6.3618680544999995,0.12831311594811912,0.07674736319794666,1.5480791212509386,6.498778143316796,1.555282411375899,-0.32195231950000003,-0.10777508349999998,0.015494506999999658
76122.0,-1.1090340484999999,-1.1321777425,6.5809486155000005,0.27300265626770104,0.039707985812122995,1.5139718970084652,6.769096515872415,1.5389015821026006,-0.23467313449999994,-0.13405690550000005,0.21908056100000106
76132.0,-1.3844047804999997,-1.1154083709999998,6.783259804999999,0.4142277180220742,-0.006921975813409511,1.4729374609648267,7.012369500568033,1.5300906117091388,-0.27537073199999984,0.01676937150000013,0.2023111894999987
76142.0,-1.556707621,-1.1166832354999998,7.062160930999999,0.5045589787882927,-0.06847450254349352,1.4220436599766717,7.317406444982335,1.5104557893080854,-0.17230284050000022,-0.001274864500000028,0.27890112600000005
76152.0,-1.680075278,-1.0496057495,7.1963159029999995,0.5352017244655571,-0.12363214289427032,1.358625376276206,7.463999447005669,1.4654653546533256,-0.12336765699999996,0.06707748599999985,0.13415497200000015
76162.0,-1.833255151,-1.0185186689999999,7.2393670965,0.5125525867624268,-0.142818547361444,1.2856147630067793,7.537018023439801,1.3913707667362663,-0.15317987300000002,0.031087080500000086,0.043051193500000196
76172.0,-2.016443373,-0.9478127224999999,7.219067331,0.4637898327909572,-0.1326921470413729,1.2051428671850766,7.555086098977294,1.2981053675313805,-0.18318822200000007,0.07070594649999995,-0.0202997654999999
76182.0,-2.2091440455,-0.882010101,7.147184586499999,0.4403413342904134,-0.10125004056669504,1.1108148024317912,7.532629470877835,1.1991920558029887,-0.1927006725,0.06580262149999994,-0.07188274450000076
76192.0,-2.3611471205,-0.848471358,7.140025731999999,0.4667202406050556,-0.058082812177119296,1.0132892944888519,7.568017364119478,1.117119774413898,-0.1520030750000001,0.03353874300000004,-0.007158854500000089
76202.0,-2.4305782024999996,-0.7144144524999999,7.172387677,0.5397325992037344,-0.019179423150165686,0.9136327395292276,7.6066578336080335,1.0613217757378173,-0.06943108199999948,0.13405690550000005,0.03236194500000078
76212.0,-2.4174372914999998,-0.5348546909999999,7.3650883495,0.6513795661245597,0.042640138955473465,0.8137091491940484,7.770109329652974,1.0431855540108212,0.01314091099999981,0.17955976149999997,0.1927006725
76222.0,-2.455781293,-0.282235387,7.536214392,0.7534342034764241,0.14656053327771984,0.739899175127208,7.931270133775026,1.0661115693194245,-0.03834400150000006,0.25261930399999993,0.17112604250000008
76232.0,-2.58503294,0.0050013915,7.739800446,0.8112569615949963,0.2587398256204034,0.7015281115221128,8.160081571816779,1.1032795866661378,-0.12925164700000025,0.2872367785,0.20358605400000052
76242.0,-2.652110426,0.11277647499999999,8.0809737995,0.8389692994581622,0.3861104637724455,0.6956672958939158,8.505794836064222,1.15624554582677,-0.06707748600000007,0.1077750835,0.34117335350000033
76252.0,-2.6484819655,0.19064127599999997,8.4748088635,0.8355048208929535,0.5148110428145074,0.6956672958939158,8.88105771237592,1.2029346208815672,0.003628460500000319,0.07786480099999998,0.39383506399999924
76262.0,-2.7921493879999995,0.252815437,8.815982217,0.7968684672415551,0.6136682369767182,0.692202817328707,9.251030012952855,1.2209556910370738,-0.14366742249999964,0.062174161000000006,0.34117335350000033
76272.0,-2.9059065279999996,0.2444797845,9.057814206,0.7459746662534004,0.6653631440915383,0.6844744994008762,9.515674506040945,1.2114832464946963,-0.11375714000000015,-0.008335652499999985,0.24183198899999958
76282.0,-3.0542811425,0.1666149835,9.228940248499999,0.717195932217266,0.6904103641869089,0.6620923970733009,9.72264017438376,1.1955763540769626,-0.14837461450000022,-0.07786480099999998,0.1711260424999992
76292.0,-3.2051074195,0.10914801449999999,9.324751219,0.7318514619462623,0.7047988585403501,0.6258541258141427,9.860811942018021,1.1933320494109116,-0.15082627700000018,-0.05746696900000002,0.09581097050000054
76302.0,-3.4230111825000002,0.013435110499999998,9.3989875595,0.7931369533007911,0.704266533118492,0.5896141092257324,10.002907237466014,1.213549493906225,-0.21790376300000025,-0.09571290399999999,0.07423634050000061
76312.0,-3.6121814609999996,-0.18289402249999998,9.633562627499998,0.8933275790115257,0.6786852422720111,0.5453822299924401,10.29013284795794,1.24743320393997,-0.18917027849999934,-0.19632913299999996,0.23457506799999805
76322.0,-3.7175048819999996,-0.36480737999999996,10.029849353999998,1.024960311196938,0.6067410251755527,0.47823243235121027,10.70284097967126,1.2835047995674032,-0.10532342100000003,-0.18191335749999998,0.39628672649999963
76332.0,-3.7330974555,-0.418743955,10.3961277315,1.1438015252944838,0.4988238268662394,0.3807086697375231,11.05399633262889,1.3046249387194704,-0.015592573500000206,-0.05393657500000004,0.36627837750000225
76342.0,-3.7078943649999996,-0.36725904249999997,10.6618879465,1.2072198089949497,0.3885085461646857,0.26559547892223706,11.29421154441596,1.2957081137728255,0.025203090500000247,0.051484912500000035,0.26576021500000024
76352.0,-3.590606831,-0.2044686525,10.794768053999999,1.201891318788611,0.29924368157143577,0.15181571965547475,11.378105386413765,1.2478531707994989,0.11728753399999947,0.16279038999999998,0.13288010749999835
76362.0,-3.5115652319999997,-0.023634026499999995,10.791139593499999,1.13820599971259,0.2552770923844466,0.045497242940988177,11.348142697032108,1.1673685325522634,0.0790415990000004,0.180834626,-0.003628460499999875
76372.0,-3.4074186089999996,0.08649465299999999,10.8138910215,1.054803696076789,0.2510132530218245,-0.04989547265601389,11.338351817033876,1.0854068585748944,0.1041466230000001,0.11012867949999999,0.022751428000001184
76382.0,-3.302095188,0.10914801449999999,10.829483595,0.9937834947685632,0.26113965334189554,-0.12876864688288964,11.322255113450508,1.0355582636636118,0.10532342099999958,0.022653361499999997,0.015592573499999318
76392.0,-3.1309691455,0.10444082249999999,10.8378192475,0.9642071452642673,0.2584745355741002,-0.2060430995149386,11.281498203561394,1.019293021351877,0.17112604250000008,-0.004707191999999999,0.008335652500001345
76402.0,-2.940622069,0.09247670949999999,10.849881426999998,0.9801943612125354,0.2278317898968358,-0.2673285908694675,11.24169636106799,1.0412266255415779,0.19034707650000016,-0.011964112999999998,0.012062179499997328
76412.0,-2.6987900799999998,0.11875853149999999,10.839094112,1.0326868837955168,0.1734735103434724,-0.3230203019713545,11.170654978715595,1.0958455065563972,0.24183198900000002,0.026281821999999996,-0.010787314999998188
76422.0,-2.4066499765,0.230064009,10.815165885999999,1.0918413281333605,0.13936628610099921,-0.38990131890777724,11.082089455482786,1.1677172114889933,0.29214010349999997,0.11130547750000003,-0.023928226000000663
76432.0,-2.1157847375,0.49464742599999995,10.8797917095,1.1152915719631564,0.15588582747112553,-0.4682421677127947,11.094642345456265,1.2196009221555972,0.29086523899999994,0.26458341699999993,0.06462582350000012
76442.0,-1.8656170959999998,0.7328509545,10.9839383325,1.0883785948974039,0.23529132711985953,-0.5529761575678674,11.165325743683518,1.2432669083053707,0.25016764150000004,0.2382035285000001,0.1041466230000001
76452.0,-1.63574922,0.9004466029999999,11.1694801505,1.0238939150239694,0.3402781176150745,-0.6321163671702983,11.32447643063459,1.2504875242061975,0.22986787599999992,0.16759564849999986,0.1855418180000008
76462.0,-1.437066491,1.0297963165,11.44239922,0.943689054577822,0.43593786858763167,-0.6995314548578312,11.578175178450559,1.2529705157481659,0.19868272899999995,0.12934971350000002,0.27291906950000033
76472.0,-1.265842382,1.1721888745,11.71894675,0.8696120451354267,0.48816510112431,-0.7493588596730174,11.845256291988983,1.2474249378502789,0.17122410899999996,0.14239255800000006,0.2765475300000002
76482.0,-1.092264677,1.3542002985,11.873401487499999,0.7984671888363819,0.49029614814099504,-0.772542068127258,12.000190142512183,1.2143975508689533,0.17357770500000003,0.18201142399999992,0.15445473749999827
76492.0,-0.8982891399999999,1.546900971,11.942832569499998,0.7345165797140576,0.4735095713953136,-0.7597522953686436,12.076053816385244,1.1579937264060345,0.19397553700000003,0.1927006725,0.06943108199999948
76502.0,-0.7642322345,1.708514563,12.024227764499999,0.6841551041477612,0.456455959274077,-0.7229799533583751,12.169023225091017,1.0950434978786596,0.13405690549999993,0.16161359200000014,0.0813951950000007
76512.0,-0.639785846,1.7827509035,12.136710039999999,0.6527112523438313,0.4324733900224229,-0.679013364171386,12.283617435743787,1.0363997108920298,0.1244463885,0.07423634049999994,0.11248227549999967
76522.0,-0.5308339645,1.7696099925,12.353437005,0.6479150875593509,0.38477703222392184,-0.63344805338957,12.490825035197876,0.9844306788987865,0.10895188150000001,-0.013140911000000033,0.21672696500000121
76532.0,-0.32734597699999995,1.7599994755,12.5700659035,0.6527112523438313,0.321358748523456,-0.5953440251600298,12.69690160475191,0.9400733654787592,0.20348798750000002,-0.00961051700000004,0.21662889849999978
76542.0,-0.19328907149999996,1.8354126139999998,12.758059383999997,0.6428536327285674,0.25607645318186,-0.5647012794827653,12.890856425174475,0.8931536698888884,0.1340569055,0.07541313849999987,0.18799348049999764
76552.0,-0.096301303,1.9790800364999999,12.840631377,0.606081290718299,0.19718729889031936,-0.5313934160377055,12.992607355409046,0.8298170427333011,0.09698776849999996,0.14366742250000009,0.08257199300000195
76562.0,-0.0340290755,2.1035264249999996,12.790323262499998,0.5368004460603839,0.1540200705007436,-0.4876938622262715,12.962189265625666,0.7414325352052327,0.062272227500000006,0.12444638849999978,-0.05030811450000172
76572.0,0.030596747999999997,2.1765859675,12.750802463,0.45632855023868146,0.12630947796682962,-0.4381317474573886,12.935278353609284,0.645096316930468,0.0646258235,0.07305954250000024,-0.039520799499998205
76582.0,0.123956056,2.2113015084999996,12.665876874,0.3771900859655025,0.11005522664300643,-0.3811083501362298,12.858058035824907,0.5473829449349567,0.093359308,0.03471554099999974,-0.08492558899999914
