timestamp,ax,ay,az,gx,gy,gz,acc_mag,gyro_mag,dax,day,daz
39672.0,-1.3616533524999999,-0.44502577699999996,7.907396094499999,0.16854993652359637,0.25074621764626936,0.08253662032681185,8.036109804493888,0.31320127787253826,0.0,0.0,0.0
39682.0,-1.3891119724999998,-0.422274349,8.040276202,0.24315927138785,0.25954093174706877,-0.009660397409788614,8.1703114446399,0.3557825878146958,-0.02745861999999999,0.022751427999999962,0.13288010750000012
39692.0,-1.6285903654999998,-0.12660385149999998,8.343105554,0.35214286587013194,0.2979102500229121,-0.09492845801597158,8.501514300346715,0.470920935182578,-0.23947839299999996,0.2956704975,0.30282935199999983
39702.0,-1.786575497,0.2660544145,8.598078454,0.4272845261562438,0.3264219486834915,-0.17406692228915047,8.785760642032923,0.5651748829434221,-0.15798513150000026,0.392658266,0.2549729000000003
39712.0,-2.0212486315,0.8226798685,8.9249340985,0.455529189441268,0.37092086329233886,-0.22895752726437213,9.187855944612094,0.6304844792297177,-0.2346731344999997,0.556625454,0.32685564450000015
39722.0,-2.2079672474999996,1.2069044155,9.291212475999998,0.4363445303033463,0.4340738569465017,-0.2651975438527824,9.625921613454171,0.6701838551290298,-0.18671861599999984,0.38422454699999997,0.3662783774999987
39732.0,-2.4390119214999997,1.3793053224999998,9.7006401135,0.3961077097278691,0.5196072075989878,-0.2854485991636726,10.097211542675595,0.7130034156013408,-0.23104467400000006,0.17240090699999988,0.4094276375000021
39742.0,-2.6843743044999995,1.3493950399999999,10.1507653485,0.3825185761718412,0.5694363577434259,-0.3064990152719762,10.586064875152843,0.7513453753097324,-0.2453623829999998,-0.02991028249999994,0.4501252349999998
39752.0,-2.816077614,1.1339429394999998,10.700231948,0.41556114957059787,0.535594423547256,-0.35579409466530404,11.12254842466931,0.7655990421663663,-0.13170330950000064,-0.21545210050000008,0.5494665995000005
39762.0,-2.826864929,1.0213625975,11.232929175999999,0.4907028098567098,0.42901065678646616,-0.42560726474507726,11.628114411004654,0.7784477728411917,-0.010787314999999964,-0.11258034199999978,0.5326972279999982
39772.0,-2.8064670969999996,1.1459070525,11.7010005805,0.5754385450410344,0.2803243124798172,-0.49488810940299216,12.087298090324992,0.8090892905697694,0.02039783200000045,0.12454445499999989,0.4680714045000016
39782.0,-2.735859217,1.4140208635,11.9583270765,0.6167400164602282,0.1500232665136766,-0.5444502241718752,12.348520847705208,0.8362423542248989,0.07060787999999985,0.2681138110000001,0.25732649599999924
39792.0,-2.4976556885,1.5493526334999999,12.072084216499999,0.5839644784370267,0.10845650504817964,-0.5830865778232736,12.42473319035456,0.8323264280323861,0.2382035284999997,0.13533176999999985,0.11375713999999881
39802.0,-2.2870088465,1.5241495429999998,12.2001590655,0.4933679276245051,0.16201542380412962,-0.6206582806309556,12.50589151227925,0.8092450870253738,0.21064684200000006,-0.025203090500000025,0.12807484900000077
39812.0,-2.1720749085,1.4236313804999998,12.323428655999999,0.3809198545770144,0.26034029254448215,-0.6630261482231179,12.594106937580033,0.8077627601967698,0.11493393800000007,-0.10051816250000001,0.12326959049999964
39822.0,-2.0810691965,1.2955565315,12.489847506499999,0.27966457802256334,0.3530678903736889,-0.7160509962279575,12.728142302101972,0.8459303993902312,0.09100571199999985,-0.12807484899999988,0.1664188504999995
39832.0,-1.945835493,1.221320191,12.649107502499998,0.20425588236089637,0.4135557662600564,-0.7704092757813209,12.856042135298273,0.897930559395252,0.1352337035000002,-0.07423634049999994,0.1592599959999994
39842.0,-1.8476709264999998,1.2416199565,12.770023496999999,0.15442673221645828,0.4527261906625651,-0.807980978589003,12.962600359609352,0.9389578697132975,0.09816456650000016,0.0202997654999999,0.12091599450000068
39852.0,-1.8249194985,1.2176917305,12.943601201999998,0.1235169511636387,0.48363422638613274,-0.8303648262458302,13.128210708354333,0.9688468644853745,0.02275142799999985,-0.023928225999999997,0.17357770499999958
39862.0,-1.6968446494999998,1.1650300199999999,13.069224388499999,0.08647931910706703,0.5137446466415388,-0.8535462893708189,13.230313784223002,0.9999767510721213,0.1280748490000001,-0.052661710500000014,0.12562318650000037
39872.0,-1.6226083089999999,1.132668075,13.197397303999999,0.020662953014360868,0.5427904160532285,-0.8865871174403235,13.34492751168722,1.0397524273583845,0.07423634049999994,-0.03236194499999989,0.12817291550000043
39882.0,-1.5076743709999998,1.1100147135,13.268005183999998,-0.07153231939298758,0.549717627854394,-0.9260245772183874,13.399446863053996,1.0792719123113024,0.11493393800000007,-0.02265336149999997,0.07060787999999896
39892.0,-1.1724830739999998,1.198568763,13.349400378999999,-0.14267892102128443,0.5547808280144295,-0.9412124323692421,13.454284600724824,1.1018257051288098,0.33519129699999994,0.0885540494999999,0.0813951950000007
39902.0,-1.0563723379999999,1.2512304735,13.326648951,-0.21195802034994735,0.5385265766906063,-0.9878441393240266,13.426878731763983,1.144890003358226,0.11611073599999999,0.052661710500000014,-0.022751427999999407
39912.0,-0.7510913235,1.246425215,13.305074321,-0.2593890881021453,0.5105472034518852,-1.0224836889883582,13.384420670322582,1.1719274893210094,0.3052810144999999,-0.00480525850000002,-0.021574629999999928
39922.0,-0.48052585,1.4487364045,13.252412610499999,-0.3140144030310638,0.5134793565952358,-1.06005539179604,13.340021823864502,1.2190092405869073,0.2705654735,0.20231118950000004,-0.05266171050000068
39932.0,-0.1501398115,1.5397421165,13.2620231275,-0.3729018119933525,0.5334633765305709,-1.09576133763334,13.351951362353969,1.2744927793202008,0.3303860385,0.09100571200000007,0.009610517000000485
39942.0,0.15631800099999998,1.6462423354999998,13.285951353499998,-0.4347213740989916,0.5566465849848115,-1.1125479143790216,13.388467145726487,1.3178015614890124,0.3064578125,0.10650021899999973,0.023928225999998887
39952.0,0.515437524,1.7360712495,13.2631999255,-0.5013371009891112,0.531864654935744,-1.1128149497545765,13.386265031302457,1.3313812423176785,0.359119523,0.08982891400000015,-0.02275142799999763
39962.0,0.8745570469999999,1.744406902,13.2188738675,-0.5786115536211601,0.45245915528701,-1.0805717371532333,13.362126769084215,1.3065779335046508,0.35911952299999994,0.008335652500000013,-0.04432605800000111
39972.0,1.2743741675,1.8043255334999997,13.050101420999999,-0.6542872846583824,0.319494736882326,-1.026480492975425,13.235738258518772,1.2585034526056007,0.39981712050000007,0.059918631499999764,-0.16877244650000023
39982.0,1.7101816934999998,1.8151128484999999,12.749625665,-0.7009172462839147,0.18786200469691364,-0.9579990091149235,12.991239766673504,1.2018066485138714,0.43580752599999983,0.010787315000000186,-0.3004757559999991
39992.0,2.1458911529999996,1.8066791295,12.408452311499998,-0.7147734152154978,0.08633969276690749,-0.8671354229268468,12.721581155039816,1.1270667324255612,0.43570945949999973,-0.008433718999999895,-0.3411733535000021
40002.0,2.5194264515,1.824625299,12.0589433055,-0.7115759720258441,0.023987805239410066,-0.7501582204704308,12.45370951851423,1.034240365922783,0.37353529850000067,0.017946169500000053,-0.3495090059999981
40012.0,2.80666323,1.7336195869999997,11.710513031,-0.6990514893135329,0.000804596785169386,-0.6126646726568215,12.16630226520305,0.9295330188912846,0.2872367784999996,-0.0910057120000003,-0.3484302745000001
40022.0,2.968276822,1.455895259,11.465150647999998,-0.6822649125678514,-0.017847736930894014,-0.45758344197086537,11.93230814547361,0.8216973646061405,0.16161359200000014,-0.2777243279999997,-0.24536238300000157
40032.0,3.0509468815,1.1482606485,11.247246885,-0.6742713045937173,-0.05328664739263888,-0.2979713365467319,11.710138422869749,0.7390995713652571,0.08267005949999984,-0.30763461050000007,-0.21790376299999892
40042.0,3.1670576175,0.8849520959999999,11.038953639,-0.6969204422968477,-0.10204940136410845,-0.1618094749523943,11.518328507590454,0.7226994461007814,0.11611073599999999,-0.26330855250000007,-0.20829324599999843
40052.0,3.2137372715,0.6718535915,10.7779986825,-0.7555425612128333,-0.14068575501550692,-0.045631633293391746,11.266976084940069,0.7698826465282573,0.04667965400000007,-0.2130985044999999,-0.2609549565000009
40062.0,3.2891504099999995,0.47307279599999996,10.542148749999999,-0.8261550920900199,-0.15507599469820016,0.05322556086881907,11.05347043045961,0.842267036424735,0.07541313849999964,-0.19878079550000005,-0.23584993250000075
40072.0,3.2400190935,0.3594137225,10.2776633995,-0.8925037836045843,-0.15827343788785378,0.14941763726323457,10.782266315742149,0.9186615890602297,-0.04913131649999958,-0.11365907349999999,-0.2644853504999993
40082.0,3.1717648095,0.230064009,9.9818948355,-0.9268780432226127,-0.1675987320812595,0.23175529005531906,10.47622288623153,0.970001420860841,-0.068254284,-0.12934971349999996,-0.2957685639999994
40092.0,3.165782753,0.050504247499999995,9.753301824,-0.9343393257748884,-0.17506001463353527,0.31302654667443497,10.25434676555506,1.0008104732345124,-0.005982056500000166,-0.17955976150000003,-0.228593011500001
40102.0,3.1335188744999996,0.068450417,9.523433948,-0.943397584592739,-0.18705042659473628,0.39509716409096435,10.02593737055813,1.0397541217890938,-0.03226387850000023,0.017946169500000005,-0.22986787600000014
40112.0,3.0664413885,0.1056176205,9.2828768235,-0.9599188712921173,-0.1926459521766301,0.4859607502790411,9.776810317845966,1.0930299873125813,-0.06707748599999963,0.037167203499999996,-0.24055712449999866
40122.0,2.9515074505,0.09365350749999998,8.9727905505,-0.9767054480377988,-0.1881168227677048,0.5877483522553505,9.446223450298334,1.155330946877912,-0.11493393800000007,-0.011964113000000012,-0.31008627300000136
40132.0,2.7898938585,0.099635564,8.6483865685,-0.9921603385642086,-0.20303938787225634,0.6993970645054277,9.087795399629155,1.230757240192474,-0.1616135919999997,0.005982056500000013,-0.32440398199999976
40142.0,2.73605535,-0.032067745499999994,8.383803151499999,-1.0001539465383427,-0.21396340366048885,0.816906592383702,8.819023897329362,1.3089784702439362,-0.05383850850000016,-0.13170330949999998,-0.26458341700000076
40152.0,2.597193186,-0.1038524235,8.1060788235,-1.011079707655827,-0.2118323566438038,0.9325521086208463,8.512620728310807,1.3916926951909487,-0.13886216399999984,-0.071784678,-0.2777243279999979
40162.0,2.41047457,-0.25467870049999997,7.8414954065,-1.0217384333977564,-0.22009299999349294,1.0364725029430926,8.207575714135427,1.4719597835149423,-0.18671861600000028,-0.15082627699999995,-0.26458341700000076
40172.0,2.2560198325,-0.4737592615,7.616432789,-1.0100133114828587,-0.261926796834545,1.1140122456214447,7.957645490460395,1.5263537662243012,-0.15445473750000005,-0.219080561,-0.2250626174999999
40182.0,2.0453729904999998,-0.688034564,7.234561838,-0.957520788899877,-0.34346508882921606,1.158245870183989,7.549558081064847,1.5415407306387237,-0.21064684200000006,-0.2142753025,-0.3818709509999998
40192.0,2.0166395059999997,-0.8461177619999999,6.8933884845,-0.8578642339402529,-0.43193059262505273,1.172367329161875,7.231981399489977,1.5155659785062063,-0.028733484500000017,-0.15808319799999992,-0.34117335350000033
40202.0,2.0500801825,-0.8209146715,6.547409872499999,-0.7579406436050735,-0.47029991090089607,1.1675711643773947,6.909797803921157,1.4693122368330869,0.033440676500000155,0.025203090499999914,-0.3459786120000006
40212.0,1.9794723024999998,-0.6162498859999999,6.2075113835,-0.7009172462839147,-0.4460520516029388,1.1726343645374302,6.544560496675216,1.437121696924627,-0.07060788000000007,0.2046647855000001,-0.3398984889999994
40222.0,1.925633794,-0.4582647545,5.9884308225,-0.6907925912930957,-0.36957870509755525,1.1968822238353876,6.307089329451408,1.430492880506631,-0.05383850849999994,0.15798513149999988,-0.21908056100000017
40232.0,1.8525742514999999,-0.4617951485,5.8866377954999995,-0.6982521285161195,-0.2688557539649625,1.2288584010611756,6.188520877552892,1.4387259715720673,-0.07305954250000002,-0.0035303939999999923,-0.10179302700000026
40242.0,1.3449820474999998,-0.1936813375,5.7454220355,-0.697452767718706,-0.19690979153925225,1.273090280294468,5.903927805673274,1.4649138851764503,-0.507592204,0.268113811,-0.1412157599999997
40252.0,1.0888323495,-0.301456421,5.634018491499999,-0.6526885630635554,-0.21343107823863058,1.3439698465472094,5.746181011910759,1.5092415757393522,-0.25614969799999976,-0.10777508349999998,-0.11140354400000074
40262.0,0.920059903,-0.4917054309999999,5.5263414745,-0.5389088037967931,-0.2832442483184038,1.4113849342347424,5.623942971684732,1.5370938278452477,-0.16877244650000012,-0.19024900999999994,-0.10767701699999943
40272.0,0.7021561399999999,-0.6509654269999999,5.373063535,-0.3752998943855927,-0.37757231307168926,1.4644115275688343,5.457709316483949,1.5581758515651016,-0.21790376300000003,-0.15925999600000001,-0.15327793949999968
40282.0,0.4878808375,-0.788650793,5.178009266499999,-0.2154224989151561,-0.48415607983247905,1.5086434068021266,5.260397109426159,1.5990055946009478,-0.21427530249999993,-0.13768536600000003,-0.19505426850000074
40292.0,0.33224930199999997,-0.91790244,4.972069616499999,-0.07339807636336954,-0.5811492623535599,1.541151909449773,5.066992279386252,1.648717971864385,-0.15563153550000003,-0.12925164700000003,-0.20593965000000036
40302.0,0.21496176799999997,-0.9789978695,4.721901975,0.061165063636141284,-0.6248488161649939,1.5576731961491512,4.827111315444893,1.6794412743748797,-0.117287534,-0.06109542950000002,-0.25016764149999915
40312.0,0.0102969825,-0.9514411829999999,4.6093216329999995,0.18240610545517938,-0.6075281686682021,1.564867443325872,4.7065053138181865,1.6885415535940822,-0.20466478549999997,0.027556686500000094,-0.11258034200000022
40322.0,-0.177696498,-0.9454591264999999,4.724255571,0.2751354486136381,-0.5430452341240197,1.557406160773596,4.821209361291847,1.6721577649863637,-0.1879934805,0.005982056500000055,0.11493393800000007
40332.0,-0.503277278,-0.9334950134999999,5.001979898999999,0.3209660494417572,-0.4625733383023171,1.5246306227503945,5.113169649911931,1.6252666962780766,-0.32558078,0.011964112999999998,0.2777243279999997
40342.0,-0.7306934915000001,-1.0292079175,5.3551173655,0.30817627668314274,-0.3964899368340558,1.4548174526706215,5.501860041317373,1.53904863734581,-0.22741621350000008,-0.0957129040000001,0.35313746650000066
40352.0,-1.101875194,-0.7850223324999999,5.552623296499999,0.25701544031943296,-0.3852988856702682,1.4009932438683683,5.715069070318468,1.475565734634061,-0.37118170249999993,0.2441855850000001,0.19750593099999936
40362.0,-1.440596885,-0.7347142179999999,5.7369883165,0.22637269464216853,-0.4591088597371084,1.3298466422400712,5.960550252355948,1.424962327167233,-0.33872169099999994,0.050308114499999945,0.18436502000000043
40372.0,-1.6668363005,-0.637824516,5.808871061,0.2586141619142598,-0.5542362852878073,1.2690934763074009,6.0768533279320165,1.4087786896025387,-0.22623941550000004,0.09688970199999991,0.07188274449999987
40382.0,-1.8715991524999998,-0.4127618985,5.765721801,0.34734670108565147,-0.6128584042037928,1.2040764710121081,6.075919984580008,1.3950072768280732,-0.20476285199999977,0.2250626175,-0.043149259999999856
40392.0,-1.945835493,-0.225945216,5.997943273,0.46325750736909893,-0.5667607680001187,1.1489188306613312,6.309726659101627,1.36229210000136,-0.07423634050000016,0.1868166825,0.23222147199999998
40402.0,-2.2917160385,0.050504247499999995,6.1057183565,0.511220900543155,-0.4071486625759852,1.0969586335002082,6.521833310430031,1.2768849150178774,-0.34588054550000025,0.2764494635,0.10777508349999998
40412.0,-2.7310539585,0.2240819525,6.2996938935,0.48217513113146543,-0.28724105230547076,1.0460648325120534,6.869862560304676,1.1871191654714661,-0.4393379199999998,0.173577705,0.19397553700000003
40422.0,-2.8340237835,0.0385401345,6.618115819,0.46272343661798865,-0.17266193224129503,0.9871756782205128,7.1994883944006025,1.103830123393536,-0.10296982500000018,-0.18554181799999997,0.31842192550000004
40432.0,-3.0208404659999997,-0.01765197,6.968801623,0.49709769623601696,-0.0706072948894306,0.9128333787318142,7.595392338371693,1.041804342005589,-0.1868166824999995,-0.056192104500000006,0.35068580400000027
40442.0,-3.148915315,0.0026477955,7.323213953999999,0.6074129769375706,-0.0402298392584693,0.81317682377219,7.9715203874745795,1.0157881232024477,-0.12807484900000032,0.0202997655,0.3544123309999989
40452.0,-3.334457133,0.157102533,7.6798818145,0.7635606037964953,-0.026640705702441446,0.7313732417312159,8.373999657414455,1.0576584238736153,-0.18554181799999991,0.1544547375,0.3566678605000009
40462.0,-3.5846247745,0.33068023799999996,7.9971269419999995,0.9471535331430307,-0.01944645852572082,0.6890053741390535,8.770001340947742,1.1714121331482852,-0.25016764150000004,0.17357770499999997,0.31724512749999967
40472.0,-3.7246637364999997,0.390500803,8.3934136685,1.1320781487088378,0.013594369543783834,0.6572962322888205,9.191028442873213,1.3091310395252271,-0.14003896199999977,0.05982056500000005,0.39628672649999963
40482.0,-3.7845823679999997,0.273213269,8.911695121,1.280764493015487,0.07541393164942299,0.6101321999121777,9.685866978241512,1.4206710558837026,-0.059918631499999986,-0.11728753400000003,0.5182814525000001
40492.0,-3.913834015,0.17985396099999998,9.396535897,1.3599029572886658,0.11005522664300643,0.5384532728620226,10.180635098453731,1.466758375878497,-0.12925164700000025,-0.093359308,0.4848407760000004
40502.0,-4.0478909205,0.0971839015,9.999939071499998,1.3828191303673512,0.1135179598789632,0.4489213728932175,10.788588742216906,1.4582885426297947,-0.1340569055000005,-0.08267005949999998,0.6034031744999986
40512.0,-4.0933937765,0.030204481999999998,10.6522774295,1.3977416954719029,0.05436351554111937,0.34953185330914843,11.411739541159223,1.4418078081215913,-0.0455028559999997,-0.0669794195,0.6523383580000015
40522.0,-4.041908864,0.159456129,11.082102899,1.4004050679104463,-0.02690774107799658,0.2485418668010005,11.797264860381055,1.4225440029440595,0.05148491250000031,0.129251647,0.4298254695000008
40532.0,-4.055049775,0.43237519849999995,11.220965063,1.3519093493145315,-0.06261368691529658,0.1574129905666206,11.9390298573658,1.3624823713179903,-0.01314091099999981,0.27291906949999994,0.13886216399999896
40542.0,-4.0945705745,0.6790124459999999,11.313147573,1.2501200020089704,-0.022643901715374434,0.0961257538828397,12.050471945109035,1.254014723305651,-0.03952079949999998,0.24663724749999993,0.09218251000000066
40552.0,-4.199893995499999,1.0261678559999998,11.406506881,1.1208870975450502,0.08074416718501366,0.05402492166623248,12.19838223980643,1.1250894178412714,-0.10532342099999958,0.34715540999999994,0.09335930800000014
40562.0,-4.2202918275,0.9878238545,11.7033541765,1.001244777320839,0.1780026397523977,0.015653858061137144,12.48019062584312,1.0170649375252678,-0.02039783200000045,-0.038344001499999836,0.2968472954999992
