timestamp,ax,ay,az,gx,gy,gz,acc_mag,gyro_mag,dax,day,daz
160452.0,0.569962498,1.2416199565,8.507072742,-0.059498274200486694,0.7126668028083406,-0.004495968153137393,8.616075905142948,0.71516028286499,0.0,0.0,0.0
160462.0,0.8320942524999999,1.2967333294999999,8.549045203999999,-0.016863371232769212,0.6521789269219731,0.020551251942233232,8.686775700621897,0.6527205220971865,0.2621317544999999,0.055113372999999966,0.0419724619999986
160472.0,1.0667673869999998,1.5205210825,8.7764614175,0.07586597192568952,0.5820987214666448,0.05758888399880489,8.97085570239316,0.5898398484246039,0.23467313449999994,0.2237877530000001,0.22741621350000152
160482.0,1.077554702,1.792263354,8.94170347,0.1875129388465148,0.48457495885295765,0.10981611653548322,9.182994773563998,0.5310683312278536,0.010787315000000186,0.27174227149999997,0.16524205250000001
160492.0,1.221124058,1.9970262059999997,9.0781139715,0.2850384467894539,0.3630668816583644,0.1897556869353275,9.375041915214068,0.49907083408026476,0.14356935599999998,0.20476285199999977,0.13641050150000034
160502.0,1.4162763929999997,2.0149723755,9.2420811595,0.3628452248433611,0.24049415362005463,0.2667631041918213,9.564623184118759,0.5105454425172281,0.19515233499999973,0.017946169500000497,0.1639671879999991
160512.0,1.576713187,2.0963675704999996,9.451649269999999,0.4265305439193823,0.12937951212108764,0.3357769134741811,9.808896746719036,0.5580443518889,0.16043679400000022,0.08139519499999937,0.20956811049999935
160522.0,1.7574497465,2.2722988715,9.5617779495,0.47023009773081625,0.04277976529563301,0.39999455797206046,9.983965611340892,0.6188231569179894,0.18073655950000012,0.17593130100000032,0.11012867950000071
160532.0,1.9717250489999998,2.4411693844999998,9.6347394255,0.4712964939037848,0.00041189770347066176,0.4623464454995579,10.132877746719252,0.6602157151202886,0.2142753024999997,0.1688705129999999,0.07296147599999969
160542.0,2.223167555,2.5106004665,9.720939879,0.44251775986765024,-0.01291194580625405,0.5246983330270553,10.28310560147698,0.686510762351296,0.25144250600000007,0.06943108200000037,0.08620045350000005
160552.0,2.4362660595,2.5919956615,9.813122389,0.42066798296193325,-0.014775957447383994,0.5905146991197615,10.437969383141509,0.7251810054629471,0.2130985045,0.08139519499999981,0.09218251000000066
160562.0,2.628966732,2.6674088,9.956789811499998,0.4387879912561384,-0.033962361914557655,0.6675221163762552,10.637866286745211,0.7995461957565974,0.1927006725,0.07541313850000009,0.1436674224999983
160572.0,2.7379186134999998,2.6865317675,10.172241911999999,0.5051366827707029,-0.08378976672974377,0.7583857025643321,10.871437659674356,0.9150588326130786,0.1089518814999999,0.019122967499999977,0.2154521005000003
160582.0,2.8336315174999998,2.727229365,10.427214811999999,0.6039938769329136,-0.16932486271148187,0.8625731322621335,11.144238705352638,1.066542039023883,0.09571290399999999,0.040697597499999905,0.2549729000000003
160592.0,2.8301011235,2.7906783904999997,10.8138910215,0.7108446790692585,-0.26525164905959425,0.976618181575199,11.521180376737357,1.2367059746249953,-0.00353039399999977,0.06344902549999976,0.3866762095000009
160602.0,2.72232604,2.8157834145,11.175462206999999,0.7814572099464451,-0.3467881957250133,1.1066521921657846,11.841902332206622,1.39843358730289,-0.10777508349999998,0.025105024000000142,0.361571185499999
160612.0,2.512855996,2.75959131,11.499866189,0.7889184924987209,-0.3974167066668648,1.2350874811615433,12.090356149417852,1.5184773665308142,-0.20947004400000013,-0.056192104500000006,0.32440398200000153
160622.0,2.193159206,2.5584569185,11.857808914,0.7524131858640075,-0.4112728755984478,1.3488672404283057,12.327338778001558,1.5983472128313405,-0.31969679000000006,-0.20113439149999968,0.35794272499999913
160632.0,1.6976291815,2.405178979,12.252820776,0.6975225808887858,-0.38569158475196696,1.4375980342704455,12.601525611118722,1.6437712302922465,-0.49553002449999983,-0.15327793950000013,0.3950118620000005
160642.0,1.0488212175,2.2088498459999997,12.6861766395,0.63650237958056,-0.34279139173794626,1.4812975880818795,12.919679613560389,1.64829723105954,-0.648807964,-0.19632913300000032,0.4333558634999992
160652.0,0.408348906,1.8676764925,13.1578765045,0.5642911271085467,-0.3100175990439967,1.474103340905159,13.296039952457335,1.6085757823360978,-0.6404723115,-0.34117335349999967,0.4716998650000015
160662.0,-0.13033037849999998,1.5827933099999998,13.658211787499999,0.4790230665023637,-0.2820382258052757,1.418945700554382,13.750235267148872,1.5239473613542174,-0.5386792845,-0.2848831825000002,0.5003352829999983
160672.0,-0.550545331,1.3708716035,14.262791759999999,0.38922587648725543,-0.2713795000633463,1.3259510673496202,14.339094040555436,1.4082932397009869,-0.42021495250000007,-0.21192170649999986,0.6045799724999998
160682.0,-0.7959077139999999,1.3002637235,14.819417214,0.295164847109525,-0.2828375866026891,1.2257604416388856,14.897626703688553,1.2921331385159887,-0.2453623829999999,-0.07060787999999985,0.5566254540000006
160692.0,-0.957521306,1.411569201,15.2731709095,0.1688606051304514,-0.32094161483222927,1.135163890826364,15.368120389021318,1.1916855638683346,-0.16161359200000003,0.11130547749999997,0.45375369549999967
160702.0,-1.0282272525,1.6426138750000001,15.464694783999999,-0.006204645490839841,-0.3622430862514231,1.0613539167595238,15.585641353098145,1.121485928482121,-0.07070594650000006,0.23104467400000006,0.19152387449999964
160712.0,-1.056960737,1.8102095235,15.484994549499998,-0.21217967716495065,-0.381961816140455,1.0139228490073258,15.626230534475495,1.1040627645792016,-0.028733484500000017,0.16759564849999986,0.020299765499999012
160722.0,-1.0737301085,1.8545355815,15.330539812,-0.41895581496572687,-0.37983076912376995,0.986477546519715,15.479588156545573,1.1370722658891594,-0.016769371499999908,0.044326058,-0.15445473749999827
160732.0,-1.196999699,1.9538769459999998,15.095964744,-0.6054791521263608,-0.3606443646565963,0.9768852169507543,15.268876676154253,1.2045638582138927,-0.12326959050000008,0.09934136449999986,-0.23457506799999983
160742.0,-1.4662903079999998,1.9036668979999998,14.855309553,-0.7597610220149036,-0.3649082040192184,0.9667588166306831,15.04839449380992,1.282582323855596,-0.2692906089999998,-0.05021004800000006,-0.2406551910000001
160752.0,-1.764412468,1.812661186,14.614752428499997,-0.8743401420790793,-0.3939522281016561,0.9382471179701036,14.832055841278759,1.341632101753804,-0.29812216000000014,-0.09100571199999985,-0.24055712450000222
160762.0,-2.0397831999999996,1.6211373115,14.33339964,-0.9542779671496716,-0.46376539818142926,0.8828241875730237,14.568292519224475,1.3802548059331867,-0.2753707319999996,-0.19152387449999986,-0.2813527884999978
160772.0,-2.2803403244999996,1.5384672519999998,13.9598643415,-1.0075715958593183,-0.5580934629347148,0.8098135743035969,14.228304393500316,1.4080010153687115,-0.2405571245,-0.08267005950000028,-0.3735352985000002
160782.0,-2.471864199,1.4977696544999999,13.4846340825,-1.038481376912138,-0.6716061868259221,0.7229467921025872,13.790894927275733,1.4325328982566532,-0.19152387450000052,-0.040697597499999905,-0.47523025899999993
160792.0,-2.6012139124999996,1.4128440654999999,12.931637088999999,-1.0518034750926109,-0.7763259419455818,0.6355459391504671,13.266110205090355,1.453578741976243,-0.12934971349999946,-0.08492558900000002,-0.5529969935000008
160802.0,-2.574834024,1.382933783,12.276749002,-1.0491383573248154,-0.8432087042112565,0.5430836313675635,12.619859038730137,1.4514241428084411,0.026379888499999726,-0.02991028249999994,-0.654888086999998
160812.0,-2.4658821425,1.4151976615,11.698548917999998,-1.028354976592067,-0.8482719043712921,0.4490226019898332,12.03907828484616,1.4066628873774587,0.1089518814999999,0.03226387850000001,-0.5782000840000023
160822.0,-2.2923044375,1.4822751475,11.2173366025,-0.9963787993662788,-0.7720621025829596,0.3584260511773115,11.544714795128746,1.3104655036413468,0.17357770500000003,0.06707748600000007,-0.48121231549999877
160832.0,-2.1044090234999997,1.5756344555,10.900091474999998,-0.9699998930516366,-0.6151168602558735,0.2790205515285775,11.212633742297777,1.1819987362372864,0.1878954140000002,0.09335930799999992,-0.31724512750000144
160842.0,-2.1247087889999996,1.7396016435,10.757698917,-0.9731973362412901,-0.40860775783065245,0.2172009894229383,11.102643257573611,1.0776129290393834,-0.0202997654999999,0.16396718799999999,-0.1423925579999974
160852.0,-2.2768099305,1.8533587834999998,10.696603487500001,-1.0078368859056215,-0.21595656966626636,0.17136864326556722,11.092165181279857,1.0448634554182872,-0.1521011415000002,0.11375713999999992,-0.06109542949999991
160862.0,-2.4982440875,1.9299487199999998,10.728965432499999,-1.0784494167828083,-0.052347660255065924,0.12766908945413322,11.183766129275872,1.0872409201715167,-0.22143415700000002,0.07658993650000001,0.032361944999998116
160872.0,-2.7711631569999997,1.8749334135,10.733672624499999,-1.1919638860032673,0.06516186762320829,0.08183674329676212,11.243062241120683,1.19654553907554,-0.2729190694999999,-0.05501530649999986,0.004707191999999694
160882.0,-2.9555281769999997,1.6031911419999998,10.622367147,-1.3177340572312308,0.13737312009522168,0.03360806007640281,11.141815491583637,1.3253014454884882,-0.18436502,-0.2717422715000002,-0.11130547749999842
160892.0,-3.1123365104999996,1.269176643,10.393774135500001,-1.4237854985701621,0.1778752307170021,-0.031941270640748226,10.923735106890723,1.435209039969947,-0.1568083334999999,-0.3340144989999998,-0.22859301149999922
160902.0,-3.2272704484999997,0.9615420324999999,10.056131176,-1.5002605904047979,0.18560354864483297,-0.12840212773997084,10.604980521290209,1.5171412665930155,-0.11493393800000007,-0.30763461050000007,-0.3376429595000019
160912.0,-3.266791248,0.7687432934999999,9.617970053999999,-1.5412950264484366,0.15842353620352528,-0.2392497338633827,10.186669684884817,1.5677783040122786,-0.039520799500000425,-0.192798739,-0.43816112200000035
160922.0,-3.1674498835,0.6657734685,9.139209400999999,-1.5495556697981256,0.11365758621912274,-0.3511637361597631,9.695418585660416,1.5929082805680805,0.0993413645000003,-0.10296982499999996,-0.47876065300000015
160932.0,-2.8897255554999997,0.6310579275,8.611219365,-1.5338337438961607,0.09420589170564593,-0.45641756203053313,9.10504513147087,1.6030713318116772,0.27772432800000013,-0.03471554099999996,-0.5279900359999985
160942.0,-2.5449237415,0.6179170165,8.085680991499999,-1.520511645715688,0.14936353205642272,-0.5499445206571533,8.499217339592805,1.6237931226810345,0.34480181399999976,-0.013140911000000033,-0.5255383735000017
160952.0,-2.2683762114999997,0.5329914275,7.659582048999999,-1.5213110065131012,0.2719362600947325,-0.6330815342466511,8.006173097307514,1.6700684827564136,0.2765475300000002,-0.08492558900000002,-0.42609894249999947
160962.0,-2.0959753045,0.36892617299999997,7.335178066999999,-1.5282382183142669,0.45313110704902776,-0.7135534300683537,7.637673485610401,1.7464244471645933,0.17240090699999966,-0.16406525449999998,-0.32440398199999976
160972.0,-2.0110497155,0.115130071,7.0561788745,-1.5442271795917868,0.6604395702716623,-0.8078814948216393,7.338067606693276,1.8637302696060578,0.08492558900000002,-0.25379610199999997,-0.2789991924999997
160982.0,-1.9715289159999998,-0.115914603,6.910157856,-1.5644782349026771,0.8602867509420209,-0.9261903834973269,7.186838251738472,2.011346332140117,0.0395207995000002,-0.231044674,-0.14602101849999993
160992.0,-1.9823162309999998,-0.20809711299999997,6.7880650634999995,-1.586060976432839,1.0079066990757015,-1.0543586371175304,7.074652596024361,2.1547940668818226,-0.010787314999999964,-0.09218250999999997,-0.12209279250000016
161002.0,-1.9427954315,-0.29665116249999995,6.6276282695,-1.594321619782528,1.0715902728224704,-1.1790624121725253,6.912880186980347,2.2539643546231636,0.03952079949999976,-0.08855404949999998,-0.16043679399999977
161012.0,-1.7607840074999999,-0.267917678,6.3918764034999995,-1.5679409681386338,1.0761211475606478,-1.2787207124614015,6.635376715822001,2.2916374635340024,0.18201142400000014,0.02873348449999996,-0.2357518660000002
161022.0,-1.553765626,-0.40079778549999995,6.1057183565,-1.5133173985389674,1.027091358213623,-1.3839727930029195,6.313051808301745,2.293562054667402,0.20701838149999996,-0.13288010749999996,-0.2861580469999998
161032.0,-1.232892038,-0.33617196199999994,5.732183058,-1.4341771889365367,0.9847234906214607,-1.4489897982982123,5.87290021844582,2.264092753802263,0.320873588,0.06462582350000001,-0.37353529849999934
161042.0,-0.8833830319999999,-0.17936362849999998,5.3288355435,-1.3489091283303536,0.971401392440988,-1.4812312655703037,5.404537458665926,2.2264821049881016,0.349509006,0.15680833349999995,-0.40334751450000006
161052.0,-0.5206350485,-0.10748088399999998,5.007961955499999,-1.2788289228750251,0.9769969180228818,-1.4862944657303392,5.036099278398649,2.1906614596209386,0.3627479834999999,0.0718827445,-0.3208735880000013
161062.0,-0.2656621485,-0.0871811185,4.6931684905,-1.2122149413141576,0.9690033100487477,-1.4729706222206143,4.701489913292444,2.1396436462074004,0.2549729,0.020299765499999983,-0.3147934649999993
161072.0,-0.05619210449999999,-0.10865768199999999,4.361507587499999,-1.117886876560872,0.9335626542577509,-1.4415285157459368,4.363222717245341,2.0491985652738687,0.20947004399999997,-0.02147656349999999,-0.3316609030000004
161082.0,0.17485256949999997,-0.18887607899999997,4.063483494,-0.988919262143255,0.8832011786914546,-1.4018257659215696,4.071626910743372,1.929539091877003,0.23104467399999995,-0.08021839699999998,-0.2980240934999996
161092.0,0.397561591,-0.3109688715,3.776148649,-0.830106517516535,0.8360388916440638,-1.3615889453460923,3.809731680450076,1.8005450049508753,0.22270902150000002,-0.12209279250000005,-0.28733484499999973
161102.0,0.7183371124999999,-0.38883367249999995,3.5798195159999997,-0.6641012710423463,0.7920723024570746,-1.3218861955217254,3.6718261940346726,1.6780322238951826,0.3207755214999999,-0.07786480099999993,-0.19632913300000032
161112.0,0.9686028204999999,-0.4463006415,3.3871188434999997,-0.4983613146144608,0.7608954860286999,-1.2688613475168855,3.551049105050033,1.5611966755618818,0.25026570800000003,-0.057466969000000034,-0.1927006725
161122.0,1.1720908079999999,-0.427177674,3.3751547304999994,-0.3155677460653388,0.7486380386919437,-1.1985141066860021,3.5983255942422256,1.4479219520604776,0.20348798749999997,0.019122967499999977,-0.011964113000000332
161132.0,1.310952972,-0.43551332649999996,3.5271578055,-0.11172376140791301,0.7552999604468061,-1.1159111638476145,3.7880221405443635,1.3521161025273742,0.13886216400000007,-0.008335652499999957,0.15200307500000054
161142.0,1.3492969734999998,-0.440318585,3.843226135,0.0990474350506782,0.7510361210841839,-1.0327741502581167,4.096934207885172,1.2808154023920348,0.038344001499999836,-0.00480525850000002,0.3160683295000002
161152.0,1.310952972,-0.464246811,4.159196398,0.26265634446187863,0.7281216933347504,-0.9685582510894892,4.385548708366545,1.2398607346570305,-0.038344001499999836,-0.023928225999999997,0.31597026299999964
161162.0,1.252309205,-0.5217137799999999,4.4669290749999995,0.39295564509876735,0.6940144690922772,-0.9240575911513899,4.668395760242481,1.2206361677784798,-0.05864376699999996,-0.05746696899999992,0.30773267699999973
161172.0,1.221124058,-0.6090910315,4.829578991999999,0.4790230665023637,0.6319278716110829,-0.9163310185528108,5.0186620816356875,1.2117996817635632,-0.03118514699999997,-0.08737725150000009,0.3626499169999997
161182.0,1.3288991414999998,-0.7180429129999999,5.1432937254999995,0.5373781500427941,0.5714417410539674,-0.9272567796702954,5.360506403312716,1.2145476832989028,0.10777508349999976,-0.1089518814999999,0.31371473350000034
161192.0,1.528856735,-0.741971139,5.312066172,0.5613607192944482,0.5277404419132814,-0.9408459132263233,5.577272729835842,1.2160702543982729,0.1999575935000002,-0.023928226000000108,0.16877244650000023
161202.0,1.795793748,-0.6808757095,5.3635510845,0.5616260093407514,0.5037596179908793,-0.9448427172133903,5.697029678102804,1.209101024463017,0.26693701299999995,0.06109542950000002,0.05148491250000031
161212.0,2.075871672,-0.557606119,5.430530504,0.5728188058337909,0.5160170653276355,-0.9243246265269449,5.840447700085398,1.2036490398909359,0.280077924,0.12326959049999997,0.06697941949999997
161222.0,2.176487901,-0.4821929805,5.5826316455,0.628241736230871,0.5333359674951752,-0.8779599549477156,6.011271557913592,1.2041381215866345,0.10061622899999989,0.07541313850000003,0.1521011415000002
161232.0,2.271024007,-0.42237241549999993,5.9333174495,0.739623413105393,0.5280074772888366,-0.8177391144369033,6.367119007391556,1.2225105106160203,0.09453610600000006,0.05982056500000005,0.3506858039999994
161242.0,2.1524616085,-0.3792231555,6.4301223384999995,0.8928388868209672,0.5082887473998047,-0.7556542622849609,6.791419179067839,1.2753556730035722,-0.11856239849999994,0.04314925999999991,0.49680488899999986
161252.0,2.1046051565,-0.39363893099999997,6.9149631145,1.0316658661831002,0.4584613425846185,-0.7028947043264243,7.238855527475373,1.3298805312741249,-0.047856451999999994,-0.01441577549999995,0.4848407760000004
161262.0,2.189628812,-0.2858638475,7.4572708595,1.1382513782731418,0.4112973102079757,-0.6709185271006363,7.777344093300483,1.3838039411462557,0.08502365550000013,0.10777508349999998,0.5423077450000005
161272.0,2.2554314335,-0.011767979999999999,8.0462582585,1.2181909486729863,0.3742579328221521,-0.6442725854104387,8.356397632894966,1.4279864677301923,0.06580262150000005,0.2740958675,0.5889873989999996
161282.0,2.407532575,0.2803721235,8.692614559999999,1.2794764400275151,0.3340228575759268,-0.5944451805952526,9.024210187935896,1.4498263008724852,0.15210114149999976,0.2921401035,0.6463563014999991
161292.0,2.523643311,0.436003659,9.335538534,1.3183798290544686,0.27859818184959484,-0.5190347396043337,9.680452183220332,1.4440011708803175,0.11611073599999999,0.15563153549999997,0.6429239740000003
161302.0,2.596604787,0.5473091364999999,9.953161350999999,1.3404966413357409,0.19066674880486853,-0.43643179676594607,10.300840965174048,1.4225884041986891,0.07296147600000014,0.11130547749999992,0.6176228169999991
161312.0,2.6708411274999997,0.622722275,10.4679124095,1.3580825788788355,0.09980316261679174,-0.3596914148850074,10.82119982132715,1.4084483931846707,0.07423634049999972,0.07541313850000009,0.5147510585000017
161322.0,2.791757122,0.7663896975,10.8582170795,1.3855278813664464,0.028124235566636624,-0.28321632305037187,11.237532609172591,1.4144574819739808,0.12091599450000023,0.14366742249999997,0.390304669999999
161332.0,3.0024039639999995,0.8980930069999999,11.2185134005,1.4153730115755494,-0.009714502616600437,-0.20007930946087393,11.648005989415667,1.4294778289752759,0.2106468419999996,0.13170330949999998,0.36029632099999986
161342.0,3.208343614,1.07284751,11.5178123585,1.4254976665663686,-0.009979792662903575,-0.10655060550500182,12.004352212877757,1.4295090853790466,0.20593965000000036,0.17475450299999995,0.2992989580000014
161352.0,3.3424005195,1.2882996104999997,11.848198396999999,1.4108421368373723,0.014535102010608775,-0.00369660735572399,12.377849666797609,1.4109218508380412,0.13405690550000005,0.21545210049999985,0.3303860384999986
161362.0,3.402319151,1.4379490895,12.1858413565,1.3719387478104188,0.028389525612939764,0.10555227717286106,12.733350020911269,1.3762860081118764,0.059918631499999986,0.14964947900000025,0.3376429595000001
161372.0,3.3292596085,1.6091731985,12.471901336999998,1.3322359979860519,0.022261674609187675,0.22652628361634403,13.008525315477641,1.3515407850506507,-0.0730595424999998,0.17122410899999996,0.28605998049999926
161382.0,3.1772565335,1.698904046,12.747272069,1.2816074870442002,0.004941027112395947,0.3461686038405553,13.246666721794247,1.3275446760397913,-0.1520030750000001,0.08973084750000004,0.27537073200000073
161392.0,2.9928915135,1.5684756009999998,13.054906679499998,1.2379079332327663,-0.04621980925131384,0.44955492741169145,13.485106737915213,1.317820911462547,-0.18436502,-0.13042844500000017,0.3076346104999992
161402.0,2.8048980329999997,1.4583469215,13.2296611825,1.2195226348922579,-0.14108019942645764,0.5332242664230477,13.602138204073766,1.3384570213447877,-0.1879934805000003,-0.11012867949999983,0.17475450300000084
161412.0,2.6876104990000003,1.374500064,13.2894817475,1.2165904817489075,-0.2537935625202514,0.6006393541105806,13.628016206968889,1.380315618387742,-0.11728753399999947,-0.08384685749999998,0.05982056500000077
161422.0,2.6085689,1.3924462335,13.3110563775,1.2048671051632616,-0.353982442901734,0.6446059432975697,13.635532996704566,1.4115683239297088,-0.0790415990000004,0.017946169500000053,0.021574629999999928
161432.0,2.5618892460000002,1.491787598,13.283499691,1.168628833904103,-0.4155367149610699,0.6723182811607357,13.610292825178822,1.4108068557019515,-0.046679653999999626,0.09934136449999986,-0.027556686500000538
161442.0,2.5618892460000002,1.6055447379999999,13.247607352,1.096949906853948,-0.42406264835706226,0.6986989328046299,13.5882357562435,1.3679577576010231,0.0,0.11375713999999992,-0.035892339000000106
161452.0,2.572676561,1.7407784414999998,13.179353068,0.9826378221653275,-0.38435989853269525,0.7322720862959929,13.540469768841513,1.2843410876858872,0.010787314999999964,0.13523370349999997,-0.068254284
161462.0,2.514032794,1.9143561464999999,13.097957873,0.8568676509373642,-0.3201422540348159,0.7935593229797737,13.473738189078503,1.2109705335513024,-0.0586437670000004,0.17357770500000003,-0.08139519499999892
161472.0,2.2733776029999997,2.035272141,13.015385879999998,0.7550783036318027,-0.2620542058699406,0.8886867485304727,13.368277675865956,1.1952321065145757,-0.2406551910000001,0.12091599450000023,-0.08257199300000195
161482.0,1.8627731674999999,1.962310665,12.975865080499998,0.6951244984965456,-0.24020442896422362,1.002464762467983,13.254948570510184,1.2433148579881494,-0.4106044354999998,-0.07296147600000014,-0.03952079949999998
161492.0,1.3564558279999999,1.7899097579999999,12.975865080499998,0.6578198310644188,-0.2559246095369365,1.1031877136005759,13.16878217385488,1.3096745654350626,-0.5063173395,-0.1724009070000001,0.0
161502.0,0.870438254,1.5636703425,12.948308394,0.6215798144760085,-0.29296398692276016,1.1695381504443925,13.071396939890224,1.356469258310928,-0.4860175739999999,-0.22623941549999982,-0.02755668649999876
161512.0,0.45022330149999995,1.2524072714999999,12.870541659499999,0.5584285661510977,-0.34332546248905654,1.196983452932003,12.939167964125229,1.3647286262403657,-0.4202149525,-0.31126307100000017,-0.07776673450000082
161522.0,0.1628884565,0.9638956285,12.760412979999998,0.48968179224429303,-0.3963503104938963,1.1817938524518963,12.797803204146202,1.3392231091111313,-0.28733484499999995,-0.2885116429999999,-0.11012867950000071
161532.0,-0.09443803949999999,0.7544255845,12.517404193,0.43692223428575644,-0.45577179020729525,1.135430926201919,12.540473844188934,1.2991660216222436,-0.257326496,-0.20947004400000002,-0.24300878699999728
161542.0,-0.22251288849999998,0.6945069529999999,12.324703520499998,0.41240733961224413,-0.5095977443388003,1.0770740973322366,12.346261327281995,1.2608958267617887,-0.128074849,-0.0599186315000001,-0.19270067250000267
161552.0,-0.2799798575,0.7735485520000001,12.019422506,0.40414669626255495,-0.5261172857089267,1.0291124494874324,12.047542631617716,1.2244208361963174,-0.05746696900000001,0.07904159900000018,-0.30528101449999845
161562.0,-0.2799798575,0.9579135719999999,11.829075429499998,0.3820316293105348,-0.4837511634460163,0.9987349938564712,11.871099892125754,1.1736417434134327,0.0,0.18436501999999988,-0.19034707650000193
161572.0,-0.34107528699999995,1.027344654,11.684231208999998,0.3324695145416518,-0.38649094554938035,0.9808820209378212,11.734267268767747,1.1054595280200357,-0.061095429499999965,0.06943108200000003,-0.14484422049999957
161582.0,-0.40932957099999995,1.0572549365,11.538210190499997,0.2645203561030086,-0.26418525288662564,0.9638284088165846,11.59377561877953,1.033794016367643,-0.068254284,0.02991028249999994,-0.14602101850000082
161592.0,-0.5673147024999999,1.1135451075,11.386109049,0.19364253517951888,-0.14347828181869787,0.9377147925482454,11.454488550512831,0.968190312360228,-0.1579851315,0.05629017100000011,-0.15210114149999754
161602.0,-0.7169641814999999,1.191311842,11.258034199999999,0.1310236122764663,-0.05607742886657781,0.9092030938876661,11.343570672006809,0.9203054552360124,-0.14964947899999992,0.07776673449999993,-0.12807484900000077
161612.0,-0.8629851999999999,1.2907512729999997,11.1694801505,0.08785638388689057,-0.015042992822939126,0.8876203523575042,11.276882066270963,0.8920845956197269,-0.14602101850000004,0.09943943099999974,-0.08855404949999901
161622.0,-1.0676499855,1.3349792645,11.1000490685,0.07346788953344931,-0.014510667401080856,0.8721654618310944,11.23090091895084,0.8753745958570938,-0.2046647855,0.04422799150000034,-0.06943108199999948
161632.0,-1.2604487245,1.3254668139999999,11.013848614999999,0.0811944621320282,-0.04701917004872724,0.8617737714647201,11.164696797327117,0.8668664119790939,-0.1927987390000001,-0.009512450500000158,-0.08620045350000183
161642.0,-1.4759008249999999,1.270353441,10.863022338,0.09611702723657972,-0.09284977087684633,0.8439207985460702,11.036183009817444,0.8544365845955549,-0.21545210049999985,-0.055113372999999966,-0.1508262769999984
161652.0,-1.659089047,1.2153381344999998,10.712196061,0.11157191776298951,-0.13708339543939063,0.8098135743035969,10.907830567823707,0.8288776600107346,-0.18318822200000007,-0.05501530650000008,-0.15082627700000018
161662.0,-1.7943227505,1.1698352785,10.517043726,0.12409465514604882,-0.15839910159399737,0.7538565731554068,10.732954739790019,0.7802496342269027,-0.13523370349999997,-0.045502855999999925,-0.1951523349999995
161672.0,-1.831489954,1.117173568,10.408091844500001,0.12516105131901736,-0.14640868963279632,0.6784478774937398,10.626890800050042,0.7052604594354023,-0.037167203500000134,-0.052661710500000014,-0.10895188149999946
161682.0,-1.85541818,1.1386501315,10.3255198515,0.10970616079260757,-0.10350849661877572,0.5945115031068285,10.552509699041268,0.6133460507042278,-0.023928225999999997,0.021476563500000045,-0.08257199300000195
