timestamp,ax,ay,az,gx,gy,gz,acc_mag,gyro_mag,dax,day,daz
201502.0,-1.5368001214999998,0.42217628249999994,9.80861133,0.07867769735065239,-0.04291415564803658,-0.008693485004183755,9.937245274720368,0.0900409989777031,0.0,0.0,0.0
201512.0,-0.32293298449999996,0.5861434704999999,9.929527324499999,0.045102798530037465,-0.016533504004142285,0.000900589894029074,9.952053193611857,0.04804612629602272,1.2138671369999998,0.16396718799999999,0.1209159944999989
201522.0,-0.034519408,0.7513855229999999,10.028868688999998,0.018989182261698306,0.04075518336331959,0.011292280260403312,10.057036291816152,0.04635827442242963,0.2884135765,0.16524205250000001,0.09934136449999897
201532.0,0.0253992235,0.7848261995,10.0240634305,-0.00632507320922745,0.08339008633103707,0.017954202015265666,10.054772247180114,0.0855351765030322,0.0599186315,0.033440676500000044,-0.004805258499997578
201542.0,0.099635564,0.73942141,10.065937825999999,-0.036433748135381624,0.10710562020713603,0.025947809989399696,10.09355118796539,0.11607032664033336,0.0742363405,-0.04540478950000004,0.04187439549999894
201552.0,0.12238699199999999,0.7034310045,10.101830164999999,-0.051089277864378016,0.14334389146629428,0.026213100035702836,10.127031472075446,0.154417331109193,0.02275142799999999,-0.03599040549999999,0.035892339000000106
201562.0,-0.0045110589999999996,0.7489338604999999,10.2215693615,-0.0462931130798976,0.1489394170481881,0.019818213656395613,10.248970801451835,0.15722202091886758,-0.12689805099999998,0.045502855999999925,0.1197391965000012
201572.0,-0.12660385149999998,0.756092715,10.285018387,-0.018048449794873363,0.11110242419420305,0.012358676433371846,10.313549725958506,0.11323529522640668,-0.12209279249999998,0.007158854500000089,0.06344902549999887
201582.0,-0.19730979799999998,0.744128602,10.4167216965,0.01446005285277302,0.03409500693770923,0.010759954838545043,10.44513041733013,0.038566037581205546,-0.0707059465,-0.011964112999999998,0.13170330950000064
201592.0,-0.21643276549999999,0.7142183195,10.415544898499999,0.04430343773262407,-0.05836904617444636,0.020617574453809014,10.442247195051491,0.07612374480148429,-0.019122967500000004,-0.02991028249999994,-0.0011767980000012557
201602.0,-0.12660385149999998,0.6172305509999999,10.320910726,0.0632228068242426,-0.1385739066205938,0.036339500355773935,10.340125739195061,0.15658994279625957,0.08982891400000001,-0.09698776850000013,-0.09463417249999928
201612.0,-0.034519408,0.5598616485,10.189305483,0.06588617926278593,-0.19186579000098863,0.05366014785256566,10.204733356677364,0.2098401330968665,0.09208444349999997,-0.05736890249999993,-0.1316052429999992
201622.0,0.020593965,0.658026215,10.043186397999998,0.044036402357068925,-0.20812004132481185,0.06618288523562497,10.064741210582307,0.222785391423466,0.055113373,0.09816456650000005,-0.14611908500000226
201632.0,0.057663101999999994,0.6795027785,9.922270403499999,0.012061970460532812,-0.1923981154228469,0.08377056810797183,9.945677403751517,0.2101904708372533,0.037069136999999995,0.021476563499999934,-0.1209159944999989
201642.0,0.115130071,0.669990328,9.801354409,-0.0199142067652553,-0.1502972832062397,0.1045539488407203,9.82490153760768,0.18416671031555598,0.05746696900000001,-0.009512450499999936,-0.1209159944999989
201652.0,0.11042287899999999,0.5992843815,9.7355517875,-0.04069758749800378,-0.09194219966580928,0.12054116478898838,9.754604225144705,0.15697080657316909,-0.004707192000000013,-0.07070594650000006,-0.0658026214999996
201662.0,0.0481506515,0.49513775849999997,9.7906651605,-0.04922526622324807,-0.04291415564803658,0.1269360511682956,9.803295577006784,0.142749825484775,-0.062272227499999985,-0.104146623,0.0551133729999993
201672.0,-0.0667832865,0.452086565,9.868431894999999,-0.04283037984394085,-0.006408849013323179,0.12347331793233883,9.879007558245034,0.1308479079866096,-0.114933938,-0.04305119349999997,0.07776673449999905
201682.0,-0.17455837,0.41619422599999994,9.9210936055,-0.029239500958661003,0.0005201081170943102,0.11494563920709454,9.931353713738414,0.11860741503587605,-0.1077750835,-0.03589233900000005,0.05266171050000068
201692.0,-0.19485813549999997,0.371868168,9.955809146499998,-0.019647171389700166,-0.008806931405563387,0.09975778405623989,9.964657113462321,0.10205483263525515,-0.020299765499999983,-0.044326057999999946,0.03471554099999885
201702.0,-0.1960349335,0.32881697449999997,9.961791202999999,-0.01485100660521975,-0.019997982569351026,0.07550992475828266,9.969144109202146,0.07951239174514786,-0.0011767980000000344,-0.04305119350000003,0.00598205650000061
201712.0,-0.15298373999999998,0.303613884,9.929527324499999,-0.014051645807806348,-0.031721359154996936,0.04912927311438839,9.935345907579366,0.060144649415359595,0.04305119350000003,-0.02520309049999997,-0.03226387850000023
201722.0,-0.115914603,0.359904055,9.925898863999999,-0.011920598791121272,-0.03332008074982375,0.02408205301901776,9.933097975070545,0.042805066689872585,0.037069136999999974,0.056290171,-0.003628460499999875
201732.0,-0.142196425,0.43414039549999994,9.90079384,-0.017516124373015092,-0.03598519851761908,0.010492919462989908,9.911327679401465,0.04137451491268726,-0.026281821999999982,0.07423634049999994,-0.025105023999998366
201742.0,-0.1373911665,0.5178891865,9.8061596675,-0.03217165410201148,-0.0407813633020995,0.004897393881096089,9.820786779409762,0.05217393398301394,0.0048052584999999925,0.0837487910000001,-0.09463417250000106
201752.0,-0.1481784815,0.568197301,9.704464707,-0.04789183467472441,-0.031721359154996936,0.010492919462989908,9.722213754318094,0.05839498106865209,-0.010787314999999992,0.050308114499999945,-0.10169496049999971
201762.0,-0.17210670749999998,0.5718257615,9.650528132,-0.0633467252011342,-0.013603096190043804,0.023549727597159488,9.668986433272359,0.06893795391193454,-0.023928225999999997,0.003628460499999986,-0.05393657499999982
201772.0,-0.234378935,0.557409986,9.612282197,-0.07453952169417383,0.004249876728606192,0.03713886115318734,9.631282802016946,0.08338762950438325,-0.06227222750000003,-0.01441577549999995,-0.038245934999999065
201782.0,-0.3564717275,0.5371102205,9.591884364999999,-0.0782692903056857,0.0175737202383309,0.047797586895116706,9.61352199524211,0.09337840628842976,-0.12209279249999999,-0.02029976550000001,-0.020397832000002225
201792.0,-0.49778555399999996,0.5298532994999999,9.600318084,-0.07267376472379189,0.021303488849842785,0.05206142625773885,9.627805684097469,0.09190052676831845,-0.14131382649999996,-0.007256921000000083,0.008433719000001005
201802.0,-0.674893653,0.510730332,9.6541565925,-0.05961695658962231,0.018905406457602577,0.05499183407183733,9.69118498571747,0.08328083645665767,-0.17710809900000007,-0.019122967499999977,0.05383850850000016
201812.0,-0.872399584,0.4472813065,9.715252022,-0.034569736494251685,0.009580112264196876,0.05898863805890435,9.764592334157264,0.06903987726177553,-0.1975059309999999,-0.06344902549999998,0.06109542949999991
201822.0,-1.08069283,0.41972461999999994,9.800177610999999,-0.0023265238929084412,-0.014402456987457209,0.06058735965373116,9.868512905022378,0.06231911127824593,-0.2082932460000001,-0.02755668650000004,0.08492558899999914
201832.0,-1.298596593,0.40060165249999996,9.814593386499999,0.030979594222899347,-0.04397880649175312,0.05579119486925074,9.908232846358953,0.07750179419596216,-0.21790376300000003,-0.019122967499999977,0.014415775499999839
201842.0,-1.5033594449999998,0.40060165249999996,9.863626636500001,0.06668728538945133,-0.0719581797304742,0.04406607295435283,9.985574681966419,0.10754995326989085,-0.20476285199999977,0.0,0.04903325000000258
201852.0,-1.6840960044999997,0.3994248545,9.9067758965,0.10105979967822767,-0.09034347807098249,0.03207566099315179,10.056834901212138,0.1392977931236285,-0.1807365594999999,-0.001176797999999979,0.04314925999999808
201862.0,-1.850514855,0.45689182349999996,9.8971653795,0.13223661610660237,-0.08687899950577374,0.023282692221604357,10.079039533414392,0.1599267549584344,-0.16641885050000016,0.05746696899999998,-0.009610516999998708
201872.0,-2.015658841,0.46042221749999995,10.0001352045,0.15595214998270132,-0.05597096378220615,0.02088460982936415,10.21163910887715,0.16700296044879195,-0.16514398600000013,0.0035303939999999923,0.10296982499999885
201882.0,-2.2526855715,0.47238633049999995,10.2300030805,0.17087296975800084,-0.009072221451866525,0.016887805842297134,10.485738131210745,0.17194497661216365,-0.23702673049999978,0.011964112999999998,0.22986787600000014
201892.0,-2.468137672,0.44845810449999995,10.468206609000001,0.17407041294765446,0.012510520078295354,-0.0105574966453137,10.76457931589287,0.17483844689258765,-0.2154521005000003,-0.023928225999999997,0.23820352850000148
201902.0,-2.6237692075,0.37667342649999996,10.7291615655,0.17860128768583175,-0.00027925268031909274,-0.06411641540126368,11.051739936456107,0.18976146254970766,-0.15563153549999997,-0.07178467799999999,0.2609549564999991
201912.0,-2.798621777,0.41374256349999994,10.9505957225,0.1892600134277611,-0.026125833573103118,-0.13073214229138327,11.310128798434855,0.2315011984648466,-0.17485256950000005,0.037069136999999974,0.22143415699999913
201922.0,-2.814116284,0.29410143349999995,11.088281088499999,0.1983182722456117,-0.11219325497669949,-0.20614083795305027,11.443588755746486,0.30726455806151315,-0.015494506999999658,-0.11964112999999998,0.13768536599999948
201932.0,-2.6657416695,0.25575743199999995,11.211550678999998,0.20391379782750552,-0.1892006722331933,-0.2964720987192688,11.52694491790072,0.4065383581372573,0.14837461449999978,-0.0383440015,0.12326959049999964
201942.0,-2.5041280775,0.19946726099999998,11.2163559375,0.20391379782750552,-0.2504879089169742,-0.37641166911911306,11.494219640037603,0.4959947319347977,0.16161359200000014,-0.05629017099999997,0.0048052585000011305
201952.0,-2.2611192905,0.18995481049999996,11.175658339999998,0.20045106459154874,-0.2869932155516876,-0.4440920468529492,11.403687237394527,0.5654763311993037,0.24300878699999995,-0.00951245050000002,-0.04069759750000124
201962.0,-2.026446156,0.1911316085,11.145748057499999,0.19778594682375342,-0.2888589725220695,-0.5077773659289703,11.330080100166988,0.6167630340067713,0.23467313449999994,0.0011767980000000344,-0.029910282499999497
201972.0,-1.8121708535,0.2353596,11.107404056,0.18872594267665085,-0.2638117524266989,-0.568797567237196,11.256721645613892,0.654786067851622,0.21427530249999993,0.04422799150000001,-0.038344001499998726
201982.0,-1.6170185185,0.304790682,11.12662509,0.17034064433614257,-0.21984516323970973,-0.6236881722124176,11.247641181262116,0.682887082225468,0.19515233500000018,0.06943108199999998,0.019221033999999193
201992.0,-1.4865900735,0.337152627,11.2259664545,0.1479567966793153,-0.15935728735334226,-0.677779416390226,11.32898692637965,0.7118081876450252,0.13042844499999995,0.032361945,0.09934136450000075
202002.0,-1.389602305,0.28449091649999997,11.422295587499999,0.12051149419170447,-0.1129926157741129,-0.7340034529139713,11.510028937229231,0.7523638882491809,0.09698776850000002,-0.052661710500000014,0.196329132999999
202012.0,-1.2471116805,0.2162366325,11.668834768499998,0.08560490915181787,-0.09274156046322268,-0.8022179013989177,11.737280378325675,0.8120854381362396,0.14249062449999994,-0.06825428399999997,0.24653918099999927
202022.0,-1.068728717,0.119248864,11.8531997885,0.03950727294814364,-0.09007818802467935,-0.8829568325961753,11.901879960250069,0.8884186360055033,0.17838296350000005,-0.0969877685,0.18436502000000132
202032.0,-0.859258673,0.13248784149999998,11.929887791499999,-0.02284461457935378,-0.08155050929943505,-0.9650257046834527,11.961525873108823,0.9687347277155243,0.2094700439999999,0.013238977499999985,0.07668800299999923
202042.0,-0.5971269185,0.2293775435,11.980097839499999,-0.10971139678036355,-0.056236253828509296,-1.0364375963580525,11.997162950391727,1.0437442205696856,0.26213175450000004,0.09688970200000002,0.050210048000000285
202052.0,-0.35529492949999997,0.3562755945,11.914295218,-0.21496522265113358,-0.01253670001707527,-1.0857344210806326,11.924914981995569,1.1068814068887713,0.24183198900000002,0.126898051,-0.0658026214999996
202062.0,-0.10865768199999999,0.429335137,11.800538077999999,-0.3260798641501006,0.03915646176849279,-1.1115810019734165,11.808845586341128,1.159083098940969,0.2466372475,0.07305954249999996,-0.11375714000000059
202072.0,0.12111212749999999,0.392266,11.6294120355,-0.4257364191097248,0.1068385848315809,-1.1166442021334522,11.636656094154189,1.199816759310954,0.22976980949999998,-0.037069136999999974,-0.1711260424999992
202082.0,0.30792880999999994,0.4592454194999999,11.496531928,-0.499546393176565,0.1862440844803149,-1.102520997826314,11.50982071445438,1.22465750664729,0.18681668249999994,0.06697941949999991,-0.13288010750000012
202092.0,0.35696205999999997,0.5155355905,11.488098208999999,-0.5251259386937939,0.25579021918453293,-1.078805463950215,11.505198795196048,1.2267873152133373,0.04903325000000003,0.056290171000000055,-0.008433719000001005
202102.0,0.3054771475,0.5633920425,11.581457516999999,-0.5083393619481125,0.28989744342700613,-1.0494944044922223,11.599176052602738,1.2016188828708596,-0.05148491249999998,0.047856451999999994,0.09335930800000014
202112.0,0.273213269,0.567020503,11.746699569499999,-0.46996829834301707,0.27657534524653343,-1.0220491020046114,11.763549996377433,1.1584250040266322,-0.03226387850000001,0.003628460499999986,0.16524205250000001
202122.0,0.38216515049999994,0.535835356,11.965780130499999,-0.4134789717729686,0.2166215401112762,-1.0097916546678551,11.983866815951556,1.1124607577687662,0.10895188149999996,-0.03118514699999997,0.21908056100000017
202132.0,0.5484859344999999,0.5718257615,12.159657601,-0.3572549352492233,0.14254453066888087,-0.9999322897233393,12.18544601134552,1.0713611043970648,0.166320784,0.03599040549999999,0.19387747050000037
202142.0,0.6610662764999999,0.7346161515,12.2913609105,-0.3191509070196831,0.07326368601096597,-0.9863431561673115,12.331026824402647,1.0392774850142252,0.112580342,0.16279039000000006,0.13170330950000064
202152.0,0.6957818174999999,0.9728196799999999,12.251840110999998,-0.3204843385682068,0.021837559600953054,-0.9570320967093187,12.31008028295784,1.0095036029696283,0.03471554099999996,0.23820352849999982,-0.03952079950000176
202162.0,0.7424614715,1.0698074485,12.114154745,-0.3759072689652867,-0.0029443704481144336,-0.9143989390708531,12.183943622626217,0.9886558369585332,0.04667965400000007,0.09698776850000013,-0.1376853659999977
202172.0,0.874164781,1.029109851,11.789750763,-0.4651721335585367,0.0023858650874762485,-0.8744291538709311,11.866821571230652,0.9904630994292767,0.13170330949999998,-0.040697597499999905,-0.32440398199999976
202182.0,1.001062832,0.8902476869999999,11.5515472345,-0.5549710689028969,0.06313903102014687,-0.8512476907459423,11.628968623601375,1.0181365603678547,0.12689805099999996,-0.13886216400000018,-0.23820352850000148
202192.0,1.0836348249999999,0.7153951175,11.356394899499998,-0.6338442431297727,0.1481400562507747,-0.8451180944129383,11.430387557798957,1.0667373595777423,0.08257199299999995,-0.17485256949999994,-0.1951523350000013
202202.0,1.1554195029999998,0.6208590115,11.163694226999999,-0.6932639775139197,0.22514747350726852,-0.8541780985600409,11.240486152032155,1.122909858984582,0.07178467799999999,-0.09453610599999995,-0.19270067249999911
202212.0,1.245248417,0.5622152444999999,10.984134465499999,-0.7281705625538062,0.289632153380703,-0.8720310714786909,11.068782207513804,1.1724151747850005,0.08982891400000015,-0.05864376700000007,-0.1795597615000002
202222.0,1.2583893279999998,0.567020503,10.818892413,-0.7478892924428382,0.34558915452889316,-0.8856202050347187,10.90658007790323,1.209583980153665,0.01314091099999981,0.00480525850000002,-0.16524205249999824
202232.0,1.2153381344999998,0.6543977544999999,10.5902994015,-0.7540171434465902,0.3954165593440793,-0.876294910841313,10.679874747190429,1.2217973967811726,-0.04305119349999997,0.08737725149999997,-0.228593011500001
202242.0,1.1937635045,0.7238288365,10.385634615999999,-0.7617454613744211,0.440449544704037,-0.8477832121807336,10.479046037988502,1.2218790137366327,-0.021574629999999928,0.06943108200000003,-0.20466478550000033
202252.0,1.106386253,0.612523359,10.434667866,-0.7841275637019964,0.4905439848947783,-0.8054153445885713,10.511021305271958,1.226451513339359,-0.08737725149999997,-0.11130547749999997,0.049033250000000805
202262.0,0.922021233,0.3862839435,10.607068773,-0.8262301412478557,0.4905439848947783,-0.7558532298196883,10.654071822278112,1.2225398776529763,-0.18436501999999988,-0.22623941549999999,0.1724009070000001
202272.0,0.737656213,0.1360182355,10.8584132125,-0.8640671341018407,0.42366296795835556,-0.7140194329786362,10.884290291165549,1.1983013282665527,-0.1843650200000001,-0.25026570800000003,0.2513444395000004
202282.0,0.4910189655,-0.12611351899999998,11.052388749499999,-0.8627354478825691,0.27897342763877364,-0.6953670992625728,11.064009278477192,1.1426609423177585,-0.24663724749999993,-0.2621317545,0.19397553699999825
202292.0,0.33666229449999996,-0.230260142,11.036796176,-0.8310263060323361,0.08498880792586389,-0.6916355853218089,11.04433026779352,1.084521830888549,-0.15435667100000006,-0.10414662300000002,-0.015592573499999318
202302.0,0.309105608,-0.2470295135,10.8309545925,-0.7795984342930712,-0.13697518502576697,-0.6966987854818445,10.838180070576144,1.054478599952094,-0.027556686499999983,-0.01676937149999999,-0.20584158349999981
202312.0,0.40844697249999995,-0.2134907705,10.520868319499998,-0.7361641705279403,-0.32323148681084585,-0.7036259972830099,10.530958049232359,1.0684127592309776,0.09934136449999997,0.03353874299999998,-0.31008627300000136
202322.0,0.6442969049999999,-0.2219244895,10.1293868515,-0.7148484643733335,-0.43301444209054113,-0.705758789628947,10.15228284516214,1.0938945576308587,0.23584993249999997,-0.008433718999999978,-0.3914814679999985
202332.0,0.8884824899999999,-0.24340105299999998,9.7355517875,-0.7233743977693258,-0.4450048540517422,-0.687905816710297,9.779039513916107,1.092938356972436,0.24418558499999998,-0.02147656349999999,-0.39383506399999924
202342.0,1.0441140254999999,-0.2721345375,9.449491807,-0.7625448221718346,-0.38238593114868963,-0.6500670785270599,9.510895158464647,1.0725114511026128,0.15563153549999997,-0.028733484500000017,-0.28605998050000103
202352.0,1.1351197375,-0.24585271549999996,9.336911464999998,-0.8118399015651624,-0.2925887411335814,-0.5973075205685233,9.408871137465386,1.0495086809260719,0.09100571200000007,0.026281822000000038,-0.11258034200000111
202362.0,1.1111915115,-0.22663168149999996,9.486560943999999,-0.8155714155059263,-0.21238388068743397,-0.5501452335211326,9.554106291983324,1.0064409692238367,-0.023928225999999997,0.019221033999999998,0.1496494790000007
202372.0,1.095598938,-0.24820631149999997,9.753497957,-0.7593473789821809,-0.1737457817067835,-0.5067109697560017,9.817976665444787,0.9292750106933236,-0.015592573499999984,-0.02157463000000001,0.2669370130000015
202382.0,1.1470838505,-0.1979962635,10.0109225195,-0.6732799575785845,-0.1820064250564727,-0.46727525530718983,10.078371573417506,0.8395108124742988,0.05148491250000009,0.05021004799999998,0.2574245624999989
202392.0,1.3086974425,-0.2338886025,10.1521382795,-0.6074635914858785,-0.23316726142018246,-0.4352990780814017,10.238813628564332,0.7828564837552463,0.16161359199999992,-0.035892338999999995,0.14121576000000147
202402.0,1.570829197,-0.35951178899999997,10.082707197499998,-0.5960055049465357,-0.2869932155516876,-0.41344930117568474,10.210667829436813,0.7800820420583559,0.2621317544999999,-0.12562318649999998,-0.06943108200000303
202412.0,1.917984607,-0.5079844699999999,9.9665964615,-0.6301127291890088,-0.3005823491077155,-0.40039249304151514,10.162172907446244,0.8048018070091129,0.34715541000000005,-0.14847268099999994,-0.11611073599999777
202422.0,2.158639798,-0.602520576,9.800177610999999,-0.6868690911346125,-0.24702343035176544,-0.3780103907139399,10.053170546109246,0.8220106927446551,0.24065519099999988,-0.09453610600000006,-0.16641885050000127
202432.0,2.3142713335,-0.6732265225,9.579920251999999,-0.7462905708480114,-0.15376176177144846,-0.32977996216432853,9.878459282212841,0.8302693050840891,0.15563153549999997,-0.07070594650000006,-0.22025735899999965
202442.0,2.310642873,-0.7102956595,9.3787858605,-0.7987830934309929,-0.06609561877302526,-0.27035848245092964,9.685309216930815,0.8458822436990535,-0.003628460499999875,-0.03706913699999992,-0.20113439149999834
202452.0,2.2890682429999996,-0.7569753134999999,9.382414321,-0.8025146073717566,-0.017065829426000555,-0.22506020704466878,9.687236114458315,0.8336504269620638,-0.021574630000000372,-0.04667965399999996,0.003628460499999875
202462.0,2.2088498459999997,-0.6408645775,9.5607972845,-0.7319020764945701,-0.011470303844106734,-0.20667490870416053,9.833543093116084,0.7606094499381484,-0.08021839699999989,0.11611073599999988,0.17838296349999894
202472.0,2.2005141935,-0.4804277835,9.7583032155,-0.6253165644045284,-0.043713516445449976,-0.20640787332860538,10.014866709876438,0.6599514280693292,-0.008335652499999568,0.16043679400000005,0.19750593100000025
202482.0,2.2591579604999996,-0.3799096209999999,10.001312002499999,-0.5421795508150304,-0.09727243520139996,-0.19734786918150282,10.260329808635268,0.5851211613353924,0.058643766999999514,0.10051816250000006,0.24300878699999906
202492.0,2.4088074395,-0.35480459699999994,10.141350964499999,-0.5381827468279635,-0.17800962106940565,-0.17709681387061263,10.429536852986711,0.5938782498624509,0.14964947900000025,0.025105023999999976,0.1400389620000002
202502.0,2.6350468549999997,-0.31283213499999996,10.141350964499999,-0.6045331836717799,-0.24542470875693864,-0.14671935823965132,10.482763722315747,0.6687452638419364,0.22623941549999982,0.04197246199999999,0.0
202512.0,2.7787142774999998,-0.32479624799999995,9.937862976999998,-0.6884678127294392,-0.2845951331594474,-0.098490675019292,10.324139973301625,0.7514537457809746,0.14366742250000009,-0.011964112999999998,-0.20348798750000086
202522.0,2.8157834145,-0.38108641899999995,9.670925964,-0.7582809828092124,-0.3027151414536525,-0.021483257762798205,10.07971587383736,0.8167545752057425,0.03706913700000003,-0.056290171,-0.26693701299999795
202532.0,2.8768788439999997,-0.47572059149999996,9.4087942095,-0.7982507680091346,-0.30804363165999116,0.07630928555569608,9.850286820237907,0.8590216962891394,0.06109542949999991,-0.0946341725,-0.26213175450000037
202542.0,2.8313759879999996,-0.40746630749999996,9.2507110115,-0.8107752507214459,-0.3075113062381329,0.17516647971790691,9.68289073549103,0.8846485213142392,-0.04550285600000015,0.068254284,-0.15808319799999992
202552.0,2.7308578255,-0.29253236949999994,9.104689993,-0.7716048263189371,-0.3173706711826489,0.26603006590598366,9.509917955426019,0.8757112234587062,-0.10051816249999979,0.11493393800000001,-0.14602101850000082
202562.0,2.5835619425,-0.2242780855,9.268657181,-0.6937980482650299,-0.37385999775269735,0.3345115497664852,9.624609026307136,0.856168795637395,-0.14729588299999996,0.06825428399999994,0.16396718800000087
202572.0,2.3956665285,-0.11179581,9.641015681499999,-0.6695501889670727,-0.48204423143756586,0.36488726006819455,9.93483265031866,0.9021124149285114,-0.18789541399999976,0.1124822755,0.37235850049999897
202582.0,2.3633045835,-0.07943386499999999,9.554815227999999,-0.7007252600661954,-0.5984873631428715,0.40592344144108516,9.843069253770473,1.006964177241633,-0.03236194499999989,0.032361945,-0.08620045350000005
202592.0,2.3812507529999998,-0.033931009,9.119007702,-0.6778090869875099,-0.6685675685981999,0.4722721329556496,9.424850552192865,1.0627552492228063,0.01794616949999961,0.045502855999999994,-0.4358075259999996
202602.0,2.492654297,-0.15121854299999998,8.700067613999998,-0.6969954914546835,-0.6954805456639525,0.5199684907541506,9.051373872527376,1.1134914170672057,0.1114035440000003,-0.11728753399999998,-0.41894008800000115
202612.0,2.6541698224999997,-0.367945508,8.445094714,-0.7502873748350785,-0.6355267405286952,0.5490125148365883,8.860001471329324,1.126161677651631,0.1615155254999996,-0.216726965,-0.2549728999999985
202622.0,2.6637803394999997,-0.4684636705,8.2798526615,-0.8049126897639969,-0.4977644120102788,0.5801893312649631,8.710404353635582,1.1100781540597653,0.00961051700000004,-0.10051816250000001,-0.16524205250000001
202632.0,2.4998131515,-0.460128018,8.2223856925,-0.8651335302748092,-0.349345103079185,0.6398778463539171,8.606300602557969,1.1313450775540095,-0.16396718799999954,0.008335652499999957,-0.057466969000000034
202642.0,2.3812507529999998,-0.5810440124999999,8.216403635999999,-0.9202911706255861,-0.2723376858226912,0.7110227026529619,8.574220431199514,1.1944274517686675,-0.11856239850000039,-0.1209159944999999,-0.00598205650000061
202652.0,2.332217503,-0.853963082,8.2404299285,-0.9464030415646731,-0.2912570549143097,0.7736416255560145,8.606577533098566,1.2565949044593385,-0.04903324999999992,-0.2729190695000001,0.024026292500000324
202662.0,2.172957507,-1.1160948364999999,8.179334499,-0.9226892530178262,-0.38611744508945356,0.8279999051093778,8.53632970648517,1.298470631896671,-0.15925999599999985,-0.2621317544999998,-0.06109542949999991
202672.0,2.0951907725,-1.302911519,7.945936228999999,-0.8632677733044273,-0.5390658834294726,0.8828905100845996,8.320174598819833,1.3473377185772788,-0.07776673449999993,-0.18681668250000016,-0.23339827000000035
202682.0,2.0832266594999997,-1.4944353934999999,7.622709045,-0.7902571600350005,-0.7040064790599447,0.9359171034186913,8.042317056975673,1.4128242374820013,-0.011964113000000332,-0.19152387449999986,-0.3232271839999994
202692.0,2.1059780875,-1.6942949205,7.206122553,-0.713782068200365,-0.8345728150723886,0.9833464258416371,7.696361558003724,1.4740986458706773,0.022751428000000296,-0.1998595270000001,-0.41658649199999953
202702.0,2.1526577415,-1.9085702229999997,6.903195134499999,-0.6319784861593907,-0.9049200559032721,1.0137238814725984,7.478681615976615,1.4986371216582641,0.04667965400000007,-0.2142753024999997,-0.30292741850000127
202712.0,2.1322599095,-2.0881299845,6.593206928,-0.5507072295402748,-0.930766636796056,1.0262483641849098,7.237209182361396,1.4909026426406151,-0.020397832000000005,-0.17955976150000041,-0.30998820649999903
202722.0,2.1322599095,-2.2018871245,6.271156542,-0.4790283024901197,-0.9233053542437802,1.0358406937538707,6.980132062143897,1.4679669051440836,0.0,-0.1137571399999997,-0.3220503859999999
202732.0,2.0245828925,-2.171976842,5.9874501575,-0.41507769336779543,-0.899057494945823,1.04410133710356,6.683261081188937,1.4390071135651934,-0.10767701700000032,0.02991028249999994,-0.2837063845000003
202742.0,1.9563286084999998,-2.0749890735,5.7934746205,-0.3569896452029202,-0.8582883489484875,1.0515608743265836,6.457332998843838,1.4035244098829618,-0.068254284,0.09698776850000002,-0.19397553700000003
202752.0,2.0041850605,-1.9673120565,5.726495201,-0.3098256128262774,-0.7335845738934926,1.074210012029714,6.37807351568306,1.3371856218799818,0.047856451999999994,0.10767701699999987,-0.06697941949999997
202762.0,1.8761102115,-1.8008932059999998,5.889285590999999,-0.2685241414070836,-0.5675775820900519,1.1045874676606753,6.437910424778504,1.270575853667393,-0.12807484899999988,0.16641885050000016,0.16279038999999962
202772.0,1.5313083975,-1.7469566309999998,6.2400694615,-0.23175179939681503,-0.43008403427644265,1.1546819078514166,6.658470527320354,1.2537828685153378,-0.344801814,0.05393657500000004,0.3507838705000008
202782.0,1.2296558435,-1.827175028,6.5979141199999995,-0.19524649276210165,-0.3834523273216582,1.2114382697970203,6.9557956274818675,1.2855891885797328,-0.3016525539999999,-0.08021839700000033,0.35784465849999947
202792.0,0.8801468374999999,-1.9565247414999998,6.9390874735,-0.13662437384611612,-0.4295499635253324,1.2426150862253948,7.26316614738693,1.3218440313472701,-0.3495090060000001,-0.12934971349999969,0.34117335350000033
202802.0,0.5449555405,-2.1791356965,6.9726262165,-0.06521248217151614,-0.5659788604952252,1.2559389297351193,7.325511946608598,1.3791183174704922,-0.33519129699999994,-0.22261095500000017,0.03353874300000026
202812.0,0.495824224,-2.424596146,6.732069092,-0.004991641660703782,-0.7375813778805597,1.2604680591440447,7.17253528341025,1.4604214917635965,-0.049131316499999966,-0.2454604494999999,-0.24055712450000044
202822.0,0.7245153019999999,-2.6017042449999996,6.281943857,0.04377111231076579,-0.8630845137329678,1.221032344695233,6.837880228827001,1.4959113526243903,0.22869107799999994,-0.1771080989999998,-0.4501252349999998
202832.0,1.1339429394999998,-2.738212813,5.7360076515000005,0.06668728538945133,-0.8796058004323463,1.1269695699882505,6.456424689980192,1.4311582616420677,0.4094276374999999,-0.13650856800000044,-0.5459362054999994
202842.0,1.4738414284999999,-2.6424018425,5.364924015499999,0.05789257128865191,-0.7311864915012525,1.0219845248222876,6.159294257112493,1.2579497621688076,0.3398984890000001,0.09581097050000009,-0.3710836360000016
202852.0,1.464328978,-2.2581772955,5.325403216,0.02858151183065914,-0.44687061102212416,0.9423119897979985,5.966870491866349,1.0432938856961043,-0.009512450499999936,0.3842245470000001,-0.03952079949999909
202862.0,1.036955171,-1.9205343359999998,5.6522588605,-0.0001954768762233649,-0.12871454167607782,0.9172647697026278,6.059022890575621,0.9262516554304812,-0.42737380699999994,0.3376429595000001,0.32685564450000015
202872.0,0.4419857155,-1.8822884009999998,6.234087405,-0.008456120225912526,0.10603922403416748,0.9524383901180696,6.527036599439659,0.9583604280090783,-0.5949694555,0.03824593499999995,0.5818285445000004
202882.0,-0.15298373999999998,-1.9828065635,6.7415815425,0.005932374127528726,0.18304664129066128,1.0142562068944567,7.028787063721574,1.0306584881397485,-0.5949694555,-0.10051816250000023,0.5074941374999993
202892.0,-0.624683605,-2.1563842685,6.942715934,0.03497814353921836,0.08951793733478916,1.0638183216633397,7.2966791939900695,1.0681509037288366,-0.471699865,-0.17357770500000003,0.20113439150000012
202902.0,-0.7108840584999999,-2.56345831,6.897213077999999,0.07068408937651835,-0.09300859583877781,1.0925970556994742,7.392443634893113,1.0988244470860888,-0.08620045349999994,-0.40707404150000004,-0.04550285600000059
202912.0,-0.501315948,-2.9214010349999997,6.5884016695,0.11571532940722405,-0.24542470875693864,1.0686144864478202,7.224468025099744,1.1025244876075946,0.2095681104999999,-0.3579427249999996,-0.30881140849999955
202922.0,-0.2727229365,-3.0482010194999996,6.1932917409999995,0.16128064018904,-0.2960532196987901,0.9985360263217439,6.908166894662637,1.0539132552806352,0.2285930115,-0.12679998449999985,-0.39510992850000015
202932.0,-0.17455837,-2.934541946,5.788767428499999,0.1852614641114421,-0.23689877536094633,0.9247260522549037,6.492444485602708,0.9723996665832265,0.09816456650000002,0.1136590734999996,-0.4045243125000004
202942.0,-0.232025339,-2.7465484654999996,5.7779801135,0.1900593742251745,-0.06769434036785206,0.8839569062575681,6.401751199732768,0.9066889773065262,-0.05746696900000001,0.1879934805000003,-0.010787314999999076
202952.0,-0.498962352,-2.5455121405,5.9323367844999995,0.18872594267665085,0.1558683741786056,0.8794260315193908,6.474659466788817,0.9128540827658147,-0.266937013,0.20103632499999957,0.1543566709999995
202962.0,-1.017341871,-2.2485667785,6.404036649499999,0.21990275910502557,0.3327993817702788,0.8935492358265289,6.8631423158785525,0.978541204454292,-0.518379519,0.2969453620000002,0.4716998649999997
202972.0,-1.436281959,-2.091758445,6.875638447999999,0.22603061010877765,0.3898210337621855,0.9263247738497304,7.328899189209355,1.030110606545394,-0.41894008800000004,0.1568083334999999,0.47160179850000006
202982.0,-1.5475874365,-2.358695458,7.091188614999999,0.27852487802101106,0.33439810336510556,0.9551017625566129,7.631738144794283,1.049579714004395,-0.11130547749999997,-0.26693701300000017,0.21555016699999996
202992.0,-1.4195125874999999,-2.6843743044999995,7.482572016499999,0.371519511225773,0.1977021710196577,0.9540371117128964,8.075256365889548,1.0427366427688292,0.1280748490000001,-0.32567884649999934,0.39138340149999973
203002.0,-1.1992552285,-2.9500364529999996,7.701652577499999,0.41202162184755337,0.009845402310500014,0.9249913423012068,8.33404947199294,1.0126538066628359,0.22025735899999987,-0.26566214850000014,0.21908056100000017
203012.0,-0.8831868989999999,-3.041042165,7.5472959065,0.4213486613702111,-0.15136367937920822,0.8951479574213558,8.184719423910924,1.000867385595767,0.3160683295000001,-0.0910057120000003,-0.1543566709999995
203022.0,-0.7958096474999999,-2.8267668625,7.298305063,0.4434637283222312,-0.19506323319064225,0.8988777260328676,7.866967692992873,1.0211223774054996,0.08737725149999997,0.21427530249999993,-0.24899084349999967
203032.0,-0.937123474,-2.5550245909999996,7.019305870499999,0.4805031057080549,-0.13377774183611338,0.95909856654368,7.5284132438231826,1.0810410626576576,-0.14131382650000002,0.2717422715000004,-0.2789991925000006
203042.0,-1.330958538,-2.3383956925,6.9475211925,0.5473841226444776,0.005848598323432998,1.0518279097021388,7.450341989789078,1.1857510427800533,-0.393835064,0.21662889849999978,-0.07178467799999932
203052.0,-2.0084999865,-2.323979917,7.218086666,0.647307712979657,0.15640069960046388,1.1368289349327665,7.8444712994743515,1.3175160270064408,-0.6775414485,0.014415775499999839,0.2705654734999996
203062.0,-2.5878768685,-2.646030303,7.6896884645,0.78427068070066,0.1806485588984211,1.1685380767829994,8.534043105818954,1.4188712553753648,-0.579376882,-0.3220503859999999,0.47160179850000006
203072.0,-2.5986641835,-3.2074610155000003,8.1374601035,0.9470784839851949,0.08738689031810408,1.1181766012167031,9.124643480192102,1.4679622048730347,-0.010787314999999964,-0.5614307125000004,0.44777163900000083
203082.0,-2.3520269359999997,-3.6120833944999995,8.513348998,1.1000286676544662,-0.02879095134089846,0.9942721869591217,9.542341867604607,1.4830607439687857,0.24663724750000027,-0.4046223789999992,0.3758888944999992
203092.0,-1.9618203324999999,-3.572562595,8.682121444499998,1.1850296928850939,-0.1380398358694835,0.8319967090964449,9.591203015745744,1.4544995336037507,0.3902066034999998,0.03952079949999954,0.16877244649999845
203102.0,-1.643398407,-3.1033143924999997,8.700067613999998,1.1743709671431646,-0.15855792655592885,0.6654573918711459,9.382030432214522,1.359088416895102,0.3184219254999998,0.4692482025000002,0.017946169500000053
203112.0,-1.5811261795,-2.484416711,8.793426922,1.0891029065369817,-0.05970073239371804,0.5684659546793172,9.273437519170047,1.2299849023890965,0.062272227500000055,0.6188976814999996,0.09335930800000192
203122.0,-1.830117023,-1.8415908035,9.058010338999999,0.9659978530768135,0.10257474546895876,0.5807216566868213,9.422756300936634,1.1317734195068025,-0.2489908434999999,0.6428259075000002,0.264583416999999
203132.0,-2.3664427115,-1.5052227084999998,9.358486095,0.8303683169043342,0.2504617289781943,0.6859754825575913,9.769698485588176,1.1058051284342116,-0.5363256885000001,0.3363680950000001,0.30047575600000087
203142.0,-2.814116284,-1.9385785719999997,9.620617849499999,0.7115253574775363,0.2877663964103211,0.8551781722214336,10.209487016780495,1.1490898744138813,-0.44767357249999984,-0.4333558634999999,0.2621317544999986
203152.0,-2.846478229,-2.8531467509999997,9.819398645,0.6747530154672677,0.22168299494205976,0.9740211316482315,10.614305179348325,1.205467605133358,-0.032361945000000336,-0.914568179,0.19878079550000116
203162.0,-2.8967863434999996,-3.5306881995,9.9522787525,0.7413687423573874,0.10790498100454943,0.9716230492559912,10.950113362401305,1.2269158271518372,-0.0503081144999995,-0.6775414485000004,0.13288010750000012
203172.0,-2.9566069084999995,-3.7485919624999995,9.801354409,0.8748672315131816,-0.042114794850623166,0.8727658550937805,10.902293995464133,1.2364815269701472,-0.05982056499999988,-0.21790376299999936,-0.15092434349999984
203182.0,-2.8237268009999994,-3.673178824,9.484207348,1.0041018813063538,-0.1822734604320278,0.7155518320618872,10.555371369100422,1.2463782037519544,0.13288010750000012,0.07541313849999964,-0.317147061
203192.0,-2.6453438374999996,-3.223053589,9.0269232585,1.0829750555332296,-0.23290197137387933,0.5191691299567373,9.943402937174639,1.2233621232803786,0.17838296349999982,0.4501252349999998,-0.4572840894999999
203202.0,-2.6142567569999997,-2.5945453905,8.801860641,1.0789782515461626,-0.1689496169223031,0.3438368439598909,9.541423107611877,1.144972408240524,0.031087080499999864,0.6285081985000001,-0.22506261750000078
203212.0,-2.5747359574999997,-2.0618481625,8.654564758,1.0139612462508698,-0.022928390383449508,0.25803645793184965,9.26185587484839,1.0465304265076139,0.03952079949999998,0.532697228,-0.14729588299999996
203222.0,-2.4466611085,-2.009186452,8.955040513999998,0.9111055027723399,0.15320325641081026,0.2529732577718141,9.498196217499833,0.9579039326073359,0.12807484899999988,0.052661710500000236,0.3004757559999991
203232.0,-2.3209398555,-2.321626321,9.2040313575,0.7919972532992389,0.29362895736777,0.27269198766084607,9.771944730556536,0.8876026892550775,0.12572125300000003,-0.3124398690000003,0.24899084350000145
203242.0,-2.0815595289999997,-2.4652937434999997,9.542851115,0.6854117412091971,0.35305043708116896,0.3326457927961033,10.073557996932745,0.8396946406733676,0.23938032650000007,-0.14366742249999964,0.3388197574999996
203252.0,-1.9390689044999998,-2.412632033,9.6063001405,0.5266007419117291,0.32400466766947933,0.36248917767595434,10.09265990373335,0.7167187523609124,0.14249062449999994,0.05266171049999979,0.06344902550000064
203262.0,-1.7666679975,-2.424596146,9.6337587605,0.3901718449418364,0.24033532865812318,0.2801532702131218,10.090049065296917,0.5371042669702326,0.17240090699999988,-0.011964112999999887,0.0274586199999991
203272.0,-1.7463682319999998,-2.5621834454999997,9.5607972845,0.32941867900916577,0.1907749592184922,0.11094883522002755,10.051041275680626,0.39651153221771746,0.020299765500000122,-0.13758729949999982,-0.07296147599999969
203282.0,-2.0228176955,-2.382623684,9.39673203,0.3880407979251513,0.24007003861182005,-0.056389842802684796,9.90289149149952,0.45977070226883787,-0.2764494635000003,0.17955976149999975,-0.16406525449999876
203292.0,-2.421458018,-2.0271326215,9.327300948,0.5297981851013828,0.3303995540487865,-0.17523105690023066,9.847399076540345,0.6485028184632106,-0.3986403224999999,0.35549106250000007,-0.06943108200000125
203302.0,-2.7039876044999995,-1.9289680550000001,9.533240597999999,0.6974038984996502,0.4249946541776272,-0.2173318891168379,10.095303017832379,0.8451188104338732,-0.2825295864999995,0.09816456649999972,0.20593964999999947
203312.0,-2.803328969,-2.1540306725,10.0036655985,0.8730014745427997,0.4964065458522272,-0.20374275556081006,10.609987127848825,1.0247253991984164,-0.0993413645000003,-0.22506261749999967,0.4704250005000006
203322.0,-2.7602777754999996,-2.297698095,10.524496779999998,1.02062142267648,0.4814839807476757,-0.20374275556081006,11.120412870299205,1.1467371200873817,0.043051193500000196,-0.14366742250000009,0.5208311814999984
203332.0,-2.5543381254999997,-2.2617076894999997,10.8595900105,1.0965641890892572,0.3783629472228427,-0.2652952822908941,11.382910881153277,1.1899550947115363,0.20593964999999992,0.03599040550000021,0.33509323050000184
203342.0,-2.2766137975,-2.0390967344999997,10.9398084075,1.0984299460596394,0.23713788546846956,-0.3641542217823569,11.358710044209404,1.1812667016245542,0.2777243279999997,0.22261095499999994,0.08021839699999944
203352.0,-2.1246107225,-1.5566095545,10.794964187,1.0531299253241264,0.1193613222146402,-0.4800650280658043,11.111627055743691,1.1635257607916762,0.1520030750000001,0.4824871799999997,-0.14484422049999957
203362.0,-2.0216408974999998,-0.9808611329999999,10.59510466,0.9990386811463181,0.04874879133745362,-0.5802539084472867,10.830760048908312,1.1563517325415262,0.10296982500000018,0.5757484215000002,-0.1998595269999992
203372.0,-1.923476331,-0.5798672145,10.478993924,0.9673295392960852,0.028232445980260274,-0.6279520115750398,10.6698322780444,1.153623525003692,0.09816456649999972,0.4009939184999999,-0.11611073600000132
203382.0,-1.716359883,-0.4996488175,10.5436197475,0.9771889042406011,0.06686879963165875,-0.5997056029607636,10.694085167449943,1.1484843930840587,0.20711644800000006,0.080218397,0.06462582350000012
203392.0,-1.484138411,-0.5810440124999999,10.8931287535,1.0256846228365157,0.18011623347656283,-0.5133728915108641,11.009111363220745,1.1610437239067677,0.23222147199999998,-0.08139519499999992,0.3495090059999999
203402.0,-1.4889436694999998,-0.5330894939999999,11.349236045,1.0845737771280564,0.32400466766947933,-0.40705441479637755,11.45889595313111,1.2029017413366105,-0.004805258499999798,0.04795451849999999,0.4561072915000004
203412.0,-1.6038776074999999,-0.3619634515,11.740717512999998,1.0845737771280564,0.4148682538575561,-0.31512443243533217,11.855289479389636,1.203212098513943,-0.11493393800000007,0.17112604249999996,0.3914814679999985
203422.0,-1.8133476514999998,-0.1189546645,11.9908851545,1.004367171352657,0.4252616895531824,-0.263164235274209,12.127807168066921,1.121987671153308,-0.2094700439999999,0.24300878699999998,0.2501676415000027
203432.0,-2.09470044,0.0665871535,12.0938549795,0.8825938041117605,0.34532211915333805,-0.26263190985235074,12.27410005041202,0.9834605783180707,-0.28135278850000023,0.185541818,0.10296982499999885
203442.0,-2.2251288849999997,0.11326680749999998,12.042370067,0.7669500332038682,0.20836089676158706,-0.28901081616699303,12.246742618146271,0.8456677057758673,-0.13042844499999973,0.04667965399999999,-0.051484912499999425
203452.0,-2.1868829499999998,-0.12493672099999999,11.844864136,0.6822142980195436,0.06633647420980048,-0.3121940246212337,12.045699341323191,0.753181243288818,0.03824593499999995,-0.23820352849999998,-0.19750593100000025
203462.0,-1.9641739285,-0.5845744065,11.695214657,0.6374483480351409,-0.027459265121626785,-0.3137927462160605,11.87340525424116,0.7110276332404859,0.22270902149999983,-0.45963768550000006,-0.1496494790000007
203472.0,-1.7319524564999997,-0.9964537065,11.660499116,0.6225275282598415,-0.03385415150093401,-0.302866985098576,11.830461484448135,0.6931197859517912,0.2322214720000002,-0.41187929999999995,-0.03471554099999885
203482.0,-1.666149835,-1.1939596375,11.624606777,0.6187960143190776,0.04821646591559535,-0.3060644282882296,11.803943307578361,0.6920323469217077,0.06580262149999982,-0.1975059309999999,-0.035892339000000106
203492.0,-1.8588505075,-1.1700314115,11.632942429499998,0.6427785835707316,0.14760773082891643,-0.32871356599136003,11.838481671278247,0.7368887013412636,-0.1927006725,0.023928225999999997,0.008335652499997792
203502.0,-2.095877238,-0.853963082,11.7347354565,0.6619632427086534,0.23900364243885147,-0.3681510257694239,11.950981992130341,0.7942627106766833,-0.2370267305,0.31606832949999986,0.10179302700000115
203512.0,-2.4191044219999998,-0.5151433245,11.879579676999999,0.655301320953791,0.3130806518812468,-0.4110512187834445,12.134325368618903,0.8345072919331054,-0.32322718399999983,0.33881975750000004,0.14484422049999957
203522.0,-2.707616065,-0.3021428865,12.071103551499998,0.6225275282598415,0.33386403261399533,-0.45821525116008727,12.374732968041958,0.8420017411563283,-0.2885116430000001,0.21300043800000001,0.19152387449999964
203532.0,-2.8607959379999994,-0.1297419795,12.182409028999999,0.5607079661542023,0.2768406352928366,-0.5083096913508285,12.514474664562734,0.8058615904603581,-0.15317987299999958,0.172400907,0.1113054775000002
203542.0,-2.8046038335,-0.08659271949999998,12.128570520499999,0.476771591767291,0.1550672680519402,-0.5600028531363965,12.448916572645786,0.7516383464528091,0.05619210449999956,0.04314926000000001,-0.05383850850000016
203552.0,-2.535215158,-0.1919161405,11.8747744185,0.37631567601025334,0.005848598323432998,-0.5914467049403265,12.143904445959684,0.7010398696922825,0.2693886754999997,-0.10532342100000001,-0.253796101999999
203562.0,-2.0719490119999997,-0.470915333,11.54438838,0.28438569364920807,-0.11086156875742781,-0.5970422305222203,11.738297876074762,0.6705407781832863,0.4632661460000005,-0.2789991925,-0.33038603850000037
203572.0,-1.5320929295,-0.6983315465,11.173304744,0.22150148069985237,-0.13590878885279845,-0.6053028738719094,11.29945638496622,0.6587303499591121,0.5398560824999996,-0.22741621349999996,-0.37108363599999983
203582.0,-1.2387760279999998,-0.67077486,10.884793100999998,0.18792658187923744,-0.058634336220749504,-0.6410088197092094,10.975574053867645,0.6705570016828214,0.29331690150000034,0.027556686499999983,-0.2885116430000014
203592.0,-1.3117375039999999,-0.40383784699999997,10.6932692265,0.16847488736576066,0.06740112505351702,-0.693768377667746,10.780990076819553,0.7171061714858699,-0.07296147600000014,0.266937013,-0.19152387449999786
203602.0,-1.6181953164999998,0.035500073,10.675323057,0.15008958902525238,0.17425367251911386,-0.7356021745087982,10.797330165779009,0.7707151135550931,-0.3064578124999999,0.43933792,-0.017946169500000053
203612.0,-1.8372758774999998,0.29645502949999997,10.686012305499998,0.1285051021658385,0.2166215401112762,-0.7566525906171017,10.846857942642037,0.7974720031514617,-0.21908056099999995,0.26095495649999995,0.010689248499998527
203622.0,-1.8253117644999999,0.30243708599999997,10.744754139,0.11198556079571216,0.20063257883375615,-0.7705087595486847,10.902888274955766,0.8040385227446918,0.011964112999999887,0.005982056499999999,0.05874183350000095
203632.0,-1.6541857219999998,0.2401648585,10.790158928499999,0.10319259202416473,0.1699898331564917,-0.7926255718299567,10.918861628595502,0.817190645776127,0.17112604250000008,-0.06227222749999997,0.045404789499999154
203642.0,-1.3944075635,0.2162366325,10.727984767499999,0.08054170899178233,0.15080517401857002,-0.8123443017189887,10.820387604244727,0.8301400074285057,0.25977815849999986,-0.023928225999999997,-0.06217416099999973
203652.0,-1.067551919,0.20064405899999999,10.549601804,0.009129817317182338,0.15000581322115664,-0.8203379096931228,10.605377096602112,0.8339900380964198,0.32685564449999993,-0.015592573500000012,-0.17838296349999894
203662.0,-0.8617103355,0.246146915,10.3580779295,-0.11104482832888722,0.18810984145069687,-0.814742384111229,10.396774086208978,0.8435172901704195,0.20584158350000004,0.04550285600000001,-0.19152387449999964
203672.0,-0.7874739949999999,0.33950622299999994,10.124581592999998,-0.2328181955697836,0.2350068384517845,-0.8160740703305006,10.16083324346834,0.8805733442327583,0.07423634050000005,0.09335930799999995,-0.2334963365000018
203682.0,-0.8054201644999999,0.2821373205,10.043186397999998,-0.31675282462744286,0.2701804588672262,-0.8451180944129383,10.079379749467439,0.9421010698260163,-0.017946169499999942,-0.05736890249999993,-0.0813951950000007
203692.0,-0.8497462225,0.14925721299999997,9.936686179,-0.31648578925188775,0.2664489449264623,-0.8733627576979625,9.974070311473405,0.9663957789563266,-0.04432605800000011,-0.13288010750000004,-0.10650021899999729
203702.0,-0.7610941065,0.12287732449999998,9.776249385,-0.24853837614249652,0.2240810773343,-0.888285322802514,9.806600589069497,0.9492283541599547,0.088652116,-0.02637988849999999,-0.16043679400000066
203712.0,-0.520536982,0.03187161249999999,9.6217946475,-0.10438290657402487,0.1753200686920824,-0.9045395741263372,9.635917537420744,0.9272673610300827,0.2405571245,-0.09100571199999999,-0.15445473750000005
203722.0,-0.22476841799999997,-0.005197524499999999,9.637387221,0.08107577974289258,0.14840709162632984,-0.9093357389108176,9.640009351835985,0.9249267176195023,0.295768564,-0.037069136999999995,0.015592573499999318
203732.0,0.0157887065,0.11571846999999999,9.7008362465,0.24761509696819153,0.15080517401857002,-0.9018744563585419,9.701539255652182,0.9473293892777493,0.24055712449999997,0.12091599449999998,0.06344902550000064
203742.0,0.13670470099999998,0.36470931349999997,9.855290984,0.3456729303329889,0.174520707894669,-0.8848208442373053,9.8629844082783,0.9658442828147141,0.12091599449999998,0.24899084349999998,0.15445473750000005
203752.0,0.239674526,0.5741793574999999,10.2215693615,0.3717865466013281,0.20596281436934685,-0.8576425771252496,10.240488563781904,0.9571816479826195,0.10296982500000001,0.20947004399999997,0.3662783775000005
203762.0,0.2252587505,0.5598616485,10.6728713945,0.3659239856438792,0.2283449166969221,-0.8293979138402253,10.689919100427016,0.9348490058471176,-0.014415775500000005,-0.014317708999999956,0.45130203299999927
203772.0,0.231240807,0.46042221749999995,11.174481542,0.36885439345797766,0.2048964181963783,-0.814742384111229,11.186353233368251,0.9175190778562631,0.005982056499999999,-0.09943943100000002,0.501610147500001
203782.0,0.275566865,0.3982480565,11.50123912,0.3747169544154266,0.10257474546895876,-0.8176727919253275,11.511430836651467,0.9052751896464161,0.044326058,-0.06217416099999995,0.3267575779999987
203792.0,0.497001022,0.42217628249999994,11.631765631499999,0.3709871858039147,-0.04104839867765464,-0.8219366312879496,11.650030666720115,0.9027160621799586,0.22143415700000002,0.02392822599999994,0.1305265114999994
203802.0,0.7280456959999999,0.5813382119999999,11.526442210499999,0.3454058949574338,-0.1532294363495902,-0.8035495876181893,11.564033668413094,0.8879619542506993,0.2310446739999999,0.15916192949999997,-0.10532342099999958
203812.0,0.9040750634999999,0.8171881445,11.306184851500001,0.3152954747020276,-0.20758771590295358,-0.7601170691823104,11.371673758960991,0.8486942058384089,0.17602936749999998,0.23584993250000008,-0.22025735899999788
203822.0,1.0201857994999999,1.0087120189999998,11.073963379499999,0.2811882504595545,-0.1969289901610242,-0.689771573680679,11.166509926260915,0.7704756214315066,0.11611073599999999,0.19152387449999986,-0.23222147200000265
203832.0,1.048919284,1.144043789,10.9638347,0.2294950886739864,-0.1279151808786644,-0.5855841439828774,11.07315398540184,0.6418248039059113,0.028733484500000017,0.13533177000000007,-0.11012867949999894
203842.0,0.992629113,1.2422083555,10.936278013499999,0.17273872672838278,-0.027192229746071654,-0.4734031063109419,11.051270105422844,0.5046668070471397,-0.05629017099999989,0.09816456650000016,-0.027556686500000538
203852.0,0.8813236355,1.239756693,10.874005786,0.11118619999829876,0.06633647420980048,-0.356425903854526,10.979878407445627,0.3792127685339261,-0.11130547749999997,-0.0024516625000001735,-0.06227222749999939
203862.0,0.81787461,1.205041152,10.875182584,0.05229704570675809,0.13934708747922728,-0.24824167016965748,10.972266825548541,0.289441736083826,-0.06344902550000009,-0.03471554099999996,0.0011767979999994793
203872.0,0.6946050195,1.055391673,10.992470117999998,0.013393656679804484,0.174520707894669,-0.16803680972351007,11.064841933424772,0.24263807810269183,-0.12326959049999997,-0.14964947900000003,0.11728753399999903
