timestamp,ax,ay,az,gx,gy,gz,acc_mag,gyro_mag,dax,day,daz
184022.0,-0.6176228169999999,1.4008799525,8.696243020499999,0.20190143319995602,0.1965275644330655,-0.06391744786653633,8.829981045109347,0.2889164454508611,0.0,0.0,0.0
184032.0,-1.126391819,1.270353441,9.0889012865,0.21389359049040907,0.14696544966418254,-0.09775763673345439,9.246117184565207,0.27731907072465145,-0.5087690020000001,-0.13052651150000005,0.39265826600000153
184042.0,-1.2412276904999997,1.3793053224999998,9.135580940499999,0.24320464994840185,0.14190399483339897,-0.14572102990751057,9.322122530452367,0.3170486777507637,-0.11483587149999974,0.1089518814999999,0.046679653999998294
184052.0,-1.7667660639999998,1.6294729639999999,9.3103354435,0.29276501938803284,0.16268737556614746,-0.20301146260422442,9.61555981395786,0.3916531535613908,-0.5255383735000001,0.25016764150000004,0.17475450300000084
184062.0,-2.109214282,1.6845863369999998,9.546185375999999,0.3500554520847467,0.1594899323764938,-0.2560363106090642,9.92049753022277,0.4620935515823783,-0.34244821800000014,0.055113372999999966,0.23584993249999897
184072.0,-2.3856637454999996,1.6773294159999999,9.807140332500001,0.38869180573614515,0.17414546210549023,-0.3039997037831203,10.23156033934806,0.5232817421987747,-0.27644946349999966,-0.007256920999999972,0.26095495650000267
184082.0,-2.6382830494999996,1.5588650839999998,10.160277799,0.4030820454188384,0.1688169718991515,-0.36288885807466104,10.612343885883345,0.5680340030798904,-0.252619304,-0.11846433200000006,0.353137466499998
184092.0,-2.814312417,1.4750182264999998,10.485956645499998,0.4036143708406967,0.1328439906862964,-0.4255077809777135,10.956793322879335,0.6013393034578483,-0.17602936750000042,-0.08384685749999998,0.3256788464999989
184102.0,-2.9507229185,1.4870804059999998,10.852235022999999,0.39029052733097197,0.07875100117923614,-0.4881249585515141,11.344125302115543,0.6299161778141101,-0.1364105014999999,0.012062179499999992,0.3662783775000005
184112.0,-3.1590161645,1.5720059949999998,11.178992601,0.3524535344769869,0.01586678822988045,-0.5499445206571533,11.72264737800728,0.6533867344344225,-0.2082932460000002,0.08492558900000002,0.3267575780000005
184122.0,-3.358973758,1.5277780035,11.418470994,0.28770356455724927,-0.04808382089244378,-0.6096330357461074,11.99992875711062,0.6758238181387058,-0.19995759349999975,-0.0442279914999999,0.23947839300000062
184132.0,-3.5169588894999997,1.4283385725,11.4915305365,0.22295184930825965,-0.11549890857997676,-0.6831759744373923,12.102248757129246,0.727857772536379,-0.15798513149999982,-0.09943943099999997,0.07305954249999935
184142.0,-3.6462105364999995,1.283494352,11.680602748499998,0.18431549565686117,-0.18211463547009632,-0.7652465918539217,12.30360473992745,0.807923442372904,-0.1292516469999998,-0.1448442205,0.18907221199999924
184152.0,-3.5983540844999995,1.236814698,11.791908225999999,0.16912764050600654,-0.2295457032222942,-0.8539791310253135,12.390599756469946,0.9003198014470726,0.047856451999999994,-0.04667965399999985,0.1113054775000002
184162.0,-3.451156268,1.2990869255,11.880560341999999,0.15207402838476994,-0.2322090756608376,-0.9387131208803862,12.439687313838071,0.97889217396066,0.1471978164999994,0.06227222749999983,0.08865211600000045
184172.0,-3.2308989089999995,1.3733232659999999,12.088853588,0.10704104302481224,-0.17305463132299376,-1.007993965538301,12.588292403070989,1.0283275377406786,0.22025735900000054,0.07423634049999994,0.2082932460000002
184182.0,-3.024959259,1.4703110345,12.426398480999998,0.021772982418629263,-0.07739488035043655,-1.0738103316310073,12.87352213907994,1.0768159817653868,0.20593964999999947,0.09698776850000002,0.3375448929999987
184192.0,-2.7939145849999996,1.5324851954999998,12.783164408,-0.09307142769184962,0.010004227272431498,-1.134830532939233,13.174360017270683,1.1386846419035699,0.2310446740000005,0.06217416099999995,0.3567659270000014
184202.0,-2.576010822,1.5779880515,13.036960509999998,-0.21058095557012385,0.07875100117923614,-1.1926532910578052,13.382384592629121,1.2136589025366937,0.21790376299999936,0.04550285600000015,0.253796101999999
184212.0,-2.2947561,1.6797810784999998,13.258394667,-0.31210326750013,0.12458334733660723,-1.2510083745982354,13.559963096413938,1.2953576391610042,0.28125472200000035,0.10179302699999981,0.2214341570000009
184222.0,-2.0037927945,1.8018738709999997,13.391274774499998,-0.3893777201321789,0.15735888535980874,-1.3027015363838037,13.65972822190993,1.3687249981766745,0.29096330550000005,0.12209279249999994,0.13288010749999835
184232.0,-1.6554605864999998,1.941912833,13.5421010515,-0.4501308860648496,0.18586883869113613,-1.337075796001832,13.78042365435339,1.423002713995954,0.348332208,0.1400389620000002,0.15082627700000195
184242.0,-1.2508382075,2.0963675704999996,13.726466071499999,-0.5076866088078665,0.21411524730541234,-1.3581262121101354,13.941851527828952,1.4656390551265048,0.40462237899999987,0.1544547374999996,0.18436501999999955
184252.0,-0.910841652,2.2364065324999998,13.884451203,-0.5735029749005727,0.2370296750548459,-1.3583915021564388,14.092875217716038,1.4934243208838,0.33999655549999996,0.1400389620000002,0.15798513150000026
184262.0,-0.552898927,2.3525172684999998,14.046064794999998,-0.6545089414733856,0.24688903999936188,-1.3440030078029974,14.252437368654064,1.515150235958112,0.357942725,0.11611073599999999,0.16161359199999836
184272.0,-0.1638691215,2.473433263,14.286719985999998,-0.7403093275014269,0.2439586321852634,-1.3200221838805952,14.50017562493185,1.5329815003907306,0.3890298055,0.12091599450000023,0.2406551910000001
184282.0,0.233594403,2.590720797,14.4554924325,-0.8295741920946768,0.21438053735171547,-1.2904440890470474,14.687670409536905,1.5489991290963367,0.3974635245,0.11728753399999992,0.168772446500002
184292.0,0.6309598609999999,2.7810678735,14.5561086615,-0.9217694645020252,0.14563376344491086,-1.2464774998600583,14.8328267106645,1.5571044590523977,0.3973654579999999,0.19034707650000016,0.10061622899999989
184302.0,1.0906956129999998,2.9822022649999997,14.493836433999999,-1.0190296823986613,0.04997401247235364,-1.1891888124925962,14.837602294344407,1.566872339180718,0.45973575199999994,0.20113439149999968,-0.062272227500001165
184312.0,1.5575902195,3.118710833,14.3513458095,-1.1149547234175214,-0.04168893451313655,-1.1212413993832053,14.768668562047386,1.5817851555197662,0.46689460650000014,0.13650856800000044,-0.14249062449999883
184322.0,2.0363508725,3.1833366565,14.1106906185,-1.2076840665759803,-0.11629826937739016,-1.0458309583922862,14.607941226455289,1.6018078803818516,0.4787606529999999,0.06462582349999968,-0.2406551910000001
184332.0,2.4876529055,3.1929471735,13.8425768075,-1.294285558730687,-0.17039125888445042,-0.9664254587435522,14.422214160888789,1.6242495054488149,0.45130203300000016,0.00961051700000004,-0.2681138109999992
184342.0,2.9282656899999995,3.152249576,13.5744629965,-1.3800859447587281,-0.2066295301436087,-0.8894180414870583,14.239995189043116,1.6548103910027379,0.4406127844999994,-0.040697597499999905,-0.268113811000001
184352.0,3.3328880689999996,3.213246939,13.2200506655,-1.4640205738163874,-0.24313483677832207,-0.8076144594460841,14.007242354220278,1.6895892709529368,0.4046223790000001,0.060997362999999805,-0.3544123309999989
184362.0,3.749474561,3.3114115055,12.792774925,-1.5428937480432634,-0.2791078179911772,-0.7143527908657671,13.736050958119392,1.7229980271702274,0.4165864920000004,0.09816456650000038,-0.4272757405000007
184372.0,4.144486423,3.3437734504999996,12.345003285999999,-1.61350627892045,-0.3017569556943076,-0.6011053570208631,13.444578637132917,1.7480810686763908,0.39501186200000005,0.03236194499999945,-0.44777163900000083
184382.0,4.468890405,3.3880014419999998,11.894878051,-1.6750588056505338,-0.32707121116523336,-0.47027198563286415,13.150576377902858,1.7702975230258788,0.32440398199999976,0.04422799150000012,-0.4501252349999998
184392.0,4.737004216,3.376037329,11.4723095025,-1.724620920419417,-0.3667739609896004,-0.3199886650606404,12.862764955885458,1.7919914071712533,0.2681138110000001,-0.011964112999999887,-0.42256854849999925
184402.0,4.9705005525,3.2276627144999996,11.013848614999999,-1.7504692466414529,-0.4251290445300308,-0.1531823124597863,12.5071397071878,1.8078556659177856,0.2334963365,-0.14837461450000022,-0.45846088750000114
184412.0,5.136919402999999,3.0576154035,10.585298009999999,-1.7515338974851695,-0.502935822583938,0.02268229895891831,12.156705428246104,1.8224516241491384,0.1664188504999995,-0.1700473109999998,-0.42855060499999986
184422.0,5.241066026,2.90080707,10.1172266055,-1.7302164460013107,-0.5964645265398102,0.21053906766807598,11.757624289510636,1.8422121431714398,0.10414662300000099,-0.1568083334999999,-0.46807140449999807
184432.0,5.275781567,2.7439987365,9.513823430999999,-1.6945105001640106,-0.6811985163948828,0.39706240482870997,11.219457940776602,1.868971858330947,0.03471554099999974,-0.1568083334999999,-0.6034031745000021
184442.0,5.2721531065,2.5093256019999997,8.94170347,-1.6540083895422304,-0.7371555175430731,0.5710630046062846,10.679249706821182,1.8987508959708843,-0.003628460499999875,-0.23467313450000038,-0.5721199609999985
184452.0,5.2266502505000005,2.265140017,8.395767264499998,-1.6127069181230365,-0.7646025653599359,0.7285423176844811,10.145818848043575,1.9277485819924685,-0.0455028559999997,-0.24418558499999987,-0.5459362055000021
184462.0,5.153590707999999,2.0544931749999997,7.8067798655,-1.5751369606446064,-0.7563419220102467,0.869500344063299,9.577382275970908,1.9517019229649486,-0.07305954250000113,-0.21064684200000006,-0.5889873989999979
184472.0,4.9812878675,1.8030506689999999,7.278887896,-1.5349001400691291,-0.7171714976077379,0.9971362722616444,9.002579049162486,1.9658418406435971,-0.17230284049999955,-0.25144250599999984,-0.5278919695000006
184482.0,4.722686507,1.6091731985,6.795223918,-1.4880031430680416,-0.6636125788517879,1.1098496353554381,8.430200135342567,1.971370391805987,-0.25860136050000015,-0.19387747049999993,-0.48366397800000005
184492.0,4.4378033245,1.313502701,6.377460628,-1.4344442243120916,-0.6073885423280426,1.204710025530582,7.8798091191454445,1.9692326728011593,-0.2848831824999998,-0.29567049749999996,-0.4177632899999999
184502.0,4.133699108,1.0190090015,6.0039253295,-1.375555070020551,-0.5522309019772659,1.279853431145946,7.360228734409666,1.9583502048852033,-0.30410421649999986,-0.29449369950000004,-0.37353529849999934
184512.0,3.811648722,0.7663896975,5.679521347500001,-1.3076076569111597,-0.5207887955025879,1.333677639948199,6.88280334493632,1.9390087161308809,-0.3220503859999999,-0.252619304,-0.32440398199999976
184522.0,3.4956784589999996,0.5868299359999999,5.4102307385,-1.2321989612494928,-0.5261172857089267,1.3811087077003967,6.467977574660617,1.9242076137755815,-0.31597026300000053,-0.17955976150000008,-0.26929060900000046
184532.0,3.185592186,0.39530606149999997,5.12887795,-1.1559909047904122,-0.5596921845295416,1.4266740184822129,6.050591168122261,1.9196273253925595,-0.3100862729999996,-0.1915238744999999,-0.28135278850000045
184542.0,2.8216674045,0.18573795099999998,4.7973151135,-1.0805822091287451,-0.6260408760441061,1.4693071761206784,5.568710607158085,1.9283279459063372,-0.3639247815000002,-0.2095681105,-0.33156283649999985
184552.0,2.5211916485,-0.015298373999999998,4.501644616,-0.9979792662903576,-0.7065127718658086,1.510343357493569,5.159597427849868,1.9432601396313092,-0.300475756,-0.201036325,-0.29567049749999974
184562.0,2.2542546354999997,-0.212804305,4.1365430365,-0.8871299148376938,-0.7957776364590586,1.5452499425334556,4.715711815486228,1.9514248428745462,-0.26693701300000017,-0.197505931,-0.3651015795000001
184572.0,2.0591023004999998,-0.38883367249999995,3.85401345,-0.7493693316485293,-0.8559984769698709,1.5806888529952006,4.386856913733925,1.9475279299084223,-0.19515233499999995,-0.17602936749999995,-0.28252958649999993
184582.0,1.831686087,-0.4929802955,3.529609468,-0.6084095599404593,-0.8773159284537296,1.6243884068066345,4.007024643005815,1.9438320727658984,-0.22741621349999974,-0.10414662300000005,-0.3244039820000002
184592.0,1.5395459834999998,-0.6390013139999999,3.30091839,-0.4706489767512949,-0.8837108148330369,1.6702207529640056,3.697916539356304,1.9473296144211336,-0.2921401035000002,-0.14602101849999993,-0.22869107799999977
184602.0,1.2235757205,-0.824543132,3.1129249095,-0.32302902861761446,-0.8834437794574818,1.7117892597587545,3.4448962847248454,1.9532135404551096,-0.31597026299999986,-0.18554181800000003,-0.1879934805000003
184612.0,0.918294706,-0.9933155785,3.0100531509999997,-0.1620852369742094,-0.8794469754704147,1.7392345622463654,3.300054693092744,1.9556675252254285,-0.3052810145,-0.1687724465,-0.10287175850000008
184622.0,0.524459642,-1.0807908965,2.956116576,-0.0016755160819145565,-0.8682559243066271,1.7466958447986412,3.190892052223955,1.9505941483774973,-0.393835064,-0.08747531799999997,-0.05393657499999982
184632.0,0.212019773,-1.1346294049999999,3.0208404659999997,0.14541210662990756,-0.840276551067906,1.7357700836811565,3.2338542626186357,1.9339356624333737,-0.312439869,-0.05383850849999994,0.06472388999999978
184642.0,-0.1387640975,-1.2123961395,3.1225354265000003,0.28370676057018224,-0.7909814716745781,1.714719667572853,3.3525195545405895,1.909556166465617,-0.3507838705,-0.07776673450000016,0.1016949605000006
184652.0,-0.46679654,-1.2447580844999997,3.3069004465,0.41240733961224413,-0.7368902274967699,1.6784813963136946,3.564114512995616,1.8789323614535625,-0.32803244249999997,-0.03236194499999967,0.18436501999999955
184662.0,-0.7696258919999999,-1.3740097315,3.6277740345,0.5237890164867662,-0.6817325871459932,1.6302509677640833,3.954866774151299,1.8430497747116525,-0.3028293519999999,-0.12925164700000025,0.320873588
184672.0,-1.0844193569999998,-1.5116950975,3.867154361,0.5994647475239884,-0.6577500178943391,1.5761597235862752,4.291394908586618,1.8100476634109848,-0.31479346499999994,-0.13768536600000014,0.23938032650000007
184682.0,-1.3789130565,-1.7523502884999997,4.1604712625,0.6524895955288281,-0.6678764182144101,1.494621431591604,4.720344677783662,1.7622981603727614,-0.29449369950000026,-0.24065519099999966,0.2933169014999999
184692.0,-1.6172146514999999,-2.037233471,4.469282670999999,0.7193723577945028,-0.7094449250091591,1.3938984804590115,5.171091861269713,1.7215579178772973,-0.2383015949999998,-0.2848831825000002,0.30881140849999955
184702.0,-1.7943227505,-2.1294159809999997,4.602162778499999,0.8118346655774064,-0.7552755258372781,1.2859812821496979,5.3790248923862505,1.6980178156313135,-0.17710809900000002,-0.09218250999999977,0.13288010750000012
184712.0,-2.009774851,-2.1294159809999997,4.757794314,0.9149556991022393,-0.7632691338114123,1.1783311192159398,5.586610251859439,1.6757648786335093,-0.21545210050000008,0.0,0.15563153550000042
184722.0,-2.2193429614999998,-2.1820776915,4.932548817,1.01141481087221,-0.7264985371303957,1.0765417719103785,5.832408084538466,1.6461173198688515,-0.2095681104999998,-0.052661710500000236,0.17475450299999995
184732.0,-2.3856637454999996,-2.20845758,5.183991323,1.124395209341559,-0.6489570491227915,0.9792832993429944,6.119022996050254,1.626162851244767,-0.16632078399999983,-0.02637988850000017,0.25144250600000007
184742.0,-2.6382830494999996,-2.1677599825,5.4090539405,1.2384420039838764,-0.5511662511335493,0.8726977872529527,6.396685495023653,1.6121799718072451,-0.252619304,0.04069759750000035,0.2250626174999999
184752.0,-2.9160073774999997,-2.127062385,5.7130600905,1.3556844964865955,-0.4339220133015782,0.7567869809695053,6.757702939089597,1.6121089610217876,-0.27772432800000013,0.040697597499999905,0.3040061500000002
184762.0,-3.2056958184999997,-2.074302608,6.203882922999999,1.4870501932964528,-0.2948279985638901,0.6248889587377898,7.284736118254044,1.6397341360332187,-0.289688441,0.0527597769999999,0.49082283249999925
184772.0,-3.4834201465,-1.9294583875,6.8312143235,1.610689317507731,-0.11763170092591382,0.4714064496466604,7.907117978108569,1.6823737204808904,-0.27772432800000013,0.1448442205,0.627331400500001
184782.0,-3.716916483,-1.5930902925000001,7.5722047974999995,1.695690342738359,0.08594699368520876,0.30806457561101513,8.58438642635202,1.7255887131428662,-0.2334963365,0.33636809499999987,0.7409904739999993
184792.0,-3.951491551,-1.1274705505,8.514329663,1.7487169360724506,0.2703375384999057,0.13832781519606258,9.454061821783844,1.7748881349780115,-0.23457506800000028,0.4656197420000001,0.9421248655000003
184802.0,-4.163413257499999,-0.7670761629999999,9.566583208,1.7884196858968175,0.3926449764919123,-0.027679176607378075,10.461449711591465,1.83122395880058,-0.2119217064999992,0.3603943875000001,1.052253545000001
184812.0,-4.284329252,-0.4678752715,10.5349898955,1.8017435294065423,0.4334141224892478,-0.176363775584775,11.382460037597813,1.861513289952555,-0.12091599450000068,0.2992008914999999,0.9684066874999999
184822.0,-4.3358141645,-0.20564545049999997,11.323934887999998,1.7761622385600613,0.4022373060608732,-0.30826354314574245,12.127368876555776,1.8470445474071717,-0.05148491250000031,0.26222982100000003,0.7889449924999976
184832.0,-4.284329252,-0.0536423755,11.776413718999999,1.7186065158170445,0.3209660494417572,-0.41404969443837075,12.531650917777894,1.7966815829655398,0.05148491250000031,0.15200307499999996,0.4524788310000005
184842.0,-4.158607999,0.032558078,11.903311769999998,1.6256118826122825,0.23756374580595616,-0.4966526372767584,12.608882250683854,1.7163083546745224,0.12572125300000003,0.0862004535,0.1268980509999995
184852.0,-4.0496561175,0.0744324735,11.838685946499998,1.513163809564792,0.17681057987328555,-0.5755258115036341,12.512383458117524,1.6285443363441716,0.10895188150000035,0.0418743955,-0.06462582350000012
184862.0,-3.9562968095,0.028929617499999997,11.7010005805,1.4249653411445102,0.13390864153001295,-0.6690545154595063,12.35178270341937,1.579902431290065,0.0933593079999997,-0.045502856,-0.1376853659999977
184872.0,-3.8270451624999997,0.022947561,11.5297764715,1.3911234069483402,0.09740333489529954,-0.7884280549789104,12.148355722036026,1.6019770725219857,0.12925164700000025,-0.005982056499999999,-0.17122410900000062
184882.0,-3.5504976324999995,0.12111212749999999,11.455540131,1.4012498072684116,0.06729465996914537,-0.928321430514012,11.993752593695067,1.6822039923807413,0.2765475300000002,0.0981645665,-0.07423634050000061
184892.0,-3.1291058819999997,0.42884480449999995,11.501042986999998,1.4334912745405026,0.08354891129296856,-1.065549688281318,11.926826957574907,1.7880922216033515,0.4213917504999998,0.30773267699999995,0.045502855999998815
184902.0,-2.6550524209999997,0.793946384,11.666285039499998,1.450012561239881,0.15096225365124952,-1.1862566593492458,11.990907423618369,1.8795028309718869,0.474053461,0.3651015795,0.16524205250000001
184912.0,-2.1642295885,1.0560781385,11.8769318815,1.4151059761999945,0.2556820087709093,-1.2803194340562283,12.118609724887902,1.9253872511025223,0.4908228324999997,0.26213175450000004,0.21064684200000094
184922.0,-1.7715713225,1.25721253,12.175054041499997,1.3322359979860519,0.3697288034132268,-1.3549287689204819,12.367335574396726,1.9358161357039156,0.392658266,0.20113439150000012,0.29812215999999836
184932.0,-1.4340264294999998,1.3673412095,12.5029884175,1.2272492074908368,0.46618791518319735,-1.4130168170853572,12.65901943879701,1.9287530466381062,0.33754489300000023,0.11012867949999983,0.32793437600000175
184942.0,-1.1204097625,1.455895259,12.702946010999998,1.112670087426661,0.5304055596810767,-1.4625789318542401,12.835099781437803,1.912721075614147,0.3136166669999998,0.08855404950000012,0.19995759349999886
184952.0,-0.8115002875,1.6390834810000001,12.8358261185,0.9967592811432137,0.5610483053583412,-1.5006829600837803,12.96547567652905,1.8868899311238108,0.308909475,0.18318822200000007,0.1328801075000019
184962.0,-0.46434487750000003,1.7899097579999999,12.8909394915,0.8957710399643177,0.5479914972241716,-1.5196023291753988,13.02289192462866,1.8471306602143882,0.34715541,0.15082627699999973,0.0551133729999993
184972.0,-0.07413827399999999,1.8976848414999998,12.862206007,0.8256908345089894,0.4957660100167453,-1.5209340153946707,13.001655571804594,1.8002193116575078,0.3902066035,0.10777508349999998,-0.028733484500000017
184982.0,0.314989598,2.0496879165,12.848967029499999,0.7827906414949688,0.42382004759103503,-1.5084112780116112,13.015236944714927,1.7514820024153244,0.389127872,0.1520030750000001,-0.01323897750000036
184992.0,0.7051962015,2.2364065324999998,12.784341205999999,0.755345339007358,0.3566719952790572,-1.4772344615832367,12.997622703119529,1.6970513097327373,0.39020660349999997,0.18671861599999984,-0.06462582350000012
185002.0,1.093049209,2.438717722,12.681371380999998,0.7220374755622981,0.3246958180532691,-1.4260736252195267,12.95991052452671,1.6310890456760543,0.38785300749999996,0.20231118950000004,-0.10296982500000063
185012.0,1.3707735369999998,2.636223653,12.599976186,0.6687438468526513,0.3377526261874387,-1.365053423911301,12.945582069808342,1.5571339118174006,0.2777243279999999,0.19750593100000025,-0.08139519499999892
185022.0,1.4785486204999998,2.7691037604999997,12.641850581499998,0.592802825769126,0.38651538015890824,-1.309628748184969,13.025760161486527,1.4886022932307257,0.10777508349999998,0.13288010749999968,0.04187439549999894
185032.0,1.5491565004999999,2.7463523325,12.6838230435,0.5022045296273524,0.4454045344504489,-1.2672626259220587,13.069877734550206,1.4340673456801543,0.07060788000000007,-0.02275142799999985,0.04197246200000215
185042.0,1.601818211,2.7691037604999997,12.768748632499998,0.4046807670136652,0.495231939265635,-1.2334206917258885,13.163384779663513,1.3893695691345551,0.052661710500000236,0.02275142799999985,0.08492558899999736
185052.0,1.6436926065,2.8840376985,12.793951722999998,0.30528950210034417,0.5064247357586746,-1.1947843380744902,13.21758675104826,1.3331081379951955,0.04187439549999983,0.11493393800000007,0.025203090499999803
185062.0,1.7335215205,2.9690613539999995,12.814251488499998,0.21469295128782248,0.4720504761406464,-1.1412254193185403,13.267458814572494,1.253523104316815,0.08982891400000015,0.08502365549999968,0.020299765500000788
185072.0,1.8460037959999998,3.064774258,12.756784519499998,0.1456791420054627,0.3958424196815659,-1.0727439354580388,13.249004586922773,1.1526895439348819,0.11248227549999967,0.09571290400000043,-0.057466969000000034
185082.0,1.9969281395,3.13420534,12.516227395,0.09345190946878439,0.29911627253604023,-0.9733544158739696,13.056297840925655,1.0225569044217409,0.15092434350000028,0.06943108199999992,-0.24055712449999866
185092.0,2.0363508725,2.9870075235,12.319898262,0.054016195019972506,0.20159076459310105,-0.8848889120781331,12.839347024183425,0.9091671861723172,0.03942273299999988,-0.14719781649999986,-0.196329132999999
185102.0,2.0555719065,3.0253515249999996,12.064925362,0.03110002194128696,0.12724846510440257,-0.7940253258900564,12.607162714236804,0.8047581011651794,0.01922103400000008,0.038344001499999614,-0.2549729000000003
185112.0,2.0710664134999996,2.9989716365,11.756015886999998,0.019109609980085915,0.07608762874069279,-0.706092147516078,12.308007820157394,0.7104369255780835,0.015494506999999658,-0.026379888499999726,-0.3089094750000019
185122.0,2.0830305264999995,2.9283637564999996,11.4734863005,-0.0016755160819145565,0.05583657342980259,-0.6200247261124816,12.023111841469113,0.6225360963650062,0.011964112999999887,-0.07060788000000029,-0.28252958649999904
185132.0,2.086658987,2.8601094725,11.244893289,-0.03524866957327748,0.06303082060652322,-0.54728114821861,11.789062600720607,0.552025369207338,0.003628460500000319,-0.06825428399999955,-0.22859301149999922
185142.0,1.9861408244999998,2.818235077,11.106031125,-0.07708421174358156,0.0870116445289253,-0.48706030770779757,11.62889210859949,0.5007401974359277,-0.10051816250000001,-0.04187439549999983,-0.13886216400000073
185152.0,1.844826998,2.7320346234999997,10.993450782999998,-0.1279780127317362,0.10086781346050828,-0.4358994713440878,11.477079765985586,0.46536118945731125,-0.1413138264999998,-0.0862004535000005,-0.11258034200000111
185162.0,1.6652672364999999,2.6769212505,10.86184554,-0.17940588447100111,0.07901803655479128,-0.3903341605622718,11.31011542315801,0.4367963809209618,-0.1795597615000002,-0.055113372999999743,-0.1316052429999992
