timestamp,ax,ay,az,gx,gy,gz,acc_mag,gyro_mag,dax,day,daz
90132.0,-1.6051524719999999,1.3531215669999999,8.3010350255,0.6855635848541206,-0.017133897266828332,-0.0804230266026467,8.562396564515451,0.690477271545931,0.0,0.0,0.0
90142.0,-1.7284220624999997,1.1531639734999999,8.951019787499998,0.6136176224284103,0.06173927696004741,-0.17075428736886522,9.189014376533077,0.6399182381594493,-0.12326959049999986,-0.19995759349999997,0.649984761999999
90152.0,-1.293889401,1.0095946175,9.183339326,0.5683193470221496,0.21282370365893655,-0.24243321441902035,9.328834452929437,0.6534942023402565,0.4345326614999998,-0.14356935599999998,0.2323195385000023
90162.0,-1.4603082514999999,1.4489325375,9.511273701999999,0.5515327702764681,0.34871852987771906,-0.3170425492832739,9.731198956037325,0.7254715623819793,-0.16641885049999994,0.43933792000000005,0.3279343759999982
90172.0,-1.642221609,1.6584025815,9.880003742,0.5259514794299872,0.41773233916007885,-0.32690016889853796,10.15192912097629,0.7469866038428239,-0.18191335750000004,0.20947004400000013,0.36873004000000087
90182.0,-1.7943227505,1.792459487,10.237946466999999,0.505700424119097,0.4014780878362556,-0.3015876587568641,10.547419258124517,0.7126518714501053,-0.15210114149999998,0.13405690549999982,0.35794272499999913
90192.0,-1.942697365,1.7158695504999997,10.5455810775,0.5091649026843057,0.31541066643265925,-0.2786714856781786,10.859445733021417,0.6605986554293735,-0.1483746145,-0.07658993650000023,0.30763461050000096
90202.0,-2.162954724,1.7565671479999998,10.735928154,0.5400746837371253,0.158198388730018,-0.26454828137104053,11.091620919025164,0.6218465947377223,-0.2202573590000001,0.04069759750000013,0.19034707650000016
90212.0,-2.390469004,1.8618905689999998,10.8089876965,0.5880380769111816,-0.03578623098289173,-0.265614677544009,11.225648915457148,0.6462357086637734,-0.22751427999999985,0.10532342100000003,0.07305954249999935
90222.0,-2.5245259095,1.9229859984999997,10.772997291,0.6469254858734702,-0.20418955984932058,-0.2919935838586513,11.230697968072027,0.7385568452317696,-0.13405690550000005,0.06109542949999991,-0.03599040549999977
90232.0,-2.4874567725,2.082147928,10.6030480465,0.6797010238966718,-0.2556174315885855,-0.3583440207024678,11.08816527048178,0.8097803346533798,0.03706913700000003,0.1591619295000002,-0.1699492444999997
90242.0,-2.389292206,2.2724950044999996,10.514493996999999,0.6479918820464388,-0.16661960237089066,-0.43828184577306006,11.019416264216485,0.7998415764553377,0.09816456649999994,0.1903470764999997,-0.08855404950000079
90252.0,-2.321037922,2.4341085964999998,10.543227481499999,0.5648548684569408,0.008180358204097423,-0.503832921819463,11.066695415596024,0.7569514870776015,0.068254284,0.16161359200000014,0.028733484500000017
90262.0,-2.313781001,2.5058932744999995,10.7048410735,0.47026151365735214,0.19070689137766442,-0.5539273620102043,11.235065911362762,0.7512326750280637,0.00725692099999975,0.07178467799999977,0.16161359200000192
90272.0,-2.3725228345,2.522662646,10.902347004500001,0.39645153959051194,0.32154026276566333,-0.5882998762989806,11.439137276572819,0.7788829875382405,-0.05874183349999962,0.016769371500000574,0.19750593100000025
90282.0,-2.5532593939999995,2.5382552195,11.10701179,0.35088622880869597,0.36737086359378246,-0.6125494809261899,11.67594039020272,0.7958010829146783,-0.18073655949999967,0.015592573499999762,0.20466478549999856
90292.0,-2.6873162995,2.4915755655,11.2410686955,0.3359636637041445,0.31700938802748607,-0.6351986186293203,11.823334686504694,0.7853940543037421,-0.1340569055000005,-0.04667965400000007,0.1340569054999996
90302.0,-2.7783220115,2.4568600244999996,11.3093229795,0.35141855423055424,0.2040307348873891,-0.660245838724691,11.9019334830194,0.7752729252266273,-0.09100571199999985,-0.03471554100000018,0.068254284
90312.0,-2.8417710369999996,2.5058932744999995,11.295005270499999,0.39298706102530323,0.05880886914594893,-0.6914209098238135,11.913534647221166,0.7974711203329691,-0.06344902549999976,0.04903324999999992,-0.014317709000000178
90322.0,-2.854911948,2.623278875,11.235086638999999,0.44308324654529646,-0.06642897666015618,-0.7207319692818064,11.885254985598362,0.8486401733679984,-0.013140911000000255,0.11738560050000046,-0.05991863150000043
90332.0,-2.7339959534999996,2.6890814965,11.160948364999998,0.4675963958895568,-0.10799748345490513,-0.75963535830876,11.80138388388282,0.8985297565881576,0.12091599450000023,0.06580262150000005,-0.07413827400000095
90342.0,-2.543648877,2.68309944,11.108188587999999,0.440151093401946,-0.039250709548100476,-0.8054677044661311,11.707306518621825,0.9187229322058401,0.1903470764999997,-0.005982056500000166,-0.052759776999998564
90352.0,-2.3473197439999995,2.7178149809999996,11.175266073999998,0.37007088794661763,0.10650522694444997,-0.8393078933330491,11.738100360629721,0.9234357396609943,0.19632913300000032,0.03471554099999974,0.06707748599999874
90362.0,-2.3736996324999997,2.6520123595,11.409939208499999,0.29013306287602536,0.2559909320485123,-0.8806093647522429,11.952168516295986,0.9618635063013039,-0.02637988850000017,-0.0658026214999996,0.23467313450000127
90372.0,-2.4826515139999996,2.4651956769999996,11.781022844499999,0.22911286156779964,0.3543158007888648,-0.9227119422981022,12.289558475734466,1.0146081600716488,-0.1089518814999999,-0.18681668250000039,0.37108363599999983
90382.0,-2.6418134435,2.3575186599999998,12.1868220215,0.21046052785173625,0.3543158007888648,-0.9773355118977687,12.690772375479076,1.0606686680055932,-0.1591619295000002,-0.10767701699999987,0.40579917700000045
90392.0,-2.7998966414999997,2.3120158039999996,12.551923601,0.2413703089045558,0.24399877475805926,-1.0460840311338253,13.066584265460103,1.100948149686128,-0.15808319799999992,-0.04550285600000015,0.365101579500001
90402.0,-2.8417710369999996,2.3407492885,12.780614679,0.317046039941778,0.05187991201553145,-1.1209586560443823,13.300333884208154,1.1660866285462372,-0.04187439549999983,0.02873348450000046,0.22869107799999888
90412.0,-2.795091383,2.404198314,12.931440956,0.4068432299568862,-0.15329575886116598,-1.196102061659746,13.446742005812244,1.2726669420367873,0.046679653999999626,0.06344902549999976,0.15082627700000018
90422.0,-2.6442651059999998,2.544237276,12.9062378655,0.4747906430662774,-0.2953201814129525,-1.277373318278862,13.417759019607674,1.3943897441331887,0.15082627700000018,0.1400389620000002,-0.025203090499999803
90432.0,-2.3820352849999997,2.6424018425,12.763845307499999,0.4830512864159666,-0.30331378938708653,-1.3661041121210018,13.250363264077787,1.4803980023272068,0.26222982100000003,0.09816456649999994,-0.14239255800000095
90442.0,-2.089993248,2.8495182905,12.7518811945,0.41750195569881554,-0.15729256284823298,-1.467893459426563,13.232471434438178,1.5341968718410892,0.29204203699999987,0.20711644799999984,-0.011964112999999443
90452.0,-1.814622516,3.0230959955,13.0751083785,0.29279818064382074,0.07026521035603972,-1.559024080990195,13.542172033433307,1.5878362823295202,0.27537073199999984,0.17357770500000003,0.3232271840000003
90462.0,-1.6709550935,3.2098146114999997,13.637715888999999,0.1409143931475182,0.2591883752381659,-1.6157804429357985,14.109652562475645,1.6424925935384118,0.14366742250000009,0.18671861599999984,0.5626075104999995
90472.0,-1.614762989,3.3378894605,14.195518140999999,0.00022165681500327985,0.31594473718376953,-1.6512193533975432,14.671799509692779,1.6811741370603064,0.056192104500000006,0.12807484900000032,0.5578022520000001
90482.0,-1.490218534,3.513918828,14.667218006,-0.12288339664516476,0.22987731578017315,-1.67067104791102,15.155713801876196,1.6908831005748022,0.12454445499999989,0.17602936749999998,0.4716998650000015
90492.0,-1.3202692894999999,3.643170475,14.8922806235,-0.2489206032486833,0.08545481083614637,-1.6776000050414375,15.388171570260779,1.6981183022191833,0.16994924450000015,0.1292516469999998,0.225062617499999
90502.0,-1.1382578655,3.8909845205,14.828831597999999,-0.38881397878378476,-0.036585591780305134,-1.6855936130155715,15.37301655723386,1.730242943595633,0.18201142399999992,0.2478140455000002,-0.06344902550000064
90512.0,-0.853374683,4.163903589999999,14.699579950999999,-0.5367009622930202,-0.10400067946783811,-1.684527216842603,15.301764348997189,1.7710155302931458,0.2848831825,0.27291906949999944,-0.12925164700000025
90522.0,-0.528970701,4.337481295,14.6253436105,-0.6901817260548976,-0.1282485387657953,-1.6517534241486536,15.264148509241663,1.7947389439309778,0.324403982,0.17357770500000047,-0.07423634049999883
90532.0,-0.25722842949999997,4.476343459,14.523550583499999,-0.8484603999305074,-0.14317110387034684,-1.5798074617229434,15.199912459595229,1.7989370837661833,0.2717422715,0.13886216399999984,-0.10179302700000115
90542.0,-0.080022264,4.5170410565,14.361936991499999,-0.990486567811546,-0.15462919040968962,-1.487612189315595,15.055739690120122,1.793868404689204,0.17720616549999996,0.04069759750000035,-0.16161359200000014
90552.0,0.0216726965,4.4321154675,14.206305455999999,-1.115457378242096,-0.1644868100249536,-1.392484763764896,14.881640767475933,1.7917351619768738,0.1016949605,-0.08492558900000002,-0.15563153549999953
90562.0,-0.038147868499999994,4.271678673499999,14.0471435265,-1.2273713805384763,-0.17887704970764687,-1.3128122287406068,14.682334119737115,1.806076812488305,-0.05982056499999999,-0.16043679400000066,-0.15916192949999974
90572.0,-0.1685763135,4.1339933075,13.927404329999998,-1.3294260178903408,-0.22310892894093914,-1.2597856354065151,14.528967960981632,1.8450503999602663,-0.130428445,-0.13768536599999948,-0.1197391965000012
90582.0,-0.29674922899999995,4.09329571,13.695182857999999,-1.4181585570617323,-0.2953201814129525,-1.2318080074970459,14.296893487344498,1.9015095765867276,-0.12817291549999996,-0.04069759750000035,-0.2322214719999991
90592.0,-0.285961914,4.0466160559999995,13.393530304,-1.4869053309685372,-0.36966422623090295,-1.2224809679743884,13.994410660156499,1.960101737277212,0.010787314999999964,-0.04667965400000007,-0.3016525539999986
90602.0,-0.181815291,3.9652208609999997,13.0296055225,-1.538333202707802,-0.4202909918435025,-1.2147543953758093,13.620816911937165,2.004679974824632,0.104146623,-0.08139519499999981,-0.36392478149999974
90612.0,-0.030989014,3.9041254315,12.676468056,-1.5785682779540273,-0.4309497175854319,-1.20649375202612,13.264086778917807,2.033032867645718,0.15082627699999998,-0.06109542949999991,-0.35313746650000155
90622.0,0.12111212749999999,3.827535495,12.4776872605,-1.6124084668209455,-0.415229537012719,-1.1905065360778522,13.05210233961397,2.046846951955069,0.15210114149999998,-0.07658993650000001,-0.19878079549999939
90632.0,0.267133146,3.772422122,12.334019837999998,-1.6419865616544933,-0.4008392973300257,-1.1697214100158517,12.900797422966704,2.0554902548996545,0.1460210185,-0.055113372999999743,-0.14366742250000186
90642.0,0.4359055925,3.8024304709999996,12.196432538499998,-1.6739627388802814,-0.41016633685268344,-1.130818020988898,12.782857968331792,2.061343511314883,0.1687724465,0.0300083489999996,-0.13758729949999982
90652.0,0.637039984,3.6622934424999998,12.022854833499999,-1.7104680455149948,-0.43441419615064064,-1.0556763607027861,12.584405093114553,2.0564214565822283,0.20113439149999995,-0.14013702849999987,-0.17357770499999958
90662.0,0.7483454615,3.4492930045,11.858789579,-1.734981194859255,-0.45812973002673957,-0.9565521311650201,12.372895111478126,2.033478442395189,0.11130547750000008,-0.2130004379999999,-0.16406525449999876
90672.0,0.7483454615,3.2589459279999997,11.619409252499999,-1.7459069559767397,-0.47758142454021635,-0.8646221488039749,12.090964430865638,2.005952785136338,0.0,-0.19034707650000016,-0.23938032650000096
90682.0,0.6310579275,3.1056679885,11.3991518935,-1.7459069559767397,-0.50049585228965,-0.7865483353745125,11.831486451572298,1.9792285065063926,-0.11728753400000003,-0.15327793949999968,-0.22025735899999965
90692.0,0.5053366745,2.9668058245,11.2614665275,-1.7331171832181251,-0.5220803391490638,-0.7151364436999126,11.6566689197594,1.9461971083114085,-0.12572125300000003,-0.13886216399999984,-0.13768536599999948
90702.0,0.39638479299999996,2.807643895,11.090242418499999,-1.7112674063124083,-0.5455288376496076,-0.6655743289310295,11.446984845204835,1.9154704476828974,-0.10895188150000001,-0.1591619295000002,-0.17122410900000062
90712.0,0.3209716545,2.70467407,10.938239343500001,-1.6990099589756522,-0.5687103007745963,-0.6437245520253125,11.272238666902602,1.903798189353527,-0.07541313849999998,-0.10296982500000018,-0.15200307499999788
90722.0,0.325776913,2.6675068664999997,10.641392048,-1.7075358923716442,-0.5783043756728091,-0.6293360576718714,10.975470295122031,1.909496962067685,0.00480525850000002,-0.037167203500000134,-0.296847295500001
90732.0,0.475426392,2.5370784215,10.345721550499999,-1.7384456734244638,-0.554321806421155,-0.6277373360770446,10.662867886808462,1.929642502544799,0.14964947899999997,-0.13042844499999973,-0.2956704975000015
90742.0,0.6393935799999999,2.4819650484999998,10.028476423,-1.7824122626114531,-0.5087564956393391,-0.6359979794267336,10.350812239567855,1.9596734614720352,0.16396718799999993,-0.05511337300000019,-0.3172451274999979
90752.0,0.8333691169999999,2.4796114525,9.707602835,-1.8285098988151274,-0.4762479929916927,-0.6431922266034543,10.053881332233763,1.9959851806204956,0.19397553700000003,-0.002353595999999847,-0.3208735880000013
90762.0,1.1039345905,2.4329317985,9.366429481499999,-1.863416483855014,-0.45573164763449936,-0.626670939904076,9.740011804313545,2.018100293315101,0.27056547350000004,-0.04667965400000007,-0.34117335350000033
90772.0,1.3768536599999999,2.3503598054999997,9.069582186,-1.871944162580258,-0.4520001336937355,-0.574977778118508,9.469806663547779,2.0097458829433026,0.2729190694999999,-0.08257199300000018,-0.2968472954999992
90782.0,1.4881591374999998,2.3168210625,8.826573398999999,-1.8295762949880958,-0.47518334214797614,-0.4827807603819075,9.246116775279381,1.9509551226084676,0.11130547749999997,-0.033538742999999815,-0.24300878700000084
90792.0,1.5001232505,2.2617076894999997,8.651818896,-1.7240571790710226,-0.5306062725450561,-0.35567890293467247,9.067505811887676,1.8385928464897558,0.01196411300000011,-0.05511337300000019,-0.17475450299999906
90802.0,1.563572276,2.1444201554999998,8.546397408499999,-1.593756133104882,-0.6006864780003844,-0.22884233553374053,8.948977859487975,1.7185027411076392,0.06344902549999998,-0.11728753399999992,-0.10542148750000102
90812.0,1.7012576419999998,1.940932168,8.4279330765,-1.4400083339674494,-0.6744964520672246,-0.08841663457678074,8.81428109304459,1.5926038324130918,0.13768536599999992,-0.20348798749999975,-0.1184643319999985
90822.0,1.807757861,1.7673544629999998,8.317804397,-1.3019807154027299,-0.7184630412542138,0.05360778797500583,8.693526342552017,1.488024435236341,0.10650021900000017,-0.17357770500000025,-0.11012867950000071
90832.0,1.841296604,1.6032892085,8.274655137,-1.1780745558158965,-0.7435102613495844,0.19056901036675683,8.627330242101259,1.4060525294259507,0.03353874300000004,-0.16406525449999987,-0.043149259999999856
90842.0,1.8676764925,1.4034296814999998,8.261514226,-1.0634971810809728,-0.760563873470821,0.31980366015992895,8.585478883437583,1.346015616866239,0.02637988849999995,-0.1998595270000001,-0.013140911000000699
90852.0,1.849730323,1.2106309425,8.2435680565,-0.9697014417495455,-0.7749523678242622,0.44184406277638044,8.53484293053547,1.3176108053360507,-0.017946169500000053,-0.19279873899999989,-0.017946169500000053
90862.0,1.7909884894999997,1.0765740369999999,8.139421433499999,-0.9036197856105362,-0.7634942812849194,0.56201870842245,8.40338221782058,1.3097012113907684,-0.058741833500000284,-0.13405690550000005,-0.1041466230000001
90872.0,1.692823923,0.9748790764999999,8.099900633999999,-0.8817682633755672,-0.6974126251459101,0.6691365459343501,8.33213251987462,1.308297885465778,-0.09816456649999972,-0.10169496049999993,-0.03952079949999998
90882.0,1.467859372,0.8599451385,8.096370239999999,-0.9020210640157095,-0.6014858387977978,0.7578673397764898,8.273169153375003,1.3227963255551538,-0.224964551,-0.11493393799999996,-0.0035303940000002143
90892.0,1.2439735524999997,0.7365774814999999,8.150208748499999,-0.9342625312878007,-0.5386016258484422,0.8175558548654438,8.277434338591776,1.3532685485740221,-0.2238858195000002,-0.12336765700000007,0.05383850850000016
90902.0,1.0763779039999999,0.6551822864999999,8.192083144,-0.9537142258012774,-0.5143520212212329,0.8468669143234366,8.288430458112785,1.375249939758514,-0.16759564849999986,-0.08139519500000003,0.041874395500000716
90912.0,1.0272465874999999,0.6169363514999999,8.14540349,-0.9643729515432068,-0.5212809783516504,0.8604560478794644,8.233070145956288,1.3936045559597448,-0.04913131650000002,-0.03824593499999995,-0.04667965400000007
90922.0,0.9686028204999999,0.6443949715,8.1370678375,-0.9662369631843367,-0.5569869241889503,0.8748445422329056,8.21981199877783,1.4174629715854516,-0.05864376699999996,0.0274586200000001,-0.008335652499999568
90932.0,1.0511748134999999,0.6492002299999999,8.0101697865,-0.9625071945728249,-0.6201381725138613,0.8956296682949062,8.104890464141157,1.4536656958679752,0.08257199299999995,0.004805258499999909,-0.1268980509999995
90942.0,1.1481625819999999,0.6337057229999999,7.8054069345,-0.9534471904257223,-0.6867538994039808,0.9300021825836825,7.914811284623819,1.4985314554215035,0.09698776850000002,-0.01549450699999999,-0.20476285200000088
90952.0,1.252309205,0.5930081255,7.506206043,-0.934794856709659,-0.7472417752903483,0.9694396423617464,7.633024704650606,1.5401379532536603,0.1041466230000001,-0.040697597499999905,-0.29920089149999995
90962.0,1.434320629,0.5822208105,7.2044554225,-0.8998882716697724,-0.7949381330888493,1.0096747176079717,7.3688828647050615,1.5688111971503558,0.18201142399999992,-0.010787315000000075,-0.3017506205
90972.0,1.6426138750000001,0.4923918964999999,6.8765210465,-0.8529912746686846,-0.8191859923868064,1.0669634049754335,7.087113081152214,1.5928184806626382,0.2082932460000002,-0.08982891400000004,-0.32793437599999997
90982.0,1.819721974,0.40138618449999997,6.631060596999999,-0.7885065947952502,-0.8226504709520153,1.1527655363327267,6.887921571334267,1.6209148124283559,0.1771080989999998,-0.09100571199999996,-0.24546044950000034
90992.0,1.9849640265,0.26252402049999995,6.428749407499999,-0.7109668521168981,-0.7989349370759162,1.262813781658725,6.733336468072138,1.6548321805055397,0.16524205250000001,-0.138862164,-0.2023111895000005
91002.0,1.9957513414999999,0.044718324,6.2420307914999995,-0.6424853682563967,-0.7411121789573442,1.3789916233177277,6.553470191252457,1.6922330239665346,0.010787314999999964,-0.21780569649999995,-0.1867186159999994
91012.0,1.8628712339999998,-0.1803442935,6.113955942499999,-0.5915915672682419,-0.6566434791485747,1.4799816098258756,6.394002702962656,1.7238059074600103,-0.13288010750000012,-0.2250626175,-0.12807484900000077
91022.0,1.622216043,-0.373044966,6.062471029999999,-0.5630798686076626,-0.5652475675386395,1.5633839134616767,6.286835644934086,1.7552017012042571,-0.24065519099999966,-0.19270067249999998,-0.051484912499999425
91032.0,1.3289972079999999,-0.5023946794999999,6.052860513,-0.5529552136168434,-0.4791801461350432,1.6228053931750757,6.217375200411852,1.7801321369028094,-0.29321883500000023,-0.12934971349999996,-0.009610516999999597
91042.0,1.0847135565,-0.6472389,5.9918631499999995,-0.5513547466927646,-0.4067018582874746,1.6617087822020293,6.123556621903321,1.7974077264445256,-0.24428365149999998,-0.1448442205,-0.06099736300000025
91052.0,0.858474141,-0.7262804989999999,5.987057891499999,-0.5454939310645678,-0.34141781761662676,1.6838255944833014,6.091742231099884,1.8026087727655769,-0.22623941549999993,-0.07904159899999996,-0.004805258500000242
91062.0,0.6298811295,-0.7716852885,5.876929212,-0.5327024129767013,-0.28999169120661383,1.6960812964908054,5.9607504044915745,1.801265889885778,-0.2285930115,-0.04540478950000004,-0.11012867949999894
91072.0,0.499354618,-0.8351343139999999,5.8362316145,-0.5177815932014017,-0.2513535922259634,1.7056753713890183,5.916789992472899,1.8001680141437197,-0.1305265115,-0.06344902549999998,-0.04069759750000035
91082.0,0.385597478,-0.8507268874999999,5.813480186499999,-0.5033930988479606,-0.23403469005842364,1.7158000263798374,5.888036475004504,1.803370893256167,-0.11375713999999998,-0.015592573499999984,-0.022751428000001184
91092.0,0.24673531399999996,-0.8854424284999999,5.814656984499999,-0.47861116879889304,-0.2537516746182036,1.734986430847011,5.886860152641413,1.8175908446330367,-0.13886216400000004,-0.03471554099999996,0.0011767980000003675
91102.0,0.055211439499999994,-0.9644840275000001,5.760818475999999,-0.4271832970596281,-0.32143379768129166,1.7576355685501417,5.841259047138488,1.8371412704011447,-0.19152387449999997,-0.07904159900000018,-0.05383850850000016
91112.0,-0.1315071765,-1.0841251575,5.660202247,-0.3493765190057209,-0.4210903526409159,1.77841894928289,5.764591136545526,1.8606867001965333,-0.18671861599999998,-0.11964112999999987,-0.100616228999999
91122.0,-0.333818366,-1.2229873215,5.454360663499999,-0.2577135720202307,-0.5143520212212329,1.7928074436363313,5.599748470919458,1.882852308837746,-0.2023111895,-0.13886216400000007,-0.2058415835000007
91132.0,-0.5122013295,-1.378618857,5.262836789,-0.1697821389755044,-0.5617830889734309,1.7952055260285713,5.4644662339948065,1.8887003718046826,-0.1783829635,-0.15563153549999997,-0.19152387449999964
91142.0,-0.679796978,-1.6169204519999998,5.1766363355,-0.0919736155923452,-0.5553882025941236,1.792542153590028,5.465722223952904,1.8788620422859779,-0.16759564850000008,-0.2383015949999998,-0.08620045350000005
91152.0,-0.9083899894999999,-1.8754237459999998,5.150256446999999,-0.027223645672607554,-0.53433778648582,1.7752215060932364,5.555855295987247,1.8540953030106657,-0.2285930114999999,-0.25850329400000005,-0.02637988850000017
91162.0,-1.1143296395,-2.0753813395,5.220864326999999,0.037793359622685214,-0.5425984298355091,1.7435123642430035,5.727683874896917,1.826383518968499,-0.20593965000000003,-0.19995759349999997,0.07060787999999985
91172.0,-1.2975178615,-2.1770763,5.253226272,0.10494141193466305,-0.5807024580650493,1.707274092983845,5.832632345842161,1.8063811539416152,-0.18318822200000007,-0.10169496050000015,0.03236194500000078
91182.0,-1.371754202,-2.2537643029999996,5.202918157499999,0.15823329531505792,-0.621736894108688,1.671034076395435,5.8336541273737605,1.789957939650238,-0.07423634049999994,-0.07668800299999967,-0.05030811450000083
91192.0,-1.4159821934999999,-2.2932851025,5.0975947365,0.19633732354459812,-0.631596259053204,1.6353281305581349,5.766249581075208,1.7640182180639243,-0.0442279914999999,-0.039520799500000425,-0.10532342099999958
91202.0,-1.4136285975,-2.31240807,5.066507656,0.2243166967833192,-0.6089471213500736,1.599622184720835,5.745874756917136,1.7262461327711578,0.002353595999999847,-0.019122967499999977,-0.031087080499999864
91212.0,-1.4614850494999998,-2.3327078355,5.0520918805,0.25122967384907174,-0.5556552379696788,1.5729762430306375,5.753355261473876,1.6870457473477802,-0.04785645199999977,-0.0202997654999999,-0.014415775499999839
91222.0,-1.5332697274999998,-2.3434951505,5.0724897124999995,0.2832041057456079,-0.5058260878252406,1.5410018111341015,5.794224491776554,1.6464359017448382,-0.07178467799999999,-0.010787314999999964,0.02039783199999956
91232.0,-1.570436931,-2.381839152,5.085630623499999,0.32397325174294345,-0.4653239772034602,1.5143541241146519,5.831215031100274,1.617019939527153,-0.037167203500000134,-0.03834400150000006,0.01314091099999981
91242.0,-1.6375144169999998,-2.3579109259999997,5.046109824,0.3783315312963068,-0.4362799531210226,1.4893069040192815,5.805550943424951,1.5973446714556592,-0.06707748599999985,0.02392822600000022,-0.03952079949999909
91252.0,-1.699688578,-2.356734128,5.0999483324999995,0.4526755761142573,-0.40003993653261233,1.4480054326000875,5.869634571796877,1.5689699999906812,-0.06217416100000017,0.0011767979999999234,0.05383850849999927
91262.0,-1.7380325794999998,-2.2932851025,5.1993877635,0.5406070091589836,-0.33475764119101636,1.409369078948689,5.942520250195652,1.546169401257272,-0.038344001499999836,0.06344902549999976,0.09943943100000041
91272.0,-1.7847122335,-2.2477822465,5.3657085475,0.6186808225884459,-0.25481807079117214,1.3768605763010426,6.085108955540542,1.5308309037945667,-0.04667965400000029,0.04550285600000015,0.16632078399999983
91282.0,-1.862478968,-2.207084649,5.6626539094999995,0.6831655024618805,-0.18100809672433193,1.3563424856145974,6.356547793643136,1.5294260273438998,-0.07776673449999993,0.040697597499999905,0.29694536199999977
91292.0,-2.0049695924999997,-2.1016631615,5.9188036075,0.7409882605804526,-0.11758981302386597,1.3430186421048724,6.5931121069955125,1.5383725294889556,-0.14249062449999972,0.10542148750000013,0.25614969800000065
91302.0,-2.195316669,-2.022719629,6.2432075895,0.8006750303401547,-0.0922755575529402,1.330228869346258,6.920148190633027,1.5553469476532038,-0.19034707650000016,0.07894353249999986,0.32440398199999976
91312.0,-2.426361343,-1.9855524254999999,6.584380943,0.8723539573903097,-0.12318533860575978,1.313974618022435,7.2927169288102265,1.5819941060032916,-0.23104467400000006,0.037167203500000134,0.34117335350000033
91322.0,-2.6657416695,-1.9496600864999998,6.920749037999999,0.9522917824609021,-0.20792107379008448,1.2897267587244776,7.668384467955278,1.6166279485517163,-0.23938032650000007,0.035892339000000106,0.3363680949999992
91332.0,-2.773516753,-2.0418425965,7.130219081999999,1.0266358272788525,-0.32569763704391386,1.240164643955595,7.918430433196368,1.6425798052898466,-0.10777508349999998,-0.09218251000000022,0.2094700439999997
91342.0,-2.7304655595,-2.102938026,7.1230602275,1.0889877148063498,-0.42375547040871125,1.1666217052643097,7.913013175611726,1.6512023331179828,0.043051193500000196,-0.06109542949999991,-0.007158854499999201
91352.0,-2.7459600664999995,-1.9006268365,7.091973147,1.1462764021738119,-0.4703871773634957,1.0933440566193278,7.838926085645007,1.6524572348334292,-0.015494506999999658,0.20231118949999982,-0.031087080499999864
91362.0,-2.7112445254999997,-1.7294027275,7.1218834295,1.1937074699260097,-0.4666556634227319,1.0365876946737242,7.814275670484427,1.6483989446461835,0.03471554099999974,0.17122410900000018,0.029910282500000385
91372.0,-2.632300993,-1.5474893699999999,7.2117123434999995,1.2232838194303055,-0.4104316268989865,0.9790319719307072,7.831508589882414,1.6196854711027924,0.07894353249999986,0.18191335750000004,0.08982891399999904
91382.0,-2.659759613,-1.353513833,7.418730724999999,1.2035668348705257,-0.3283627548117092,0.915081362808383,7.9964921350006515,1.5471810253835967,-0.02745861999999999,0.1939755369999998,0.2070183814999993
91392.0,-2.623867274,-1.3427265179999999,7.5384699215,1.1609319319028082,-0.25535039621303035,0.8484656359182634,8.09420303248373,1.460431686417383,0.03589233899999966,0.010787315000000186,0.1197391965000012
91402.0,-2.416750826,-1.2026875559999999,7.637811285999999,1.0921851579960036,-0.20525595602228916,0.79597136800603,8.100821140654686,1.3669560510545942,0.20711644800000029,0.140038962,0.09934136449999897
91412.0,-2.147460217,-1.1835645885,7.715676087,1.0050513404194386,-0.15942535519417003,0.7517394887727377,8.095929100372143,1.2651706998417227,0.269290609,0.019122967499999977,0.07786480100000137
91422.0,-2.0300746165,-1.0027299625,7.7120476265,0.9112573464172633,-0.07628834160467216,0.7312213980862923,8.037558641755416,1.1708520809579215,0.11738560050000002,0.180834626,-0.003628460499999875
91432.0,-1.9702540515,-0.9022117999999999,7.668996433,0.811066720706529,0.06227160238190568,0.7277569195210836,7.969278100861968,1.0914839035971486,0.05982056499999988,0.10051816250000001,-0.043051193500000196
91442.0,-2.0026159965,-0.927316824,7.728816998,0.7140752835147,0.24399877475805926,0.7368169236681862,8.037723527845733,1.0546744007578277,-0.03236194499999989,-0.025105024000000142,0.05982056499999988
91452.0,-2.2468015814999998,-0.869849855,7.885625331499999,0.6376001916800644,0.4113374527807716,0.7506730925997691,8.245474091019199,1.0673530795589292,-0.24418558499999987,0.057466969000000034,0.156808333499999
91462.0,-2.5305079659999996,-0.9500682519999999,8.156190805,0.5864393553163546,0.5048661567366437,0.7458769278152887,8.59241227461848,1.074771298988331,-0.28370638449999985,-0.08021839699999989,0.2705654735000005
91472.0,-2.9135557149999998,-1.0601969315,8.40037639,0.5797774335614924,0.49927063115474996,0.7186969153739811,8.954280983509541,1.0497324858119275,-0.38304774900000016,-0.11012867950000005,0.24418558500000032
91482.0,-3.3840787819999996,-1.0494096165,8.760672711,0.636800830882651,0.39002174662616484,0.6638063103987593,9.45000720080389,0.9991351654202613,-0.4705230669999998,0.010787314999999964,0.36029632099999986
91492.0,-3.5696205999999995,-1.1260976194999999,8.9845585305,0.7345916288718933,0.2032313740899757,0.5875982539396789,9.733066272484136,0.9623926229227449,-0.18554181799999991,-0.0766880029999999,0.22388581949999953
91502.0,-3.421147919,-1.1967054995,9.075564242499999,0.8539669137205496,-0.011271336309379381,0.49886571476828717,9.77252390408722,0.989067001837021,0.14847268099999944,-0.07060788000000007,0.0910057119999994
91512.0,-3.1003723974999997,-1.1512026434999998,9.0061331605,0.9845349950622453,-0.20658938757081283,0.41919317974399806,9.594165468358307,1.089821661329496,0.3207755215000003,0.04550285600000015,-0.06943108199999948
91522.0,-2.6765289845,-1.1105050459999999,8.878058311499998,1.1063083623031418,-0.3248982762465005,0.37229618274291043,9.33900145863862,1.2116441433419094,0.4238434129999997,0.040697597499999905,-0.12807484900000077
91532.0,-2.2946580334999997,-1.029109851,8.826573398999999,1.204366195667939,-0.34115252757032366,0.3525791981831305,9.177849450937062,1.3004595615884194,0.38187095100000024,0.08139519499999981,-0.051484912499999425
91542.0,-2.115098272,-0.9070170585,8.9714176195,1.2693832009632318,-0.2867942480169602,0.3544432098242604,9.261892611561766,1.348782651346687,0.17955976149999975,0.12209279250000005,0.14484422050000134
91552.0,-2.2240501535,-0.6962721499999999,9.337695996999999,1.3253402021114222,-0.19912810501853706,0.3808238614681548,9.62412388347837,1.3932714979516863,-0.1089518814999999,0.21074490850000016,0.3662783774999987
91562.0,-2.5281543699999998,-0.5598616485,9.809395862,1.365308241982092,-0.1178568483994211,0.4261221368744155,10.145405697232318,1.4351086745864556,-0.30410421649999986,0.1364105014999999,0.4716998650000015
91572.0,-2.9626870315,-0.5274997035,10.2906081775,1.3780997600699587,-0.05923472948343555,0.4413099920252702,10.721585099538254,1.448247979782191,-0.43453266150000003,0.032361945,0.48121231549999877
91582.0,-3.435465628,-0.5478975355,10.792218325,1.3610461479487221,-0.054171529323400004,0.40107491677904494,11.339073690784543,1.4199444567674502,-0.4727785965000004,-0.020397832000000005,0.501610147500001
91592.0,-3.7012258429999996,-0.6137001569999999,11.1669304215,1.3266718883306936,-0.13117894657989382,0.29981789489534194,11.780324089863363,1.3664395286335262,-0.26576021499999936,-0.06580262149999994,0.3747120964999997
91602.0,-3.525294542,-0.8411163705,11.247050751999998,1.2581904044701921,-0.30278146396522826,0.13407968379670837,11.81657010196452,1.301036921239677,0.17593130099999943,-0.22741621350000008,0.080120330499998
91612.0,-3.062028396,-0.8387627744999999,10.934610882999998,1.1830487441840802,-0.4821105539491417,-0.061503657511028174,11.386187072607724,1.278990858932116,0.46326614600000005,0.002353596000000069,-0.3124398690000003
91622.0,-2.609549565,-0.4497329689999999,10.395931598499999,1.1350853510100243,-0.5796360618920808,-0.22351384532740182,10.727879682224629,1.2939687621331326,0.4524788310000001,0.3890298055,-0.5386792844999988
91632.0,-2.0492956505,-0.04746418599999999,9.907560428499998,1.1167000526695159,-0.576171583326872,-0.3143774315154786,10.117391914742155,1.295309179505713,0.5602539145000001,0.4022687829999999,-0.48837117000000063
91642.0,-1.6877244649999998,0.382263217,9.634641359,1.1137678995261655,-0.4690537458149721,-0.33675953384305385,9.788812652890241,1.2545506502776897,0.3615711855000001,0.429727403,-0.27291906949999856
91652.0,-1.6793888125,0.705490401,9.6453306075,1.1353523863855792,-0.31610530747495297,-0.30824783518247456,9.815827322107374,1.2181807479105662,0.00833565249999979,0.32322718400000006,0.010689248500000303
91662.0,-1.8971945089999998,0.8682807909999999,9.885985798499998,1.1953061915208365,-0.17514553576688296,-0.261617873556942,10.10376037647088,1.2360731216038845,-0.2178056964999997,0.16279038999999984,0.24065519099999833
91672.0,-2.311427405,1.0011608985,10.324146920499999,1.2773768089373658,-0.08561538112732985,-0.23763530430528795,10.626995315202691,1.302110611026902,-0.41423289600000013,0.13288010750000012,0.43816112200000035
91682.0,-2.6274957345,0.9772326725,10.780254212,1.3482546298608558,-0.10426771484339324,-0.26028618733767034,11.138788013350506,1.3771024662742701,-0.3160683295000002,-0.023928225999999997,0.4561072915000004
91692.0,-2.517367055,0.7354006835,11.0855352265,1.378899120867372,-0.2289714898983881,-0.34342145559791626,11.391533799838546,1.4393502092541937,0.11012867950000027,-0.24183198900000002,0.3052810145000002
91702.0,-2.1702116449999997,0.6528286905,11.140550532999999,1.3802308070866438,-0.4016386581274391,-0.4726561053910884,11.36872332593067,1.5131934729230527,0.34715541000000005,-0.08257199299999995,0.05501530649999964
91712.0,-1.6279039,0.798849709,10.892736487499999,1.3605120771976118,-0.5527230848263283,-0.5954958688049533,11.042641900891217,1.5846486205036934,0.5423077449999998,0.14602101849999993,-0.2478140455000002
91722.0,-1.1023655264999999,1.0837328915,10.5240064475,1.3344002062585247,-0.6126768899615854,-0.6653090388847265,10.636935575679498,1.6120276049675801,0.5255383735000001,0.2848831825,-0.3687300399999991
91732.0,-0.8186591419999999,1.481196416,10.172143845499999,1.3096182762094573,-0.5644482067412261,-0.6631762465387894,10.31196664206663,1.5727379125106933,0.28370638449999996,0.3974635245,-0.35186260200000063
91742.0,-0.7887488595,1.7230284049999998,10.063191964,1.2906989071178385,-0.415229537012719,-0.5946965080075398,10.240057819764182,1.4805347594296263,0.02991028249999994,0.2418319889999998,-0.10895188149999946
91752.0,-1.071278446,1.7613724064999998,10.166161788999998,1.2824400090974013,-0.20845339921194275,-0.5059639688361481,10.37308612628698,1.3943115628643346,-0.28252958650000004,0.03834400150000006,0.10296982499999885
91762.0,-1.614762989,1.7541154854999998,10.413877767999999,1.281638902970736,-0.011271336309379381,-0.4537367362994698,10.68331553469988,1.3596331661510488,-0.5434845429999999,-0.007256920999999972,0.24771597900000053
91772.0,-2.2144396365,1.688312864,10.8017307755,1.2843040207385314,0.09478010502955207,-0.4643954620413992,11.154888209965797,1.3689715961842364,-0.5996766474999999,-0.06580262149999982,0.3878530075000004
91782.0,-2.5688519675,1.4848248764999998,11.1824249285,1.311216997804284,0.07612777131348866,-0.5363396791378575,11.569370450734995,1.418712692659701,-0.35441233100000025,-0.2034879875000002,0.3806941530000003
91792.0,-2.5855232724999997,1.3591036234999998,11.3667899485,1.3474552690634423,-0.01580221104755666,-0.65251752079686,11.736098456700615,1.4972189308673953,-0.01667130499999958,-0.12572125300000003,0.18436501999999955
91802.0,-2.3557534629999997,1.4512861335,11.418274860999999,1.3511867830042061,-0.09174323213108193,-0.7841502529822724,11.748736384014682,1.5649326383136353,0.22976980950000003,0.09218251000000022,0.051484912499999425
91812.0,-2.1247087889999996,1.6894896619999997,11.385912916,1.3186782803565598,-0.09121090670922366,-0.8779459923136996,11.705032066884497,1.5868273384355776,0.23104467400000006,0.2382035284999997,-0.032361944999998116
91822.0,-1.918769139,1.955249877,11.454167199999999,1.2680497694147081,0.0015184364492350666,-0.920579149952165,11.777207790297458,1.5669775029299546,0.2059396499999997,0.26576021500000024,0.06825428399999822
91832.0,-1.9259279935,2.2030639224999997,11.6576551875,1.1993029955079035,0.16219519271708505,-0.9229772323444053,12.019301716548,1.5220124595419386,-0.007158854500000089,0.24781404549999975,0.20348798750000086
91842.0,-2.2468015814999998,2.3957645949999997,12.119744535499999,1.1254930214410634,0.33086555695906905,-0.9099204242102357,12.556910963571752,1.4846419556543942,-0.32087358799999977,0.1927006725,0.46208934799999923
91852.0,-2.66937013,2.5598298495,12.738642216999999,1.063141133913566,0.4291904256994216,-0.9139172281973027,13.264662501626722,1.4661917310252823,-0.42256854850000014,0.1640652545000001,0.6188976815
91862.0,-2.980633201,2.6854530359999997,13.455704465,0.9957260462260329,0.4233296100712246,-0.9472250916423625,14.041075989285368,1.4380242321090646,-0.31126307099999995,0.12562318649999993,0.7170622480000013
91872.0,-3.017702338,2.7010456095,13.83522182,0.9083251932739129,0.3135466547915293,-1.0042484889635213,14.415808600074225,1.3899212887975223,-0.03706913700000003,0.015592573500000206,0.37951735499999906
91882.0,-2.8010734394999997,2.6663300685,13.869937360999998,0.8092009637361469,0.1765836870705263,-1.0721959020729124,14.398975340131782,1.3548402306814178,0.21662889850000022,-0.03471554099999974,0.03471554099999885
91892.0,-2.5388436185,2.750176926,13.6795902845,0.7186044129236253,0.08865225402579997,-1.134814824975965,14.18239720199966,1.3461263727460335,0.2622298209999996,0.08384685749999976,-0.19034707649999838
91902.0,-2.25160684,3.0039730279999994,13.520428355,0.6586506077883681,0.06760183791749637,-1.1699884453914067,14.031948197508935,1.3443450427547279,0.28723677850000007,0.25379610199999947,-0.15916192949999974
91912.0,-1.989377019,3.1882399814999998,13.448545610499998,0.6170821009936192,0.10650522694444997,-1.1649252452313712,13.963734247723966,1.3225673932584903,0.26222982100000003,0.18426695350000033,-0.07188274450000165
91922.0,-1.8206045725,3.2912098065,13.450997273,0.5600587036724604,0.1915062521750778,-1.1310850563644532,13.966960680050013,1.2765946110306121,0.1687724465,0.10296982500000018,0.002451662500002172
91932.0,-1.7667660639999998,3.434877229,13.537197726499999,0.48038791397742325,0.2829021637850129,-1.0887171887722908,14.07748437006987,1.2231562857207017,0.05383850850000016,0.14366742250000009,0.08620045349999828
91942.0,-1.801481605,3.5546164255,13.558674289999999,0.3780662412500037,0.35031725147254583,-1.047148681977542,14.13217189280879,1.1671232246937289,-0.03471554100000018,0.11973919649999987,0.021476563500000267
91952.0,-1.7643144014999999,3.5749161909999994,13.652033598,0.2672168897973398,0.3735004599267865,-1.0109104107183837,14.22219576721313,1.1103365788162147,0.037167203500000134,0.020299765499999456,0.09335930800000014
91962.0,-1.696158184,3.524706143,13.710775431499998,0.16516225244547542,0.3303332315372108,-0.9866625514204264,14.257835351576903,1.0535186775117682,0.0681562174999999,-0.050210047999999396,0.058741833499999174
91972.0,-1.4985541864999998,3.4767516245,13.579072121999998,0.06923546609736306,0.22588051179310614,-0.9749374295055285,14.096973654044245,1.003154298612373,0.19760399750000013,-0.0479545185000001,-0.13170330950000064
91982.0,-1.256820264,3.4265415764999996,13.303701389999999,-0.01896300232291839,0.1238241291119897,-0.964013413717296,13.79526204991308,0.9721182398424155,0.24173392249999992,-0.050210048000000285,-0.27537073199999895
91992.0,-0.9623265644999999,3.434877229,12.8859381,-0.09810321192534927,0.07612777131348866,-0.9405649152167521,13.370559252031184,0.9487265346199214,0.29449369950000004,0.008335652500000457,-0.4177632899999981
92002.0,-0.7145125189999999,3.4636107135,12.487297777499998,-0.16232085642322863,0.09877690901661909,-0.8931338474645543,12.978433383827037,0.9131226684688567,0.24781404549999997,0.028733484500000017,-0.39864032250000214
92012.0,-0.554075725,3.536670256,12.178486369,-0.20282296704500904,0.158198388730018,-0.827050445996293,12.6937215444734,0.8661271998848563,0.16043679399999988,0.0730595424999998,-0.30881140849999866
92022.0,-0.41639035899999993,3.5342185935,12.0575703745,-0.2302682695326199,0.2442658101336144,-0.7468455855501456,12.571757448094889,0.8188208537949666,0.1376853660000001,-0.0024516624999999515,-0.12091599450000068
92032.0,-0.2595820255,3.494697794,12.009615855999998,-0.2694386939351286,0.3306002669127659,-0.6693058428717934,12.510442378590684,0.7936397530205892,0.15680833349999995,-0.03952079949999998,-0.04795451850000099
92042.0,-0.276351397,3.4851853434999995,12.019226372999999,-0.33871779326379153,0.41293617437559843,-0.6125494809261899,12.517375506814108,0.8126886821928752,-0.01676937150000002,-0.00951245050000038,0.009610517000000485
92052.0,-0.34460568099999994,3.353482034,12.0359957445,-0.4266509716377698,0.495540862543238,-0.5941624372564296,12.499191509428133,0.8835274754618839,-0.06825428399999994,-0.13170330949999975,0.016769371500000574
92062.0,-0.3158721965,3.1918684419999996,12.02883689,-0.5244435149562642,0.5680174050615546,-0.6098843631583946,12.449125122745858,0.9847048843474191,0.02873348449999996,-0.16161359200000014,-0.007158854500000089
92072.0,-0.284785116,3.0937038754999997,12.154460076499998,-0.605447736199825,0.614649112016339,-0.6490547875609033,12.545238378875515,1.079644668132852,0.031087080499999975,-0.09816456649999994,0.1256231864999986
92082.0,-0.23330020349999997,3.1440119899999996,12.296950701,-0.6539434547957395,0.5970614291439922,-0.6890228274315734,12.694653871651692,1.1219968132590457,0.051484912500000035,0.050308114499999945,0.14249062450000238
92092.0,-0.010591182,3.0362369064999997,12.361576524499998,-0.67712666324998,0.5427031495906288,-0.7247287732688734,12.728999210330649,1.1306011770131175,0.22270902149999997,-0.10777508349999998,0.06462582349999835
92102.0,-0.004609125499999999,3.2361945,12.385504750499999,-0.6981770793582837,0.4888789407883757,-0.7449798285797635,12.80131649520963,1.1320109530734943,0.0059820565,0.1999575935000002,0.023928226000000663
92112.0,0.11748366699999999,3.3798619225,12.364028186999999,-0.7240236602510677,0.4539723557484891,-0.7327241265722594,12.818208222528906,1.1256934778385574,0.12209279249999999,0.14366742250000009,-0.021476563500000267
92122.0,0.212019773,3.4288951725,12.330489444,-0.7637264100754346,0.4337213004375989,-0.6844936980226481,12.800126734401195,1.1135186655520029,0.09453610600000001,0.04903324999999992,-0.03353874299999937
92132.0,0.3054771475,3.505485109,12.319702128999998,-0.8130214894687626,0.41400257054856693,-0.6218747751195955,12.812369128477082,1.1041423398678605,0.0934573745,0.07658993650000001,-0.01078731500000174
92142.0,0.4335519965,3.4815568829999997,12.365204984999998,-0.8556563924364801,0.3774972639138536,-0.5539273620102043,12.853306966858865,1.086962542392074,0.128074849,-0.02392822600000022,0.04550285600000059
92152.0,0.536423755,3.471946366,12.202414594999999,-0.9001553070453274,0.3111485723992891,-0.47665290937815535,12.698074025677197,1.065030988716593,0.10287175849999997,-0.009610516999999597,-0.16279038999999962
92162.0,0.5508395304999999,3.4300719705000002,11.9342027175,-0.9321297389418636,0.21522178605117678,-0.392451244944941,12.429562036272863,1.0340233300413098,0.01441577549999995,-0.04187439549999983,-0.26821187749999886
