timestamp,ax,ay,az,gx,gy,gz,acc_mag,gyro_mag,dax,day,daz
121852.0,-0.16357492199999998,0.20476285199999997,10.813596822000001,0.4041850935060988,-0.4055359783471424,0.528768440842706,10.816772199202266,0.7793722368533114,0.0,0.0,0.0
121862.0,0.3511761365,0.15572960199999997,10.839976710499998,0.3655469945254483,-0.4119308647264497,0.5599435119418288,10.846781618156076,0.7853969563772307,0.5147510585,-0.04903325,0.026379888499997506
121872.0,0.37510436249999995,0.1185623985,10.92853076,0.3604837943654128,-0.3495789771989522,0.5948500969817153,10.935609031845038,0.7784604454811477,0.02392822599999994,-0.03716720349999997,0.08855404950000079
121882.0,0.2242780855,0.2909633055,10.890186758499999,0.36341594750876327,-0.305345352636408,0.6318894743675391,10.896381414937334,0.7903108521947736,-0.15082627699999995,0.172400907,-0.0383440015000005
121892.0,0.10699055149999999,0.2586013605,10.904602534,0.35622170033204265,-0.2755019677565569,0.6721245496137643,10.908193162310702,0.8090405701932951,-0.11728753400000001,-0.032361945,0.014415775500001615
121902.0,0.09973363049999999,0.12699611749999998,10.902248938,0.3540889079861056,-0.24725730447153269,0.7062317738562376,10.903444717933636,0.8278154672253043,-0.0072569209999999995,-0.131605243,-0.002353596000000735
121912.0,0.069823348,9.80665e-05,10.9356896145,0.3591521081461411,-0.20355600533084667,0.7275492253400963,10.935912520417586,0.8365124980447354,-0.029910282499999996,-0.12689805099999998,0.03344067649999971
121922.0,-0.000784532,-0.033440676499999995,11.057782407,0.3666133906984169,-0.16225453391165284,0.7262157937915725,11.057832999955007,0.8295307656540543,-0.07060788,-0.033538742999999996,0.12209279250000016
121932.0,0.014808041499999999,-0.019122967499999997,11.2804914285,0.38046955962999984,-0.13374283525107347,0.7054324130588241,11.280517356683648,0.812575609515839,0.015592573499999998,0.014317708999999998,0.22270902150000005
121942.0,0.082964259,0.112580342,11.551056902,0.39672381095382303,-0.12255178408728584,0.6779871105712132,11.551903434279481,0.7950315994106171,0.0681562175,0.1317033095,0.2705654734999996
121952.0,0.20034985949999998,0.25389416849999996,11.825152769499999,0.40658317589833903,-0.1340098706266286,0.6625322200448034,11.829574816408806,0.7888076235346875,0.11738560049999998,0.14131382649999996,0.2740958674999998
121962.0,0.360688587,0.4190381544999999,12.056197443499999,0.40578381510092565,-0.17344733040469246,0.6699935025970792,12.068868465120278,0.8022691409649751,0.16033872750000003,0.16514398599999996,0.23104467399999962
121972.0,0.462481614,0.7303012254999999,12.233403609,0.37993723420814157,-0.22966962159918583,0.7027672952910288,12.263906106292117,0.831253456145545,0.10179302699999998,0.31126307099999995,0.17720616550000123
121982.0,0.5629997765,0.9218251,12.33872703,0.32371319768439627,-0.2965523838648605,0.7632551711773962,12.385915992940598,0.8805066763290469,0.10051816250000001,0.19152387450000008,0.10532342099999958
121992.0,0.6229184079999999,0.944576528,12.3674605145,0.2523013060097963,-0.35943659681421625,0.850121953378406,12.419111551878032,0.9568479250954934,0.059918631499999875,0.022751428000000073,0.028733484500000017
122002.0,0.5917332609999999,0.8871095589999999,12.3435322885,0.17955598278667265,-0.41645999413537493,0.933524257014207,12.389507697204314,1.0378568379616004,-0.03118514699999997,-0.057466969000000145,-0.023928225999998887
122012.0,0.6181131495,0.723142371,12.312347141499998,0.12972857797148651,-0.4724169952835651,0.9929457367276059,12.349044128479074,1.1072256127189182,0.02637988850000006,-0.16396718799999987,-0.03118514700000219
122022.0,0.612131093,0.5112206645,12.2166342375,0.10787880106576951,-0.5094563726693888,1.0225220862319018,12.242638732548077,1.1474907617078578,-0.005982056499999944,-0.21192170649999997,-0.0957129039999991
122032.0,0.6001669799999999,0.28978650749999996,12.084930928,0.10707944026835611,-0.5385003967518265,1.0257195294215555,12.103294268848558,1.1634213496695152,-0.01196411300000011,-0.22143415700000008,-0.13170330949999887
122042.0,0.5810440124999999,0.09826263299999999,11.910176424999998,0.11773642068103349,-0.5438288869581651,1.011065745021811,11.924746125772739,1.1540648438460672,-0.019122967499999977,-0.19152387449999997,-0.17475450300000261
122052.0,0.565451439,0.006080123,11.7880836325,0.12439834243589584,-0.5126538158590425,0.988948932740539,11.801639209219083,1.1208518519787913,-0.015592573499999984,-0.09218251,-0.12209279249999838
122062.0,0.534266292,0.044326057999999995,11.779649913499998,0.12040153844882882,-0.4380444809947888,0.9697625282733653,11.791842831161114,1.0708962877113677,-0.03118514699999997,0.038245934999999995,-0.008433719000001005
122072.0,0.40981990349999997,0.0934573745,11.901742706,0.10388199707870249,-0.35224234963749557,0.9665650850837116,11.909163113921036,1.033979789888606,-0.1244463885,0.0491313165,0.12209279250000193
122082.0,0.30685007849999996,0.06227222749999999,12.0621795,0.09162454974194631,-0.3005491878519275,0.9665650850837116,12.066242542366432,1.0163527616613979,-0.10296982500000001,-0.031185147000000003,0.16043679399999888
122092.0,0.20986230999999997,-0.0693330155,12.213005777,0.0783007062322216,-0.27843237557065537,0.9596378732825461,12.215005500008267,1.0022776243140576,-0.09698776849999999,-0.13160524299999998,0.15082627700000018
122102.0,0.055505638999999996,-0.1028717585,12.311170343499999,0.06151412948654015,-0.28402790115254917,0.9332572216386519,12.311725252836483,0.9774583768633347,-0.15435667099999997,-0.033538742999999996,0.0981645664999995
122112.0,-0.091790244,-0.008335652499999999,12.4033528535,0.026607544446653555,-0.2965523838648605,0.9052795937291828,12.403695293759146,0.9529860547877321,-0.147295883,0.094536106,0.09218251000000066
122122.0,-0.20191892349999999,0.1413138265,12.3890351445,-0.03920882164605262,-0.32000088236540436,0.8911563894220447,12.391486297490047,0.9476801184034855,-0.11012867949999999,0.14964947899999997,-0.014317709000000178
122132.0,-0.359904055,0.20113439149999998,12.354319603499999,-0.12154647443813711,-0.34478281241447184,0.9002163935691473,12.361197305992405,0.9716163277937518,-0.15798513150000001,0.05982056499999999,-0.03471554100000063
122142.0,-0.5394638165,0.2227090215,12.256155036999997,-0.2038823819009696,-0.3746261972943229,0.9180693664877972,12.270043064657543,1.0123063642159538,-0.17955976149999997,0.02157463000000001,-0.09816456650000127
122152.0,-0.6807776429999999,0.11022674599999999,12.168777785499998,-0.2846213130982273,-0.3903463778670358,0.9252636136645179,12.188304267929178,1.0437874981792012,-0.1413138264999999,-0.1124822755,-0.08737725149999953
122162.0,-0.8435680329999999,-0.0885540495,12.118469671,-0.3557661693972721,-0.39727533499745327,0.9108751193110767,12.14811738554288,1.0555049701753731,-0.16279039000000006,-0.1987807955,-0.05030811449999817
122172.0,-1.0159689399999998,-0.40815277299999997,12.059825903999998,-0.38507722885526496,-0.41832575110575687,0.8666414947485324,12.109425354158706,1.0365077841680768,-0.17240090699999988,-0.31959872349999996,-0.05864376700000129
122182.0,-1.0698074485,-0.7038232704999999,11.924494133999998,-0.3837455426359932,-0.44417233199854095,0.7867036696779401,11.993056971630034,0.9815560941131957,-0.05383850850000016,-0.29567049749999996,-0.13533177000000052
122192.0,-1.177582532,-0.665479269,11.786906834499998,-0.37068873450182366,-0.46921955209391153,0.6694594318459689,11.864262977628364,0.8976374863168883,-0.10777508349999998,0.03834400149999995,-0.13758729949999982
122202.0,-1.2877112115,-0.475230259,11.66599084,-0.3403112788708624,-0.5022621254926681,0.5436892606180056,11.746462711908462,0.8146637474090082,-0.11012867950000005,0.19024901,-0.1209159944999989
122212.0,-1.3068341789999998,-0.1830901555,11.612054265,-0.31073492936656644,-0.5472933655233739,0.4442997410339365,11.686793479382969,0.7703820377949953,-0.019122967499999755,0.29214010349999997,-0.05393657499999982
122222.0,-1.2577028625,-0.045404789499999994,11.554587296,-0.3048723684091175,-0.5755380288083982,0.39180547312170305,11.622924144385303,0.7600675709383757,0.0491313164999998,0.137685366,-0.057466969000000034
122232.0,-1.2589777269999998,0.09698776849999999,11.5570389585,-0.3309859846774566,-0.5787354719980518,0.3766176179708484,11.625815284641652,0.7657201177765602,-0.001274864499999806,0.14239255799999997,0.0024516625000003955
122242.0,-1.2433851535,0.1185623985,11.543898047499999,-0.3965353153946077,-0.5814005897658471,0.38168081813088395,11.611272359795743,0.8005917493106188,0.015592573499999762,0.02157463000000001,-0.013140911000000699
122252.0,-1.272118638,0.012062179499999999,11.449263875,-0.47594081504334174,-0.5856644291284693,0.379815061160502,11.519725457002059,0.8448561792724559,-0.028733484500000017,-0.10650021900000001,-0.09463417249999928
122262.0,-1.2529956704999998,-0.1016949605,11.297260799999998,-0.5473527067179417,-0.5816676251414022,0.3600963312714701,11.36698911754997,0.8761287459524818,0.0191229675000002,-0.11375714,-0.15200307500000143
122272.0,-1.2182801294999999,-0.2154521005,11.173991209499999,-0.6022450570224154,-0.5563533696704764,0.3145327658189061,11.242273152326785,0.8781566155449249,0.03471554099999996,-0.11375713999999999,-0.12326959049999964
122282.0,-1.2422083555,-0.362649917,11.0973032065,-0.629423324134471,-0.5062589294797352,0.24711767813137311,11.172499049799436,0.8447123602076009,-0.02392822600000022,-0.1471978165,-0.07668800299999923
122292.0,-1.2649597835,-0.38902980549999994,10.954910648499999,-0.6502084501964714,-0.44177424960630074,0.1645129899637335,11.034560922848648,0.8031189452309757,-0.02275142799999985,-0.02637988849999995,-0.14239255800000095
122302.0,-1.3498853725,-0.17230284049999997,10.8997972755,-0.6739222387433186,-0.398607021216725,0.06938730974228656,10.984418939330885,0.7860491969268522,-0.08492558900000002,0.21672696499999997,-0.0551133729999993
122312.0,-1.3498853725,0.07904159899999999,10.8650817345,-0.7016345766064844,-0.3903463778670358,-0.010819296033112848,10.94890127778251,0.8029809655093497,0.0,0.25134443949999996,-0.03471554099999885
122322.0,-1.2781006945,0.179657828,10.7370068855,-0.740537965633438,-0.4116638293508946,-0.039330994693692216,10.814302343642769,0.8481807083894025,0.07178467799999999,0.100616229,-0.12807484900000077
122332.0,-1.1560079019999998,0.247912112,10.5275368415,-0.7938315943430848,-0.4572291401327105,-0.03346843373624326,10.59371731895384,0.9167045449982993,0.12209279250000016,0.068254284,-0.2094700439999997
122342.0,-1.0482328184999998,0.3005738225,10.344348619499998,-0.8500538855375783,-0.486007874168845,-0.026274186559522638,10.401667415674481,0.9795333557112891,0.10777508349999998,0.052661710499999986,-0.18318822200000184
122352.0,-0.970466084,0.28978650749999996,10.137232171499999,-0.8969526278679179,-0.4878718858099749,-0.022010347196900492,10.187701249006958,1.0212871530508316,0.07776673449999982,-0.01078731500000002,-0.20711644799999895
122362.0,-0.9680144215,0.1868166825,9.932567385999999,-0.9273283381696271,-0.47401571687839195,-0.02733883740323918,9.98137501903035,1.0418138790833702,0.0024516624999999515,-0.10296982499999996,-0.20466478550000033
122372.0,-0.9512450499999999,-0.028635417999999996,9.703876307999998,-0.9382540992871117,-0.45003489295598986,-0.057716293034200485,9.750430889621095,1.042201194678162,0.01676937150000013,-0.2154521005,-0.22869107800000066
122382.0,-0.9405558014999998,-0.16877244649999998,9.4764600945,-0.9486457896534859,-0.4116638293508946,-0.11287393338497728,9.524517062669574,1.040257885075102,0.010689248500000081,-0.14013702849999998,-0.22741621349999797
122392.0,-0.9752713424999999,-0.28360831799999997,9.2430618245,-0.9728936489514431,-0.365033867725362,-0.183753499637719,9.298697745441014,1.0552426855400137,-0.03471554100000007,-0.11483587149999999,-0.23339827000000035
122402.0,-0.9525199144999998,-0.38059608649999993,8.983283665999998,-1.0096659909617116,-0.3080104704042033,-0.25729643832900406,9.0416554342886,1.0865069352563308,0.022751428000000073,-0.09698776849999996,-0.2597781585000014
122412.0,-0.912999115,-0.47395539449999996,8.789308128999998,-1.044305540626043,-0.25178643388045796,-0.3169849534179581,8.849301581846552,1.1200222904754509,0.03952079949999987,-0.09335930800000003,-0.19397553700000003
122422.0,-0.9058402604999999,-0.47640705699999997,8.6421103125,-1.0645565959369332,-0.21608048804315796,-0.36628003281128596,8.702504289853637,1.1463562211206588,0.007158854500000089,-0.002451662500000007,-0.14719781649999852
122432.0,-0.7812958055,-0.5422096784999999,8.4959912275,-1.0749482863033075,-0.202224319111575,-0.396123417691137,8.549051491768424,1.163323796502876,0.12454445499999989,-0.06580262149999994,-0.14611908500000048
122442.0,-0.693918554,-0.584084074,8.294954902499999,-1.0784127648685162,-0.19716111895153943,-0.4171738337994406,8.344396562939387,1.1729793714573604,0.08737725149999997,-0.04187439550000005,-0.20103632500000046
122452.0,-0.635274787,-0.6343921884999999,8.0639102285,-1.056030662540941,-0.20115792293860643,-0.43742488911033084,8.113733769180168,1.1606057917315502,0.05864376700000007,-0.050308114499999945,-0.23104467399999962
122462.0,-0.6017360439999999,-0.676266584,7.7490186969999995,-1.0085995947887432,-0.1920996641207559,-0.45607722282639424,7.8017122175673315,1.123468671901607,0.03353874300000004,-0.04187439550000005,-0.3148915314999998
122472.0,-0.552702794,-0.7122569894999999,7.509638370499999,-0.9395857855063834,-0.1499970865748967,-0.4792604312806349,7.56356125467844,1.06536901367456,0.04903324999999992,-0.03599040549999999,-0.23938032650000007
122482.0,-0.5059250734999999,-0.8318981194999999,7.43540203,-0.8567158072924406,-0.08311606963847396,-0.5077721299412142,7.498881117136858,0.9993511852406657,0.046777720500000064,-0.11964112999999998,-0.07423634049999972
122492.0,-0.4532633629999999,-0.9229038314999999,7.45697666,-0.7815741470063288,-0.0188984251405946,-0.5496059267822664,7.527529479598217,0.9556578741870225,0.052661710500000014,-0.09100571199999996,0.021574629999999928
122502.0,-0.3862839435,-1.0641195915,7.472471166999999,-0.7386722086630562,0.026399850265666228,-0.6047635671330431,7.557737170057343,0.955024898144907,0.06697941949999991,-0.14121576000000002,0.015494506999999658
122512.0,-0.26056269049999997,-1.205433418,7.5060099099999995,-0.7194875495251344,0.056243235145517274,-0.6735103410398479,7.6066515241550245,0.9871381944332459,0.12572125300000003,-0.14131382650000002,0.03353874300000026
122522.0,-0.1336646395,-1.1778767314999998,7.4485429409999995,-0.7082964983613468,0.08502196918165178,-0.7539822368615504,7.54228425441409,1.0379797099833976,0.12689805099999998,0.027556686500000094,-0.057466969000000034
122532.0,-0.0283412185,-1.0461734219999999,7.441384086499999,-0.6992364942142442,0.11539942481261307,-0.8360528542780796,7.514617699948594,1.096007790681541,0.10532342099999999,0.13170330949999998,-0.007158854500000089
122542.0,0.13209557549999998,-0.9288858879999999,7.529938135999999,-0.6939080040079056,0.14923961367953115,-0.9077317813282348,7.588164901079797,1.1522837181661387,0.160436794,0.11728753399999992,0.0885540494999999
122552.0,0.25899362649999996,-0.7971825785,7.5563180245,-0.6952396902271772,0.17108939058524814,-0.9535623821563539,7.602665312205655,1.1924391066640314,0.12689805099999998,0.13170330949999998,0.02637988850000106
122562.0,0.37510436249999995,-0.6008534455,7.5778926545,-0.6931086432104921,0.18654428111165794,-0.9698166334801772,7.610925385842435,1.206541612495557,0.11611073599999999,0.196329133,0.021574629999999928
122572.0,0.448163905,-0.4978836205,7.5167972249999995,-0.6827152075148659,0.21638766599150897,-0.9562274999241492,7.546587275522277,1.1946943994915638,0.07305954250000002,0.10296982499999996,-0.0610954295000008
122582.0,0.5319126959999999,-0.48238911349999997,7.4772764254999995,-0.6699254347562514,0.2742104241100811,-0.925850044293188,7.511677117417078,1.1752402942980134,0.08374879099999993,0.015494507000000046,-0.03952079949999998
122592.0,0.6096794305,-0.5553505894999999,7.547884305499999,-0.6685937485369798,0.35068551594471664,-0.89200985542627,7.592804539460107,1.168622913455721,0.07776673450000005,-0.07296147599999997,0.07060787999999985
122602.0,0.6372361169999999,-0.6068355019999999,7.7071443015,-0.674988634916287,0.4162348466618677,-0.8661632745334858,7.757215510699747,1.1743508517442103,0.027556686499999983,-0.05148491249999998,0.1592599960000003
122612.0,0.57859235,-0.641551043,7.860422241,-0.6699254347562514,0.4474116630902424,-0.8477779761929777,7.907755348710554,1.1694891112449017,-0.05864376699999996,-0.03471554100000007,0.15327793950000057
122622.0,0.5486820674999999,-0.6798950444999999,7.9011198385,-0.6408814106738138,0.4322220626101358,-0.8288586071013591,7.949276947312252,1.1333805559123655,-0.02991028250000005,-0.03834400149999995,0.04069759749999946
122632.0,0.5857512045,-0.779236409,7.862775837,-0.5963824960649664,0.39305338353687896,-0.8139360419968076,7.9229765692948675,1.0828919264561434,0.03706913700000003,-0.09934136450000008,-0.038344001499999614
122642.0,0.6144846889999999,-0.950460518,7.7969732155,-0.5452216597012566,0.3600108101381223,-0.815002438169776,7.8786901165432734,1.0445589575731853,0.028733484499999906,-0.17122410899999996,-0.0658026214999996
122652.0,0.55701772,-1.1048171889999998,7.731072527499999,-0.49006401935047983,0.33975975482723214,-0.8317890149154576,7.82945542084308,1.0234609906568182,-0.05746696899999981,-0.15435667099999983,-0.06590068800000104
122662.0,0.485233042,-1.1215865605,7.698808648999999,-0.43357294745117936,0.3229731780815507,-0.860300713576037,7.795194810372605,1.0160779951859202,-0.07178467800000005,-0.01676937150000013,-0.03226387850000023
122672.0,0.46728687249999995,-1.0378377694999998,7.677234018999999,-0.3717551306747922,0.31471253473186156,-0.8938756123966518,7.761145948859772,1.0179683036017744,-0.017946169500000053,0.0837487910000001,-0.021574629999999928
122682.0,0.460128018,-0.977919138,7.6425184779999995,-0.3221930159059092,0.3299003898827162,-0.9106621891423333,7.718557658007531,1.0207586538828954,-0.007158854499999923,0.059918631499999875,-0.03471554099999974
122692.0,0.482879446,-0.9576193725,7.6161385895,-0.2984774820298103,0.35841208854329554,-0.9175911462727508,7.691279115753609,1.0293306292008237,0.022751427999999962,0.02029976550000001,-0.026379888499999282
122702.0,0.5116129305,-0.9647782269999999,7.656836187,-0.2955453288864598,0.39625082672653256,-0.9183905070701642,7.734318665047411,1.0429778917046417,0.028733484500000017,-0.007158854499999978,0.04069759749999946
122712.0,0.5475052694999999,-1.033032511,7.655659388999999,-0.31339830180510975,0.43621886659720277,-0.9149260285049554,7.744419853629908,1.0609406358442142,0.035892338999999884,-0.06825428400000011,-0.0011767980000003675
122722.0,0.5774155519999999,-1.1096224474999998,7.6747823565,-0.341644710419386,0.4753892909997115,-0.9157253893023688,7.776050084415033,1.0868620311556243,0.02991028250000005,-0.07658993649999979,0.01912296750000042
122732.0,0.48886150249999993,-1.185035586,7.714303156,-0.35443448317800047,0.4908441815261213,-0.9314473152043339,7.820087473384455,1.1109212008081697,-0.08855404950000001,-0.07541313850000009,0.03952079949999998
122742.0,0.430119669,-1.2257331835,7.7753985855,-0.3357821494619371,0.47672272254823517,-0.9610236647086298,7.883162305203991,1.124091050680987,-0.05874183349999995,-0.04069759750000013,0.06109542949999991
122752.0,0.5031792115,-1.310756839,7.733524189999999,-0.30220725064132214,0.4514084670773094,-0.9964643204996266,7.859940789038182,1.134918485406796,0.07305954250000002,-0.0850236554999999,-0.041874395500000716
122762.0,0.554664124,-1.286828613,7.670075164499999,-0.2667683401795773,0.42795996857676555,-1.019113458202757,7.7970272026438305,1.1370608263045454,0.05148491249999998,0.023928225999999997,-0.06344902549999976
122772.0,0.5917332609999999,-1.207787014,7.6041744765,-0.22919663737189536,0.4178335682566945,-1.024974273830954,7.7221996343279535,1.1303487299767259,0.03706913699999992,0.07904159899999996,-0.06590068799999926
122782.0,0.626448802,-1.124038223,7.45697666,-0.20654749966876496,0.430890376390864,-1.013250897245308,7.567192407761083,1.1202703989903957,0.03471554100000007,0.0837487910000001,-0.1471978165000003
122792.0,0.6791105125,-1.13953273,7.3576352955,-0.19562173855128043,0.4785867341893651,-0.9924657711833076,7.4762639782525495,1.1190627478860804,0.052661710500000014,-0.015494507000000102,-0.09934136449999986
122802.0,0.6504750945,-1.1383559319999998,7.3252733505,-0.19215900531532368,0.5561282221969692,-0.981541755395075,7.441680034510343,1.144389750230131,-0.028635418000000024,0.0011767980000001454,-0.03236194499999989
122812.0,0.6036973739999999,-1.1587537639999999,7.373129802499999,-0.19668813472424895,0.6368654080649748,-0.98127472001952,7.488003999028869,1.1862478014649631,-0.046777720500000064,-0.020397832000000005,0.04785645199999955
122822.0,0.5271074375,-1.1072688515,7.521602483499999,-0.2078791858880366,0.7018824133602677,-0.9860708848040004,7.620917955204825,1.2280832496081244,-0.0765899364999999,0.05148491249999987,0.14847268099999944
122832.0,0.45532275949999995,-1.053430343,7.646048872,-0.21320942142362728,0.7247985864389532,-0.993265131980721,7.731694358669661,1.2479450591658199,-0.07178467800000005,0.05383850849999994,0.12444638850000089
122842.0,0.45169429899999997,-1.0162631395,7.782557439999999,-0.20601517424690668,0.7024147387821258,-0.9980630420944534,7.861616806697897,1.2377231327211995,-0.003628460499999986,0.037167203500000134,0.1365085679999991
122852.0,0.5163201225,-0.9576193725,7.783734237999999,-0.19002621296938663,0.6408622120520419,-1.0057896146930323,7.859398197018595,1.2076535453001747,0.06462582350000007,0.05864376699999996,0.0011767980000003675
122862.0,0.5893796649999999,-0.8905418865,7.691551727999999,-0.16604538904698454,0.5662528771877883,-1.0055225793174771,7.7653332977809955,1.1658855216806172,0.07305954249999991,0.06707748599999996,-0.09218250999999977
122872.0,0.634882521,-0.8056162975,7.490515403,-0.13087176863154282,0.4991048248758104,-0.9922004811370044,7.56041760995047,1.1183446878344638,0.045502856000000036,0.08492558900000002,-0.20103632499999957
122882.0,0.7234365705,-0.708628529,7.310857575,-0.08850390103938045,0.4572692827055064,-0.9663539002442204,7.380660766190544,1.0727385505902234,0.08855404950000001,0.09698776850000002,-0.17965782799999985
122892.0,0.8563166779999999,-0.6906823595,7.1372798699999995,-0.050399872809840256,0.4522078278747228,-0.9335783622210189,7.221570765245789,1.038556991781242,0.1328801074999999,0.017946169499999942,-0.17357770500000047
122902.0,0.936535075,-0.6320385924999999,7.009205021,-0.016292648567367066,0.4801854557841919,-0.8949420085696205,7.099684905369128,1.0157582000883076,0.08021839700000011,0.05864376700000007,-0.12807484899999988
122912.0,0.9544812444999999,-0.5171046545,6.950561253999999,0.020212658067346328,0.5262830919878662,-0.8541728625722849,7.03482291286809,1.0034907690723356,0.017946169499999942,0.11493393799999996,-0.0586437670000004
122922.0,1.0239123264999999,-0.39971905399999996,6.950561253999999,0.05911604709429994,0.5782432891489893,-0.818732206781288,7.036936373173722,1.0040828824807515,0.06943108199999992,0.11738560050000002,0.0
122932.0,1.178367064,-0.226141349,7.01763874,0.07883303165407987,0.625407321525632,-0.7864907395091968,7.119476268125086,1.007926906095557,0.15445473750000005,0.17357770499999997,0.06707748600000052
122942.0,1.3112471714999998,-0.106500219,7.072654046499999,0.0681760512414025,0.6611132673629321,-0.7411924641029359,7.193965992613991,0.9955325183484184,0.1328801074999999,0.11964113,0.05501530649999964
122952.0,1.447657673,-0.033440676499999995,7.067848788,0.06151412948654015,0.6797656010789954,-0.6902986631147813,7.214659902384423,0.970761301677621,0.13641050150000011,0.07305954249999999,-0.004805258499999354
122962.0,1.7230284049999998,0.004903325,7.040390167999999,0.05591860390464632,0.7005507271409959,-0.6465991093033473,7.248168364814931,0.9549809525390047,0.27537073199999984,0.038344001499999995,-0.027458620000000877
122972.0,2.0306630155,0.0575650355,6.927809825999999,0.02554114827368502,0.7461160379228119,-0.600499727770421,7.219519028373968,0.958092592265029,0.3076346105000003,0.0526617105,-0.11258034200000022
122982.0,2.229443811,0.12817291549999998,6.870342857,-0.012295844580300051,0.8279196199637862,-0.5392142364158922,7.2241580115197435,0.98810630889014,0.19878079549999983,0.07060787999999998,-0.057466968999999146
122992.0,2.187471349,0.07305954249999999,6.866812462999999,-0.01682671931847733,0.924911057155615,-0.4779269997321112,7.2071826674129955,1.041228994604298,-0.04197246199999993,-0.05511337299999999,-0.0035303940000011025
123002.0,2.114509873,-0.10532342099999999,6.9158457129999995,0.029804987636307165,1.0187067964870424,-0.43662552831291745,7.232645916401969,1.1087351922219422,-0.07296147600000014,-0.1783829635,0.049033250000000805
123012.0,2.0103632499999997,-0.226141349,6.993710514,0.10414728712500564,1.117296955273698,-0.41237766901496026,7.280431790787704,1.195514318434366,-0.1041466230000001,-0.120817928,0.07786480100000048
123022.0,1.8726778839999998,-0.177108099,7.1372798699999995,0.17236173560995202,1.2268146205070902,-0.4022512686948891,7.380992729888122,1.3025316749158458,-0.13768536599999992,0.04903325,0.14356935599999954
123032.0,1.8379623429999998,-0.0418743955,7.400686489,0.19767599108087777,1.3299339087026711,-0.39185957832851487,7.625616011034891,1.4004834622710736,-0.03471554099999996,0.1352337035,0.2634066190000004
123042.0,1.8786599404999997,0.1413138265,7.6257491065,0.17129708476623548,1.4154690046844092,-0.35588834244491174,7.8550227373881665,1.469541325298431,0.040697597499999905,0.18318822199999998,0.2250626174999999
123052.0,1.940932168,0.2419300555,7.9022966365,0.1132072912721082,1.4991383436957655,-0.2876738939599654,8.140764089676756,1.5306821791613503,0.06227222750000028,0.100616229,0.2765475300000002
123062.0,2.0175221045,0.1413138265,8.258964497,0.05698325474836286,1.5513655762324439,-0.19014838601702622,8.502991215002673,1.5640136352172953,0.07658993649999979,-0.100616229,0.3566678604999991
123072.0,2.071360613,-0.0993413645,8.567873972,0.044193481989748415,1.546035340696853,-0.08089775615918918,8.81526334807211,1.5487810644134323,0.05383850850000016,-0.240655191,0.3089094750000001
123082.0,1.944462562,-0.34833220800000003,8.917382978,0.10867816186318291,1.4740911236003946,0.007300712261092281,9.133563880461661,1.4781099025251652,-0.12689805099999996,-0.24899084350000003,0.3495090059999999
123092.0,1.6966485164999998,-0.5063173395,9.2334513075,0.25549874919944987,1.3469892661531597,0.07711388234086547,9.401680513865244,1.3731737853687682,-0.2478140455000002,-0.1579851315,0.3160683295000002
123102.0,1.433339964,-0.7074517309999999,9.492052668,0.434295513761505,1.2057624590695346,0.12960640492384692,9.625695572590082,1.2881279133580115,-0.26330855249999985,-0.2011343914999999,0.25860136050000015
123112.0,1.2657443154999999,-0.825916063,9.6859301385,0.5968362816704849,1.0536133815269288,0.17943555506828504,9.80313667472022,1.224137175023095,-0.16759564850000008,-0.11846433200000006,0.19387747050000037
123122.0,1.167579749,-0.7456976659999999,9.896675046999999,0.7236728490714168,0.9217136139659614,0.2148744655300299,9.993171892110391,1.1913980924066274,-0.09816456649999994,0.08021839700000011,0.21074490849999883
123132.0,1.1759154015,-0.7493261265,10.0642706955,0.7894892151641231,0.821790023630782,0.2404557563765108,10.160404091749522,1.1646677786279418,0.008335652500000013,-0.003628460500000097,0.16759564850000075
123142.0,1.2908493394999998,-0.7408924075,10.188717084,0.8017466625008792,0.7421192339357449,0.2641712902526097,10.296852402291304,1.1239773746843857,0.11493393799999985,0.008433719000000006,0.12444638850000089
123152.0,1.3986244229999998,-0.6822486405,10.359941193,0.7777640932492251,0.6805649618764088,0.29055019656725206,10.47616318155146,1.0735478884553291,0.10777508349999998,0.05864376699999996,0.17122410899999885
123162.0,1.421375851,-0.6236048734999999,10.473600266499998,0.745789661352689,0.5984960897891315,0.3259891070289969,10.587988236227304,1.0102814886827343,0.022751428000000296,0.05864376700000007,0.11365907349999915
123172.0,1.4752143595,-0.5877125344999999,10.613737295,0.7311341316236927,0.49617441706171195,0.36782464919930097,10.731872287581385,0.957100382995561,0.05383850849999994,0.035892338999999995,0.14013702850000165
123182.0,1.582989443,-0.5829072759999999,10.7273963685,0.7492541399178977,0.39065530114463876,0.40353059503660094,10.859220474599923,0.936392156965825,0.10777508349999998,0.00480525850000002,0.11365907349999915
123192.0,1.6165281859999998,-0.5541737914999999,10.7585815155,0.8065428272853596,0.30991636994738114,0.43976886629575923,10.893454373750146,0.9695133544051266,0.033538742999999815,0.028733484500000017,0.031185147000000413
123202.0,1.5494507,-0.4716017985,10.8411535085,0.8680953540154436,0.3019227619732471,0.49226313420799267,10.9614695694939,1.042626438932482,-0.06707748599999985,0.0825719929999999,0.08257199300000018
123212.0,1.3949959624999997,-0.385401345,10.92853076,0.8976734488489915,0.34082615100020064,0.5668724690722462,11.023943600381184,1.115044609944427,-0.15445473750000027,0.0862004535,0.08737725149999953
123222.0,1.2322055725,-0.38177288449999996,11.099754869,0.9067334529960941,0.4007799561354579,0.6659966986100122,11.174463712417197,1.1942954955041885,-0.16279038999999962,0.0036284605000000414,0.17122410900000062
123232.0,1.11011278,-0.5302455655,11.413371536,0.902469613633472,0.4559375964862347,0.7699170929322586,11.479484333489319,1.2708669581866754,-0.12209279250000016,-0.14847268100000005,0.3136166669999998
123242.0,0.9066247924999999,-0.7840416674999999,11.7198293485,0.8835502445418534,0.44101677671093514,0.8463904394376421,11.780963025521887,1.3005897154529236,-0.20348798749999997,-0.2537961019999999,0.3064578124999997
123252.0,0.6958798839999999,-0.9360447424999999,11.954502482999999,0.876888322786991,0.3370963823886888,0.8847615030427375,12.011267967578231,1.290492161512873,-0.21074490850000005,-0.152003075,0.2346731344999995
123262.0,0.6695980619999999,-1.043819826,12.147203155499998,0.8995374604901215,0.188675328128343,0.8746368480519183,12.210342578927666,1.2687614583677853,-0.026281821999999955,-0.10777508350000009,0.19270067249999911
123272.0,0.8119906199999999,-1.1036403909999999,12.201041663999998,0.9504330068075282,0.046650905576556434,0.8370651452442364,12.277734667530426,1.2673504901182886,0.14239255799999995,-0.05982056499999988,0.05383850850000016
123282.0,0.982037931,-0.9707602834999999,12.329116512999999,1.005590647158305,-0.0476771591767291,0.7986940816391411,12.406203610173138,1.2850672734159925,0.17004731100000015,0.1328801075,0.12807484900000077
123292.0,1.0466637545,-0.7456976659999999,12.535056162999998,1.0378321144303961,-0.12494986647952604,0.7752455831385974,12.60076200210234,1.3014275550533814,0.0646258234999999,0.2250626175,0.20593964999999947
123302.0,1.0705919805,-0.5111225979999999,12.7157927225,1.0452933969826719,-0.20355600533084667,0.7962959992469009,12.771013979339351,1.3297220203856315,0.023928225999999997,0.23457506799999994,0.18073655950000145
123312.0,0.956932907,-0.24291072049999998,12.8283730645,1.0383644398522545,-0.25791603021346204,0.867974926297056,12.866308005353455,1.3777161758762715,-0.11365907349999993,0.2682118775,0.11258034199999933
123322.0,0.752170055,0.010885381500000001,12.8738759205,1.0293061810344037,-0.2853613327010729,0.9713612498681921,12.895834967135661,1.4437607081029935,-0.204762852,0.25379610199999997,0.04550285600000059
123332.0,0.49484355899999993,0.049131316499999994,12.927714429,1.0039919255634782,-0.28562662274737605,1.0968661310498522,12.937274998697353,1.5141656658579352,-0.25732649600000007,0.038245934999999995,0.05383850850000016
123342.0,0.2111371745,-0.02745862,12.991163454499999,0.9493666106345596,-0.27896644632176565,1.2167737413203668,12.99290809571916,1.5683295499122336,-0.28370638449999996,-0.0765899365,0.06344902549999887
123352.0,0.020790097999999996,-0.213000438,13.017445276499998,0.8582359890709276,-0.2621781242468322,1.3015094765046915,13.019204389725017,1.5808963594118548,-0.1903470765,-0.185541818,0.02628182199999962
123362.0,-0.12287732449999998,-0.4284525385,13.019896939,0.7383283788004132,-0.23153537856956777,1.3353496653716095,13.0275241975137,1.5433392871560903,-0.14366742249999997,-0.2154521005,0.002451662500002172
123372.0,-0.32999377249999995,-0.573296759,13.056966075999998,0.6152233253402452,-0.19609646810782289,1.3249579750052354,13.073711338926811,1.4739291707463575,-0.20711644799999995,-0.1448442205,0.03706913699999781
123382.0,-0.569374099,-0.640374245,13.101292134,0.5184971781947194,-0.18623710316330694,1.28898499379238,13.129284886035554,1.4017866801380618,-0.23938032650000007,-0.06707748599999996,0.04432605800000111
123392.0,-0.9141759129999999,-0.596048187,13.132379214499998,0.45827633768390713,-0.2038230407064018,1.2495492793435683,13.177646788200349,1.3464525372666536,-0.3448018139999999,0.044326058,0.031087080499998976
123402.0,-1.2996753245000001,-0.544661341,13.165917957499998,0.4278988820529458,-0.24672323372042243,1.2351590396608751,13.241118064163427,1.3302584938934232,-0.3854994115000002,0.051386845999999986,0.03353874299999937
123412.0,-1.6144687894999998,-0.5793768819999999,13.183864126999998,0.4175071916865715,-0.311474948969412,1.241021600618324,13.294978765039945,1.3459062048102652,-0.3147934649999997,-0.03471554099999996,0.017946169500000053
123422.0,-1.9233782645,-0.6667541334999999,13.1288488205,0.4153761446698864,-0.39221213483741774,1.2359584004582886,13.285729802100997,1.361602316367725,-0.3089094750000001,-0.08737725149999997,-0.05501530649999786
123432.0,-2.14961768,-0.7361852154999999,13.0378431085,0.40658317589833903,-0.48147699943066774,1.2023852469669254,13.234355963308163,1.3575198937872155,-0.22623941550000004,-0.06943108200000003,-0.0910057119999994
123442.0,-2.280046125,-0.7505029245,12.8523012905,0.3833999674440983,-0.573139946416158,1.1426967318779715,13.074536834381497,1.3346313177273523,-0.13042844500000017,-0.014317709000000067,-0.1855418180000008
123452.0,-2.2956386985,-0.6895055615,12.616451358,0.35222489634497567,-0.6557428892545456,1.0659563499970328,12.842126763981513,1.30012463037669,-0.015592573499999762,0.06099736300000003,-0.23584993249999897
123462.0,-2.3076028115,-0.512299396,12.354319603499999,0.3205157544947427,-0.706371400196397,0.9950767837442911,12.578421771915943,1.261692795192885,-0.011964112999999887,0.1772061655,-0.26213175450000215
123472.0,-2.405767378,-0.26929060899999996,12.150831615999998,0.2741510829155133,-0.6967790706274362,0.9441829827561364,12.389630465414603,1.2050482954863082,-0.09816456650000038,0.243008787,-0.20348798750000086
123482.0,-2.5625757114999996,-0.07060788,11.893407053499999,0.19634430486160612,-0.6397556733062775,0.9170029703148287,12.166548857014932,1.1352237026883178,-0.15680833349999945,0.19868272899999995,-0.2574245624999989
123492.0,-2.6798632455,0.0610954295,11.6623623795,0.10281560090573397,-0.5558210442486182,0.9087440722943916,11.966457117161474,1.0701980517406233,-0.11728753400000036,0.1317033095,-0.23104467399999962
123502.0,-2.8403000394999998,0.1424906245,11.4301409075,0.016481144126582456,-0.4625576303390492,0.9018151151639741,11.778613206051,1.0136575809585846,-0.16043679399999977,0.081395195,-0.2322214719999991
123512.0,-3.009072486,0.2095681105,11.196644570999998,-0.04507138260350156,-0.3770242796865631,0.8836951068697689,11.595830529472416,0.9618189948782127,-0.16877244650000023,0.06707748599999999,-0.2334963365000018
