timestamp,ax,ay,az,gx,gy,gz,acc_mag,gyro_mag,dax,day,daz
42192.0,-0.3660822445,0.3323473685,9.5704078015,0.12370893738135808,0.15293622103525514,-0.014821336007935846,9.583171524610163,0.19726393713405732,0.0,0.0,0.0
42202.0,0.735302617,0.4245298785,9.7834082395,0.1396978986588781,0.11483219280571491,0.003563962332572421,9.820181889202601,0.18087188068293827,1.1013848615,0.09218251,0.2130004379999999
42212.0,1.1266860185,0.612523359,10.030045486999999,0.17566913454248126,0.12629027934505768,0.023815017643462628,10.111697123672815,0.21766036514100476,0.39138340150000006,0.18799348049999998,0.24663724749999894
42222.0,1.084811623,0.800418773,10.299434162499999,0.21537188436684826,0.11802963599536853,0.061119685075589424,10.387291780692346,0.25308429317653336,-0.04187439550000005,0.18789541399999998,0.2693886755000001
42232.0,1.1339429394999998,0.8171881445,10.592652997499998,0.24068613983777404,0.08578816872327728,0.10108947027551156,10.684471001364502,0.2747881161977089,0.0491313164999998,0.01676937150000002,0.29321883499999934
42242.0,1.2728051034999999,0.5957539875,10.848900762,0.24415061840298277,0.054878387670457704,0.11894244319416156,10.93954310695113,0.27707123035938663,0.13886216400000007,-0.22143415700000002,0.2562477645000012
42252.0,1.3972514919999999,0.3515684025,11.1133861125,0.24628166541966787,0.02769837522915001,0.09842609783696822,11.20639384275961,0.2666637497816913,0.1244463885,-0.24418558499999998,0.2644853505000011
42262.0,1.5205210825,0.26409308449999996,11.3899336425,0.2737269679072787,0.013309880875708757,0.052860787055152264,11.494012262920247,0.2791018966197258,0.12326959050000008,-0.08747531800000002,0.2765475300000002
42272.0,1.5660239384999999,0.418547822,11.593421629999998,0.3033050627408266,0.019704767255015982,0.016887805842297134,11.706196579000705,0.30441326666713825,0.045502855999999925,0.15445473750000005,0.2034879874999973
42282.0,1.6234909075,0.6843080369999999,11.901154307,0.3374122869832998,0.028232445980260274,0.00862716249260797,12.030855084126923,0.33870127006848205,0.057466969000000034,0.26576021499999986,0.3077326770000024
42292.0,1.7156734175,0.9776249385,12.226735087,0.3483380481007843,0.045019022725941736,0.06724928140859351,12.385165993379749,0.3576151199429847,0.09218251,0.2933169015000001,0.32558077999999924
42302.0,1.556511488,1.1571847,12.594190262499998,0.3278199574143389,0.061273274049764924,0.17303543270122182,12.74266192011072,0.37571478485949367,-0.15916192949999997,0.17955976149999997,0.3674551754999982
42312.0,1.537290454,0.8028704354999999,12.7546270565,0.276392085675074,0.05141390910524896,0.2412498811861682,12.87199962036052,0.370455773670273,-0.01922103399999986,-0.35431426450000003,0.16043679400000244
42322.0,1.4283385725,1.0218529299999999,13.234662574,0.16714320114648895,0.055944783843426237,0.36328853847336773,13.350678931645282,0.40378859656372035,-0.10895188150000013,0.21898249449999996,0.4800355174999993
42332.0,1.1087398489999998,1.0039067605,13.569853871,0.01952325301280857,0.017840755613886036,0.4658772465763424,13.652035266466015,0.46662732329625817,-0.3195987235000002,-0.01794616949999983,0.3351912969999997
42342.0,0.8514133529999999,0.7621728379999999,13.717149754,-0.11877140092746613,-0.05543689303109589,0.5815210174842347,13.764665252243294,0.5961095440966481,-0.2573264959999999,-0.24173392250000014,0.14729588299999996
42352.0,0.4994526845,0.600559246,13.6919466635,-0.2120330695077831,-0.15216304017662163,0.6726516390478666,13.714208975662398,0.7215066464520379,-0.35196066849999985,-0.16161359199999992,-0.025203090499999803
42362.0,0.1893664115,0.32881697449999997,13.5387667905,-0.24507389757728779,-0.2590138423129665,0.727276953976785,13.544083078897199,0.809988366317196,-0.310086273,-0.2717422715,-0.15317987299999913
42372.0,-0.07992419749999999,0.11454167199999998,13.313704173,-0.2477390153450831,-0.34907806770362987,0.7581867350296047,13.314436769091218,0.8706763131329021,-0.269290609,-0.2142753025,-0.22506261750000078
42382.0,-0.31342053400000003,-0.044718324,13.131692748999999,-0.22082603827933056,-0.40317105721069013,0.7704441823663609,13.135508616485826,0.8971595614475166,-0.23349633650000004,-0.159259996,-0.1820114240000006
42392.0,-0.44149538299999996,-0.1189546645,12.984494932499999,-0.20217370456326716,-0.42661955571123394,0.7717758685856325,12.992543132025185,0.9047189859084386,-0.12807484899999994,-0.0742363405,-0.1471978165000003
42402.0,-0.5647649735,-0.1979962635,12.8923124225,-0.21922731668450376,-0.4175595515641313,0.746995683865817,12.906195473298869,0.8834133501353066,-0.12326959050000003,-0.07904159899999999,-0.09218250999999889
42412.0,-0.6353728535,-0.220649625,12.6971600875,-0.25839774108701247,-0.39144593529579225,0.7022297338814145,12.714962021476131,0.8444678276912807,-0.07060787999999996,-0.022653361499999997,-0.1951523349999995
42422.0,-0.695291485,-0.080610663,12.6014471835,-0.33380643674867944,-0.3501444638765984,0.6529329091588346,12.620871580308663,0.8126187708027053,-0.0599186315000001,0.140038962,-0.09571290400000088
42432.0,-0.683327372,-0.1081673495,12.363243654999998,-0.42067321894968923,-0.29818426671547527,0.6031055043436485,12.382585761694525,0.7934834991527836,0.011964112999999998,-0.027556686499999997,-0.23820352850000148
42442.0,-0.6689115965,-0.23741899649999998,12.102190632,-0.4758308593004661,-0.24142790476987164,0.5618040329244547,12.122987610201529,0.7748072091006717,0.014415775500000061,-0.12925164699999997,-0.2610530229999988
42452.0,-0.7180429129999999,-0.169262779,11.9538160175,-0.5224625662552506,-0.1830728212294412,0.5394201852676275,11.97655847451612,0.7729533797617361,-0.04913131649999991,0.06815621749999998,-0.14837461449999978
42462.0,-0.7958096474999999,-0.2362421985,11.7335586585,-0.5507072295402748,-0.13457710263352676,0.5159716867670836,11.762887492612794,0.7665613026799809,-0.07776673450000005,-0.0669794195,-0.22025735899999965
42472.0,-0.812579019,-0.3296015065,11.660499116,-0.5515065903376882,-0.08687899950577374,0.49492127065878005,11.693423854861452,0.7460928520576566,-0.01676937150000002,-0.09335930799999997,-0.07305954249999935
42482.0,-0.856905077,-0.3056732805,11.728753399999999,-0.5379174567816604,-0.04344648106989485,0.47147277215823624,11.763986517478314,0.7166096300737091,-0.044326058,0.023928225999999997,0.06825428399999822
42492.0,-0.8640639314999999,-0.20034985949999998,11.7814151105,-0.5384497822035186,-0.017599900177110817,0.44615851668731044,11.814757236178771,0.6994964949546795,-0.007158854499999978,0.105323421,0.05266171050000068
42502.0,-0.8293483905,-0.17396997099999997,11.814953853499999,-0.5507072295402748,-0.013868386236346942,0.42777321834680215,11.845303662801099,0.6974673548916152,0.03471554099999996,0.026379888500000004,0.03353874299999937
42512.0,-0.7755098819999999,-0.1405292945,11.765822537,-0.5717576456485784,-0.021863739539732963,0.41471641021263267,11.792189959115714,0.706664368256897,0.05383850850000005,0.03344067649999996,-0.04913131649999869
42522.0,-0.732360622,-0.077080269,11.63657089,-0.5997370188872995,-0.029057986716453592,0.40858681387962853,11.659848863794107,0.7262727055949059,0.04314925999999997,0.0634490255,-0.12925164700000025
42532.0,-0.696468283,-0.0171616375,11.473780499999998,-0.6277146467967687,-0.017865190223413957,0.4099202454281522,11.49491198544847,0.7499196293182273,0.035892338999999995,0.05991863150000001,-0.1627903900000014
42542.0,-0.7850223324999999,-0.1656343185,11.315697302,-0.6508978552510093,0.0015865042900628456,0.41578280638560117,11.344104205290023,0.7723638242772072,-0.0885540494999999,-0.148472681,-0.15808319799999815
42552.0,-0.9215309005,-0.16445752049999998,11.251071478499998,-0.6767444361437933,0.015175637846090696,0.4466925874384207,11.289945743489714,0.8110163990376813,-0.1365085680000001,0.0011767980000000067,-0.0646258235000019
42562.0,-1.126195686,-0.196721399,11.199586565999999,-0.6903335696998211,0.02103819880353965,0.4754695761453032,11.257786429015127,0.8384952958145856,-0.2046647855,-0.03226387850000001,-0.051484912499999425
42572.0,-1.4003896200000001,-0.402661049,11.236753769499998,-0.6815406009282737,0.003984586682303054,0.49332254906395323,11.330836786599564,0.8413564078674731,-0.27419393400000014,-0.20593965,0.037167203499999246
42582.0,-1.643398407,-0.5726102934999999,11.162517429,-0.6476986667321036,-0.046111598837690185,0.4941219098613666,11.297364127312223,0.8159634208951754,-0.24300878699999995,-0.16994924449999993,-0.07423634049999883
42592.0,-1.7917730215,-0.6744033205,11.043955030499998,-0.6034667874988113,-0.11166092955484123,0.47653597231827177,11.208666875011625,0.7769986227249746,-0.1483746145,-0.10179302700000004,-0.11856239850000172
42602.0,-1.770296458,-0.644493038,10.791433793,-0.5605665944847907,-0.16974897771971648,0.44296107349765684,10.95465034284254,0.7343460593775669,0.021476563500000045,0.02991028249999994,-0.2525212374999981
42612.0,-1.658892914,-0.6086006989999999,10.575883626,-0.5299238488075263,-0.18893538218689018,0.41125193164742385,10.722482687402092,0.6968816366219055,0.11140354400000008,0.035892339000000106,-0.21555016699999996
42622.0,-1.587108236,-0.5164181889999999,10.5328324325,-0.5181987268926284,-0.1566921695855469,0.3947323902772975,10.664246778363342,0.6699970272296701,0.07178467799999999,0.09218251,-0.043051193500000196
42632.0,-1.6829192065,-0.3499993385,10.587847739,-0.5381827468279635,-0.105266043175534,0.37980982517274603,10.726473620757405,0.6670660477995243,-0.09581097050000009,0.16641885049999994,0.055015306500001415
42642.0,-1.8241349665,-0.184757286,10.722002711,-0.5946738187272639,-0.07782074068792316,0.35822533831333214,10.877635118233622,0.6985831456387886,-0.1412157599999999,0.1652420525,0.13415497199999926
42652.0,-1.9282815894999998,-0.057859234999999995,10.806928300000001,-0.6687508281696593,-0.06396457175634018,0.3390406791754105,10.977764656833392,0.7525076203955019,-0.10414662299999988,0.126898051,0.08492558900000091
42662.0,-2.0540028424999996,0.0330484105,10.826149334,-0.7492209786621098,-0.0578349754233361,0.3329128281716584,11.019325264121361,0.8218928825649238,-0.1257212529999998,0.0909076455,0.019221033999999193
42672.0,-2.0779310685,0.069038816,10.6250149425,-0.8342237492219896,-0.06502922260005672,0.33664259678317027,10.826518665383647,0.9019347545842087,-0.02392822600000022,0.0359904055,-0.20113439150000012
42682.0,-1.9402457025,-0.13925443,10.307769814999999,-0.9272183824267516,-0.05597096378220615,0.33984003997282386,10.489712281152874,0.9891197754900674,0.13768536599999992,-0.20829324600000002,-0.31724512750000144
42692.0,-1.887583992,-0.38952013799999996,9.97140172,-1.0191483647877968,-0.012803735392630402,0.3273173025897646,10.155961378736192,1.07049705355236,0.052661710500000014,-0.2502657079999999,-0.3363680949999992
42702.0,-1.8468863944999998,-0.6612624095,9.5978664215,-1.102550668423598,0.04022285794146132,0.29001263515763775,9.796289969849003,1.1407642978693622,0.04069759750000013,-0.2717422715000001,-0.3735352985000002
42712.0,-1.8013835384999999,-0.9102532529999999,9.177749535499999,-1.144651500640205,0.12682260476691595,0.24204924198358158,9.397054334936364,1.1768172613207901,0.045502855999999925,-0.2489908434999999,-0.42011688600000063
42722.0,-1.898371307,-0.8767145099999999,8.806567832999999,-1.108680264756602,0.2304777090428592,0.2092737039603801,9.051413091253526,1.1515586771831086,-0.09698776850000002,0.03353874300000004,-0.3711817024999995
42732.0,-2.0528260444999997,-0.7067652655,8.7539061225,-1.12466748070487,0.307485126299353,0.18342712306759607,9.01911771245047,1.1802836754472306,-0.15445473749999983,0.16994924449999993,-0.052661710499998904
42742.0,-1.9785897039999998,-1.0095946175,8.494127964,-1.1441191752183468,0.3653061390886731,0.16184263620818218,8.779766988779746,1.2118788310936852,0.07423634049999994,-0.30282935199999994,-0.25977815849999963
42752.0,-1.8397275399999997,-1.3615552859999998,8.4414662535,-1.1022853783772948,0.422596571785387,0.16370839317856412,8.746243921092546,1.1918143126621048,0.13886216400000007,-0.35196066849999985,-0.05266171050000068
42762.0,-1.8564969114999998,-1.6128997255,8.540807618,-1.0439285495076123,0.4588348430445453,0.1767652013127337,8.887824316142497,1.1539333455897316,-0.01676937150000013,-0.2513444395000002,0.09934136450000075
42772.0,-2.0575332365,-1.7613724064999998,8.780286011,-0.9429403083287164,0.42606105035059577,0.1930194526365569,9.188541680193003,1.0525782406990103,-0.20103632500000002,-0.14847268099999988,0.23947839299999885
42782.0,-2.3687963075,-1.9050398289999997,9.125087825,-0.8302269452349227,0.3197425736361092,0.18395944848945434,9.618087154443195,0.9084895005877054,-0.31126307099999995,-0.14366742249999986,0.3448018140000002
42792.0,-2.7051644025,-2.1947282699999997,9.473420033,-0.7009922954417505,0.10044369845227366,0.1256043649490239,10.093583790970188,0.7192048326601492,-0.3363680950000001,-0.289688441,0.3483322080000004
42802.0,-2.8237268009999994,-2.4317550005,9.487737742,-0.5656297946448263,-0.19453090776878398,0.009159487914466241,10.193332766574125,0.5982167123093025,-0.1185623984999995,-0.23702673050000023,0.014317709000000178
42812.0,-2.6237692075,-2.459311687,9.072328048,-0.45851195713292636,-0.4623255015485339,-0.130199816869525,9.759073472341903,0.6640256595409757,0.1999575934999993,-0.027556686500000094,-0.41540969400000094
42822.0,-2.154521005,-2.3635007165,8.506092077,-0.4116132148025867,-0.5923595121391195,-0.24984039176448428,9.087447321458562,0.7633711099975209,0.4692482025000002,0.09581097050000009,-0.5662359709999993
42832.0,-1.6278058334999999,-2.297698095,8.0560649085,-0.42440473289045316,-0.5385335580076143,-0.3295129267887734,8.534011376680274,0.7607342106945506,0.5267151715,0.06580262150000005,-0.45002716850000013
42842.0,-1.2471116805,-2.1756053024999997,7.8979817105,-0.4766302200978795,-0.34508126371656284,-0.360422707841593,8.286534925727288,0.6900449069492792,0.38069415299999987,0.12209279250000016,-0.15808319799999992
42852.0,-1.045977289,-2.024680959,7.8956281145,-0.5629646768770309,-0.10499900779997887,-0.3620214294364198,8.217928254573884,0.6775053759354448,0.2011343914999999,0.15092434349999984,-0.002353595999999847
42862.0,-1.0399952325,-1.883465199,7.9542718814999995,-0.6580921024277299,0.11296643583533299,-0.3489646213022502,8.240113615981784,0.7534075509468371,0.005982056500000166,0.1412157599999999,0.058643766999999514
42872.0,-1.1346294049999999,-1.863067367,8.101469697999999,-0.7374976020764639,0.2568566153575015,-0.33217804455656874,8.390006863422887,0.8486579329782239,-0.09463417249999995,0.020397832000000005,0.1471978164999994
42882.0,-1.190919576,-1.8487496579999998,8.184139757499999,-0.7859933206723784,0.32746914623468804,-0.32658251897467494,8.47445032463742,0.9119636415872683,-0.05629017100000011,0.014317709000000178,0.08267005949999984
42892.0,-1.2135729375,-1.8547317144999997,8.131478047,-0.8142379839574025,0.3533157271274721,-0.332710369978427,8.428150700850539,0.9478985641121161,-0.02265336149999997,-0.005982056499999944,-0.052661710499998904
42902.0,-1.1992552285,-1.9265163925,8.040472334999999,-0.8219663018852335,0.34532211915333805,-0.34097101332811625,8.354572034733804,0.954535069728421,0.014317708999999956,-0.07178467800000021,-0.09100571200000118
42912.0,-1.1741502045,-2.043901993,7.9937926809999995,-0.8001165249795165,0.3160110596953453,-0.3375065347629075,8.334079762428837,0.9240996182245387,0.02510502399999992,-0.11738560050000002,-0.04667965399999918
42922.0,-1.170521744,-2.139614897,7.9411309705,-0.743892488455771,0.28403662779880917,-0.3084625106804698,8.30720375043705,0.8539332297126853,0.003628460500000097,-0.09571290399999999,-0.05266171049999979
42932.0,-1.261527456,-2.1922766074999998,7.9326972515,-0.664486988807037,0.2563242899356432,-0.26423063144717757,8.326176429189402,0.7596465799961382,-0.09100571200000007,-0.05266171049999979,-0.008433719000000117
42942.0,-1.4254946439999998,-2.136084503,7.86689463,-0.5685602024589247,0.21582217931386283,-0.21253572433235748,8.275440961275253,0.6442137463772397,-0.16396718799999976,0.05619210449999956,-0.0658026214999996
42952.0,-1.5356233235,-2.0259558235,7.7783405805,-0.47982766328753307,0.15640069960046388,-0.16430704111199818,8.183227858046227,0.5307471799741084,-0.11012867950000027,0.11012867950000027,-0.0885540494999999
42962.0,-1.5320929295,-2.070183815,7.650167665,-0.47290045148636756,0.10603922403416748,-0.14378895042555284,8.072052717563444,0.5055239028119844,0.0035303939999999923,-0.04422799150000012,-0.12817291550000043
42972.0,-1.4075484744999998,-2.195905068,7.504146646499999,-0.47796365164640314,0.09617985908965151,-0.13526301702956053,7.9445206694874,0.5059603752919873,0.12454445500000033,-0.12572125300000003,-0.14602101850000082
42982.0,-1.354886764,-2.2713182065,7.333020604,-0.4475861960154418,0.13348452652177833,-0.1288663853210013,7.795370146255358,0.4845183865964403,0.05266171049999979,-0.07541313850000009,-0.1711260424999992
42992.0,-1.4661922415,-2.4712758,7.322233289,-0.4052183284232795,0.1753200686920824,-0.1397921464384858,7.865877198840583,0.4631207881128122,-0.11130547749999997,-0.19995759349999975,-0.010787314999999964
43002.0,-1.642221609,-2.707027666,7.480218420499999,-0.366581974771881,0.18597704910475976,-0.16803680972351007,8.122718646853617,0.4440790204945752,-0.17602936749999998,-0.2357518660000002,0.15798513149999938
43012.0,-1.714006287,-2.9285598895,7.603488011,-0.32154898941192334,0.15533430342749532,-0.21147107348864094,8.326302331268334,0.4150210998679134,-0.07178467799999999,-0.22153222349999968,0.12326959050000053
43022.0,-1.716359883,-3.074580908,7.753137489999999,-0.29463601234617076,0.1055068986123092,-0.27355592564058323,8.515285077239245,0.41566203805389457,-0.002353596000000069,-0.14602101850000038,0.1496494789999998
43032.0,-1.7188115455,-3.0350601084999997,7.701652577499999,-0.3012979341010331,0.041022218738874724,-0.35402782146228584,8.454664713379502,0.46668936766669833,-0.0024516624999999515,0.039520799500000425,-0.05148491250000031
43042.0,-1.5607283475,-2.8890390899999994,7.4885540729999995,-0.34366580169319544,-0.007473499857039719,-0.43689779967622855,8.176849145146496,0.5559152127937045,0.15808319799999992,0.14602101850000038,-0.21309850449999956
43052.0,-1.3022250534999997,-2.7010456095,7.139045067,-0.4084157716129331,-0.0072082098107365804,-0.505112248161175,7.743216511451771,0.6496104863941926,0.25850329400000027,0.18799348049999942,-0.3495090059999999
43062.0,-0.9825282635,-2.6017042449999996,6.8134642869999995,-0.46703789052891864,0.04182157953628812,-0.5450820333610971,7.35917946222619,0.7190186776417428,0.31969678999999973,0.0993413645000003,-0.3255807800000001
43072.0,-0.721573307,-2.5849348735,6.644691840499999,-0.4936838322191161,0.14067877369849893,-0.5440156371881285,7.166204434204947,0.7479754388140505,0.2609549565,0.016769371499999686,-0.16877244650000023
43082.0,-0.664106338,-2.624455673,6.6493990325,-0.47263341611081244,0.24939533280522574,-0.5160380092786594,7.179367123996766,0.7428833051495285,0.057466969000000034,-0.03952079949999998,0.004707192000000582
43092.0,-0.6928398225,-2.7058508679999997,6.7056892034999995,-0.41427833257038205,0.3133476872568019,-0.4731360709353868,7.264153332180884,0.7026172866978565,-0.028733484500000017,-0.08139519499999981,0.05629017099999967
43102.0,-0.744324735,-2.741743207,6.699707147,-0.34499748791246715,0.33732851117920404,-0.43370035648657496,7.277173282245403,0.6487756086173967,-0.05148491249999998,-0.035892339000000106,-0.005982056499999722
43112.0,-0.8065969625,-2.7777336125,6.678132517,-0.277317110178631,0.32693682081282976,-0.41291697575382647,7.2776271267865384,0.5952250778207463,-0.062272227500000055,-0.03599040550000021,-0.021574629999999928
43122.0,-0.8162074794999999,-2.7644946349999997,6.6721504605,-0.2186949912626455,0.2744425529005963,-0.4083861010156492,7.268164624173416,0.5384472319073887,-0.00961051699999993,0.01323897750000036,-0.005982056499999722
43132.0,-0.7814919384999999,-2.741743207,6.562021780999999,-0.17339671585638466,0.21075897915382724,-0.41131825415899964,7.154580023830158,0.49362787053422197,0.03471554100000007,0.02275142799999985,-0.11012867950000071
43142.0,-0.652142225,-2.8148027495,6.447087842999999,-0.12436692650935995,0.16252855060421598,-0.40998482261047603,7.0649377672828155,0.45822507236273663,0.1293497134999999,-0.07305954250000024,-0.11493393800000007
43152.0,-0.490528633,-2.9908321169999996,6.4626804165,-0.05775119961924037,0.14227749529332573,-0.40012545766596,7.138062290123571,0.42857726094229226,0.16161359199999997,-0.17602936749999953,0.015592573500000206
43162.0,-0.404426246,-3.1440119899999996,6.562021780999999,0.018723892215395166,0.1489394170481881,-0.38520463789066045,7.287558015963634,0.41342006136957443,0.086102387,-0.15317987300000002,0.09934136449999986
43172.0,-0.4702288675,-3.199125363,6.6493990325,0.08640426994923127,0.16226326055791282,-0.37827568076024304,7.393918160855728,0.4205800212170926,-0.06580262149999999,-0.05511337300000019,0.08737725150000042
43182.0,-0.533677893,-3.3320054705,6.758350913999999,0.11464893323425551,0.16572599379386957,-0.3953292928814796,7.553964497248016,0.4437282194326716,-0.06344902550000003,-0.13288010750000012,0.10895188149999946
43192.0,-0.5875164015,-3.3594640904999995,6.8134642869999995,0.09146747010926684,0.1761194294894958,-0.4462248391988863,7.619348403086376,0.4883655993719941,-0.05383850849999994,-0.027458619999999545,0.05511337300000019
43202.0,-0.648611831,-3.282874154,6.709317663999999,0.032045990395867884,0.19610344942483088,-0.5184360916708997,7.497526494436468,0.5552112116337049,-0.06109542950000002,0.07658993649999957,-0.1041466230000001
43212.0,-0.568393434,-3.260122726,6.535739959,-0.03536909729166509,0.2312770698402726,-0.5927783911595982,7.325801532669671,0.6372803755827503,0.080218397,0.02275142799999985,-0.17357770499999958
43222.0,-0.42354921349999997,-3.2960150649999997,6.4626804165,-0.06601184296892953,0.27817406684136026,-0.6516658001218868,7.267004018904629,0.711622575473625,0.1448442205,-0.03589233899999966,-0.07305954250000024
43232.0,-0.3337202995,-3.2697332429999997,6.4877854405,-0.04176398367097231,0.31574576964904216,-0.6884381421321554,7.272818204839266,0.7585424819518739,0.08982891399999998,0.026281822000000066,0.025105024000000142
43242.0,-0.1817172245,-3.305625582,6.6458686385,0.024319417797288988,0.34185764058812934,-0.7078898366456321,7.424806502411403,0.7864897337770286,0.152003075,-0.035892339000000106,0.15808319799999992
43252.0,0.0050013915,-3.2924846709999995,6.819446343499999,0.11091916462274364,0.3533157271274721,-0.7004285540933564,7.572669856435207,0.7922974337365555,0.186718616,0.013140911000000255,0.17357770499999958
43262.0,0.090025047,-3.1141017074999997,6.9020183365,0.19485553900965494,0.34532211915333805,-0.6676547613994068,7.572555121695978,0.7765171778387097,0.0850236555,0.17838296349999982,0.08257199300000106
43272.0,0.161809725,-3.0279012539999997,6.9666441599999995,0.23908741824294724,0.31281361650569167,-0.6330134664058233,7.597927299148199,0.7454671024831104,0.07178467799999999,0.08620045350000005,0.06462582349999924
43282.0,0.18701281549999998,-2.911790518,6.978608273,0.25134486557970337,0.285635349393636,-0.5991732775389054,7.56402480441861,0.7097678569738262,0.025203090499999997,0.11611073599999955,0.011964113000000332
43292.0,0.159456129,-2.899826405,6.9367338775,0.26120423052421937,0.26831470189684425,-0.5749254182409481,7.520152679531651,0.686119279598869,-0.027556686499999983,0.011964112999999887,-0.04187439549999983
43302.0,0.21574629999999997,-3.0446706255000002,6.862497536999999,0.2753256895021055,0.2749766236517066,-0.550944594318546,7.510688259345964,0.6745045032196074,0.05629017099999997,-0.1448442205,-0.07423634050000061
43312.0,0.2780185275,-3.249335411,6.879266908499999,0.3009069803485864,0.317344491243869,-0.5296271428346873,7.6131326084073265,0.6868460143092984,0.06227222750000003,-0.2046647854999999,0.016769371499999686
43322.0,0.22653361499999997,-3.4014365525,7.0289163875,0.34274077718963847,0.36477381366681483,-0.5224328956579667,7.811962217130476,0.7235104048672399,-0.051484912500000035,-0.15210114149999976,0.1496494790000007
43332.0,0.208489379,-3.595314023,7.312622772,0.3901718449418364,0.3879570221210556,-0.5432162763907151,8.151331336089168,0.7731937936469404,-0.018044235999999964,-0.19387747049999993,0.2837063845000003
43342.0,0.2911594385,-3.7281941305,7.4910057355,0.4184165082268606,0.38182742578805146,-0.5954435089273934,8.372536785384474,0.8218378974983176,0.08267005949999998,-0.13288010750000012,0.17838296349999982
43352.0,0.43237519849999995,-3.662391509,7.5508263005,0.4101558648771714,0.3626427666501298,-0.6705851692135053,8.40327541484841,0.8656916765603713,0.14121575999999997,0.06580262150000005,0.05982056499999988
43362.0,0.5401502819999999,-3.2805205579999996,7.4311851705,0.36912142883353277,0.35784660186564937,-0.7449292140314557,8.141012866766912,0.9051101334138425,0.10777508349999998,0.38187095100000024,-0.11964112999999976
43372.0,0.631155994,-2.8519699530000002,7.2503505445,0.3126321022634843,0.3719680608435355,-0.7891610932647481,7.816628014669011,0.9267547144612744,0.09100571200000007,0.4285506049999994,-0.18083462600000022
43382.0,0.878871973,-2.6915331589999996,7.1426735275,0.2654680698868415,0.40874040285380403,-0.795023654222197,7.6833945500260965,0.9325259373483133,0.24771597899999998,0.16043679400000066,-0.10767701699999943
43392.0,1.120703962,-2.6879046984999997,7.192883575499999,0.25640806573973896,0.47935293373099064,-0.7598500338067553,7.760050461779132,0.9342892513183639,0.24183198900000014,0.003628460499999875,0.05021004799999851
43402.0,1.2967333294999999,-2.715461385,7.322233289,0.2753256895021055,0.569417159121654,-0.7076245465993289,7.916460585375388,0.9490904252766913,0.17602936749999976,-0.027556686500000094,0.1293497135000008
43412.0,1.364889547,-2.68309944,7.447856475499999,0.2806559250376962,0.6517548119137384,-0.6569960356574774,8.033213065771719,0.9670552590111481,0.06815621750000012,0.03236194499999989,0.12562318649999948
43422.0,1.3816589184999999,-2.5430604779999997,7.5257212765,0.2574727165834555,0.712240942470854,-0.616493925035697,8.063040288464455,0.9765470390731592,0.016769371499999908,0.1400389620000002,0.07786480100000048
43432.0,1.2715302389999998,-2.325156715,7.6645834404999995,0.22389956309209258,0.743950084321087,-0.5842524577636058,8.109807779126937,0.972082134758682,-0.11012867950000005,0.2179037629999998,0.13886216399999984
43442.0,1.0213625975,-1.9899654179999997,7.7903046934999995,0.2047131586249189,0.7247654251831653,-0.5522762805378177,8.105059601136563,0.9339172816153537,-0.2501676414999998,0.33519129700000017,0.12572125300000003
43452.0,0.81787461,-1.6632078399999999,7.831002291,0.22070211990243896,0.6474909725511163,-0.5187013817172028,8.047345902741311,0.8584900166338315,-0.20348798750000008,0.3267575779999998,0.04069759750000035
43462.0,0.8142461495000001,-1.6332975575,7.809427661,0.282254646632523,0.5094633539863969,-0.4646101375393945,8.019839031782556,0.7450390422689902,-0.003628460499999875,0.02991028249999994,-0.021574629999999928
43472.0,0.9615420324999999,-1.9025881664999997,7.8405147415,0.39097120573924976,0.3756995747842994,-0.3929312104892394,8.125150843107399,0.6696294425925767,0.14729588299999985,-0.2692906089999998,0.031087080499999864
43482.0,1.1231556245,-2.1756053024999997,7.8728766865,0.5607079661542023,0.25285981137043445,-0.3220533895657497,8.244811963286205,0.6942981299455315,0.16161359200000014,-0.273017136,0.03236194499999989
43492.0,1.178170931,-2.278477061,8.0105620525,0.7400370561381158,0.13481621274105,-0.2690267962316579,8.411221603138845,0.7988777583373309,0.05501530649999986,-0.10287175850000008,0.13768536599999948
43502.0,1.283494352,-2.209045979,8.011738850499999,0.85754658401639,0.021837559600953054,-0.23784997980328326,8.409233098063282,0.8901885393892277,0.10532342100000003,0.06943108199999992,0.0011767979999994793
43512.0,1.410392403,-2.066653421,7.8968049124999995,0.867672984336461,-0.04531223804027679,-0.241314458368492,8.283706351570851,0.9017440182675114,0.12689805099999996,0.14239255800000006,-0.11493393799999918
43522.0,1.4930624625,-1.781672172,7.659778181999999,0.8189102303649913,-0.027192229746071654,-0.25676934889490177,8.004735663521249,0.8586523634666815,0.08267005950000006,0.2849812489999999,-0.23702673050000023
43532.0,1.3960746939999997,-1.384306714,7.6753707554999995,0.7493640956607734,0.09404881207296645,-0.2581010351141734,7.923171452394382,0.7981277286530226,-0.09698776850000024,0.3973654579999999,0.015592573500000206
43542.0,1.0884400834999999,-1.0694151824999998,7.9434845665,0.6803502863784137,0.2312770698402726,-0.22559253246652705,8.088714218351065,0.7531650456000684,-0.30763461049999985,0.31489153150000027,0.2681138110000001
43552.0,0.886128894,-1.2202414595,8.4271485445,0.6267913676224636,0.3008232045444907,-0.15711279393527752,8.561018994683566,0.7127737712181922,-0.20231118949999993,-0.15082627700000018,0.48366397800000005
43562.0,0.9243748289999999,-1.8666958274999998,8.9119893205,0.6243932852302234,0.28909808262959275,-0.08410218066585075,9.152189671636004,0.693193950358375,0.03824593499999995,-0.6464543679999999,0.4848407760000004
43572.0,1.062060195,-2.3742880315,9.2866033505,0.663296674257177,0.21262473612420918,-0.042266638495546675,9.643973107793562,0.6978239213599906,0.13768536600000003,-0.507592204,0.37461403000000004
43582.0,1.1087398489999998,-2.486770307,9.438704492,0.6816819725976853,0.09644689446520664,-0.05798856439751159,9.823567228855229,0.6909088136777084,0.04667965399999985,-0.11248227550000012,0.15210114149999931
43592.0,1.0931472755,-2.3048569495,9.2699320455,0.6409128266003498,-0.018931586396382493,-0.12060748730056416,9.614519054626669,0.6524368339213302,-0.015592573499999762,0.18191335750000004,-0.16877244650000023
43602.0,1.174640537,-2.077440736,8.860504407999999,0.5862875116714312,-0.05996776776927317,-0.20907299109640073,9.176278045424697,0.6253324676674831,0.08149326149999991,0.22741621350000019,-0.40942763750000033
43612.0,1.1889582459999999,-1.5781841844999998,8.562382247999999,0.5790932644947105,0.009046041513086609,-0.26582935304200433,8.787415819898523,0.6372566867353593,0.014317708999999956,0.49925655150000003,-0.29812216000000014
43622.0,1.1231556245,-1.1160948364999999,8.732429559,0.6030758337463646,0.16652535459128298,-0.2583680704897286,8.874822378155232,0.6768937987743799,-0.06580262149999982,0.4620893479999999,0.17004731100000114
43632.0,0.9459494589999999,-1.1017771275,9.383591119,0.6587657995189997,0.3309336247998968,-0.16937024127203373,9.495289121782454,0.7564229777496534,-0.17720616550000012,0.014317708999999956,0.6511615600000003
43642.0,0.7544255845,-1.3004598565,10.083883995499999,0.7341744951806667,0.3914197553570123,-0.043865360090373486,10.195345518206688,0.8331541178397838,-0.19152387449999997,-0.19868272900000017,0.7002928764999989
43652.0,0.5329914275,-1.664384638,10.642961112,0.8154457517997827,0.32640275006171954,0.070179689222692,10.785493837397672,0.8811445500912776,-0.22143415700000002,-0.36392478149999996,0.559077116500001
43662.0,0.424039546,-1.9110218854999999,11.002080634999999,0.8698040313531461,0.15240389561339687,0.1370624514883667,11.17486431606549,0.8936286230668335,-0.10895188149999996,-0.24663724749999982,0.3591195229999986
43672.0,0.48150651499999997,-1.964860394,11.045229895,0.8743349060913234,-0.05543689303109589,0.14025989467802033,11.228963813518103,0.88724721198421,0.05746696899999998,-0.05383850850000016,0.04314926000000163
43682.0,0.6849945024999999,-1.7793185759999999,10.816538817,0.8343651208914011,-0.20119282952364634,0.09522690931806262,10.983292040322958,0.8635461040790607,0.20348798749999997,0.18554181800000014,-0.22869107800000066
43692.0,0.8944645465,-1.469232303,10.4275090115,0.7533608996478404,-0.23530005376611954,0.03420845333908886,10.568427251490064,0.7899930244631245,0.20947004400000002,0.3100862729999998,-0.3890298054999999
43702.0,0.9447726609999999,-0.9509508505,10.2072516525,0.6736883646235512,-0.13750751044762524,0.007028440897781165,10.29489626943874,0.687614519218517,0.050308114499999945,0.5182814525000001,-0.22025735899999965
43712.0,0.643120107,-0.450517501,10.354449469,0.6313204970313888,0.013042845500153624,0.0461988653002899,10.384179953025148,0.6331429703832578,-0.3016525539999999,0.5004333495,0.1471978165000003
43722.0,0.1893664115,-0.22663168149999996,10.792610591,0.6350502656429008,0.09671218451150979,0.1565141460018435,10.796650634610222,0.6611647029483603,-0.4537536955,0.22388581950000003,0.43816112200000035
43732.0,-0.15896579649999998,-0.5594693824999999,11.310990109999999,0.6856787765847522,0.07486240760579277,0.2926760075961811,11.325933664953613,0.7492789935356111,-0.348332208,-0.33283770099999993,0.518379518999998
43742.0,-0.338525558,-1.178367064,11.555175694999999,0.7658836370308997,-0.03944967708282783,0.3864717469276084,11.620035879172573,0.8587749610153381,-0.17955976150000003,-0.6188976815,0.24418558500000032
43752.0,-0.25477676699999996,-1.560238015,11.549193638499998,0.8487536152448425,-0.2001264333506778,0.40086024128104963,11.656891848345465,0.9597511249051781,0.08374879100000004,-0.381870951,-0.00598205650000061
43762.0,-0.035696206,-1.5530791605,11.3301130775,0.8977834045918671,-0.3205681143723025,0.3571606874696156,11.436117848589998,1.018009191602191,0.21908056099999995,0.007158854499999867,-0.2190805609999984
43772.0,0.1175817335,-1.2274983805,10.912349787499998,0.9198984715438873,-0.3570734210070159,0.28681344663873215,10.981801110151935,1.027607210519283,0.1532779395,0.3255807800000001,-0.4177632900000017
43782.0,0.32469818149999996,-0.8252295975,10.678853451,0.9254957424550332,-0.3189693927774757,0.21300347257189198,10.715612153563324,1.001825494863706,0.20711644799999995,0.4022687829999999,-0.23349633649999824
43792.0,0.436003659,-0.44571224249999997,10.671694596499998,0.9230976600627929,-0.18733666059206333,0.1815613660972141,10.689893552077262,0.9592543166826387,0.11130547750000003,0.37951735500000006,-0.0071588545000018655
43802.0,0.11042287899999999,-0.014808041499999999,10.926667496499999,0.9161687029323755,-0.034653512298347414,0.19328648801211204,10.927235472404227,0.9369768538205516,-0.32558078,0.430904201,0.2549729000000003
43812.0,-0.23918419349999998,-0.042364728,11.443870217499999,0.9023125340007925,0.043952626552973204,0.2489764537847471,11.446447894590804,0.9370640409999013,-0.34960707249999995,-0.027556686499999997,0.5172027210000003
43822.0,-0.2978279605,-0.482879446,11.951364354999999,0.8897897966177332,0.05807583086011132,0.314260494455595,11.964822773421652,0.9454408192322744,-0.05864376700000001,-0.44051471799999997,0.5074941375000002
43832.0,-0.33734875999999997,-0.7546217175,12.390702275,0.8881910750229064,0.011978194656437085,0.3443709147110012,12.418243071791048,0.9526899756985298,-0.03952079949999998,-0.27174227149999997,0.4393379200000016
43842.0,-0.2762533305,-0.7821784039999999,12.5655548445,0.8865923534280795,-0.06689497957043866,0.34756835790065477,12.592906237578113,0.9546332818745781,0.061095429499999965,-0.027556686499999983,0.17485256949999872
43852.0,-0.084729456,-0.543876809,12.462585019499999,0.8503523368396693,-0.1372404750720701,0.32438514944641406,12.474734723926913,0.9204128258276643,0.19152387450000002,0.23830159499999992,-0.10296982500000063
43862.0,0.29468983249999997,-0.116503002,12.813270823499998,0.7309770519910131,-0.1838721820268546,0.2886792036091141,12.817188624780796,0.8071382238855879,0.37941928849999995,0.42737380700000005,0.3506858039999994
43872.0,0.44796777199999993,0.3515684025,12.97615928,0.5393905146703436,-0.16708560528117314,0.2910772860013543,12.988648317908877,0.6352839626768713,0.15327793949999996,0.46807140449999995,0.16288845650000106
43882.0,0.38089028599999997,0.253403836,12.891135624499999,0.45412245406416063,-0.1036673215807072,0.3190566592400754,12.89925069929729,0.5645983250545569,-0.06707748599999996,-0.0981645665,-0.08502365550000057
43892.0,-0.026085689,0.33352416649999994,12.831216992999998,0.49489160006149613,-0.027724555167929925,0.4072551276603569,12.835577445298751,0.6415162396824737,-0.406975975,0.08012033049999995,-0.05991863150000043
43902.0,-0.44149538299999996,0.28449091649999997,12.922222705,0.5788279744484074,-0.030122637560170133,0.5189038399104341,12.932891899818804,0.7779526928878265,-0.41540969399999994,-0.04903324999999997,0.09100571200000118
43912.0,-0.741971139,0.0079433865,13.1700367505,0.714989836042745,-0.10579836859739226,0.6190927202919166,13.190923101815834,0.9516719796026079,-0.30047575600000004,-0.27654753,0.2478140455000002
43922.0,-1.0029260955,-0.22310128749999997,13.477671360999999,0.8309006423261925,-0.24222726556728502,0.6673231488415279,13.516776992043576,1.0928815629253041,-0.2609549564999999,-0.23104467399999998,0.3076346104999992
43932.0,-1.0580394684999999,-0.254188368,13.718326551999999,0.8599446664086301,-0.3954427392828592,0.6550657015047717,13.761414993765666,1.1510824742928372,-0.055113372999999966,-0.03108708050000003,0.2406551910000001
43942.0,-0.9933155785,-0.031577413,13.7937396905,0.8031883044630265,-0.49723208658842055,0.6004403865758533,13.829494843296976,1.1193211595385062,0.0647238899999999,0.222610955,0.07541313850000186
43952.0,-0.8150306815,0.292826569,13.674000494,0.6739536546698544,-0.5241450636541731,0.534624020483147,13.701398173953303,1.0073551606426876,0.17828489699999994,0.324403982,-0.1197391965000012
43962.0,-0.612719492,0.5143587924999999,13.405886682999999,0.5300652204769378,-0.4705861448982231,0.4975863884265754,13.429735213351584,0.8660327197495709,0.20231118950000004,0.22153222349999996,-0.268113811000001
43972.0,-0.5635881755,0.705882667,13.1449317265,0.39416864892890335,-0.36293423663521285,0.5090444749659182,13.175930026585627,0.7390645854143932,0.04913131650000002,0.19152387450000008,-0.2609549564999991
43982.0,-0.7311838239999999,0.716669982,12.95458465,0.29611081556410596,-0.2358323791879778,0.5586065897348012,12.994980150103913,0.6747887434320808,-0.16759564849999997,0.010787314999999964,-0.19034707650000016
43992.0,-1.1166832354999998,0.38863753949999996,12.691178031,0.2849197644003183,-0.14683454997028295,0.6254876066712238,12.746137469841301,0.7028331262185954,-0.3854994114999999,-0.3280324425,-0.2634066189999995
44002.0,-1.4351051609999999,0.31440119899999996,12.7306988305,0.2761267956287709,-0.13217902024128655,0.6785142000053155,12.81518894320156,0.7443781433283844,-0.31842192550000004,-0.0742363405,0.03952079949999998
44012.0,-1.8145244495,0.05226944449999999,12.588208205999997,0.1924574566174147,-0.1673508953274763,0.6587954701162837,12.718420377950528,0.7064401363316549,-0.37941928850000006,-0.2621317545,-0.14249062450000238
44022.0,-1.8098172574999998,-0.0985568325,12.3858970165,0.1090534076523617,-0.19426387239322884,0.6476044189524959,12.517811184792686,0.6848522331748687,0.004707192000000138,-0.15082627699999998,-0.20231118949999782
44032.0,-1.7666679975,0.0557998385,11.914295218,0.02538406864100553,-0.1676179307030314,0.6297514460338459,12.044694266648072,0.6521709940005439,0.043149259999999856,0.154356671,-0.47160179850000006
44042.0,-1.8432579339999997,0.058251501,11.512026435,-0.0641460859985476,-0.1036673215807072,0.5887170099902074,11.658805500082824,0.6012065799410887,-0.07658993649999979,0.0024516625,-0.40226878300000024
44052.0,-1.9366172419999998,-0.049523582499999996,11.150553316,-0.1302294874668089,-0.016001178582284014,0.5383555344239109,11.317587118294867,0.5541141024795747,-0.09335930800000014,-0.1077750835,-0.36147311899999934
44062.0,-2.0181105035,-0.147688149,10.900385674499999,-0.17019927266673102,0.055944783843426237,0.47946638013237025,11.086613082746997,0.5118453095739088,-0.08149326150000014,-0.0981645665,-0.2501676415000009
44072.0,-2.038410269,-0.22545488349999998,10.719551048499998,-0.20537114775292076,0.10390817701748241,0.4272391475956919,10.913969076859988,0.4852911567489582,-0.0202997654999999,-0.07776673449999999,-0.1808346260000011
44082.0,-2.085089923,-0.2937091675,10.5675479735,-0.2328181955697836,0.1340168519436366,0.3830072683623997,10.775292814318025,0.46782410841221067,-0.04667965400000007,-0.068254284,-0.15200307499999788
44092.0,-2.1701135784999996,-0.3164605955,10.4047575835,-0.24853837614249652,0.1465413346559479,0.34810068332251304,10.633368263325364,0.4521280492381512,-0.08502365549999968,-0.022751428000000018,-0.16279038999999962
44102.0,-2.188059748,-0.25664003049999995,10.283841588999998,-0.25653198411663053,0.13987941290108555,0.30972961971741775,10.517170122885664,0.42580200370437876,-0.017946169500000497,0.05982056500000005,-0.12091599450000245
44112.0,-2.1892365459999996,-0.20397832,10.0958481085,-0.25120349391029184,0.13455092269474686,0.27082623069046413,10.332497899311427,0.393133556670949,-0.0011767979999994793,0.05266171049999996,-0.18799348049999764
44122.0,-2.1365748355,-0.116503002,9.97140172,-0.24640732912581145,0.1364149343358768,0.23778540262095946,10.198400719661187,0.36860209421053125,0.05266171049999979,0.087475318,-0.12444638850000089
44132.0,-2.093523642,-0.0638412915,9.856467782,-0.23974540737094907,0.13614964428957366,0.2156685903396873,10.076550703872696,0.35003932186934034,0.04305119349999975,0.0526617105,-0.11493393800000007
