timestamp,ax,ay,az,gx,gy,gz,acc_mag,gyro_mag,dax,day,daz
136732.0,-1.0257755899999998,3.1821598585,9.344952917999999,0.11926532910578051,0.13218949221679852,-0.0034766958699727043,9.925044179535186,0.1780740519935947,0.0,0.0,0.0
136742.0,-0.907311258,2.536980355,9.263557723,0.2138586839053692,-0.03728023282259888,0.012510520078295354,9.64743410072867,0.21744393657601313,0.11846433199999984,-0.6451795035000001,-0.08139519499999892
136752.0,-0.9084880559999999,2.1885500804999998,9.415560798,0.3188454744005841,-0.1936931497278267,0.028232445980260274,9.709165110532707,0.37413439270300736,-0.0011767979999999234,-0.3484302745000001,0.15200307499999965
136762.0,-1.1071707849999999,2.0832266594999997,9.327006748499999,0.41423993532683817,-0.3591678161094091,0.033028610764740694,9.620744012215145,0.5492605331511032,-0.19868272899999995,-0.10532342100000003,-0.08855404950000079
136772.0,-1.3298798065,2.031741747,9.0732106465,0.4808556622169577,-0.4777437401606518,-0.004276056667386108,9.392534602651194,0.6778491969526997,-0.22270902150000005,-0.05148491249999987,-0.253796101999999
136782.0,-1.6519301924999998,1.9742747779999998,8.848148028999999,0.5357462671921794,-0.5531524358223189,-0.07035945813564741,9.21500720580492,0.7732736471752162,-0.3220503859999999,-0.057466969000000034,-0.22506261750000078
136792.0,-1.9020978339999999,2.0844034574999997,8.62789067,0.6180839199842639,-0.5323673097603184,-0.17241409548751185,9.077621459238014,0.833768136214937,-0.25016764150000004,0.11012867949999983,-0.22025735899999965
136802.0,-2.0481188525,2.0951907725,8.5309029015,0.7177404749438882,-0.370891192695055,-0.3083106670355463,9.020028798288626,0.8647352968390628,-0.14602101850000015,0.010787315000000408,-0.09698776850000002
136812.0,-2.306720213,2.22807088,8.643385177,0.788885331242933,-0.11029084609202568,-0.446603575646569,9.219184633434242,0.9132134965944534,-0.25860136050000015,0.13288010750000012,0.11248227550000145
136822.0,-2.610726363,2.3585973915,8.848148028999999,0.8128679004945871,0.17722247757675622,-0.5729078176256427,9.522005951518324,1.0101412761141377,-0.30400614999999975,0.13052651149999983,0.20476285199999822
136832.0,-2.9615102334999994,2.3825256175,9.23001898,0.7939485314029685,0.41757176886889535,-0.6810903059812592,9.981994868378225,1.1263234249427976,-0.3507838704999995,0.023928225999999775,0.38187095100000157
136842.0,-3.4499794699999997,2.4747081275,9.742318376,0.8043402217693427,0.5310844927601025,-0.7724879629204463,10.627290623629492,1.2352131733685452,-0.4884692365000003,0.09218251000000022,0.5122993959999995
136852.0,-3.9958176089999995,2.5692442334999996,10.376808631,0.8930727609407345,0.48338638963234953,-0.8630845137329678,11.412525209617877,1.3327251163918903,-0.5458381389999998,0.09453610599999962,0.6344902549999993
136862.0,-4.310611074,2.630339663,10.960990771499999,1.031100379505454,0.2576926280692068,-0.9656732218359426,12.06827963161902,1.4360007850097143,-0.31479346500000016,0.06109542950000035,0.5841821404999994
136872.0,-4.5584251195,2.666232002,11.419451659,1.1651311940831064,-0.0647255353102097,-1.0805176319464216,12.581411242416939,1.5903579619990655,-0.2478140455000002,0.035892339000000106,0.45846088750000114
136882.0,-4.631484661999999,2.7643965684999996,11.655301591499999,1.2679851922323844,-0.4153901073039024,-1.2174805996674245,12.842842121240073,1.8062653181448998,-0.07305954249999935,0.0981645664999995,0.23584993249999897
136892.0,-4.3501318735,2.9032587324999994,11.5966578245,1.3135505030142005,-0.6853174934295895,-1.3619031046114514,12.721439827441515,2.012425168079495,0.28135278849999956,0.13886216399999984,-0.058643766999999514
136902.0,-4.0951589735,3.305429449,11.2722538425,1.2805096749446958,-0.8020276605104504,-1.4799449579115838,12.440253114398839,2.1149918378799373,0.2549728999999994,0.4021707165000006,-0.32440398199999976
136912.0,-3.800665274,3.4934229295,11.144178993499999,1.1931088219925756,-0.7423408907507482,-1.6121117608481064,12.281766392848892,2.1385703141729775,0.29449369950000026,0.18799348049999987,-0.12807484900000077
136922.0,-3.5073483725,3.953060615,11.262643325500001,1.0798631334769235,-0.5472898748648699,-1.7176308767651796,12.440872779245526,2.1014010619082986,0.2933169014999999,0.45963768550000017,0.11846433200000206
136932.0,-3.174608738,4.2248028865,11.727184335999999,0.9354406285328969,-0.3207967525043137,-1.7754518895544995,12.86289051961838,2.032286677132431,0.3327396345000002,0.27174227149999997,0.46454101049999785
136942.0,-2.923166232,4.4211320195,12.347258815499998,0.7689013113075979,-0.13613742698480968,-1.784246603655299,13.436744747545651,1.947634095052779,0.25144250600000007,0.19632913299999988,0.6200744794999995
136952.0,-2.8202944735,4.5851972739999995,12.9170251805,0.5983651900952319,-0.03328342883553186,-1.7741202033352281,13.993842734303637,1.872605453168121,0.10287175849999963,0.16406525449999965,0.5697663650000013
136962.0,-2.7148729859999996,4.5959845889999995,13.448545610499998,0.44168523781444896,-0.009567894959432915,-1.7693240385507474,14.469173739717718,1.8236460586722107,0.10542148750000058,0.010787314999999964,0.5315204299999987
136972.0,-2.6442651059999998,4.656981952,13.951332555999999,0.3148486704135171,-0.055667276492359134,-1.783712532904189,14.943871618164028,1.8121420835499389,0.07060787999999985,0.06099736300000025,0.5027869455000005
136982.0,-2.5102082004999997,4.7790747445,14.272206143999998,0.21359339385906603,-0.162518078628704,-1.8108925453454965,15.258983217770655,1.8306736668694645,0.13405690550000005,0.12209279250000016,0.32087358799999954
136992.0,-2.248076446,4.8569395454999995,14.512763268499999,0.12725893707991456,-0.2752314417224978,-1.8455320950098282,15.468161078267336,1.8702769573757572,0.2621317544999999,0.0778648009999996,0.24055712450000044
137002.0,-1.774022985,4.9418651344999995,14.6516254325,0.0414585510518733,-0.3557033375442003,-1.8777735622819192,15.56403920494856,1.911616391172751,0.4740534609999998,0.08492558900000002,0.13886216400000073
137012.0,-1.163460956,5.170556212499999,14.772541427,-0.06379527481889673,-0.36129886312609416,-1.8937625235594393,15.6944663227263,1.928974650228365,0.610562029,0.22869107799999977,0.12091599450000068
137022.0,-0.653515156,5.5512503655,15.006037763499998,-0.1980913794428524,-0.31067035218424266,-1.8577895423465842,16.013264253086366,1.8939741935908696,0.5099458,0.3806941530000003,0.23349633649999824
137032.0,-0.1638691215,5.769056062,15.361528825999999,-0.37795454017787605,-0.22593636232916994,-1.7738531679596727,16.40991861063025,1.8276903281858705,0.4896460345,0.21780569650000015,0.3554910625000005
137042.0,0.247912112,5.8552565155,15.623758646999999,-0.6193684823137318,-0.1409335917692901,-1.6544778831110167,16.68674095014628,1.7722236483796618,0.41178123349999995,0.08620045350000005,0.26222982100000003
137052.0,0.4861156405,5.7630740055,15.757815552499999,-0.8820998759334461,-0.08471130057479678,-1.5188500922677894,16.785651056644166,1.758460064473671,0.2382035285,-0.09218250999999977,0.1340569054999996
137062.0,0.548387868,5.5823374459999995,15.744576574999998,-1.104063868885077,-0.07485193563028082,-1.3922788149131604,16.71391372901099,1.7784825378116813,0.062272227499999944,-0.18073655950000056,-0.01323897750000036
137072.0,0.538777351,5.503393913499999,15.5722737345,-1.267138707545167,-0.09616938711413955,-1.2915558637805677,16.524930706762373,1.8119066213365174,-0.00961051699999993,-0.0789435325000003,-0.17230284049999867
137082.0,0.5567235205,5.308241578500001,15.326813284999998,-1.3731918942133505,-0.13480574076553803,-1.222542054498208,16.229558688000317,1.8434851887371633,0.017946169499999942,-0.19515233499999862,-0.24546044950000123
137092.0,0.6668522,5.058073937,15.131660949999999,-1.4307476169563678,-0.16198575320684572,-1.1796418614841873,15.968593141368414,1.861406202051071,0.11012867950000005,-0.2501676415000009,-0.1951523349999995
137102.0,0.815324881,4.8904782885,14.956906447,-1.4736478099703882,-0.1718433728221097,-1.1644540063333328,15.757239067050348,1.8860331771947039,0.148472681,-0.16759564849999986,-0.17475450299999906
137112.0,0.9566387074999999,4.7216077755,14.8276548,-1.524541610958543,-0.1819697731421808,-1.1471333588365409,15.59064092557815,1.9165737827793352,0.1413138264999999,-0.1688705129999999,-0.12925164700000025
137122.0,1.0906956129999998,4.6247180734999995,14.727038571,-1.590090941675694,-0.216076997384654,-1.1340765507023716,15.474601747744487,1.9649956983288417,0.13405690549999993,-0.09688970200000036,-0.10061622899999989
137132.0,1.3085013094999998,4.5792152175,14.675651724999998,-1.647913699794266,-0.2882882498566674,-1.1324778291075448,15.429068061248618,2.0202068484180487,0.21780569649999992,-0.0455028559999997,-0.05138684600000154
137142.0,1.625746437,4.5121377315,14.6516254325,-1.6924126144031135,-0.40393376609381165,-1.113560205345178,15.41663277761149,2.06577812838405,0.31724512750000033,-0.06707748599999963,-0.024026292499998547
137152.0,1.946620025,4.6043202415,14.571505102,-1.7246558270044567,-0.545424117894488,-1.0666632083440903,15.40512432100532,2.0999275201864265,0.320873588,0.09218250999999977,-0.08012033049999978
137162.0,2.342808685,4.5900025325,14.40989151,-1.7723521848029578,-0.6826523756617942,-0.9893887557120415,15.303654763253055,2.1415267084260075,0.39618865999999997,-0.014317709000000178,-0.16161359200000014
137172.0,2.6517181599999997,4.67973338,14.168059520999998,-1.8594842570502705,-0.779645558182875,-0.8915962123935472,15.1547162394602,2.2046479774709162,0.30890947499999966,0.08973084750000027,-0.24183198900000136
137182.0,2.8467724284999996,4.781526406999999,13.7215627465,-1.9777948910552103,-0.8244115081672776,-0.7746190099371313,14.807038604887971,2.2784559632432484,0.19505426849999985,0.10179302699999937,-0.44649677449999814
137192.0,3.0383943694999997,4.7898620595,13.174449743,-2.118485882058473,-0.7969644603504147,-0.6501822702576916,14.343665672500864,2.354967466463208,0.19162194100000018,0.008335652500000457,-0.5471130034999998
137202.0,3.2550232679999995,4.5599941835,12.762668509500001,-2.241592680847893,-0.7130298312927554,-0.5308069854090355,13.938236291301644,2.4114114835305993,0.21662889849999978,-0.22986787600000014,-0.4117812334999993
137212.0,3.3400469234999997,4.3852396805,12.4490518425,-2.328459463048903,-0.6261630490917457,-0.4218233909267535,13.614886421996557,2.4478028123692486,0.08502365550000013,-0.17475450299999995,-0.31361666700000157
137222.0,3.3663287455,4.1889105475,12.079145004499999,-2.3873468720111917,-0.5736687811795121,-0.32003404362119225,13.22062346629211,2.476074059247449,0.02628182200000051,-0.19632913299999988,-0.36990683800000035
137232.0,3.392708634,3.9578658735,11.759448214499999,-2.429447704227799,-0.5502202826789684,-0.2350330183905644,12.863117680303686,2.5020389738736735,0.026379888499999726,-0.23104467400000006,-0.31969679000000006
137242.0,3.3639751495,3.719662345,11.539190855500001,-2.437708347577488,-0.5688726163950318,-0.16655153453006288,12.58193714683551,2.508740212773617,-0.028733484500000017,-0.2382035284999997,-0.22025735899999788
137252.0,3.3675055434999996,3.580800181,11.350020577,-2.4169249668447397,-0.6538753869549117,-0.10606540397294739,12.368718228663642,2.50605849631305,0.00353039399999977,-0.1388621640000003,-0.18917027850000068
137262.0,3.4908732005,3.4683179054999997,11.2028227605,-2.3796202994126125,-0.7732506718035678,-0.03838328090985929,12.235957772024136,2.502395381844093,0.12336765700000019,-0.11248227550000012,-0.1471978165000003
137272.0,3.6141427909999995,3.4442916129999994,10.9849189975,-2.3540390085661316,-0.8944899682933539,0.05354670145118603,12.066218057484116,2.5188249654282777,0.12326959049999964,-0.024026292500000324,-0.2179037630000007
137282.0,3.823612835,3.4502736694999996,10.485760512499999,-2.36816221287327,-0.9832225074647456,0.17078919395390513,11.682276192246354,2.56984196293031,0.20947004400000058,0.005982056500000166,-0.4991584850000006
137292.0,4.0247472265,3.293465336,9.903931967999998,-2.4110624058872907,-0.9850882644351275,0.31254658113013656,11.186302900575567,2.623224385977486,0.20113439149999968,-0.15680833349999945,-0.5818285445000004
137302.0,3.9865012914999998,3.0552618074999995,9.437135428,-2.4430385831130788,-0.9315293456791776,0.4646974040019942,10.690479051282598,2.655584326984709,-0.03824593499999995,-0.2382035285000006,-0.4667965399999989
137312.0,3.8248876994999996,2.757237714,9.010938419,-2.446768351724591,-0.9003525292508028,0.5848720496480638,10.170011647795718,2.6719628287812904,-0.16161359200000014,-0.2980240934999996,-0.4261970089999991
137322.0,3.6536635905,2.4076306415,8.687711235,-2.4182566530640113,-0.920603584561693,0.6658762708916246,9.727397876162991,2.671865903845612,-0.17122410899999974,-0.3496070725,-0.3232271840000003
137332.0,3.4334062314999994,2.0832266594999997,8.499815820999999,-2.3313898708630014,-1.0085367629356714,0.7151730956142044,9.400796809647384,2.6389387429127202,-0.22025735900000054,-0.3244039820000002,-0.18789541400000154
137342.0,3.4202653205,1.9108257524999999,8.204047257,-2.1981584170827624,-1.148428393141521,0.7378222333173348,9.091526896738598,2.5875026277750504,-0.013140910999999367,-0.17240090699999988,-0.2957685639999994
137352.0,3.5734451934999996,1.824625299,7.761178943,-2.092106975743831,-1.2382273284858811,0.7588726494256386,8.736971249693207,2.5467638706820797,0.15317987299999958,-0.08620045349999983,-0.44286831399999915
137362.0,3.7470228984999996,1.8174664445,7.375679531499999,-2.023093166461471,-1.2446222148651882,0.8071013326459977,8.4701837896326,2.5086655773693662,0.17357770500000003,-0.007158854500000089,-0.38549941150000056
137372.0,3.9302111205,1.8234485009999999,6.943500466,-1.987387220624171,-1.1737426486124467,0.8873061930921452,8.184358411558186,2.47279033688093,0.1831882220000005,0.005982056499999944,-0.43217906549999974
137382.0,3.9265826599999993,1.728912395,6.595168257999999,-1.9650051182965957,-1.0525033521226606,0.9909612973680885,7.867873525084656,2.439469760837937,-0.003628460500000763,-0.09453610599999984,-0.3483322080000004
137392.0,3.811648722,1.5721040615,6.368928842499999,-1.9205044583584965,-0.9251327139706184,1.0996778564748153,7.587056857631779,2.398645305386886,-0.11493393799999918,-0.15680833350000012,-0.22623941550000026
137402.0,3.6380710169999997,1.4212777845,6.2539949045,-1.8533564060465184,-0.8308063945465848,1.1921401642577187,7.373468894011868,2.3550726961793735,-0.17357770500000047,-0.15082627699999995,-0.11493393799999918
137412.0,3.4058495449999997,1.337430927,6.1606355965,-1.7838102713423005,-0.7724513110061544,1.272079734657563,7.1653306665174705,2.3231114831940105,-0.23222147199999998,-0.08384685749999998,-0.09335930800000014
137422.0,3.149699847,1.2309307079999998,5.9966684085,-1.7241217562533464,-0.7660546792975952,1.345622673348848,6.884463053542457,2.317355385151437,-0.25614969799999976,-0.10650021900000017,-0.16396718799999999
137432.0,2.991616649,1.0153805409999999,5.8613366385,-1.6585724255361955,-0.7932346917389028,1.3983822313073846,6.658530994704306,2.3098823848333385,-0.15808319799999992,-0.21555016699999996,-0.13533176999999963
137442.0,2.8085264934999996,0.864554264,5.612345795,-1.5559837174332207,-0.8417304103348173,1.4394166673510234,6.335116452185088,2.280683177218539,-0.1830901555000004,-0.15082627699999984,-0.24899084349999967
137452.0,2.74390067,0.7556023824999999,5.378947524999999,-1.4400729111497732,-0.8830318817540111,1.4607341188348821,6.085474699969571,2.233226244595413,-0.06462582349999968,-0.10895188150000013,-0.23339827000000124
137462.0,2.7545899185,0.7484435279999999,5.212528674499999,-1.3273595480559794,-0.9168738159501811,1.4804528487239141,5.942927604825053,2.1895848011632646,0.01068924849999986,-0.007158854499999978,-0.16641885050000038
137472.0,2.8073496955,0.7412846735,5.0868074215,-1.2271689223452449,-0.936325510463658,1.5270828103494467,5.857160150057144,2.171320090447234,0.05275977700000034,-0.007158854499999867,-0.12572125299999914
137482.0,2.8420652365,0.8550418135,4.8773373775,-1.1493621442913378,-0.9408546398725832,1.6144836633015667,5.709365219121452,2.1938090826613417,0.03471554099999974,0.11375713999999992,-0.2094700439999997
137492.0,2.698397814,0.9017214675,4.780349609,-1.0910070607509075,-0.9368578358855162,1.718669347670116,5.562930410477628,2.240942511062979,-0.14366742250000009,0.04667965400000007,-0.09698776850000002
137502.0,2.5092275354999996,0.7568772469999999,4.617559218999999,-1.022792612265961,-0.9568418558208514,1.8271206167305398,5.309514020408043,2.302177406899457,-0.18917027850000023,-0.14484422050000012,-0.1627903900000005
137512.0,2.223167555,0.5473091364999999,4.429663805,-0.9276651867152621,-0.9992097234130137,1.9073254771766872,4.986375707247513,2.3445411589251,-0.2860599804999997,-0.20956811050000002,-0.18789541399999976
137522.0,1.9537788794999997,0.3031235515,4.2488291789999995,-0.8152188589970234,-1.055433759936759,1.9576869527429834,4.686329607462119,2.368767699589548,-0.2693886755000001,-0.24418558499999993,-0.18083462600000022
137532.0,1.7215574075,0.1391563635,4.064464159,-0.6937125271316822,-1.1103243649119807,1.9904624907661852,4.416219344712878,2.38243534912571,-0.23222147199999976,-0.16396718799999999,-0.18436501999999955
137542.0,1.5622974115,0.045797055499999996,3.81674818,-0.5650102027603684,-1.1590871188834502,2.0133769185156187,4.124371132888671,2.39090068685345,-0.15925999600000007,-0.093359308,-0.24771597900000009
137552.0,1.3325276019999999,-0.0116699135,3.495874592,-0.429380666587889,-1.186799456746616,2.043487338771025,3.74124379851997,2.4018120682291126,-0.22976980950000003,-0.05746696899999999,-0.320873588
137562.0,1.1146238389999998,-0.0703136805,3.231291175,-0.28762327941165755,-1.1769400918021002,2.0799926454057385,3.4188555064181108,2.407132014554377,-0.21790376300000003,-0.058643767,-0.2645834169999999
137572.0,0.8679865915,-0.200840192,3.0877218189999995,-0.13760524888573694,-1.1380367027751466,2.1143669050237666,3.213683795471336,2.405121649822315,-0.24663724749999982,-0.1305265115,-0.14356935600000043
137582.0,0.6955856845,-0.26909447599999997,3.0733060434999997,0.008683013028671789,-1.101264360764878,2.1335515641616882,3.1625087064715998,2.40102079623291,-0.172400907,-0.06825428399999997,-0.014415775499999839
137592.0,0.550741464,-0.29057103949999996,3.0852701565,0.13338853341291862,-1.0700892896657552,2.1484741292662397,3.1474814737746284,2.403918607779751,-0.1448442205,-0.02147656349999999,0.011964113000000332
137602.0,0.42747187349999993,-0.271448072,3.1211624954999997,0.22771485283695217,-1.041844626380731,2.1639290197926493,3.1619727357682743,2.412443384293554,-0.12326959050000008,0.019122967499999977,0.03589233899999966
137612.0,0.283804451,-0.20564545049999997,3.0278031875,0.2969956974948671,-0.9968116410207735,2.186845192871335,3.0480202033375567,2.4215969502767085,-0.14366742249999992,0.06580262150000002,-0.0933593079999997
137622.0,0.075511205,-0.2044686525,3.0242727935,0.3681405537939119,-0.9179384667938977,2.214023459983391,3.0321172967812458,2.4248790438956838,-0.20829324600000002,0.001176797999999979,-0.0035303940000002143
137632.0,-0.31351860049999997,-0.26664281349999996,3.12243736,0.4656660617368511,-0.8438632026807544,2.2318764329020406,3.1494455654883837,2.431094896879936,-0.3890298055,-0.06217416099999998,0.09816456650000038
137642.0,-0.6822486405,-0.3935408645,3.2181502639999997,0.5743826208435779,-0.8076231860923442,2.2193536955189814,3.3131297501273282,2.430576357914897,-0.36873004000000004,-0.126898051,0.09571290399999954
137652.0,-1.0353861069999999,-0.4749360595,3.331907404,0.6809681329336196,-0.8086895822653126,2.1751200709564373,3.5212491533562376,2.418438289808752,-0.3531374664999999,-0.08139519500000003,0.11375714000000015
137662.0,-1.299969524,-0.468954003,3.4204614534999997,0.7974130099681773,-0.8475929712922662,2.1223605129979006,3.689091375276281,2.4204742305141926,-0.2645834170000001,0.005982056499999999,0.0885540494999999
137672.0,-1.4363800254999999,-0.4247260115,3.4755748265,0.9269129498076525,-0.8990208430315312,2.068801594241951,3.784600393317713,2.438718132352381,-0.1364105014999999,0.04422799150000001,0.05511337300000019
137682.0,-1.5381730525,-0.316950928,3.4515485339999996,1.0548159133815531,-0.940322314450725,2.0235033188356897,3.7920471401018703,2.4680778649621207,-0.10179302700000004,0.10777508349999998,-0.024026292500000324
137692.0,-1.5453319069999998,-0.198486596,3.4528233985,1.1664628803023782,-0.9499146440196857,1.9835335336357676,3.788065080329668,2.48945350651583,-0.007158854499999867,0.11846433200000003,0.0012748645000004721
137702.0,-1.6052505385,-0.0033342610000000003,3.4910693334999996,1.2506645447355926,-0.9155403844016575,1.9568875919455702,3.8424478526006163,2.4963543511367843,-0.05991863150000021,0.19515233499999998,0.03824593499999951
137712.0,-1.8841516644999998,0.1391563635,3.5677573365,1.3314034759328504,-0.8529214614986049,1.9504927055662629,4.037113374738222,2.5108827192201137,-0.27890112599999983,0.1424906245,0.07668800300000056
137722.0,-2.2791635265,0.1726951065,3.7735989199999995,1.4406523604614354,-0.8028270213078638,1.958486313540397,4.411854348158167,2.5604060400979796,-0.39501186200000027,0.03353874300000001,0.20584158349999937
137732.0,-2.7902861244999997,0.06374322499999999,3.9915026829999998,1.5818774222158085,-0.7953657387555879,1.9480946231740226,4.870508548776691,2.6324922598446308,-0.5111225979999996,-0.10895188150000001,0.21790376300000025
137742.0,-3.2392345614999996,-0.1134629405,4.12075433,1.7518812180063164,-0.8598504186290223,1.9017299515947934,5.2427216816742,2.7248866679575015,-0.44894843699999987,-0.17720616549999998,0.1292516469999998
137752.0,-3.360150556,-0.410310236,4.2655985505,1.9152230920419615,-0.9509810401926544,1.7980765926481022,5.445575933065408,2.7938367640443285,-0.12091599450000023,-0.2968472955,0.14484422050000045
137762.0,-3.2380577634999996,-0.6114446275,4.4272121425,2.0673721695845675,-1.0186614179264906,1.645126408978831,5.5189754454029485,2.8316319805837047,0.12209279250000016,-0.20113439149999995,0.16161359200000014
137772.0,-3.1135133085,-0.6808757095,4.3936733995,2.20380106655446,-1.0527686421689637,1.47006115835754,5.4278838229523325,2.850638659001237,0.12454445499999967,-0.06943108200000003,-0.03353874300000026
137782.0,-2.9567049749999996,-0.5875164015,4.351799003999999,2.3514210146881402,-1.031451190685105,1.3099167275115482,5.293905401727221,2.88252565992001,0.15680833350000034,0.09335930800000003,-0.041874395500000716
137792.0,-2.9076717249999997,-0.342055952,4.6798314465,2.469464613317525,-0.9142086981823858,1.2147893019608493,5.5201792998337815,2.8999562183623278,0.04903324999999992,0.24546044949999996,0.3280324425000005
137802.0,-3.187749649,-0.18887607899999997,5.219687528999999,2.5296854538283373,-0.7404751337803662,1.1665588734112378,6.1190325949708875,2.882441937696617,-0.2800779240000004,0.15317987300000002,0.5398560824999992
137812.0,-3.7109344265,-0.1373911665,5.8613366385,2.5608605249274596,-0.5606137183745946,1.115132747001225,6.938672628121145,2.8488270240216464,-0.5231847775,0.05148491249999998,0.6416491095000012
137822.0,-4.305903882,-0.17808876399999998,6.6502816309999995,2.5984322277351417,-0.42524947224841836,1.0365266081499043,7.92456747214015,2.8296774666351845,-0.5949694554999998,-0.04069759749999999,0.7889449924999994
137832.0,-4.759559511,-0.25585549849999994,7.5049311785,2.6586530682459544,-0.3762214282306457,0.9014293973992833,8.89060519699782,2.8324112799607986,-0.453655629,-0.07776673449999996,0.8546495475000002
137842.0,-5.1186790339999995,-0.1134629405,8.352519938,2.7524470622481294,-0.46601861824575397,0.7087764639056453,9.79685348500556,2.8801913580206144,-0.3591195229999995,0.14239255799999995,0.8475887595000007
137852.0,-5.127112753,0.099635564,9.243159891,2.875286825661995,-0.6746587676876601,0.48361677309361273,10.57039342683989,2.9927118080197332,-0.008433719000000117,0.2130985045,0.8906399529999991
137862.0,-4.759559511,0.40128811799999997,9.969832656,2.9909323418991383,-0.8944899682933539,0.2515281251511628,11.0549537349119,3.1319410873989577,0.3675532419999996,0.30165255399999996,0.726672765
137872.0,-4.2004823945,0.886128894,10.5192992555,3.016778922791923,-1.0167974062853606,0.022902210444669592,11.361555069181726,3.183607473554723,0.5590771165000001,0.484840776,0.5494665995000005
137882.0,-3.6187519165,1.5505294315,10.8772419805,2.9091270145289125,-0.9842889036377142,-0.14097198901283398,11.567795816553458,3.074364606576857,0.5817304779999999,0.6644005375,0.35794272499999913
137892.0,-3.0417286304999998,1.9324003825,10.921469971999999,2.723670073541247,-0.8140180724716514,-0.21051812371705203,11.500643053724744,2.8504950398532523,0.5770232860000002,0.381870951,0.044227991499999675
137902.0,-2.837063845,2.205319452,10.868808261499998,2.5224894613223645,-0.5150484075927787,-0.22090981408342628,11.447417096062603,2.583994793068404,0.2046647854999999,0.2729190694999999,-0.05266171050000068
137912.0,-2.9819080655,2.2244424195,10.9347089495,2.3399629281487977,-0.15825423926608184,-0.23450069296870613,11.550228551809715,2.3570026483564215,-0.1448442205,0.019122967499999977,0.06590068800000104
137922.0,-3.266791248,1.904843696,11.259112931499999,2.197938505597011,0.18574841097274852,-0.3112410748496448,11.877204156217525,2.227623656104973,-0.2848831825000002,-0.31959872349999996,0.32440398199999976
137932.0,-3.5636385434999998,1.5768112534999998,11.810933127,2.122529809935344,0.409044090143651,-0.48177719606201075,12.437202045811954,2.21462392482132,-0.29684729549999966,-0.3280324425000001,0.5518201955000013
137942.0,-3.6870062005,1.5301315995,12.4502286405,2.1219974845134857,0.45727451869326236,-0.7050728752329133,13.074536727358272,2.282345519222916,-0.12336765700000019,-0.04667965399999985,0.6392955135000005
137952.0,-3.5134284954999995,1.8498283894999998,13.0068540945,2.151840869393337,0.34296068867538976,-0.9273021582308473,13.599422719336397,2.3681069346268457,0.17357770500000047,0.31969678999999984,0.5566254539999989
137962.0,-3.024959259,2.3944897304999997,13.2139705425,2.146512379186998,0.1436475787561413,-1.1092963659825559,13.76564481185453,2.4204727737505403,0.4884692364999994,0.5446613409999999,0.20711644800000073
137972.0,-2.2575888964999997,2.7835195359999996,13.2475092855,2.090555378038808,-0.03301639345997673,-1.2060225131280815,13.72374551288031,2.4137112861847956,0.7673703625000003,0.3890298054999999,0.03353874299999937
137982.0,-1.625550304,3.1773545999999997,13.185237057999998,2.0122145292337903,-0.1345387053899829,-1.1953637873861525,13.659739101484776,2.344355467735587,0.6320385924999998,0.3938350640000001,-0.062272227500001165
137992.0,-1.2018049575,3.4502736694999996,13.058339006999999,1.924016060813509,-0.15185935288677463,-1.0925097892368745,13.559828213220634,2.2177638974665275,0.42374534649999984,0.2729190694999999,-0.1268980509999995
138002.0,-0.9815475985,3.571189664,12.9493871255,1.8147654309556718,-0.0740525748328674,-0.9478202489172927,13.468610107596355,2.048711931309217,0.2202573590000001,0.12091599450000023,-0.10895188149999946
138012.0,-1.279571692,3.6359135539999996,12.827294333,1.6682118789949603,0.12419588424266449,-0.8119236773692581,13.393903500941857,1.8594557130395797,-0.29802409350000003,0.06472388999999978,-0.12209279250000016
138022.0,-1.787163896,3.4718482995,12.811701759499998,1.5219236170805512,0.4093111255192062,-0.7692905197307927,13.393557681970922,1.753737436861351,-0.507592204,-0.16406525449999965,-0.015592573500001095
138032.0,-2.4288130055,3.2851296835,12.948210327499998,1.4086779285648992,0.7405240029994221,-0.8620198628892513,13.577457801012542,1.8099247358549986,-0.6416491094999999,-0.18671861599999984,0.136508568
138042.0,-2.876486578,3.317393562,13.345673852000001,1.3140828284360586,1.0163122047533062,-1.0703929769556024,14.049422964754452,1.976219953000403,-0.4476735725000003,0.03226387849999979,0.39746352450000266
138052.0,-2.9160073774999997,3.406045678,13.777754851,1.2322792463950845,1.198838737926873,-1.3011499386787806,14.48898805715951,2.156088500867701,-0.03952079949999954,0.088652116,0.4320809989999983
138062.0,-2.6514239605,3.6071800694999996,14.1393260365,1.139816938612181,1.3000940144813242,-1.4618266949466308,14.831127328647622,2.2641476069585216,0.2645834169999999,0.20113439149999968,0.3615711855000008
138072.0,-2.3162326635,3.706521434,14.395475734499998,1.0225727007802097,1.3208791405433247,-1.5159179391244388,15.044366271622875,2.255744628822751,0.3351912969999997,0.0993413645000003,0.256149697999998
138082.0,-2.1391245645,3.7735008535,14.4421553885,0.8986682865226283,1.2550627744506184,-1.476215189300072,15.079489873977572,2.1358835506959286,0.17710809900000024,0.06697941949999997,0.04667965400000185
138092.0,-2.158247532,3.6993625795,14.229056884,0.7878189350699645,1.1122389911014183,-1.379223752108243,14.85965597556339,1.939069984853722,-0.019122967499999977,-0.07413827400000006,-0.21309850449999956
138102.0,-2.319861124,3.467043041,13.908281362499999,0.7260011182935773,0.9377060659019855,-1.2750363224104413,14.520414372229805,1.741289152685115,-0.16161359200000014,-0.23231953849999964,-0.32077552150000166
138112.0,-2.6670165339999996,3.301899055,13.527587209499998,0.7462521736044675,0.7613073837321706,-1.222542054498208,14.177839407775334,1.6220635974434583,-0.3471554099999996,-0.16514398600000035,-0.3806941530000003
138122.0,-3.0345697759999997,3.2467856819999996,13.254668139999998,0.8277887202698866,0.6320727339389984,-1.2406620627924132,13.979859029753621,1.6198742113039217,-0.36755324200000006,-0.05511337300000019,-0.27291906950000033
138132.0,-3.3865304445,3.130674946,13.160033967499999,0.9253142282128257,0.559596191420682,-1.329394601963805,13.94475557673175,1.713664006191451,-0.3519606685000003,-0.11611073599999955,-0.09463417249999928
138142.0,-3.5732490605000002,3.0612438639999997,13.245057623,0.995394433668154,0.5092347158543855,-1.4834094364767925,14.055990690087702,1.857588121903571,-0.18671861600000028,-0.06943108200000037,0.08502365550000057
138152.0,-3.3709378709999998,3.1438158569999994,13.485712814,1.0164448497764575,0.46473405591628614,-1.6435538673227843,14.251710436805487,1.9875631285967164,0.2023111895000005,0.08257199299999973,0.2406551910000001
138162.0,-3.2045190205,3.1007646635,13.7598086815,0.975675703779122,0.4031815291862021,-1.8084944629532564,14.46430152487977,2.0940751292526247,0.16641885049999994,-0.04305119349999931,0.2740958674999998
138172.0,-2.9148305795,3.10674672,14.0220385025,0.8885418862025573,0.33310306906012577,-1.9262710262070857,14.654885746910875,2.1473202845776345,0.289688441,0.005982056499999722,0.26222982100000003
138182.0,-2.5664983715,3.3964351609999994,14.207580320499998,0.7422536242881485,0.23477820031977323,-2.0213967064285328,14.831656153553725,2.166126933232308,0.348332208,0.2896884409999996,0.18554181799999903
138192.0,-2.306720213,3.6203209805,14.239844198999998,0.5813115779739954,0.11673460169038873,-2.0781548137033883,14.872822360087044,2.1610824944080673,0.25977815849999963,0.22388581950000042,0.03226387850000023
138202.0,-2.0685166845,3.790270225,14.200323399499998,0.44834715956931137,-0.012500048102783387,-2.111460931819196,14.84230758012256,2.1585733004221166,0.23820352850000015,0.16994924450000015,-0.03952079949999998
138212.0,-1.7572536134999999,3.8884347914999995,14.039984672,0.35721653800567943,-0.13507277614109314,-2.1399726304797753,14.674094008827305,2.17378268671957,0.31126307100000017,0.0981645664999995,-0.16033872749999922
138222.0,-1.4556010595,4.1063385545,13.6999881165,0.27727696760583515,-0.20595059706458288,-2.162621768182906,14.376037881169898,2.190029926145874,0.3016525539999999,0.21790376300000025,-0.3399965554999991
138232.0,-1.0784373004999999,4.328949509499999,13.406671215,0.1984037933789594,-0.18756529872407463,-2.1738145646759452,14.129460850790435,2.1908935547191426,0.3771637590000001,0.2226109549999995,-0.2933169015000008
138242.0,-0.5924197265,4.531260699,13.119336370000001,0.1027440424064022,-0.08497659062109993,-2.1711494469081503,13.892453758924415,2.175239591404395,0.4860175739999999,0.2023111895000005,-0.2873348449999984
138252.0,-0.22731814699999997,4.7516161245,12.9158483825,-0.02968805057642355,0.0900886600001913,-2.1426377482475707,13.764035337585115,2.1447363164788062,0.3651015795,0.2203554255000002,-0.20348798750000086
