timestamp,ax,ay,az,gx,gy,gz,acc_mag,gyro_mag,dax,day,daz
218762.0,0.935358277,1.0917743444999999,9.9169748125,0.5747212147184647,0.0658373100437301,0.17090787634304072,10.02064148432725,0.6031985810969303,0.0,0.0,0.0
218772.0,0.8491578234999999,0.830819388,8.997601374999999,0.5909754660422879,0.0565102705210724,0.19915428495731696,9.0756906276101,0.6261851494207799,-0.08620045350000005,-0.2609549564999999,-0.9193734375000009
218782.0,1.1795438619999998,0.768645227,9.180789597,0.5829801127389019,0.10447366369512857,0.20768021835330927,9.28811266252489,0.6276237976289808,0.3303860384999999,-0.06217416099999995,0.18318822200000184
218792.0,1.074220441,0.7206907084999999,9.1855948555,0.5568682417998148,0.19693597147803216,0.1924923632024546,9.276232937058476,0.621240151212459,-0.1053234209999998,-0.0479545185000001,0.004805258499999354
218802.0,0.9281994224999999,0.8045375659999999,9.227469250999999,0.5126346172372704,0.26834786315263215,0.16797746852894224,9.308868010729608,0.6025124533003267,-0.14602101850000015,0.08384685749999998,0.04187439549999894
218812.0,0.776098281,0.8248373314999999,9.3375979305,0.4684027380039782,0.3229731780815507,0.14319728380912675,9.406031058681714,0.5867011682449865,-0.15210114149999987,0.02029976550000001,0.11012867950000071
218822.0,0.598990182,0.7901217905,9.511175635499999,0.4372259215756035,0.3570804023240239,0.12454495009306336,9.562716332260626,0.5780868142547504,-0.17710809900000002,-0.03471554099999996,0.17357770499999958
218832.0,0.3882452735,0.7901217905,9.6357200905,0.42363678801957566,0.36294296328147285,0.11095407120778351,9.67585285639893,0.5687763432814882,-0.2107449085,0.0,0.12454445500000055
218842.0,0.1536702055,0.772175621,9.770953794,0.4247014388632922,0.3514848767421301,0.09976302004399588,9.802622494323044,0.5602370845626696,-0.234575068,-0.017946169499999942,0.13523370350000086
218852.0,-0.0738440745,0.6932320885,9.919426475,0.42923231360146946,0.33682934701313366,0.08404109414203095,9.943894874182638,0.5520482710357437,-0.22751427999999999,-0.07894353250000008,0.14847268099999944
218862.0,-0.274978466,0.560351981,10.048678122,0.42097167025178034,0.33336486844792496,0.05553114081070359,10.06804546567683,0.5398453392126435,-0.20113439149999998,-0.1328801074999999,0.12925164700000025
218872.0,-0.498766219,0.46571780849999994,10.243830457,0.4001882895190318,0.34961911977174814,0.010498155450745892,10.2665341401142,0.531502029390301,-0.22378775300000003,-0.09463417250000011,0.1951523349999995
218882.0,-0.7322625555,0.4394359865,10.443689983999999,0.37087723006103906,0.36853848886336665,-0.04439244952447577,10.478548225699996,0.5247296705220945,-0.23349633649999996,-0.026281821999999955,0.1998595269999992
218892.0,-0.948891454,0.4130560979999999,10.740635346,0.341032099851936,0.36853848886336665,-0.09448863504446901,10.79037802708106,0.5109321021972308,-0.2166288985,-0.02637988850000006,0.29694536200000066
218902.0,-1.1643435545,0.42148981699999993,10.9800156725,0.3173183113050891,0.3362970215912754,-0.13978691045072983,11.049619620017967,0.4830393128452761,-0.21545210050000008,0.008433719000000006,0.23938032650000096
218912.0,-1.36312435,0.39030467,11.200273031499998,0.29919830301088396,0.26195297677332496,-0.1874832682492309,11.289666146929806,0.43964640614749934,-0.19878079550000005,-0.031185146999999913,0.22025735899999788
218922.0,-1.539055651,0.33528936349999994,11.303242856499999,0.2885395772689546,0.14977193910138942,-0.24077515162962576,11.412467319873015,0.4045483840469599,-0.17593130099999987,-0.05501530650000008,0.10296982500000063
218932.0,-1.6623252414999998,0.30175062049999996,11.335604801499999,0.28720789104968286,0.016275195274847123,-0.2954004665585443,11.460816500637728,0.4123283767889939,-0.12326959049999986,-0.03353874299999998,0.03236194499999989
218942.0,-1.7270491314999998,0.25987622499999996,11.287650282999998,0.2912046950367499,-0.11588986233242347,-0.3468283382978092,11.42196494768939,0.4674617961387798,-0.06472389,-0.041874395499999995,-0.04795451850000099
218952.0,-1.711456558,0.19642719949999998,11.166734288499999,0.29999766380829734,-0.21048496246126416,-0.3982544647078221,11.298832765581858,0.5412108058533845,0.015592573499999762,-0.06344902549999998,-0.1209159944999989
218962.0,-1.686351534,0.09826263299999999,11.074551778499998,0.3037274324198092,-0.24725730447153269,-0.45607722282639424,11.202639605733362,0.6011596801182648,0.025105024000000142,-0.0981645665,-0.09218251000000066
218972.0,-1.6923335904999999,0.014415775499999998,10.976387212,0.2912046950367499,-0.24725730447153269,-0.521094228121687,11.106091887962886,0.6461234739643125,-0.005982056499999944,-0.08384685749999998,-0.09816456649999772
218982.0,-1.6838998715,-0.028635417999999996,10.966874761499998,0.2677561965362061,-0.22300944517357546,-0.5957035629859406,11.095435133370271,0.690137180837481,0.008433718999999895,-0.043051193499999994,-0.0095124505000026
218992.0,-1.630061363,-0.06452775699999999,10.9345128165,0.23364897229373288,-0.184371346192925,-0.67777418040247,11.055534107982826,0.7402448751400774,0.05383850849999994,-0.035892338999999995,-0.032361944999998116
219002.0,-1.570240798,-0.07413827399999999,10.9931565835,0.19927471267570457,-0.13427690600218375,-0.7617105547893813,11.10498285981229,0.7987137584110161,0.0598205650000001,-0.009610516999999999,0.058643766999999514
219012.0,-1.548666168,-0.028635417999999996,11.066216126,0.1627694060409912,-0.07752054405658014,-0.8440464622522138,11.17409174091632,0.8630861745702123,0.021574629999999928,0.045502855999999994,0.07305954250000113
219022.0,-1.480411884,0.06707748599999999,11.168009152999998,0.12786282100110458,-0.035419711839972924,-0.9189228324920224,11.26590196907945,0.9284517376020947,0.068254284,0.09571290399999999,0.1017930269999976
219032.0,-1.4480499390000001,0.23947839299999998,11.34629405,0.11507304824249014,-0.021828832954693077,-0.9767455906105946,11.44082982985138,0.9837429812492802,0.03236194499999989,0.172400907,0.17828489700000105
219042.0,-1.3594958895,0.3711817025,11.560569352499998,0.12812985637665972,-0.03728372348110287,-1.0175147366079302,11.646148233806764,1.0262278379317258,0.08855404950000012,0.1317033095,0.21427530249999904
219052.0,-1.201510758,0.4310022675,11.656380322999999,0.15770620588095563,-0.0849818266088559,-1.05268661169412,11.726064697527532,1.0678212681283283,0.15798513150000004,0.05982056499999999,0.09581097050000054
219062.0,-1.018322536,0.5555467224999999,11.746209237,0.20300448128721643,-0.15159580816972348,-1.080665984932841,11.803348863250214,1.1099689542812405,0.18318822200000007,0.12454445499999994,0.0898289140000017
219072.0,-0.7992419749999999,0.7326548214999999,11.7294398655,0.2586961923891035,-0.21847857043539817,-1.0918570360966287,11.779445249265763,1.1431572039618305,0.21908056099999995,0.17710809900000002,-0.016769371500000574
219082.0,-0.5478975355,0.9194715039999999,11.6647159755,0.31465319353729376,-0.2693723714235528,-1.0899912791262467,11.713719236227233,1.1660399200974372,0.25134443949999996,0.18681668249999994,-0.06472388999999978
219092.0,-0.254580634,0.9984150365,11.565374611,0.34316489219787305,-0.2739032461617301,-1.08839255753142,11.611181411772039,1.1736198237866027,0.2933169015,0.07894353250000008,-0.09934136450000075
219102.0,-0.022359162,1.0547052075,11.486431078499999,0.32131511529215606,-0.22300944517357546,-1.1035821580115266,11.534773596737113,1.170841661128103,0.23222147199999998,0.05629017100000011,-0.0789435325000003
219112.0,0.20986230999999997,1.0905975465,11.498395191499998,0.23471362313744942,-0.12948074121770334,-1.1416861862410665,11.551906214019427,1.1727331730134805,0.23222147199999996,0.035892338999999884,0.011964112999999443
219122.0,0.3643170475,1.1804264604999999,11.566551408999999,0.09402263213418653,-0.004509930787153348,-1.1880508578202962,11.632336181386245,1.1917740707016105,0.15445473750000002,0.08982891399999993,0.06815621750000034
219132.0,0.5079844699999999,1.327624277,11.6300004345,-0.06692115950921858,0.11886215804856982,-1.2229556975309308,11.716550027593922,1.2305394314402878,0.14366742249999992,0.14719781650000008,0.06344902550000064
219142.0,0.6085026325,1.4269656414999998,11.749739630999999,-0.19802156627277265,0.21132446583147343,-1.2546648393811637,11.851704003731822,1.2876546236267865,0.10051816250000012,0.09934136449999986,0.11973919649999942
219152.0,0.7174545139999999,1.4497170695,11.918512077499999,-0.2984774820298103,0.268082573106329,-1.2805131656031996,12.027774137502416,1.3418908452498264,0.1089518814999999,0.022751428000000073,0.16877244650000023
219162.0,0.853963082,1.4593275865,12.152008413999999,-0.37868234247595767,0.2949938048428296,-1.292503577564401,12.269074881345603,1.3787629090657696,0.1365085680000001,0.00961051700000004,0.2334963365
219172.0,1.038328102,1.4330457645,12.3219576585,-0.43144190043449426,0.29233043240428624,-1.2815778164469163,12.44838888966846,1.383488668102869,0.18436501999999988,-0.026281821999999844,0.16994924450000148
219182.0,1.2873189454999998,1.4126479325,12.395017201,-0.44476574394421897,0.2672832123089156,-1.2525337923644786,12.54149973734105,1.3557646490388255,0.2489908434999999,-0.020397832000000005,0.07305954249999935
219192.0,1.597307152,1.3827376499999997,12.402176055499998,-0.42984317883966744,0.23983616449205278,-1.2146967995104934,12.580831628242045,1.3106391032371516,0.30998820650000014,-0.029910282500000385,0.007158854499998313
219202.0,1.9002345704999999,1.3635166159999998,12.440520057,-0.41651933532994273,0.22384894854378473,-1.1701961395723943,12.658459948731943,1.2621234937746741,0.30292741849999993,-0.01922103399999986,0.03834400150000228
219212.0,2.210222777,1.4030374155,12.463271484999998,-0.4357057397971164,0.22837807795271003,-1.1174383269431096,12.735255585267087,1.2209277016690803,0.3099882064999999,0.0395207995000002,0.02275142799999763
219222.0,2.4460727095,1.4198067869999997,12.508676274499999,-0.4855331446123025,0.24889616863915534,-1.0606802196682539,12.824433911592788,1.192784249424789,0.2358499325000003,0.016769371499999686,0.04540478950000093
219232.0,2.6088630994999997,1.4809022164999999,12.5422150175,-0.555880385443186,0.2782072280971481,-0.9983283321407566,12.895983700050566,1.1760364464764297,0.16279038999999962,0.06109542950000013,0.03353874300000115
219242.0,2.811174289,1.5551385569999998,12.4488557095,-0.6230284377551638,0.2981912480324832,-0.9317126052506369,12.856716738364948,1.1598149996606093,0.2023111895000005,0.07423634049999994,-0.09335930800000014
219252.0,2.9764163415,1.6340820895,12.3350985695,-0.6824499174685628,0.3272370174441729,-0.8584367019349071,12.793902267582547,1.1444367726823035,0.16524205249999957,0.07894353250000008,-0.11375714000000059
219262.0,3.1440119899999996,1.695177519,12.278906464999999,-0.7373405224437843,0.37200296742857536,-0.793152661264059,12.78788419522188,1.1450538842707787,0.16759564849999986,0.06109542950000013,-0.056192104500000895
219272.0,3.2349196355,1.6639923719999998,12.301657893,-0.7996924099712819,0.4077089132658754,-0.7361292639429005,12.82826420754682,1.1608707084577654,0.09090764550000019,-0.03118514700000019,0.022751428000001184
219282.0,3.321120089,1.6305516955,12.280083263,-0.8655087760639881,0.39598379135097744,-0.6796399373728519,12.82532582133764,1.1695379638680616,0.08620045350000005,-0.03344067649999993,-0.021574629999999928
219292.0,3.3187664929999996,1.7131236885,12.256155036999997,-0.9121404830187725,0.33176614685309813,-0.6146229320775591,12.812585223058607,1.1488387117411596,-0.002353596000000291,0.08257199300000018,-0.02392822600000244
219302.0,3.2852277500000002,1.8460037959999998,12.118469671,-0.9302604913129776,0.23264191731533215,-0.5381478402429236,12.690853342118618,1.0995953534587801,-0.03353874299999937,0.13288010749999968,-0.1376853659999977
219312.0,3.2361945,1.89268345,11.930476190499999,-0.9185353693980798,0.12605640522529046,-0.4606080975645715,12.505657424374839,1.0352570993118777,-0.04903325000000036,0.04667965400000029,-0.1879934805000012
219322.0,3.2002040945,1.8867013934999999,11.631275298999999,-0.8830964589363349,0.019205603088945603,-0.38439829577623913,12.210139781174371,0.9633225112970115,-0.03599040549999977,-0.005982056500000166,-0.29920089149999995
219332.0,3.155976103,1.8986655065,11.3475689145,-0.8212768968306957,-0.09643816781894668,-0.31032303166309577,11.930315844000388,0.8832306864351506,-0.04422799150000012,0.01196411300000011,-0.2837063844999985
219342.0,3.167940216,1.893860248,11.0494467545,-0.7445347696205051,-0.21421473107277603,-0.23944346541035405,11.649584775073974,0.8108965083844917,0.011964112999999887,-0.00480525850000002,-0.29812216000000014
219352.0,3.2349196355,1.9310274514999999,10.777704483,-0.6832492782659761,-0.3160040783783373,-0.1611043619345886,11.417201320352914,0.7698329489162377,0.06697941949999997,0.03716720349999991,-0.2717422714999991
219362.0,3.225407185,1.9836891619999997,10.5167495265,-0.6632635130013891,-0.39434318185410283,-0.07823438372064583,11.177669471031242,0.7755937413039838,-0.009512450499999936,0.05266171049999979,-0.2609549565000009
219372.0,3.2373712980000002,1.952504015,10.207938118,-0.6827152075148659,-0.4665544343261162,0.0019722220547535923,10.8855337705885,0.8269080870455082,0.011964113000000332,-0.031185146999999747,-0.30881140850000044
219382.0,3.2757152995,2.007617388,9.8906929905,-0.7277481928748236,-0.5273093455880388,0.07924492935755054,10.610685469483306,0.9021930708035506,0.038344001499999614,0.055113372999999966,-0.31724512749999967
219392.0,3.3139612345,2.1428510915,9.486070611499999,-0.7818394370526319,-0.5582191266408584,0.16744514310708397,10.27422432646258,0.9751509496629795,0.03824593499999995,0.13523370349999997,-0.404622379000001
219402.0,3.3546588319999997,2.237485264,9.1269510885,-0.8234079438473808,-0.5595508128601301,0.2641712902526097,9.978041509114105,1.029992342086645,0.040697597499999905,0.09463417250000017,-0.3591195229999986
219412.0,3.3714282035,2.2326800055,8.8168648155,-0.8479228385208931,-0.5321055103725193,0.3635608098366788,9.699922335416742,1.0650285802283568,0.01676937150000013,-0.004805258500000242,-0.3100862729999996
219422.0,3.3367126624999996,2.16923098,8.570227568,-0.8497885954912752,-0.5022621254926681,0.4600199216066494,9.44923356701414,1.0890483129808497,-0.03471554100000018,-0.06344902549999976,-0.2466372475000007
219432.0,3.2529638715,2.1320637765,8.372721637,-0.8207428260795855,-0.48414211719846306,0.548485425402486,9.232006147476055,1.0994765291198632,-0.08374879099999966,-0.037167203500000134,-0.19750593100000025
219442.0,3.1847095874999996,2.0926410435,8.2255238205,-0.768250303496604,-0.4884059565610852,0.6252275526126766,9.065360655554091,1.104381455735748,-0.06825428400000044,-0.03942273299999988,-0.1471978165000003
219452.0,3.1499940465,1.9788839034999999,8.033999946,-0.7138920239432406,-0.5033267763363847,0.7030343306665839,8.85345125523628,1.1212657739014267,-0.03471554099999974,-0.11375714000000015,-0.19152387449999964
219462.0,3.109296449,1.8508090545,7.816096182999999,-0.6608654306091489,-0.5235778316472749,0.7747132577167389,8.613046969910842,1.1450141898023625,-0.040697597499999905,-0.12807484899999988,-0.2179037630000007
219472.0,3.038688569,1.7406803749999997,7.6137849934999995,-0.6038437786172423,-0.5459616793041022,0.8415942746531617,8.380532102111847,1.1708895709554705,-0.07060787999999985,-0.11012867950000027,-0.2023111894999996
219482.0,2.95964697,1.6066234695,7.440207288499999,-0.5428235773090164,-0.573406981791713,0.9066112799484545,8.166849677545615,1.20224665347,-0.07904159899999996,-0.13405690549999982,-0.17357770500000047
219492.0,2.8279436605,1.4940431275000001,7.240249694999999,-0.4799376190304087,-0.6053814136882492,0.9684308420540937,7.915216096844085,1.238824067429012,-0.1317033095000002,-0.11258034199999978,-0.19995759349999975
219502.0,2.6807458439999996,1.4282405059999999,6.969684221499999,-0.4085257273558087,-0.6376246262895924,1.023056156983012,7.602813122162641,1.272832406211982,-0.1471978165000003,-0.06580262150000027,-0.2705654735000005
219512.0,2.534626759,1.3791091895,6.6884294995,-0.3269891806903896,-0.6456182342637264,1.068354432389273,7.284323176094263,1.290397621629934,-0.1461190849999996,-0.0491313164999998,-0.281254721999999
219522.0,2.3575186599999998,1.3096781075,6.482489849499999,-0.2529121712479943,-0.6141761277890486,1.1181835825337112,7.021098605373913,1.300581180303348,-0.17710809900000024,-0.06943108200000014,-0.20593965000000036
219532.0,2.1659947855,1.266626914,6.3424508875,-0.18789516595270153,-0.5603501736575435,1.1685450581000074,6.8207448574500935,1.3095016087490623,-0.19152387449999964,-0.04305119349999997,-0.14003896199999932
219542.0,2.0283094195,1.1935673715,6.304106886,-0.1300724078341294,-0.5094563726693888,1.2194388590881622,6.729071689442345,1.3279667759350977,-0.13768536599999992,-0.07305954250000002,-0.0383440015000005
219552.0,1.886995593,1.119331031,6.271843007499999,-0.0826430854111835,-0.4609589087442224,1.2652694599162813,6.644521731147215,1.3491552176505797,-0.14131382650000024,-0.07423634049999994,-0.03226387850000023
219562.0,1.7421513725,1.0080255535,6.2479147815,-0.04587074340091497,-0.41645999413537493,1.302841162723963,6.564118070091275,1.3685533044435343,-0.1448442205,-0.11130547749999997,-0.023928225999999775
219572.0,1.6584025815,0.8380763089999999,6.216729634499999,-0.02162288410295775,-0.378888291327693,1.3233592534104086,6.488481977358297,1.3767002578662877,-0.08374879099999988,-0.16994924450000015,-0.031185147000000413
219582.0,1.5662200714999999,0.6847983695,6.1688731825,0.003691371367968007,-0.34451577703891667,1.32469093962968,6.401327242143382,1.3687625186233985,-0.09218251000000022,-0.1532779394999999,-0.04785645199999955
219592.0,1.4429504809999998,0.5758464879999999,6.182014093499999,0.03513347784264585,-0.31307367056423885,1.3142992492633059,6.374245329495303,1.351529504332027,-0.12326959050000008,-0.10895188150000001,0.01314091099999981
219602.0,1.351944769,0.5135742605,6.203588723499999,0.07004006288253244,-0.28616069349848633,1.2996437195343096,6.369931414843564,1.332616730585767,-0.09100571199999985,-0.062272227499999944,0.021574629999999928
219612.0,1.2765316305,0.5231847775,6.235950668499999,0.10015048313793862,-0.2619128342005291,1.2892520291679355,6.386731249633126,1.31939351472764,-0.07541313849999987,0.00961051700000004,0.03236194499999989
219622.0,1.1999416939999998,0.542307745,6.221534892999999,0.11960217765141541,-0.24139474351408371,1.2873862721975533,6.359359573424284,1.3152716513853342,-0.07658993650000023,0.019122967499999977,-0.014415775499999839
219632.0,1.169933345,0.577023286,6.259878894499999,0.132658985785585,-0.22460816676840226,1.2833894682104863,6.394355610859913,1.3096319185948078,-0.030008348999999823,0.03471554099999996,0.038344001499999614
219642.0,1.142474725,0.6130136915,6.271843007499999,0.146515154717168,-0.2099526370394059,1.2839217936323446,6.404455401824336,1.3091989812575067,-0.02745861999999999,0.03599040549999999,0.011964113000000332
219652.0,1.1172716345,0.6381187155,6.290965974999999,0.16490045305767626,-0.1936983857155827,1.2865869114001398,6.421194927654615,1.3114942259246132,-0.025203090500000025,0.02510502400000003,0.019122967499999532
219662.0,1.0346996415,0.687250032,6.335292033,0.19261279092084221,-0.1681170948691018,1.2919171469357307,6.455915202200034,1.3169711307997989,-0.08257199299999995,0.04913131650000002,0.04432605800000111
219672.0,0.8647503969999999,0.8440583654999999,6.464543679999999,0.22778641133628394,-0.12628329802804972,1.320427100267058,6.576515244725745,1.3458684362410671,-0.16994924450000015,0.1568083334999999,0.12925164699999936
219682.0,0.6624392075,0.942222932,6.6668548695,0.2539000276046231,-0.07219030852098945,1.3763841014152483,6.7656162770434864,1.4014670382462244,-0.20231118949999993,0.09816456650000005,0.2023111895000005
219692.0,0.44934070299999995,0.897896874,6.891917486999999,0.26136131015689884,-0.029290115506968837,1.4400694204912694,6.964671744693205,1.4638878307942185,-0.2130985045,-0.044326058,0.225062617499999
219702.0,0.2733113355,0.7075497975,6.997240908,0.265623404190269,-0.010904817166460572,1.4856347312730853,7.038231747153809,1.509233336053744,-0.17602936749999998,-0.19034707649999993,0.10532342100000136
219712.0,0.092574776,0.44414317849999996,7.0822645635,0.2781478869025803,-0.019964821313563134,1.5013566571750503,7.096781284467444,1.5270352494694728,-0.18073655949999998,-0.26340661900000006,0.08502365549999968
219722.0,0.000392266,0.1497475455,7.140908330499999,0.3205157544947427,-0.05673541799457967,1.474976005531156,7.142478299992249,1.5104646548089098,-0.09218251,-0.29439563299999993,0.058643766999999514
219732.0,-0.128859381,-0.0310870805,7.197198501499999,0.39219293621564577,-0.11509050153501008,1.415821561193312,7.198419091483876,1.4736389706779938,-0.129251647,-0.180834626,0.05629017099999967
219742.0,-0.19476006899999998,-0.028635417999999996,7.1768006694999995,0.4721325066154901,-0.1830396599736533,1.342011587126472,7.179499935328126,1.434366661948056,-0.06590068799999999,0.0024516625000000035,-0.02039783199999956
219752.0,-0.22584714949999998,0.1150320045,7.0463722245,0.5419456766952633,-0.22514049219026053,1.2783262680504508,7.05092907517879,1.4065956793976557,-0.031087080500000003,0.1436674225,-0.13042844499999973
219762.0,-0.32999377249999995,0.308909475,6.9158457129999995,0.5923071522615597,-0.1992939112974765,1.248749918546155,6.930601913229039,1.3963961417769222,-0.10414662299999997,0.19387747049999998,-0.13052651150000028
219772.0,-0.392266,0.3507838705,6.872794519499999,0.6042975642227607,-0.11588986233242347,1.2439537537616745,6.892911318581445,1.3878137295093858,-0.062272227500000055,0.041874395499999995,-0.043051193500000196
219782.0,-0.476014791,0.377163759,6.9230045675,0.5837794735363153,-0.001577777643802874,1.2474164869976312,6.94959242142873,1.3772613605042952,-0.08374879099999999,0.026379888500000004,0.050210048000000285
219792.0,-0.6675386655,0.271840338,7.040390167999999,0.5440767237119484,0.12632344060084558,1.2506139301872847,7.0771886195701,1.3696759818690147,-0.19152387449999997,-0.10532342099999997,0.11738560049999958
219802.0,-0.8483732915,0.053936574999999994,7.2307372445,0.4987784483056875,0.2347747096612692,1.2322286318467766,7.2805362092948025,1.349920925807783,-0.180834626,-0.21790376300000003,0.19034707650000104
219812.0,-1.109328248,-0.19024901,7.476099627499999,0.4830565224037226,0.29712659718876666,1.169609708943724,7.5603485030732775,1.2998517953402136,-0.2609549565,-0.24418558499999998,0.2453623829999989
219822.0,-1.3224267525,-0.39618865999999997,7.6473237365,0.501708856119786,0.3104486953692394,1.072084201000785,7.770929050047787,1.2237053169783068,-0.2130985045,-0.20593964999999997,0.17122410900000062
219832.0,-1.4696245689999998,-0.5422096784999999,7.848360061499999,0.5472741669016019,0.27873955351900637,0.9529759515276839,8.00315833682027,1.133740674336028,-0.14719781649999986,-0.14602101849999993,0.20103632499999957
219842.0,-1.5714175959999999,-0.5278919695,7.989673888,0.6101601251802097,0.21985214455671773,0.8232089763126536,8.159835294236645,1.047999695852935,-0.10179302700000004,0.014317708999999956,0.14131382650000024
219852.0,-1.585735305,-0.43806305549999996,8.069892285,0.6786416090407111,0.14630920586543264,0.7104956132188596,8.235873796363077,0.9933603745094638,-0.014317709000000178,0.08982891399999998,0.08021839700000033
219862.0,-1.4252985109999998,-0.1375872995,8.083033195999999,0.7188766842869364,0.11086855007443579,0.6361515684009091,8.208887364197446,0.9663148247780968,0.16043679400000022,0.300475756,0.013140910999998923
219872.0,-1.2781006945,0.21917862749999997,8.0986257695,0.7031547583849714,0.13431704857497961,0.6111043483055386,8.20178761066413,0.94123121935859,0.14719781649999986,0.356765927,0.015592573500001095
219882.0,-1.1859181845,0.6249778045,8.1105898825,0.6336086236807534,0.20146684621620947,0.6366856391520195,8.220624516334313,0.9205527585257349,0.09218251,0.405799177,0.011964112999999443
219892.0,-1.2314210405,0.9613458995,8.153641076,0.5081054878283452,0.3184423033433734,0.7006362482743438,8.301954379163137,0.9222081325361763,-0.045502855999999925,0.3363680950000001,0.043051193500000196
219902.0,-1.4325554319999998,0.9685047539999999,8.2506288445,0.3516908255938654,0.44794398851210065,0.7771113401089792,8.429892813907465,0.9634533141657654,-0.2011343914999999,0.007158854499999867,0.09698776850000002
219912.0,-1.7509773574999998,0.6309598609999999,8.462550551,0.21099983459060248,0.5350778060886655,0.8218772900933817,8.664802010484788,1.0031507706906087,-0.31842192550000004,-0.337544893,0.21192170650000008
219922.0,-2.1232377915,0.087475318,8.66123328,0.13425770738041182,0.5721154381452372,0.7941649522302158,8.918113734478414,0.9879469509573792,-0.372260434,-0.5434845429999999,0.19868272899999972
219932.0,-2.3220185869999996,-0.47640705699999997,8.748610531499999,0.13292602116114013,0.5713160773478239,0.6870471147183158,9.064045467350965,0.903385369142427,-0.19878079549999983,-0.5638823749999999,0.08737725149999953
219942.0,-2.430872402,-0.8941703469999999,8.899436808499999,0.1987423872538463,0.5446701356576265,0.5119801187677726,9.26869228924685,0.7734906173846698,-0.10885381500000024,-0.4177632899999999,0.15082627700000018
219952.0,-2.4692164035,-1.0282272525,9.113712111,0.31278743656691177,0.48045249115974703,0.2932153143350474,9.498106620389416,0.6439299630365924,-0.03834400150000006,-0.13405690550000016,0.21427530250000082
219962.0,-2.4117494345,-0.8522959514999999,9.368685010999998,0.438292317748572,0.38799018337684343,0.0773809177164206,9.711601441528087,0.5904441926387686,0.057466969000000034,0.1759313010000001,0.2549728999999985
219972.0,-2.3303542395,-0.3782424905,9.5674658065,0.5446107944630586,0.303788518943629,-0.09182351727667366,9.854441649414843,0.6303331976127444,0.08139519499999981,0.47405346099999995,0.19878079550000116
219982.0,-2.2501358424999998,0.17122410899999999,9.689558599,0.5928394776834178,0.2678155377307739,-0.18348646426216386,9.948868018456213,0.6759076054590609,0.08021839700000033,0.5494665995,0.12209279250000016
219992.0,-2.1687406475,0.7422653384999999,9.793705222,0.5707226654021458,0.28113763591124663,-0.21439624531498344,10.058382365186128,0.6713631514572846,0.08139519499999981,0.5710412294999999,0.1041466230000001
220002.0,-2.1112736785,0.9816456649999998,9.969636523,0.4899854795341401,0.33922742940537387,-0.18721623287367573,10.237907850624353,0.624668661665278,0.057466969000000034,0.23938032649999996,0.17593130100000032
220012.0,-2.1567765344999996,0.8799507045,10.2043096575,0.4012529403627484,0.4095729249070053,-0.13738882805848965,10.466801509929747,0.5896012152649586,-0.0455028559999997,-0.10169496049999982,0.2346731344999995
220022.0,-2.256117899,0.6811699089999999,10.5646059785,0.3381016920378375,0.4732582439830264,-0.1067460823812252,10.824276414618817,0.5913381822278059,-0.0993413645000003,-0.19878079550000016,0.36029632099999986
220032.0,-2.4213599515,0.352058735,10.9105845905,0.3109234249257818,0.48711441291460944,-0.12513138072173347,11.181582422630257,0.5912797052817307,-0.16524205250000001,-0.32911117399999984,0.3459786119999997
220042.0,-2.6152374219999994,0.09581097049999998,11.184680457999999,0.3381016920378375,0.42476252538711196,-0.1874832682492309,11.486762967131533,0.5743569734977532,-0.19387747049999948,-0.25624776450000003,0.2740958674999998
220052.0,-2.691925425,-0.13160524299999998,11.448087077,0.42603487041181587,0.32883573903899965,-0.2879391840062685,11.761057782203135,0.6103667977227575,-0.07668800300000056,-0.22741621349999996,0.2634066190000013
220062.0,-2.657209884,-0.24291072049999998,11.6647159755,0.5310199155777787,0.2329089526908873,-0.39718981386410557,11.966008890805908,0.7028431398407471,0.03471554100000018,-0.1113054775,0.21662889849999978
220072.0,-2.5841503415,0.08267005949999999,11.7916140265,0.6133575683698632,0.15003897447694453,-0.4923172394148045,12.071736771325153,0.8006843727485248,0.0730595424999998,0.32558077999999996,0.1268980509999995
220082.0,-2.4835341124999997,0.5135742605,11.961661337499999,0.6495958396290215,0.11006918927702239,-0.564528491886818,12.227552582673342,0.8676303357095345,0.10061622900000033,0.430904201,0.17004731099999937
220092.0,-2.3878212085,0.7661935645,12.082577332,0.6424015924523009,0.09195092631206925,-0.5890416412310783,12.340073649934341,0.876415902376892,0.09571290399999954,0.252619304,0.12091599450000068
220102.0,-2.2620999554999996,0.8236605334999999,12.183095494499998,0.6029658780034891,0.08182452599199816,-0.5738537860802235,12.418668556299616,0.836403772641504,0.12572125300000048,0.05746696899999992,0.10051816249999845
220112.0,-2.0765581374999997,0.7123550559999999,12.2872421175,0.5621967320061535,0.08742005157389197,-0.5504052875796798,12.481821272486323,0.7916144336046752,0.18554181799999991,-0.11130547749999997,0.10414662300000188
220122.0,-1.9006268365,0.483663978,12.3231344565,0.5200958997895462,0.11992855422153836,-0.538947201040337,12.478219265913559,0.7585161096540927,0.17593130099999965,-0.22869107799999994,0.035892339000000106
220132.0,-1.8107979225,0.30175062049999996,12.3231344565,0.47080082039621846,0.15776554707552345,-0.5440104012003726,12.459120570332402,0.736539677779807,0.08982891400000015,-0.18191335750000004,0.0
220142.0,-1.7197922104999999,0.07786480099999998,12.275278004499999,0.4364265607781901,0.19693597147803216,-0.5781176254428457,12.395410370870854,0.750647659466377,0.09100571200000007,-0.22388581949999997,-0.047856452000001326
220152.0,-1.6001510805,-0.07413827399999999,12.3171524,0.43269679216667817,0.24836384321729707,-0.6423352699407251,12.420878520013098,0.8133300139419569,0.11964112999999976,-0.152003075,0.041874395500000716
220162.0,-1.5259147399999997,-0.050210048,12.418945427,0.4372259215756035,0.3011234011758337,-0.7188103617753607,12.512439504807752,0.8936051395493217,0.07423634050000039,0.02392822599999999,0.10179302700000115
220172.0,-1.480411884,0.1544547375,12.551825534499999,0.422303356471052,0.3283016682878894,-0.783026260943988,12.639770562029629,0.9482891097208963,0.0455028559999997,0.2046647855,0.13288010749999835
220182.0,-1.3594958895,0.356765927,12.6942180925,0.38206828122482667,0.3205750956893105,-0.8253941285361504,12.771792512415393,0.9643754615896523,0.12091599450000001,0.2023111895,0.14239255800000095
220192.0,-1.1870949825,0.5075922039999999,12.8091520305,0.3306404094855617,0.28113763591124663,-0.8395173328432884,12.874052201366148,0.9450665600130255,0.1724009070000001,0.15082627699999995,0.11493393800000007
220202.0,-1.0590201335,0.5985979159999999,12.8067984345,0.2749504437129267,0.20946045419034348,-0.8293909325232174,12.864444381709983,0.8985325521756529,0.12807484899999988,0.09100571199999996,-0.002353596000000735
220212.0,-0.9512450499999999,0.6477292324999999,12.7026518115,0.2275193759607288,0.09887813811323476,-0.8075411556175004,12.754676920564815,0.8447867604610926,0.10777508350000009,0.04913131650000002,-0.1041466230000001
220222.0,-0.7382446119999999,0.6477292324999999,12.574576962499998,0.19660959490790925,-0.01623330737279926,-0.7800958531298895,12.612872157110678,0.8046542071899967,0.21300043800000001,0.0,-0.12807484900000077
220232.0,-0.4665023405,0.6130136915,12.3890351445,0.17955598278667265,-0.09777159936747035,-0.7534499114396921,12.412961050100598,0.7806961032603152,0.2717422714999999,-0.03471554099999996,-0.18554181799999903
220242.0,-0.233006004,0.6392955134999999,12.167502920999999,0.17236173560995202,-0.14706667876079818,-0.7326647853776916,12.186513770723144,0.7668995133893004,0.2334963365,0.026281821999999955,-0.22153222350000057
220252.0,-0.03187161249999999,0.6680289979999999,11.888601794999998,0.16170300986802266,-0.16465261630389305,-0.7153458832101519,11.907398170126394,0.7516502378645318,0.2011343915,0.028733484500000017,-0.27890112600000094
220262.0,0.194367803,0.6261546025,11.674326492499999,0.13239195041002985,-0.1422705139763178,-0.707617565282321,11.69272198773931,0.7338195598214436,0.22623941549999999,-0.04187439549999994,-0.21427530249999904
220272.0,0.360688587,0.5806517465,11.464856448499999,0.08282983564114689,-0.09057735219074972,-0.7102826830501163,11.48521597934569,0.720809633844539,0.166320784,-0.045502856000000036,-0.2094700439999997
220282.0,0.48758663799999996,0.6165440855,11.278137832499999,0.027672195290370093,-0.030089476304382242,-0.7201420479946323,11.305496906717057,0.7213013907281502,0.12689805099999996,0.035892338999999995,-0.18671861600000028
220292.0,0.5618229785,0.654888087,11.1559469735,-0.017626080115890733,0.016008159899291993,-0.7230724558087308,11.18926612165467,0.723464384909777,0.0742363405,0.03834400150000006,-0.12219085899999804
220302.0,0.6624392075,0.725495967,11.079357037,-0.05253266515577733,0.03945665839983581,-0.7140124516616282,11.122828887252014,0.7170287929562517,0.100616229,0.07060787999999996,-0.07658993650000134
220312.0,0.7533468529999999,0.85121722,11.023066865999999,-0.08290837545748664,0.0479843371250801,-0.6942954671018483,11.081520896016782,0.7008726638759045,0.09090764549999997,0.12572125300000003,-0.056290171000000555
220322.0,0.8371937104999999,0.8955432779999999,10.95010539,-0.11328583108844795,0.036259215210182195,-0.6623192898760601,11.018516194287631,0.6729154864877069,0.08384685749999998,0.04432605799999989,-0.07296147599999969
220332.0,0.8898554209999999,0.969681552,10.810066427999999,-0.13353688639933814,0.013343042131496648,-0.6212848538324215,10.889888023315248,0.6356138815382543,0.052661710500000014,0.07413827400000006,-0.1400389620000002
220342.0,0.8814217019999999,1.0103791494999999,10.731024828999999,-0.13993177277864538,0.009346238144429635,-0.5807827432106412,10.81446550334853,0.5974753953190912,-0.008433719000000006,0.040697597499999905,-0.07904159899999996
220352.0,0.8407241044999999,0.9840973274999999,10.5981447215,-0.14499497293868094,0.026399850265666228,-0.5453420874196442,10.676887941143631,0.5649057324746787,-0.040697597500000016,-0.026281821999999955,-0.13288010749999835
220362.0,0.772567887,0.9218251,10.474875131000001,-0.1556536986806103,0.051181780314733714,-0.5256251028598643,10.543701042094087,0.5505718820513655,-0.0681562174999999,-0.062272227499999944,-0.12326959049999964
220372.0,0.7546217175,0.7769808794999999,10.419761757999998,-0.16178154968436237,0.06690196088744664,-0.5280231852521045,10.475905131162197,0.5562891571409939,-0.017946169500000053,-0.1448442205,-0.05511337300000285
220382.0,0.8204243389999999,0.733929686,10.4137797015,-0.1564530594780237,0.06876771785782858,-0.5456091227951994,10.471798152723775,0.5717480858881425,0.06580262149999994,-0.04305119349999997,-0.0059820564999988335
220392.0,0.8611219364999999,0.8009091055,10.418584959999999,-0.1425968905464407,0.06104114525924968,-0.5658601781060896,10.484746012828946,0.5867347235116819,0.040697597500000016,0.06697941950000008,0.004805258499999354
220402.0,0.9114300509999999,0.9194715039999999,10.386223014999999,-0.12554327842520413,0.036791540632040466,-0.5754525076750503,10.466602175579693,0.5901358494527605,0.050308114499999945,0.11856239849999983,-0.03236194499999989
220412.0,0.9999841005,1.0595104659999999,10.351507474,-0.10715623475544385,0.0029513517651224112,-0.5709233782661252,10.453527520081161,0.5808998820580104,0.08855404950000012,0.140038962,-0.03471554099999885
220422.0,1.08853815,1.2174955975,10.2498125135,-0.09436646199682941,-0.028223719334000304,-0.5456091227951994,10.379107254279555,0.554428464601332,0.08855404950000001,0.15798513150000004,-0.10169496049999971
220432.0,1.1855259185,1.3671450765,10.222255827,-0.09250245035569947,-0.03914948045148481,-0.5093708515360411,10.381188349908161,0.5191801705920416,0.09698776850000002,0.14964947900000003,-0.027556686500000538
220442.0,1.2453464834999999,1.4078426739999998,10.155178341,-0.09863030135945156,-0.035419711839972924,-0.45314681501229576,10.327659754088376,0.4651070073530077,0.05982056499999988,0.040697597499999905,-0.06707748600000052
220452.0,1.191507975,1.4521687319999999,10.097711372,-0.10022902295427837,-0.02502627614434669,-0.3780034093969319,10.27094251920948,0.39186572835057526,-0.05383850849999994,0.044326058,-0.057466969000000034
220462.0,1.0969718689999999,1.4485402715,10.0068037265,-0.10156070917355003,-0.005309291584566751,-0.30525983150306024,10.17043445582483,0.3217550791428802,-0.09453610600000006,-0.003628460499999875,-0.09090764549999975
220472.0,1.0287175849999999,1.257016397,9.954142015999999,-0.11754967045107009,0.014409438304465184,-0.24717178333818493,10.08579661537509,0.2740792721348771,-0.068254284,-0.19152387450000008,-0.05266171050000068
220482.0,1.0095946175,1.082261894,9.888241328000001,-0.1401988081542005,0.03386113281794199,-0.2088007197330896,9.998394304069862,0.2537715955039666,-0.019122967499999977,-0.17475450299999995,-0.06590068799999749
220492.0,0.9222173659999999,0.9816456649999998,9.922956869,-0.15245625549095668,0.05597794509921413,-0.19041367606332937,10.013949575756788,0.2502674733316438,-0.08737725149999997,-0.10061622900000011,0.03471554099999885
220502.0,0.800026507,0.9505585845,9.980423837999998,-0.1580517810728505,0.05837602749145434,-0.18242006808919534,10.057458129198842,0.2483248020791519,-0.12219085899999993,-0.031087080499999864,0.05746696899999826
220512.0,0.6611643429999999,0.9134894474999999,9.992387951,-0.1657783536714294,0.03545985441276879,-0.17415942473950616,10.055815144603567,0.24304602248664756,-0.13886216400000007,-0.03706913700000003,0.01196411300000122
220522.0,0.5702566975,0.877499042,10.0103341205,-0.1775034755863273,0.004017747938090946,-0.16856389915761233,10.064888795898394,0.244821188304725,-0.09090764549999997,-0.03599040549999999,0.017946169500000053
220532.0,0.49356869449999996,0.8571992764999999,10.007980524499999,-0.18070091877598093,-0.023162264503216748,-0.1635024443268288,10.056742754719036,0.24479044475683356,-0.076688003,-0.02029976550000001,-0.002353596000000735
220542.0,0.4325713315,0.8248373314999999,9.9516903535,-0.1751053931940871,-0.04314628443855183,-0.1541754048041711,9.995179611803716,0.23726263092412656,-0.06099736299999997,-0.032361945,-0.05629017099999878
220552.0,0.41217349949999993,0.8296425899999998,9.936195846499999,-0.1604498634650907,-0.05247332396120952,-0.14138563204555665,9.979287635940544,0.22019878601487752,-0.02039783200000006,0.004805258499999909,-0.015494507000001434
220562.0,0.360688587,0.8320942524999999,9.934920982,-0.14739305533092115,-0.058868210340516744,-0.12539841609728858,9.976228346445335,0.2022744217843374,-0.051484912499999924,0.0024516625000000625,-0.0012748644999991399
220572.0,0.314008933,0.8500404219999999,9.9301157235,-0.14126345899791704,-0.07352374006951314,-0.1067460823812252,9.971377468090338,0.19171810375028445,-0.046679654000000015,0.017946169499999942,-0.004805258499999354
220582.0,0.2470295135,0.8475887595,9.8451901345,-0.12874072161485772,-0.09910328558674203,-0.08356287392698451,9.88469519359231,0.182697532864948,-0.0669794195,-0.0024516624999998404,-0.08492558900000091
220592.0,0.2111371745,0.8296425899999998,9.7757590525,-0.10928902710138093,-0.1174885839272503,-0.06757565797871645,9.8131723100195,0.17410952974852748,-0.035892338999999995,-0.017946169500000164,-0.06943108199999948
