timestamp,ax,ay,az,gx,gy,gz,acc_mag,gyro_mag,dax,day,daz
171282.0,-1.1071707849999999,1.7037093044999998,8.9643568315,0.29196565859061946,0.2897892330133825,-0.1345299787437229,9.191743357157995,0.43280487583612687,0.0,0.0,0.0
171292.0,-1.8458076629999998,1.3314488705,9.5305928025,0.3532528952744003,0.2903233037644928,-0.17929592872812547,9.798569344073146,0.4911438269865126,-0.7386368779999999,-0.37226043399999975,0.5662359709999993
171302.0,-2.2001219274999997,1.1158987034999999,10.035831410499998,0.4014833238240116,0.3063105197127608,-0.261631836190958,10.334586518691383,0.5687409001506134,-0.3543142644999999,-0.21555016700000018,0.5052386079999991
171312.0,-2.7281119635,0.9195695705,10.630800865999998,0.4233331007297286,0.2977845863167686,-0.39459799992489397,11.013724625798835,0.6508411139179993,-0.5279900360000003,-0.19632913299999988,0.5949694554999994
171322.0,-2.977102807,0.8047336989999999,11.0880849555,0.420135657540075,0.2479554361723304,-0.5427502734804327,11.508968912554197,0.729776492103662,-0.24899084350000011,-0.11483587150000008,0.45728408950000166
171332.0,-3.0237824609999997,0.8214050039999999,11.454363333,0.39082459808208225,0.1951958782137938,-0.6853087667833295,11.87520130003792,0.8127074523884738,-0.046679653999999626,0.016671305000000025,0.3662783775000005
171342.0,-2.8573636105,1.0417604295,11.6303927005,0.32713927900606116,0.15709184998425363,-0.8105448672601826,12.021473535425068,0.8880771019691409,0.1664188504999995,0.2203554255000001,0.17602936749999998
171352.0,-2.657406017,1.3781285245,11.590871901,0.23680801823984263,0.16934929732100978,-0.8950135670689522,11.971188595733496,0.9411729422605025,0.1999575935000002,0.33636809499999987,-0.03952079949999998
171362.0,-2.503049346,1.6294729639999999,11.478291559,0.14701082822473438,0.2183773413387825,-0.9341839914714609,11.860506535655576,0.970567141802703,0.15435667099999995,0.25134443949999996,-0.11258034199999933
171372.0,-2.4563696919999995,1.6390834810000001,11.361004025,0.09478359568805605,0.28792522137225257,-0.9451097525889454,11.73851605517194,0.9925307589956872,0.046679654000000514,0.009610517000000263,-0.1172875340000008
171382.0,-2.5329596285,1.503751711,11.3430578555,0.09371894484433951,0.34814606188306485,-0.9589641761912764,11.719305235429553,1.0245004696170894,-0.07658993650000046,-0.13533177000000007,-0.017946169500000053
171392.0,-2.7029088729999997,1.2715302389999998,11.540563786499998,0.14381338503508076,0.37878880756032934,-1.0053288477705058,11.92086901340287,1.0839046741331995,-0.1699492444999997,-0.2322214720000002,0.19750593099999847
171402.0,-2.7987198435,1.1231556245,11.8900727925,0.21948911607230287,0.3683971171939551,-1.0855337082166532,12.266545655978108,1.167165515128688,-0.09581097050000009,-0.14837461449999978,0.3495090060000017
171412.0,-2.713696188,1.1578711654999998,12.420416424499999,0.2690512308411859,0.348411351929368,-1.1862566593492458,12.766031364314104,1.265299923662702,0.08502365549999968,0.03471554099999974,0.5303436319999992
171422.0,-2.4563696919999995,1.2990869255,13.026173195,0.2490654655765988,0.33615390459261185,-1.2797853633051182,13.319255497583855,1.3464336707932403,0.25732649600000057,0.14121576000000013,0.6057567705000011
171432.0,-2.086462854,1.550431365,13.589957503499999,0.14674379284917924,0.33269117135665516,-1.3464010901952377,13.8363329536996,1.3946372474293631,0.36990683799999946,0.25134443949999996,0.5637843084999989
171442.0,-1.7895174919999999,1.8761102115,13.906025833,-0.04670675611262025,0.3310924497618283,-1.3778431966699154,14.145660707366478,1.4178348302836348,0.2969453620000002,0.3256788465,0.3160683295000002
171452.0,-1.519050085,2.162170192,14.032923883999999,-0.2747986000680032,0.3297590182133046,-1.3751798242313722,14.279546415557094,1.4406161284899472,0.27046740699999994,0.28605998050000014,0.1268980509999995
171462.0,-1.304676716,2.3274122445,14.068816222999999,-0.4661198473423696,0.3273609358210644,-1.3495985333848912,14.319588646524348,1.4648716993999051,0.21437336900000004,0.16524205250000001,0.035892339000000106
171472.0,-1.1694430125,2.3489868745,14.0173313105,-0.5932217047896047,0.3001826687090087,-1.3197551485050403,14.260817415715762,1.4777602233218718,0.13523370349999997,0.021574629999999928,-0.051484912499999425
171482.0,-1.0186167355,2.2711220735,13.9910494885,-0.6577063846630391,0.2516852047838423,-1.305366654151599,14.210736832277055,1.4832077509588972,0.15082627699999995,-0.07786480100000004,-0.02628182199999962
171492.0,-0.7744311504999999,2.169427113,14.023313367,-0.6907472127325438,0.20478820778275464,-1.3101628189360794,14.211244681398078,1.4951911362990302,0.2441855850000001,-0.10169496050000015,0.03226387850000023
171502.0,-0.457186023,2.2256192175,14.0389059405,-0.7405763628769819,0.1874693056152149,-1.331213235044383,14.221577970363839,1.5348377005264373,0.3172451274999999,0.056192104500000006,0.015592573499999318
171512.0,-0.052563644,2.335747897,14.023313367,-0.8378348354443659,0.21464757272727064,-1.3464010901952377,14.216602933334368,1.600261443527501,0.404622379,0.11012867950000027,-0.015592573499999318
171522.0,0.385597478,2.3860560115,13.989872690499999,-0.9819903050128376,0.2809962642418351,-1.3464010901952377,14.197129519781559,1.6899880932527298,0.438161122,0.050308114499999945,-0.03344067650000149
171532.0,0.7722736874999999,2.4207715525,14.000561938999999,-1.1567902655878257,0.3593371130468525,-1.3221532308972803,14.229275321167046,1.793146967022981,0.3866762094999999,0.03471554100000018,0.010689248500000303
171542.0,1.1109953785,2.4231251485,14.0747982795,-1.3273263868001917,0.40756579626721184,-1.2661962297490903,14.325005857763468,1.8791375967751243,0.33872169100000005,0.002353595999999847,0.07423634050000061
171552.0,1.3672431429999998,2.3729151004999998,14.055675312,-1.4672180170060412,0.40490242382866853,-1.1851920085055292,14.319989118802699,1.9290813303940404,0.25624776449999986,-0.050210048000000285,-0.019122967499999532
171562.0,1.556315355,2.3644813814999996,14.03527748,-1.570606085906429,0.35720432070091546,-1.0985905163508227,14.317887540704602,1.9496921619654943,0.18907221200000013,-0.008433719000000117,-0.02039783200000045
171572.0,1.7550961504999998,2.39086127,13.9239720025,-1.6385534990158204,0.27966457802256334,-1.015455248090577,14.236347018680382,1.947875562301715,0.19878079549999983,0.02637988850000017,-0.1113054775000002
171582.0,1.972901847,2.438717722,13.709696699999999,-1.6894490453332272,0.1909320388511717,-0.9349833522688743,14.063977724366737,1.9403316699103685,0.21780569650000015,0.047856451999999994,-0.21427530250000082
171592.0,2.297305829,2.529723434,13.394903234999997,-1.7422086032917639,0.12378398653919383,-0.8662365783620697,13.823912159714396,1.9496099872538097,0.324403982,0.0910057120000003,-0.31479346500000105
171602.0,2.685256903,2.5764030879999997,12.9986165085,-1.816550902780462,0.09394060165934279,-0.8041499808808753,13.520816862971476,1.98880346208049,0.38795107400000006,0.046679653999999626,-0.39628672649999785
171612.0,3.0731099104999995,2.5584569185,12.531721901999997,-1.909547281314476,0.11125950382688252,-0.7375342539907558,13.154229743884674,2.050050309767302,0.3878530074999995,-0.01794616949999961,-0.46689460650000214
171622.0,3.3735856664999995,2.474610061,12.0277581585,-2.0054723223333366,0.16028929317390722,-0.6607938721098171,12.734666918399553,2.1176072427551675,0.300475756,-0.0838468575000002,-0.5039637434999982
171632.0,3.589037767,2.368109842,11.5154587625,-2.092339104534346,0.19866035677900257,-0.5709949367654569,12.292067638423067,2.1779311475643435,0.21545210050000074,-0.10650021899999995,-0.5122993959999995
171642.0,3.7207410765,2.240034993,10.988743591,-2.1533593058425717,0.19466355279193553,-0.4654758208483837,11.815843458550153,2.2116776299087664,0.13170330949999975,-0.12807484899999988,-0.5267151714999994
171652.0,3.867938893,2.068810884,10.4535947005,-2.179205886735356,0.15709184998425363,-0.3437024536074873,11.336603191258861,2.211729532001893,0.14719781649999986,-0.17122410900000018,-0.5351488905000004
171662.0,3.9421752335,1.8713049529999999,9.960418271999998,-2.1704129179638088,0.09394060165934279,-0.2104709998272482,10.874394693587986,2.1826165748643476,0.07423634050000016,-0.19750593100000002,-0.49317642850000176
171672.0,3.9876780894999997,1.7336195869999997,9.481559552499998,-2.137372089894304,0.00840550567760469,-0.06871361265101675,10.43105866945021,2.1384928486549577,0.0455028559999997,-0.13768536600000014,-0.4788587194999998
171682.0,3.9685551219999997,1.6211373115,8.963180033499999,-2.094204861504728,-0.09125104928201953,0.08183674329676212,9.935598233222946,2.097788837919233,-0.019122967499999977,-0.11248227549999967,-0.5183795189999998
171692.0,3.9290343224999997,1.430790235,8.5083476065,-2.034518091745026,-0.20609720472175042,0.2342546015441749,9.480319108394434,2.0583039478601215,-0.03952079949999998,-0.19034707650000016,-0.4548324269999995
171702.0,3.8835314664999996,1.248778811,7.9109264884999995,-1.9628391646948709,-0.3265371404141231,0.38054111812933167,8.900787778424398,2.0258765098388927,-0.04550285600000015,-0.18201142399999992,-0.5974211179999998
171712.0,3.8823546685,1.036955171,7.3387084609999995,-1.8828995942950266,-0.4339220133015782,0.5175040858503347,8.3668749048997,2.000352387629705,-0.0011767979999994793,-0.21182363999999998,-0.5722180275
171722.0,3.8523463195,0.8956413444999999,6.807188030999999,-1.7931024042799184,-0.516791991515521,0.6470040256898099,7.872772984961055,1.9750707339201357,-0.030008349000000045,-0.14131382650000013,-0.5315204300000005
171732.0,3.7948793504999996,0.7208868415,6.389424741,-1.6921124177717706,-0.5772781220726365,0.7749069892637104,7.466293300159194,1.9485828970333505,-0.05746696900000048,-0.17475450299999984,-0.417763289999999
171742.0,3.7207410765,0.5233809105,5.9189997405,-1.5876596980276658,-0.6036587737165308,0.9004101251161186,7.010877239252536,1.922447821200323,-0.07413827399999962,-0.19750593100000002,-0.4704250004999997
171752.0,3.5506937654999997,0.39883645549999996,5.565862273999999,-1.478943138920939,-0.607922613079153,1.0208518061377432,6.614024462287149,1.8970980791063488,-0.17004731100000026,-0.12454445500000005,-0.35313746650000155
171762.0,3.3088617764999997,0.35460846399999996,5.2761738330000005,-1.3561033755070742,-0.6052574953113575,1.133298133855982,6.237974329440374,1.8680786013692545,-0.24183198900000002,-0.04422799150000001,-0.28968844099999824
171772.0,3.0191733354999997,0.2827257195,5.1109317805,-1.224737678697217,-0.6049904599358025,1.2398836459460236,5.94280784875179,1.8448054893994614,-0.289688441,-0.07188274449999998,-0.1652420525000009
171782.0,2.6696643295,0.2001537265,5.0522880135,-1.0875094209299108,-0.6249762252003895,1.3411389225004746,5.717760341059452,1.8362803794962173,-0.34950900599999946,-0.08257199299999998,-0.058643766999999514
171792.0,2.3368266285,0.12238699199999999,4.993644246500001,-0.9454849983781242,-0.6617468218814061,1.4320025086885517,5.514727566079765,1.839152501376253,-0.3328377010000003,-0.0777667345,-0.058643766999999514
171802.0,1.9561324755,0.07688413599999999,4.962459099499999,-0.8106548230030582,-0.7038493994272652,1.5244648164714552,5.334638295731452,1.86455308205253,-0.38069415299999987,-0.045502855999999994,-0.0311851470000013
171812.0,1.568279468,0.032558078,4.9493181884999995,-0.6870174441210319,-0.7536768042424513,1.6121309594698783,5.191946749458274,1.9076131484818875,-0.38785300749999996,-0.044326057999999995,-0.01314091099999981
171822.0,1.209159945,-0.034519408,4.9924674485,-0.5657764023019939,-0.8178944487403307,1.6918034944941673,5.136924234058078,1.9624610392730637,-0.35911952300000016,-0.06707748599999999,0.043149260000000744
171832.0,0.8249353979999999,-0.18887607899999997,5.037872237999999,-0.44640111745333766,-0.8903727365878993,1.7592185821817004,5.108458600253403,2.0216052007293626,-0.38422454699999997,-0.15435667099999997,0.045404789499999154
171842.0,0.3592175895,-0.36843584049999994,5.095339207,-0.3424807231310913,-0.9804369619785627,1.8085136615750281,5.121256084161631,2.0854906727755136,-0.46571780849999994,-0.17955976149999997,0.05746696900000092
171852.0,-0.0022555294999999998,-0.5994805145,5.019926068499999,-0.2606771410901171,-1.084357356300809,1.8356936740163359,5.055594891591332,2.1479186932642937,-0.361473119,-0.231044674,-0.07541313850000098
171862.0,-0.29557243099999997,-0.7814919384999999,4.8140844849999995,-0.1908639710103439,-1.173622220894059,1.8428879211930564,4.886051794713749,2.1931835451884565,-0.29331690149999995,-0.18201142399999992,-0.20584158349999981
171872.0,-0.525440307,-0.9813514655,4.530378100499999,-0.11065911056419647,-1.2359741084215565,1.8386240818304345,4.665132790023156,2.218201061609639,-0.22986787600000003,-0.1998595270000001,-0.2837063845000003
171882.0,-0.733733553,-1.183662655,4.276581998499999,-0.004073598474154765,-1.2602219677195137,1.8183730265195444,4.497618903101273,2.2123870515127364,-0.208293246,-0.20231118950000004,-0.2537961019999999
171892.0,-0.95516771,-1.3859738445,4.1832226905,0.1310236122764663,-1.2466328341634858,1.7816024298385276,4.509170758596176,2.1783865194668746,-0.22143415700000002,-0.20231118950000004,-0.09335930799999925
171902.0,-1.199353295,-1.5919134945,4.3220848545,0.29196565859061946,-1.2239836964603552,1.738435201448952,4.759522495975499,2.1460514869484997,-0.2441855850000001,-0.20593964999999992,0.13886216399999984
171912.0,-1.4448137444999998,-1.8253117644999999,4.547147472,0.4587720111914735,-1.2181211355029065,1.6843422119418918,5.10840483184665,2.128684933460296,-0.24546044949999968,-0.2333982699999999,0.2250626174999999
171922.0,-1.5824991105000001,-2.0432155275,4.8343842505,0.5989306767728781,-1.2439677163956906,1.6150631126132287,5.481815776550033,2.1247593964348663,-0.13768536600000036,-0.21790376300000025,0.2872367785000005
171932.0,-1.6135861909999998,-2.1257875205,5.059446868,0.703650431892538,-1.2732787758536832,1.5239324910495968,5.720195415212179,2.106830085369639,-0.031087080499999642,-0.08257199299999973,0.2250626174999999
171942.0,-1.5944632235,-2.1330444415,5.175557604,0.773198311926008,-1.286602619363408,1.4333359402370751,5.82053159709921,2.075484003140788,0.019122967499999755,-0.007256921000000194,0.11611073599999955
171952.0,-1.5381730525,-2.0575332365,5.163593490999999,0.8211617051000641,-1.2559581283568915,1.3440710756438252,5.767331887366713,2.0145134455969607,0.05629017100000011,0.07551120500000019,-0.011964113000000332
171962.0,-1.546508705,-1.9019997675,5.1815396604999995,0.8736542276830456,-1.1624311697302714,1.2627998190247092,5.732158890291274,1.9259234971404715,-0.008335652500000013,0.15553346899999987,0.017946169500000053
171972.0,-1.6650711034999999,-1.7224400059999998,5.337171195999999,0.9434673977628187,-1.0164081978621657,1.2079074687202356,5.850184418408709,1.8390912996131779,-0.11856239849999994,0.1795597615000002,0.15563153549999953
171982.0,-1.9655468594999999,-1.611036462,5.6328416935,1.0279360975715883,-0.8530680691557725,1.1623421579384197,6.179621224866111,1.7707108864591097,-0.300475756,0.11140354399999985,0.29567049750000063
171992.0,-2.2874991789999997,-1.8013835384999999,6.0254999595,1.1310571310964213,-0.7318270273367343,1.1047864351954026,6.692106163879871,1.7422439838140793,-0.3219523194999998,-0.19034707649999993,0.39265826600000064
172002.0,-2.550905798,-1.9761380414999998,6.437281193,1.2387072940301795,-0.6907925912930957,1.0120588373661958,7.200752120930492,1.7423700108645164,-0.2634066190000004,-0.17475450299999995,0.4117812334999993
172012.0,-2.710165794,-2.1473621505,6.8431784365,1.3455598414957763,-0.7174385329832931,0.8846881992141536,7.667154227622281,1.7629301022684196,-0.15925999599999985,-0.17122410899999996,0.4058972435000001
172022.0,-2.6131780255,-2.106664553,7.0071456245,1.445748721877259,-0.7715297771611013,0.7455959298057175,7.769609046456087,1.8003779754259488,0.09698776850000002,0.040697597499999905,0.16396718799999999
172032.0,-2.4791211200000003,-1.8468863944999998,7.037055906999999,1.5278193392937882,-0.7896497854553065,0.6168936054344037,7.686168533155049,1.8271115011447925,0.1340569054999996,0.2597781585000001,0.029910282499999497
172042.0,-2.4419539165,-1.4410872174999998,7.163953957999999,1.6029609995799001,-0.7387559844671517,0.5246983330270553,7.704680889634264,1.8413453536590016,0.037167203500000134,0.405799177,0.1268980509999995
172052.0,-2.4862799744999995,-1.1107011789999999,7.3901933735,1.6717095188159565,-0.6308370408285865,0.4572832453395223,7.875925553124218,1.8443633193732438,-0.044326057999999335,0.3303860384999999,0.22623941550000115
172062.0,-2.5916033955,-0.929866553,7.8307080915,1.7266001237911786,-0.49014604982532356,0.3856043182893672,8.300665586580319,1.8357782621870455,-0.10532342100000047,0.1808346259999999,0.4405147180000002
172072.0,-2.8190196089999997,-0.7647225669999999,8.326336182499999,1.7649711873962737,-0.3446571487083282,0.2843490417349162,8.823805663341313,1.8206499443963224,-0.22741621349999974,0.16514398600000013,0.4956280909999986
172082.0,-2.957881773,-0.7695278255,8.831476724,1.781757764141955,-0.2292786678467391,0.15191694875209044,9.345384892224512,1.802861114153794,-0.1388621640000003,-0.004805258500000131,0.5051405415000012
172092.0,-3.0201540005,-0.6928398225,9.2601253955,1.783091195690479,-0.1352176384690087,-0.005030038904247658,9.764797977775167,1.7882179182620377,-0.06227222749999983,0.076688003,0.4286486714999995
172102.0,-3.0321181135,-0.47738772199999996,9.617970053999999,1.769500316805199,-0.030497883349348914,-0.15957719883909355,10.095889621572331,1.776942985706582,-0.011964113000000332,0.21545210050000002,0.35784465849999947
172112.0,-3.0429054285,-0.2187863615,9.923251068499999,1.7492492614943087,0.0808837935251732,-0.2712259110891708,10.38162090847376,1.7719984937181967,-0.010787314999999964,0.25860136049999993,0.3052810145000002
172122.0,-3.1243006234999995,0.066096821,10.3039452215,1.7124786648132924,0.20079140379568763,-0.3730135130654801,10.767400350289826,1.7640973460125182,-0.08139519499999937,0.2848831825,0.3806941530000003
172132.0,-3.2691448439999995,0.17259704,10.707390802499999,1.6746399266300551,0.27859818184959484,-0.470006695586561,11.196665376205994,1.7615169952883265,-0.1448442205,0.10650021900000001,0.4034455809999997
172142.0,-3.3350455319999996,0.139058297,11.110836383499999,1.6434648555309326,0.29645115476824485,-0.5664658073565316,11.60140297771718,1.763446491797475,-0.06590068800000015,-0.03353874300000001,0.4034455809999997
172152.0,-3.3684862085,0.10198916,11.359827226999998,1.6104222821321759,0.25408328717608253,-0.6703862016787779,11.849167724059892,1.7627920759440996,-0.033440676500000155,-0.037069137,0.24899084349999967
172162.0,-3.2428630219999994,0.137881499,11.4375939615,1.5707195323078087,0.19732692523047887,-0.7695104312165439,11.889227372515116,1.7601829644514935,0.12562318650000037,0.035892338999999995,0.07776673450000082
172172.0,-3.035746574,0.3031235515,11.355021968500001,1.521157417538926,0.18213907007962424,-0.8704986723954399,11.757727886549524,1.7620619933547708,0.2071164479999994,0.1652420525,-0.0825719929999984
172182.0,-2.7987198435,0.5604500474999999,11.3214832255,1.4691972203778025,0.21464757272727064,-0.9725550550765563,11.675740637896222,1.7749584186674723,0.23702673050000023,0.25732649599999996,-0.03353874300000115
172192.0,-2.50657974,0.844156432,11.431611904999999,1.4366887177301562,0.2714039346728742,-1.0658167236568732,11.733596755522287,1.809336855269275,0.29214010349999997,0.2837063845000001,0.11012867949999894
172202.0,-2.2193429614999998,1.0632369929999999,11.686584804999999,1.4257647019419237,0.3356215791707536,-1.1417577447403986,11.942873209094206,1.857163853132861,0.28723677850000007,0.21908056099999984,0.2549729000000003
172212.0,-1.9810413664999997,1.211709674,12.052961248999999,1.4153730115755494,0.39370962733562886,-1.2014462598293527,12.274634010826759,1.8978306425524751,0.23830159500000003,0.1484726810000001,0.36637644400000013
172222.0,-1.7464662985,1.330174006,12.358144197,1.3719387478104188,0.4611247150231618,-1.2459451744382,12.551622819853979,1.9097725802447392,0.23457506799999983,0.11846433200000006,0.30518294800000056
172232.0,-1.6183914495,1.4248081785,12.6765661225,1.2701494005048573,0.5381338776089076,-1.2912434498444607,12.85863903713958,1.8894912586724162,0.12807484899999988,0.09463417249999995,0.3184219255000009
172242.0,-1.473547229,1.4607005174999999,13.010580621499999,1.1459779508717207,0.5783689528551329,-1.3338783528121785,13.174983701943228,1.851217861196197,0.1448442205,0.035892338999999884,0.33401449899999847
172252.0,-1.256820264,1.628296166,13.2620231275,1.0465884312876517,0.5613153407338963,-1.3698495886957813,13.420588773021704,1.8129837704453835,0.2167269650000001,0.16759564850000008,0.25144250600000007
172262.0,-0.9635033625,1.8174664445,13.509837173,0.9871669515742527,0.4965653708141587,-1.3903676793822268,13.665548779591871,1.7760062054066492,0.2933169014999999,0.1891702785,0.2478140455000002
172272.0,-0.6163479525,2.09273911,13.7360765885,0.9405369899487204,0.39504305888415253,-1.3877025616144314,13.90824366432413,1.7223203091601753,0.34715541000000005,0.2752726655000002,0.22623941550000026
172282.0,-0.16151552549999998,2.413612698,13.8761155505,0.8712561452908053,0.29085562918635105,-1.3597249337049622,14.085389461841384,1.6408949274939406,0.454832427,0.320873588,0.1400389620000002
172292.0,0.2276123465,2.6733908565,13.889256461499999,0.7433531817169049,0.22290821607695976,-1.3101628189360794,14.14603375880379,1.522756920091251,0.389127872,0.2597781585000001,0.013140910999998923
172302.0,0.585457005,2.6853549695,13.7156787565,0.5419090247809714,0.18400482705000618,-1.2584679118212594,13.988342824238591,1.3824849556507033,0.35784465849999997,0.011964112999999887,-0.17357770499999958
172312.0,0.9362408754999999,2.577579886,13.513367567,0.33992905176467564,0.167750575726183,-1.2166341149802071,13.788820400836189,1.2743196559826617,0.35078387049999993,-0.10777508349999998,-0.2023111894999996
172322.0,1.1768960665,2.5380590864999997,13.1961224395,0.20403422554589312,0.18160674465776597,-1.1899881732900097,13.489420881423479,1.2209352265658475,0.240655191,-0.039520799500000425,-0.31724512749999967
172332.0,1.4162763929999997,2.6159238874999997,12.908885661,0.10544232142998543,0.2090520471453768,-1.1713358395739464,13.247196896526209,1.194507635234961,0.23938032649999985,0.07786480100000004,-0.2872367785000005
172342.0,1.715575351,2.7212473085,12.6861766395,0.012180652849668426,0.247156075374917,-1.1492190272926743,13.08768365401505,1.1755589592147628,0.2992989580000003,0.10532342100000047,-0.22270902150000005
172352.0,1.9884944205,2.8624630685,12.5604553865,-0.055499724884167684,0.2687388169050789,-1.1097833128438623,13.03506211704198,1.1432059187392523,0.2729190694999999,0.1412157599999997,-0.12572125300000003
172362.0,2.2087517795,3.0360407734999995,12.475529797499998,-0.06909060376944753,0.24902183234529893,-1.0346399072284986,13.028237475963863,1.0664263322628682,0.2202573590000001,0.17357770499999958,-0.08492558900000091
172372.0,2.3416318869999997,3.01456421,12.3521621405,-0.05496739946230941,0.18640290944224638,-0.9440433564159769,12.928524541324492,0.963838844644335,0.13288010749999968,-0.02147656349999938,-0.12336765699999752
172382.0,2.352419202,2.9451331279999997,12.145143758999998,-0.04537506989334858,0.10886142143464232,-0.8454514523000692,12.716611269137623,0.8536380171014487,0.010787315000000408,-0.06943108200000037,-0.20701838150000285
172392.0,2.2686704109999996,2.891196553,11.899683309499999,-0.04750611691003366,0.038248890557455735,-0.7628485094616815,12.454250110232202,0.7652827302119494,-0.08374879100000054,-0.05393657499999982,-0.24546044949999946
172402.0,2.1524616085,2.8026425034999995,11.686584804999999,-0.051237630850797536,-0.014243632025525725,-0.7052927867186646,12.209183444561228,0.7072949108157508,-0.11620880249999965,-0.08855404950000034,-0.21309850449999956
172412.0,2.0687128175,2.6805497110000003,11.46397385,-0.06589316057979391,-0.04248829531054996,-0.6591951505149903,11.95356080454334,0.6638414044876018,-0.0837487910000001,-0.12209279249999927,-0.2226109549999986
172422.0,1.9514252834999999,2.600331314,11.204195691499999,-0.09387078848926302,-0.05181533483320765,-0.624820890896962,11.666352672239904,0.6339540200651359,-0.11728753399999992,-0.08021839700000033,-0.2597781585000014
172432.0,1.8627731674999999,2.481866982,10.981486669999999,-0.12717865193432282,-0.04808382089244378,-0.597108553033796,11.411513355961489,0.6123929191667403,-0.088652116,-0.11846433199999984,-0.22270902150000005
172442.0,1.8005990065,2.473433263,10.737301084999999,-0.15435866437563048,-0.04915021706541232,-0.5755258115036341,11.164661368741363,0.5978898734820003,-0.06217416099999995,-0.008433719000000117,-0.24418558500000032
172452.0,1.7933420855,2.463822746,10.445259048,-0.16981355490204028,-0.051015974035794255,-0.5502115560327084,10.880713898414863,0.5780761450079248,-0.007256920999999972,-0.00961051700000004,-0.2920420369999981
172462.0,1.7813779724999999,2.4794153194999997,10.190188081499999,-0.17247692734058362,-0.0552780680691644,-0.5153049709928218,10.637703743939484,0.5462079900589345,-0.01196411300000011,0.015592573499999762,-0.2550709665000017
172472.0,1.7850064329999997,2.4291072049999998,10.082511064499998,-0.15409162900007536,-0.06993359779816079,-0.4652105308020805,10.5234898747991,0.4950310860926264,0.003628460499999875,-0.050308114499999945,-0.10767701700000032
172482.0,1.7095932945,2.357322527,9.9328615855,-0.11438887917570836,-0.11736466555035868,-0.39539736072230736,10.350913872968057,0.4280167675044855,-0.07541313849999964,-0.07178467799999977,-0.14964947899999892
