timestamp,ax,ay,az,gx,gy,gz,acc_mag,gyro_mag,dax,day,daz
40642.0,1.3270358779999998,-0.0497197155,10.426822545999999,-0.02771757385092195,0.02162288410295775,0.25935243618785336,10.511047744034965,0.26172408978480716,0.0,0.0,0.0
40652.0,1.7292065944999997,-0.563293976,10.708077268,-0.02292140906644153,-0.0705741336336427,0.2806681423424601,10.86141677348395,0.2903113939508711,0.4021707164999999,-0.5135742605,0.2812547220000017
40662.0,1.9363230424999998,-0.7667819634999999,11.0217920015,0.04689176101333165,-0.14038730371341587,0.29345966043032656,11.216826664827925,0.32867309685268864,0.20711644800000006,-0.20348798749999997,0.31371473349999945
40672.0,2.059592633,-0.575258089,11.336585466499999,0.13775534720140845,-0.2565634000431664,0.30385135079670084,11.536507865126552,0.4208645355756056,0.12326959050000008,0.19152387449999997,0.3147934649999993
40682.0,2.3278045105,-0.28792324399999997,11.780728645,0.2089002035004533,-0.33890105283525096,0.3376915396636188,12.011958251703307,0.5220429049376668,0.2682118775000002,0.287334845,0.44414317850000096
40692.0,2.6402443795,-0.09159411099999999,12.338530897,0.21849427839866614,-0.35782042192686947,0.41496599229566783,12.618186262727098,0.5898914974830582,0.31243986899999987,0.196329133,0.5578022520000001
40702.0,2.8246093995,0.1226811915,12.7803204795,0.12096877045572699,-0.31891703289991585,0.5231502259805363,13.089310925072363,0.6245219581750049,0.18436502,0.2142753025,0.4417895825000002
40712.0,2.8018579715,0.1442558215,13.172978745499998,-0.025052456083126607,-0.2384451370782133,0.645722954018846,13.468429264910197,0.6887973884233808,-0.02275142799999985,0.021574629999999997,0.392658265999998
40722.0,2.610334097,-0.012552512,13.471002839,-0.14949094109181832,-0.19154814007712567,0.7642988780700889,13.721585883266716,0.8019918992450736,-0.19152387450000008,-0.15680833349999998,0.29802409350000225
40732.0,2.3445738819999997,-0.20888164499999998,13.666155173999998,-0.21610666798193787,-0.18328749672743652,0.8527643818659254,13.867388199283289,0.898611979322577,-0.26576021500000024,-0.196329133,0.19515233499999773
40742.0,2.105095489,-0.3609827865,13.893571387499998,-0.25714110402557655,-0.20300448128721643,0.9191130733804899,14.05677991182604,0.9757567363134696,-0.23947839299999973,-0.1521011415,0.22741621349999974
40752.0,1.9459335594999998,-0.366964843,14.057636642,-0.3083019403892864,-0.22778641133628394,0.9556183800152032,14.196424499587472,1.029632567404578,-0.1591619295000002,-0.005982056499999999,0.1640652545000023
40762.0,1.8213891045,-0.20652804899999996,14.012133786,-0.40769320530260744,-0.22299024655180352,0.9764017607479517,14.131525230553768,1.0813412033668413,-0.12454445499999989,0.16043679400000002,-0.04550285600000059
40772.0,1.7172424814999998,-0.07482473949999999,13.885235734999998,-0.547586580837709,-0.1771579003944324,0.9902579296795347,13.991221958729355,1.1453587876638895,-0.1041466230000001,0.13170330949999998,-0.1268980510000013
40782.0,1.6011317454999998,0.0316754795,13.687729803999998,-0.6829490816346331,-0.11906985222955714,1.0139734635556337,13.7810947819743,1.2283074788547717,-0.11611073599999999,0.10650021899999998,-0.19750593100000025
40792.0,1.48864947,0.1311149105,13.387254047999997,-0.7913986053658049,-0.05938133714060307,1.0491470839710755,13.47040605586851,1.3155027554439245,-0.1124822754999999,0.099439431,-0.30047575600000087
40802.0,1.338999991,0.1777945645,13.113060113999998,-0.8524188066740306,-0.022343705084031405,1.0989744887862616,13.182445806315357,1.3909931668169637,-0.14964947900000003,0.046679654000000015,-0.2741939339999995
40812.0,1.202491423,0.1454326195,12.963410635,-0.8636098578378182,0.005368632779134557,1.1557308507318653,13.019875251354534,1.4427628384824633,-0.136508568,-0.032361945,-0.14964947899999714
40822.0,1.1629706235,0.0077472535,12.9442876675,-0.8550839244418259,0.036011378456399,1.2090244794415121,12.996428121220589,1.4812850937972688,-0.03952079949999998,-0.137685366,-0.01912296750000131
40832.0,1.0588240004999998,0.010198915999999999,12.9801800065,-0.8641439285889285,0.09596518359165622,1.2457968214517805,13.02329778831248,1.519198395904316,-0.1041466230000001,0.002451662499999999,0.035892339000000106
40842.0,0.8146384155,0.1562199345,13.002931434499999,-0.9113079609655712,0.18256667574636284,1.2881629437146906,13.029361699878153,1.588450994010203,-0.24418558499999976,0.1460210185,0.022751427999999407
40852.0,0.4925880294999999,0.1442558215,13.023329266499998,-0.988315378222065,0.2784917167652232,1.3315972074798217,13.033439986915148,1.6815100493619193,-0.32205038600000013,-0.011964112999999998,0.020397831999998672
40862.0,0.044914457,0.018534568499999998,13.028134524999999,-1.0698519248874843,0.3570996009457958,1.3654373963467399,13.028225130084834,1.7710230234311652,-0.4476735724999999,-0.125721253,0.0048052585000011305
40872.0,-0.38481294599999993,-0.114345539,13.061575201499998,-1.1356682909801903,0.38827467204491856,1.3800929260757362,13.067742829201151,1.828976810321482,-0.42972740299999995,-0.13288010749999998,0.03344067649999971
40882.0,-0.742755671,-0.3178335265,12.988613725499999,-1.1841640095761048,0.3528357615831737,1.3766284475105275,13.013715482044974,1.8498225208712809,-0.357942725,-0.20348798750000002,-0.07296147599999969
40892.0,-0.9535005794999999,-0.44953683599999994,12.7456049385,-1.2225350731812,0.30380597223614897,1.3526476235881255,12.789123971967092,1.8483900204023818,-0.21074490849999994,-0.13170330949999992,-0.24300878699999906
40902.0,-1.1306086785,-0.5213215139999999,12.37206964,-1.244384850086917,0.2707651441666443,1.3177410385482389,12.434555049613495,1.8325525539791796,-0.17710809900000013,-0.07178467799999999,-0.3735352985000002
40912.0,-1.1857220515,-0.5859473374999999,11.871734357,-1.2470499678547124,0.2712974695885026,1.2711093315934543,11.945180940819226,1.8012370394247177,-0.055113372999999966,-0.06462582350000001,-0.5003352830000001
40922.0,-1.2575067295,-0.5177911199999999,11.423962717999999,-1.2355918813153697,0.3301866238800432,1.221014891402713,11.50462320117189,1.7682160130450506,-0.07178467799999999,0.0681562175,-0.44777163900000083
40932.0,-1.4765872905,-0.48180071449999995,11.089948218999998,-1.218005943772275,0.42637870027445873,1.1767830121694207,11.198187061085381,1.7464694480130083,-0.21908056099999995,0.03599040549999999,-0.33401449900000024
40942.0,-1.803442935,-0.6183092825,10.9786427415,-1.2038827394651368,0.5233718827955396,1.1213583364430888,11.142948857197439,1.7264693153350401,-0.32685564450000015,-0.136508568,-0.11130547749999842
40952.0,-2.2044368535,-0.8948568124999999,10.9690322245,-1.2164072221774478,0.573733358361836,1.030227714879457,11.224080296312302,1.6941622239822116,-0.40099391849999977,-0.27654753,-0.009610517000000485
40962.0,-2.4989305529999997,-1.179739995,10.917645378499998,-1.268100383963016,0.5716005660158989,0.8985949826940446,11.261945701130061,1.655982709390335,-0.2944936994999998,-0.2848831825000001,-0.05138684600000154
40972.0,-2.5504154655,-1.3533177,10.740439213,-1.3461741973924783,0.547886777469052,0.7461788697758837,11.121740975761975,1.633752672943711,-0.05148491250000031,-0.17357770500000003,-0.17720616549999768
40982.0,-2.5815025459999994,-1.210925142,10.3070833495,-1.4543584310773467,0.5508171852831504,0.6068195649918925,10.694225650699181,1.669367545541114,-0.03108708049999942,0.14239255800000006,-0.433355863500001
40992.0,-2.638969515,-1.2084734795,9.7635988065,-1.555613707631798,0.579861209365588,0.49970172747999253,10.18589367242965,1.7337459000514925,-0.05746696900000048,0.0024516624999999515,-0.5434845429999999
41002.0,-2.708400597,-1.3186021589999999,9.263165457,-1.6059751831980944,0.6009116254738917,0.4067053489459786,9.740656021608988,1.7622883735470474,-0.06943108199999992,-0.11012867949999983,-0.5004333494999997
41012.0,-2.8460859629999997,-1.3533177,8.950725588,-1.5889215710768576,0.5782624877707613,0.31451007653863017,9.489318345255198,1.7198766967548906,-0.13768536599999992,-0.03471554100000018,-0.3124398690000003
41022.0,-2.9370916749999996,-1.3832279825,8.7209557785,-1.5396264916835298,0.5207067650277443,0.21245369385751375,9.305637906639063,1.6391222776452936,-0.09100571199999985,-0.02991028249999994,-0.2297698094999987
41032.0,-2.9191455054999995,-1.477862155,8.556890524,-1.498590310310639,0.46954592866403444,0.10107376231224362,9.161105963320317,1.5736779221650978,0.017946169500000053,-0.09463417249999995,-0.16406525450000053
41042.0,-2.880801504,-1.4622695814999997,8.285148252499999,-1.4871322237712965,0.43677039064083295,-0.013240067705628985,8.892745987620057,1.5500019111318402,0.038344001499999614,0.015592573500000206,-0.27174227150000085
41052.0,-2.7743012849999995,-1.399997354,7.8924899865,-1.4834024551597844,0.43677039064083295,-0.1275521523942496,8.482224849540504,1.5516187578445382,0.1065002190000004,0.06227222749999983,-0.39265826599999887
41062.0,-2.6869240335,-1.420395186,7.493849663999999,-1.4575558742670003,0.4463644655390458,-0.22907446432425577,8.086709221484645,1.5414880709598897,0.08737725149999953,-0.020397832000000005,-0.39864032250000125
41072.0,-2.5815025459999994,-1.4383413555,7.1012894645,-1.4069273633251491,0.45835487750024684,-0.3090122893948481,7.691637882048579,1.5116290531735515,0.10542148750000058,-0.017946169500000053,-0.3925601994999992
41082.0,-2.577972152,-1.55925735,6.9324189515,-1.3445754757976516,0.48659954078527107,-0.3814905772424166,7.558813162073322,1.479931546975626,0.003530393999999326,-0.12091599450000001,-0.1688705129999999
41092.0,-2.5851310065,-1.9147484125,6.961152436,-1.2864856823035242,0.5044525137039211,-0.4587650298744655,7.6685596457984015,1.4560161750440441,-0.007158854500000089,-0.35549106250000007,0.028733484500000017
41102.0,-2.6186697494999995,-2.1075471515,6.9396758725,-1.2505144464199212,0.4985899527464721,-0.5581545494585346,7.710920014375767,1.4573657134590174,-0.03353874299999937,-0.19279873899999989,-0.021476563500000267
41112.0,-2.7203647099999997,-2.206888516,6.86661633,-1.234525485142401,0.46634848547438085,-0.6551477319796154,7.708512236540118,1.473347424774063,-0.10169496050000015,-0.09934136449999986,-0.07305954249999935
41122.0,-2.7610623075,-2.2404272589999996,6.6535178255,-1.2121433828148258,0.4197167785195963,-0.7366842786450346,7.5440227215335005,1.479242198247262,-0.04069759750000035,-0.033538742999999815,-0.21309850450000045
41132.0,-2.7623371719999996,-2.2811248565,6.386580812499999,-1.1729729584123172,0.3984010723649896,-0.8040993663325675,7.322735263366295,1.4768766930805544,-0.001274864499999584,-0.04069759750000035,-0.2669370130000006
41142.0,-2.8077419615,-2.3337865669999998,6.347060013,-1.109289384665548,0.4138559628913994,-0.8773770149775495,7.32223637089797,1.4736316104655711,-0.045404789500000486,-0.05266171049999979,-0.03952079949999909
41152.0,-2.7694960264999997,-2.368502108,6.4667992094999995,-1.0453387755432237,0.45595679510800663,-0.9714380443552799,7.422897176466177,1.4981060138321927,0.0382459350000004,-0.03471554100000018,0.11973919649999942
41162.0,-2.6677029995,-2.332609769,6.746877133499999,-1.004302594170333,0.5089816431128463,-1.0884152468116959,7.620896186310419,1.5659929001037258,0.10179302699999981,0.035892339000000106,0.28007792399999953
41172.0,-2.452250899,-2.254744968,7.021071067499999,-0.988315378222065,0.5492184636883236,-1.2051254138925565,7.771283566905354,1.652493712815904,0.21545210049999985,0.07786480100000004,0.27419393400000036
41182.0,-2.25356817,-2.194924403,7.1479691185,-0.9939109038039589,0.5886541781371356,-1.293058592266535,7.809591868385422,1.7338896012067846,0.19868272900000017,0.05982056499999988,0.1268980510000004
41192.0,-2.094308174,-2.1912959425,7.2772207655,-0.9995064293858527,0.6179652375951282,-1.344219428630245,7.883263708967536,1.7854467254910413,0.15925999599999985,0.003628460499999875,0.12925164700000025
41202.0,-1.9949668095,-2.2655322829999998,7.3394929929999995,-0.9840515388594429,0.6320884419022664,-1.3682002525526469,7.936037203202735,1.7999625442222955,0.09934136450000008,-0.07423634049999972,0.06227222749999939
41212.0,-1.9793742359999997,-2.36732531,7.4352058969999995,-0.9771243270582775,0.6435465284416092,-1.3740628135100956,8.050120385453297,1.804708480688673,0.015592573500000206,-0.10179302700000026,0.09571290399999999
41222.0,-2.0536105765,-2.483436046,7.570537667,-0.9848508996568562,0.6328878026996798,-1.3700660095230286,8.227867983988961,1.8020985366542261,-0.07423634050000039,-0.11611073599999999,0.13533177000000052
41232.0,-2.1901191444999997,-2.682118775,7.607606804,-0.9912457860361634,0.5673384719825288,-1.3652698447385483,8.358592242392255,1.7800008143476627,-0.13650856799999955,-0.19868272900000017,0.037069136999999586
41242.0,-2.327706444,-2.8832531665,7.5094422375,-0.986182585876128,0.45995359909507366,-1.3620724015488948,8.373952999027425,1.7433744959322457,-0.13758729950000026,-0.20113439149999968,-0.0981645664999995
41252.0,-2.4402867859999997,-3.0879179519999997,7.292813338999999,-0.9691289737548914,0.34750552604758295,-1.374596884261206,8.287059989749464,1.7174072471680768,-0.11258034199999978,-0.2046647854999999,-0.21662889850000067
41262.0,-2.477355923,-3.2794418265,7.130022949,-0.9443487890350759,0.25184577507502576,-1.4150989948829864,8.229778752547816,1.7198040862534294,-0.037069137000000474,-0.19152387450000008,-0.16279038999999962
41272.0,-2.501284149,-3.4219324509999995,6.9049603315,-0.9078434824003625,0.1572524202754371,-1.487842572776858,8.102130662537732,1.7500238951473093,-0.023928225999999775,-0.14249062449999972,-0.2250626174999999
41282.0,-2.369678906,-3.502150848,6.634394857999999,-0.8708058503437909,0.05253266515577733,-1.5853680807197974,7.867377823108873,1.809545374193893,0.1316052430000001,-0.08021839700000033,-0.2705654735000005
41292.0,-2.1457930865,-3.433896564,6.274000470499999,-0.8406954300883847,-0.027672195290370093,-1.6924859182316974,7.467205333065136,1.8899849576058203,0.22388581949999997,0.068254284,-0.3603943875000004
41302.0,-1.8333532175,-3.3345551995,5.985586894,-0.8068534958922147,-0.06497686272249689,-1.7865469476094276,7.092791612916218,1.9613731293497698,0.31243986899999987,0.09934136449999986,-0.2884135764999991
41312.0,-1.4657999754999997,-3.2435494874999997,5.572530796,-0.7788758679827456,-0.050323078322752506,-1.8672858788066853,6.612282685911553,2.023842035122457,0.3675532420000003,0.0910057120000003,-0.4130560980000002
41322.0,-1.0983448,-3.2196212614999995,5.1176003025,-0.7583577772963002,0.026686084262993296,-1.937631374308317,6.145091962154674,2.0809214324868233,0.36745517549999973,0.02392822600000022,-0.45493049350000003
41332.0,-0.7882585269999999,-3.2651241175,4.859097008499999,-0.7141258980630079,0.13913241198123197,-1.9981175048654323,5.907047548994506,2.126454135314861,0.31008627300000013,-0.04550285600000059,-0.2585032940000005
41342.0,-0.48062391649999997,-3.317785828,4.601672445999999,-0.6573677907881522,0.2513134496531675,-2.0586053807518,5.693337461442547,2.1755796873483018,0.3076346104999999,-0.05266171049999979,-0.2574245624999998
41352.0,-0.2160404995,-3.2794418265,4.382591885,-0.6027442211884857,0.3688229775314417,-2.115361742697403,5.478003634654665,2.2302659678610235,0.264583417,0.03834400150000006,-0.21908056099999929
41362.0,0.06168382849999999,-3.1394028645,4.302373488,-0.5395912275343229,0.46155232068990043,-2.142541755138711,5.3263564348036745,2.2571385447240715,0.277724328,0.14003896199999977,-0.08021839700000033
41372.0,0.3046926155,-3.065166524,4.311984004999999,-0.45538956310110845,0.5215061258251577,-2.1369444842275653,5.299178188093538,2.246303635336327,0.243008787,0.07423634050000016,0.009610516999999597
41382.0,0.532108829,-2.96945362,4.373079434499999,-0.35413428654665746,0.5348299693348824,-2.100706212968407,5.312684664807209,2.1964564148215477,0.22741621350000002,0.09571290399999999,0.06109542949999991
41392.0,0.7440305355,-2.9334632144999997,4.4340767974999995,-0.2502138922244111,0.49805762732461384,-2.0460808980394884,5.368409905615343,2.120640335681747,0.21192170649999997,0.03599040550000021,0.06099736300000025
41402.0,0.995374975,-2.8844299644999998,4.4305464035,-0.14656053327771984,0.43490637899970297,-1.975735402537857,5.379632793651301,2.0283377256390787,0.25134443950000007,0.04903324999999992,-0.003530393999999326
41412.0,1.224066053,-2.9179687074999996,4.3144356675,-0.039175660390264724,0.37308681689406387,-1.900859032298048,5.350442431150193,1.937522533024127,0.228691078,-0.033538742999999815,-0.11611073600000044
41422.0,1.4071562085,-2.9083581905,4.2102890445,0.07966729903653318,0.3171298157458737,-1.8259844073874916,5.307086752409956,1.8550302570559427,0.18309015549999996,0.009610516999999597,-0.1041466230000001
41432.0,1.6034853414999999,-2.8927656170000002,4.0845677915,0.20170595632373267,0.27716003054595156,-1.7529720487888127,5.255754198843583,1.7861729981117596,0.19632913299999988,0.015592573499999762,-0.12572125300000003
41442.0,1.7699041919999998,-2.843732367,3.9756159099999997,0.3162850763879084,0.27263090113702626,-1.6906201612613152,5.198547536363183,1.7414248153347671,0.16641885049999994,0.04903325000000036,-0.1089518814999999
41452.0,1.8632635,-2.800583107,3.8606819719999996,0.4250016354946352,0.29607939963757,-1.6359965916616486,5.120535313672959,1.7160344544884258,0.09335930800000014,0.043149259999999856,-0.11493393800000007
41462.0,1.9530924139999999,-2.8963940774999997,3.7625174054999997,0.5193297002479208,0.34217703584124426,-1.608816579220341,5.1342191087342455,1.7248418034680557,0.08982891399999993,-0.09581097049999965,-0.09816456649999994
41472.0,2.1230416584999996,-3.0017174984999997,3.7015200425,0.6192532905831001,0.42238189628739176,-1.6042874498114157,5.21717015723627,1.770768004520001,0.1699492444999997,-0.10532342100000003,-0.060997362999999805
41482.0,2.3432990174999997,-2.9993639025,3.6930863234999998,0.7018562334214877,0.5151112394458505,-1.6178765833674438,5.303406518254021,1.837244240814147,0.2202573590000001,0.002353595999999847,-0.008433719000000117
41492.0,2.6354391209999997,-2.9370916749999996,3.6787686145,0.7703377172819892,0.6094393041991361,-1.6346631601131252,5.394940721350125,1.9070815691000167,0.29214010349999997,0.06227222750000028,-0.014317708999999734
41502.0,2.902376134,-2.8126452865,3.689457863,0.8294921616198331,0.7168224317573392,-1.6343978700668218,5.472372433756312,1.9680315146201832,0.26693701300000017,0.12444638849999956,0.01068924849999986
41512.0,3.0508488149999997,-2.657013751,3.7709511245,0.8806529979835429,0.8415279521415859,-1.6034880890140022,5.530594267197496,2.0136765005091535,0.14847268099999988,0.15563153549999997,0.08149326149999991
41522.0,3.053202411,-2.5288408354999996,3.8738228829999994,0.9347442421613511,0.9534419544379663,-1.535273640529056,5.542885950719442,2.0346654540832083,0.002353596000000291,0.12817291550000043,0.10287175849999963
41532.0,3.0005407005,-2.5360977565,4.2246067535,1.021878059737916,1.0168602381384324,-1.4428113327461525,5.7690847235587706,2.0395940906909407,-0.05266171049999979,-0.007256921000000194,0.35078387050000037
41542.0,2.9179687074999996,-2.495400159,4.729747295,1.1460495093710525,0.9867498178830261,-1.3338277382638706,6.09196789272943,2.016482362031448,-0.08257199300000062,0.040697597499999905,0.5051405415000003
41552.0,2.8748194475,-2.3828198169999997,5.237339498999999,1.275549449210528,0.877500933354441,-1.2152518142126276,6.432118015381689,1.968215246706081,-0.04314925999999941,0.11258034200000022,0.5075922039999989
41562.0,2.945525394,-2.2080653139999997,5.6791290815,1.357087741205199,0.72455074968517,-1.0972082155832432,6.767878500824894,1.8895837622455733,0.07070594649999995,0.17475450299999995,0.4417895825000011
41572.0,3.1609774945,-2.057239037,5.845449865499999,1.3938600832154675,0.5572120716624577,-0.985561248662418,6.956528969692151,1.7957344456385589,0.21545210049999985,0.15082627699999973,0.16632078399999894
41582.0,3.5116632985,-1.962702931,5.889775923499999,1.4173085817160112,0.41998381389515155,-0.884305972107967,7.132562116548875,1.7225408767415609,0.3506858039999998,0.09453610600000006,0.044326058000000224
41592.0,3.8863753949999995,-1.9567208745,5.900563238499999,1.4474190019714175,0.34963831839352005,-0.783315985599819,7.331392556881881,1.6825137902118956,0.3747120964999997,0.005982056499999944,0.010787314999999964
41602.0,4.165276521,-1.9554460099999997,6.107679686499999,1.488453438015056,0.3669572205610597,-0.6764651834634743,7.6470287528754275,1.6756361130326032,0.2789011260000005,0.00127486450000025,0.20711644799999984
41612.0,4.312572404,-1.9482871555,6.543389146,1.5241593838523562,0.41918445309773805,-0.5661481574326686,8.075273685517985,1.679077475659908,0.14729588299999996,0.007158854499999645,0.43570945950000084
41622.0,4.2969798305,-1.778337911,7.0820684305,1.5446774745388014,0.472476336478133,-0.4563669474822253,8.472438529945697,1.6785509166044417,-0.015592573500000206,0.16994924450000015,0.5386792844999997
41632.0,4.220389894,-1.5712214629999999,7.665073773,1.545476835336215,0.480471689781519,-0.35271184320628207,8.890094695148171,1.656429092228316,-0.07658993649999957,0.20711644800000006,0.5830053424999999
41642.0,4.188027948999999,-1.401174152,8.081660265,1.5334864233750138,0.42584637485260046,-0.2482591234621774,9.20956566536761,1.6107632780867591,-0.03236194500000078,0.1700473109999998,0.4165864920000004
41652.0,4.140171497,-1.3557693625,8.281617858499999,1.5036430384951627,0.3248563883444526,-0.13980959973100576,9.357581148090086,1.544674976957972,-0.04785645199999955,0.04540478950000004,0.19995759349999886
41662.0,4.164099723,-1.3689102734999998,8.3869412795,1.5044423992925762,0.23132942971783244,-0.02896024827834191,9.463320023425373,1.5223990718018465,0.023928225999999775,-0.01314091099999981,0.10532342100000136
41672.0,4.2024437245,-1.295850731,8.464708014,1.5417470667247029,0.16471370282771286,0.08028863625024314,9.538922587844944,1.5525981085794112,0.0383440015000005,0.0730595424999998,0.07776673449999905
41682.0,4.197638466,-1.258781594,8.494716363,1.5670595768663766,0.14526200831423605,0.17967990116356425,9.558499143717908,1.584001778846937,-0.004805258500000242,0.03706913700000003,0.030008349000000933
41692.0,4.2263719505,-1.4371645575,8.570129501499999,1.6027655227036768,0.15485433788319689,0.2851990170806374,9.663062739203754,1.6352906977270418,0.028733484500000017,-0.17838296350000005,0.07541313849999831
41702.0,4.092315044999999,-1.492179864,8.718504116,1.6592565946029771,0.20654749966876496,0.38911941140288375,9.746073937477048,1.7167434964733124,-0.1340569055000005,-0.05501530649999986,0.14837461450000156
41712.0,3.8803933385,-1.5951496889999999,9.153036777499999,1.7208091213330612,0.272096830385916,0.4783842759961338,10.068765427899269,1.806674357124014,-0.21192170649999964,-0.10296982499999996,0.4345326614999987
41722.0,3.6410130119999997,-1.5795571154999999,9.797137549499999,1.7535846593562627,0.31846150196514533,0.5402038381017729,10.570519410062252,1.8623364552259087,-0.23938032650000007,0.015592573499999984,0.6441007719999998
41732.0,3.4482142729999996,-1.4323592989999998,10.5273407085,1.7045548700092379,0.3035406821898458,0.5777737955802028,11.169903187888156,1.8252306181618916,-0.1927987390000001,0.14719781650000008,0.730203159000002
41742.0,3.4782226219999997,-1.2682940445,11.139079535499999,1.615022970040433,0.20734686046617837,0.6273359103490859,11.738215166272154,1.7449476378152207,0.030008349000000045,0.16406525449999987,0.6117388269999982
41752.0,3.4973455894999996,-1.0827522264999998,11.550860768999998,1.520429615240844,0.03867649622419435,0.6942186726147604,12.117184617773596,1.671867713567255,0.019122967499999977,0.18554181800000014,0.4117812334999993
41762.0,3.5548125584999997,-1.042054629,11.784259038999998,1.4231711426734603,-0.17662557497257414,0.7661628897112188,12.352786376933052,1.625920744883809,0.057466969000000034,0.040697597499999905,0.23339827000000035
41772.0,3.7667342649999997,-1.061275663,11.915962348499999,1.3363043604724505,-0.38686444600930714,0.8271830910194445,12.542119109100774,1.618519480720654,0.21192170650000008,-0.01922103400000008,0.13170330950000064
41782.0,3.9642401959999995,-0.967916355,11.906449898,1.2646254334222953,-0.5390152688811648,0.8754135195690558,12.586326373308568,1.629774149135347,0.1975059309999998,0.09335930800000003,-0.009512450499999048
41792.0,4.2359824674999995,-0.7320664224999999,11.930378124,1.1894837731361834,-0.6285454235207178,0.9151162693934228,12.681221979507223,1.6270767598646556,0.27174227149999997,0.23584993250000008,0.023928226000000663
41802.0,4.5495991345,-0.602716709,11.944695833,1.0842299472654133,-0.6562577613838838,0.971073270541613,12.79601024768418,1.5966252298783619,0.3136166670000007,0.1293497134999999,0.014317709000000178
41812.0,4.8082004949999995,-0.4315906665,11.848982928999998,0.9528642504555562,-0.640537580811171,1.0422181268406578,12.794665253739995,1.550631257308747,0.25860136049999927,0.17112604249999996,-0.09571290400000265
41822.0,4.877631577,-0.3405849544999999,11.553214364999999,0.8257623930083211,-0.6120258821505915,1.133615783779845,12.54527999192611,1.530210428458724,0.06943108200000037,0.09100571200000007,-0.2957685639999994
41832.0,4.671691927,-0.3082230095,11.300693127499999,0.7522177089877841,-0.565394175195807,1.25831955883484,12.232145030464114,1.5712638757403175,-0.20593964999999947,0.03236194499999995,-0.2525212374999999
41842.0,4.2981566285,-0.473465062,11.437103629,0.7474215442033038,-0.4891861187367267,1.4197956759001031,12.227250671697957,1.677427132488498,-0.3735352985000002,-0.16524205250000001,0.13641050150000034
41852.0,3.7523184895,-0.6794047119999999,11.835743951499998,0.7458228226084769,-0.4015199757383035,1.5692813810041655,12.434883179780988,1.7832874211430148,-0.5458381390000002,-0.20593964999999986,0.3986403224999986
41862.0,2.9322864164999998,-0.9893929184999999,12.337354098999999,0.6999904764511057,-0.3279770370470184,1.6902553874476485,12.71957185363094,1.8586336052993842,-0.8200320730000001,-0.30998820650000003,0.501610147500001
41872.0,2.079990465,-1.3557693625,12.732365961,0.6213843375997852,-0.28907190269081284,1.7515426241314294,12.972186163620071,1.880846252113347,-0.8522959514999999,-0.36637644400000013,0.3950118620000005
41882.0,1.0684345175,-1.5891676325,12.904766868,0.5553026814607759,-0.2858744595011592,1.7318238942423976,13.046072742392694,1.841004963410341,-1.0115559474999998,-0.2333982699999999,0.1724009070000001
41892.0,0.2160404995,-1.6155475209999999,13.1274758895,0.5846137409187686,-0.3325061664559437,1.6436236804928641,13.228276173388476,1.775903257466232,-0.852394018,-0.02637988849999995,0.22270902150000005
41902.0,-0.29988735699999997,-1.3114433044999998,13.503364783999999,0.7029226295944563,-0.40578381510092565,1.532509038993897,13.57021283759314,1.734169738633403,-0.5159278565,0.3041042165000001,0.3758888944999992
41912.0,-0.763153503,-0.8122848195,13.710481232,0.7903217372173243,-0.4566776160890803,1.4736216300316083,13.75570810646095,1.7334138576381664,-0.463266146,0.4991584849999998,0.20711644800000073
41922.0,-1.154634971,-0.507003805,13.959472075499999,0.8164353534856635,-0.4286982428503592,1.4781507594405336,14.01631532897305,1.7422050790532302,-0.39148146799999994,0.3052810145,0.24899084349999967
41932.0,-1.5795571154999999,-0.44355477949999994,14.186888289,0.7937862157825331,-0.3045267932172226,1.5133243798559752,14.281440433237446,1.7357948619638184,-0.4249221445,0.06344902550000003,0.22741621350000152
41942.0,-2.2499397095,-0.623114541,14.4227382215,0.718377520120866,-0.14624811934161286,1.5724788241938192,14.61047152673409,1.7349767797765883,-0.6703825940000001,-0.17955976150000003,0.23584993249999897
41952.0,-2.928657956,-1.1127605754999998,14.637013524,0.6293779455739191,-0.03646690939116952,1.5866020285009574,14.968548307146825,1.7072646047694962,-0.6787182464999999,-0.4896460344999999,0.21427530250000082
41962.0,-3.595510156,-1.6262367695,14.914737852,0.5624969286374966,-0.021544344286618004,1.5210509524545541,15.427953347941344,1.6218702024083997,-0.6668522000000001,-0.5134761940000001,0.2777243279999997
41972.0,-4.037201671999999,-1.9638797289999999,15.0032919015,0.4996109703588888,-0.1201362484025257,1.359574835389291,15.660606272171975,1.453439910318621,-0.44169151599999923,-0.3376429594999999,0.08855404950000079
41982.0,-4.180869094499999,-2.1230416584999996,14.845306769999999,0.41514227055011926,-0.26589043956582414,1.1365461915939434,15.56824027835129,1.2388616049731755,-0.14366742250000009,-0.15916192949999974,-0.15798513150000204
41992.0,-4.095845439,-2.0392928675,14.440684391,0.34026764563956247,-0.3953903794052994,0.8945981787069776,15.148202234591553,1.0355778696656273,0.08502365549999968,0.08374879099999966,-0.4046223789999992
42002.0,-3.7978213454999996,-1.7280297965,13.946233098,0.2888397739002976,-0.4598750592787339,0.6896895432058353,14.557024131795549,0.8778297962252523,0.29802409350000003,0.31126307099999995,-0.4944512929999991
42012.0,-3.376429595,-1.3629282169999999,13.4769848955,0.23714661211472954,-0.4412227255626705,0.5316761593765287,13.960192405845335,0.7304762471427949,0.4213917504999998,0.3651015795000001,-0.4692482025000011
42022.0,-2.878447908,-1.0684345175,13.085503427499999,0.17559234005539354,-0.36101786511652306,0.4154983177175261,13.440885931677617,0.577758964314285,0.4979816869999998,0.2944936994999998,-0.3914814680000003
42032.0,-2.4725506645,-0.8373898434999999,12.7359944215,0.11137644088676615,-0.25976258856207207,0.3270328139216895,13.000780070557129,0.432240413870117,0.4058972435000001,0.23104467400000017,-0.3495090059999999
42042.0,-2.0129129789999998,-0.761976705,12.472587802499998,0.06021560452305636,-0.1686319669984401,0.25588795762264466,12.656929866719695,0.3123160357364452,0.45963768550000017,0.07541313849999987,-0.2634066190000013
42052.0,-1.5772035194999998,-0.670970993,12.2164381045,0.013850932943826999,-0.08416326718967056,0.18767350913769826,12.336090668297237,0.206147155982109,0.43570945949999995,0.09100571200000007,-0.256149697999998
42062.0,-1.249171077,-0.47827032049999996,11.833390355499999,-0.03491182102764258,-0.01941329726993293,0.1242552254372323,11.908748808532529,0.13051847534665104,0.32803244249999985,0.1927006725,-0.38304774900000105
42072.0,-0.8816178349999999,-0.2352615335,11.5556660275,-0.07221648845976937,0.031215213671918582,0.07496014604390447,11.591635576365075,0.10866754007046917,0.36755324200000006,0.24300878699999995,-0.2777243279999997
42082.0,-0.5045521425,-0.019809433,11.244402956499998,-0.07967777101204514,0.05759586531581287,0.04591612196146682,11.255734677322623,0.10850862247261944,0.3770656924999999,0.21545210050000002,-0.31126307100000083
