timestamp,ax,ay,az,gx,gy,gz,acc_mag,gyro_mag,dax,day,daz
1647.0,-0.635667053,-0.375398562,10.6185425535,-0.6545194134488974,-0.22027625956495234,0.7170301259383264,10.644174117474387,0.9955146882957314,0.0,0.0,0.0
1651.0,-0.6296849965,-0.41246769899999997,10.544306213,-0.6646458137689687,-0.22107562036236575,0.6986448275978182,10.571141201925455,0.9893093969069559,0.005982056500000055,-0.037069136999999974,-0.07423634049999883
1655.0,-0.636843851,-0.43639592499999996,10.4557521635,-0.6715730255701341,-0.22054329494050748,0.6791931330843414,10.484215030151185,0.9802820949326594,-0.007158854499999978,-0.023928225999999997,-0.08855404950000079
1659.0,-0.635667053,-0.44600644199999995,10.387497879499998,-0.675302794181646,-0.21761288712640897,0.6578756816004826,10.416482445873568,0.9675689354843556,0.0011767979999999234,-0.009610516999999985,-0.06825428400000177
1662.0,-0.6476311659999999,-0.42560861,10.3288541125,-0.6763691903546146,-0.21388137318564512,0.6421537556985177,10.357885696095938,0.9568604754165811,-0.011964112999999887,0.02039783199999995,-0.05864376699999774
1666.0,-0.6476311659999999,-0.3860878105,10.2474589175,-0.6779679119494414,-0.20402200824112915,0.6221697357631826,10.275159570071963,0.9425288587515277,0.0,0.03952079949999998,-0.0813951950000007
1670.0,-0.661948875,-0.37059330349999997,10.1660637225,-0.6785019827005516,-0.189900549263243,0.6021839704985955,10.194330155515043,0.9268509553668888,-0.014317709000000067,0.015494507000000046,-0.08139519499999892
1684.0,-0.7541313849999999,-0.24006679199999997,9.894321451,-0.6758368649327563,-0.11875394763494618,0.5307720788239956,9.925922787639541,0.8675119409784317,-0.09218250999999988,0.1305265115,-0.27174227150000085
1687.0,-0.7745292169999999,-0.191033542,9.8332260215,-0.6763691903546146,-0.08997695892806368,0.5081229411208651,9.865532084589274,0.8507408877515041,-0.020397832000000005,0.04903324999999997,-0.06109542949999991
1691.0,-0.8115983539999999,-0.14307902349999999,9.7386899155,-0.6795666335442682,-0.05720142090486216,0.486007874168845,9.773497059161713,0.8374284839521192,-0.03706913700000003,0.047954518500000015,-0.09453610599999962
1695.0,-0.834349782,-0.14906107999999998,9.666807170999999,-0.6835634375313352,-0.022294835864975566,0.4646904226849863,9.703891984435483,0.8268574373923554,-0.022751428000000073,-0.005982056499999999,-0.07188274450000165
1698.0,-0.8319961859999999,-0.133566573,9.626109573499999,-0.6870279160965439,0.00355174502780846,0.450301928331545,9.662921049246435,0.8214571194212211,0.002353596000000069,0.01549450699999999,-0.04069759749999946
1702.0,-0.8474906929999999,-0.133566573,9.591394032499998,-0.693155767100296,0.03739193389472651,0.43431296705402495,9.629689506459757,0.8188350429335923,-0.01549450699999999,0.0,-0.03471554100000063
1706.0,-0.8571012100000001,-0.1419022255,9.5890404365,-0.699018328057745,0.07069979733978629,0.42125615891985535,9.628315284545756,0.8191958469941376,-0.009610517000000152,-0.008335652500000013,-0.0023535959999989586
1710.0,-0.8846578964999999,-0.1766177665,9.6141454605,-0.7024828066229537,0.0933489350429167,0.4121961547727528,9.656376461433968,0.8198181428121435,-0.027556686499999872,-0.03471554099999999,0.025105024000000142
1723.0,-0.9492837199999999,-0.46748300549999994,9.676417687999999,-0.7222015365119856,0.1538368109292842,0.3732927657457992,9.73410186992758,0.8273985210860081,-0.06462582350000001,-0.29086523899999994,0.06227222749999939
1727.0,-1.007927487,-0.530932031,9.697992317999999,-0.7312597953298362,0.15730128949449296,0.3613023537845982,9.764674169708833,0.8306768172958453,-0.05864376699999996,-0.06344902550000003,0.021574629999999928
1731.0,-1.051076747,-0.5584887175,9.6596483165,-0.7443166034640057,0.1567672187433827,0.3495789771989522,9.732701453045818,0.8371311894584953,-0.04314926000000008,-0.027556686499999983,-0.038344001499998726
1734.0,-1.0904994799999999,-0.548976267,9.656019855999999,-0.7579074823492856,0.15277041475631567,0.3405189730518497,9.732896974543385,0.8448169757019184,-0.03942273299999988,0.009512450499999936,-0.003628460500001651
1738.0,-1.1264898854999998,-0.5166143219999999,9.608163403999999,-0.7821553416472429,0.14637552837700843,0.32852856109064865,9.687758967779606,0.8608854681241028,-0.03599040549999999,0.032361945000000114,-0.04785645199999955
1742.0,-1.159930562,-0.5214195805,9.539909119999999,-0.8090683187129954,0.14184639896808315,0.3168034391757507,9.624301704822516,0.880384214033208,-0.033440676500000155,-0.004805258500000131,-0.068254284
1746.0,-1.191115709,-0.540542548,9.4513550705,-0.8285200132264722,0.13838192040287442,0.30694407423123476,9.541438861465862,0.8943207662337104,-0.03118514699999997,-0.019122967499999977,-0.08855404949999901
1749.0,-1.22583125,-0.5573119194999999,9.304157254,-0.8495704293347758,0.13598383801063418,0.2930879052996518,9.401095735937071,0.9089345624593198,-0.03471554099999996,-0.016769371499999908,-0.1471978165000003
1763.0,-1.4113730679999998,-0.437572723,8.7474337335,-0.8940693439436233,0.12719086923908676,0.22034432740578014,8.871360704365655,0.9295639470297248,-0.18554181799999991,0.11973919649999992,-0.5567235205000003
1767.0,-1.43765489,-0.38971627099999995,8.535610093499999,-0.9079255128752062,0.1242587160957363,0.19476303655929925,8.664604435453596,0.9368573028296604,-0.026281822000000066,0.04785645200000005,-0.21182364000000042
1770.0,-1.446088609,-0.3598059885,8.341634556499999,-0.9207152856338208,0.12452575147129143,0.1758454127969327,8.473694571356402,0.9455923588846209,-0.008433719000000117,0.02991028249999994,-0.19397553700000003
1774.0,-1.4401065525,-0.307144278,8.083033195999999,-0.9422997724932346,0.13305168486728372,0.14946476115303842,8.21606171700892,0.963312683874431,0.005982056499999944,0.052661710500000014,-0.25860136050000015
1778.0,-1.3946036965,-0.27595913099999997,7.8077605305,-0.9646818748208098,0.15810065029190634,0.12175242328987244,7.936132396445222,0.9851043537653625,0.04550285600000015,0.031185147000000024,-0.2752726654999984
1782.0,-1.3562596949999999,-0.26164142199999996,7.6018208805,-0.9801367653472196,0.1890086860154739,0.0996356110086003,7.726291302636309,1.0031548320950578,0.03834400150000006,0.014317709000000012,-0.20593965000000036
1785.0,-1.2928106695,-0.2688002765,7.3576352955,-0.9961239812954877,0.24443336174180585,0.06819350453392245,7.475186295832826,1.027940177493317,0.06344902549999998,-0.007158854500000034,-0.24418558500000032
1789.0,-1.2329901045,-0.27595913099999997,7.191216444999999,-1.0038522992233185,0.3086510062396852,0.035419711839972924,7.301370556177493,1.050827977499429,0.05982056499999988,-0.007158854499999978,-0.16641885050000038
1803.0,-1.0163612059999998,-0.40050358599999997,6.944579197499999,-0.9601527454118846,0.48558201383135835,-0.06450387849520643,7.029976774770337,1.07788864778298,0.21662889850000022,-0.124544455,-0.2466372475000007
1806.0,-1.009104285,-0.4315906665,6.924279432,-0.9287088936079547,0.5090305123319022,-0.09035045938799047,7.010720905430019,1.0629089693209908,0.00725692099999975,-0.03108708050000003,-0.020299765499999012
1810.0,-1.006750689,-0.4543420945,6.932615084499999,-0.8906048653784145,0.5143607478674929,-0.11220198162295947,7.020051680612726,1.0345691324714021,0.002353596000000069,-0.022751428000000018,0.008335652499999568
1814.0,-1.0007686325,-0.472288264,6.9661538275,-0.8450395545965985,0.5002375435603548,-0.13138664076088113,7.053502194548532,0.9907531974162609,0.005982056499999944,-0.017946169499999998,0.03353874300000115
1818.0,-0.994786576,-0.5177911199999999,7.005674626999999,-0.8074695971181686,0.4783877666546378,-0.1444434488950507,7.094870326872242,0.9495924996985216,0.005982056500000055,-0.045502855999999925,0.03952079949999909
1821.0,-0.986352857,-0.583691808,7.051177482999999,-0.7541759684085217,0.43655396981358563,-0.15883194324849198,7.143716958419096,0.8857699171235298,0.008433719000000006,-0.06590068800000004,0.0455028559999997
1825.0,-0.962424631,-0.6483176315,7.0918750804999995,-0.6979519318847763,0.3845937726524625,-0.170822355209693,7.186185989736567,0.8150027890897871,0.023928225999999997,-0.06462582350000001,0.04069759750000035
1839.0,-0.9576193725,-0.9391828704999999,7.213967873,-0.5140937124919378,0.20846038052895072,-0.20279853243548113,7.337603954936792,0.5906566855898637,0.00480525850000002,-0.29086523899999994,0.12209279250000016
1843.0,-0.9564425745,-1.003808694,7.2534886725,-0.4645315977230548,0.1615633835278631,-0.21159150120702855,7.384816329100675,0.5354094653283124,0.0011767979999999234,-0.06462582350000001,0.03952079949999998
1846.0,-0.9433016634999999,-1.0803986305,7.2893810115,-0.42003268311420733,0.11946255131125587,-0.2187857483837492,7.429142262735645,0.4884321444640512,0.013140911000000144,-0.07658993650000001,0.035892339000000106
1850.0,-0.915744977,-1.1798380615,7.3372374635,-0.3803299332898403,0.0853553270687827,-0.22491534471675326,7.487700602324637,0.45002589070444515,0.027556686499999872,-0.09943943099999997,0.04785645200000044
1854.0,-0.9097629205,-1.2504459415,7.389899174,-0.3531499208485327,0.0645719463360342,-0.22917743875012342,7.549959829430644,0.4259186557090628,0.005982056500000055,-0.07060788000000007,0.05266171049999979
1857.0,-0.8929935489999999,-1.3330179345,7.462958716499999,-0.3185103711842012,0.04458618107144715,-0.23503999970757236,7.633487217283958,0.39834731774792853,0.01676937150000002,-0.08257199299999995,0.07305954249999935
1861.0,-0.87867584,-1.4155899275,7.5539644285,-0.28786762550693673,0.03392745532951777,-0.242234246884293,7.735524847202191,0.3777516014575438,0.014317708999999956,-0.08257199299999995,0.0910057120000003
1875.0,-0.8906399529999999,-1.6682092315000001,7.9429942339999995,-0.21485701223750994,0.06403787558492394,-0.2955278755939399,8.165005754272247,0.370946236630225,-0.011964112999999887,-0.2526193040000002,0.3890298054999999
1879.0,-0.9205502354999999,-1.6789965464999999,8.086661656499999,-0.20872741590450583,0.08348957009840074,-0.31098276612034964,8.310267076691659,0.3837289711362075,-0.02991028250000005,-0.010787314999999742,0.1436674224999992
1882.0,-0.9839992609999999,-1.698119514,8.26504462,-0.20579700809040738,0.11439935115122032,-0.33123382143123986,8.494870628801069,0.40639323880045775,-0.06344902549999998,-0.0191229675000002,0.1783829635000007
1886.0,-1.0773585689999998,-1.7293046609999998,8.451763236,-0.21245892984526973,0.1453091322040399,-0.3525495275858466,8.693877034681089,0.4365142725889865,-0.09335930799999992,-0.031185146999999747,0.18671861600000028
1890.0,-1.136002336,-1.7472508304999999,8.581014883,-0.2231159102579471,0.1684923406582806,-0.37253529285043363,8.83047015703852,0.465782054924722,-0.05864376700000018,-0.017946169500000053,0.12925164700000025
1893.0,-1.2030798219999999,-1.775984315,8.777344015999999,-0.244700397117361,0.19780340011627334,-0.4007799561354579,9.035667618966546,0.5095380679467357,-0.06707748599999985,-0.02873348450000024,0.196329132999999
1897.0,-1.2677056455,-1.8070713954999997,8.9557269795,-0.27374442119979864,0.22631509877685274,-0.430890376390864,9.223753594031612,0.5584093915208177,-0.06462582350000012,-0.031087080499999642,0.1783829635000007
1911.0,-1.4963967235,-1.9387747049999997,9.480088555,-0.37633312930277335,0.3350316578835795,-0.5276165235363898,9.79132930308706,0.7295560512418929,-0.228691078,-0.13170330949999998,0.5243615755000004
1915.0,-1.559845749,-1.962702931,9.6225791795,-0.3877912158421161,0.35608207399188313,-0.5430714140627996,9.943809713674948,0.7563749277143157,-0.06344902549999998,-0.02392822600000022,0.1424906245000006
1918.0,-1.6100557969999998,-1.9638797289999999,9.814103054,-0.395517788440695,0.3803299332898403,-0.5585263045892094,10.137342946451133,0.7829666736505143,-0.05021004799999984,-0.0011767979999999234,0.19152387449999964
1922.0,-1.6268251685,-1.9663313914999998,10.045147727999998,-0.40084802397628566,0.4027120356174156,-0.5702496811748553,10.364266117164634,0.8050098265467569,-0.01676937150000013,-0.0024516624999999515,0.23104467399999784
1926.0,-1.6387892815,-1.9483852219999998,10.199504398999999,-0.40404546716593925,0.4181669261438254,-0.5763792775078593,10.512455720129697,0.818736458940482,-0.01196411300000011,0.017946169500000053,0.1543566710000004
1930.0,-1.7058667674999999,-1.913669681,10.416231364,-0.40830756119930944,0.4362869344380305,-0.5830411992627217,10.727068047925156,0.8348642965965037,-0.06707748599999985,0.03471554099999974,0.21672696500000121
1933.0,-1.8063849299999999,-1.869343623,10.6316834645,-0.41656820454899857,0.44827734639923156,-0.5881026540935053,10.94486936356504,0.8487322193057938,-0.10051816250000001,0.044326058,0.2154521005000003
1947.0,-2.1606991945,-1.710083627,11.256563202499999,-0.4751903234649842,0.4027120356174156,-0.611551152594049,11.58892670407072,0.8729133057669523,-0.3543142644999999,0.15925999600000007,0.6248797379999989
1951.0,-2.2325819389999997,-1.6634039729999999,11.320012228,-0.4922439355862207,0.3755337685053599,-0.61927947052188,11.657358694567595,0.87569216395895,-0.07188274449999987,0.04667965400000007,0.06344902550000064
1955.0,-2.303189819,-1.583185576,11.349922510499999,-0.5159594694623197,0.33343293628875265,-0.6310028471075259,11.688964920160993,0.8806567380016924,-0.07060788000000029,0.08021839699999989,0.029910282499999497
1958.0,-2.3678156424999997,-1.5125776959999997,11.308048115,-0.5391409325873083,0.2873335547558265,-0.6448590160391089,11.651883726439232,0.8882998747307465,-0.06462582349999968,0.07060788000000029,-0.04187439549999894
1962.0,-2.4025311835,-1.4359877595,11.238617033,-0.5596590232737537,0.23963719695732544,-0.6624466989114557,11.581913906930989,0.8997109743667578,-0.03471554100000018,0.07658993649999979,-0.06943108199999948
1966.0,-2.4229290155,-1.3904849035,11.1728144115,-0.574047517627195,0.20659636888782076,-0.6763028678430387,11.51676235557699,0.9108228044928914,-0.020397832000000005,0.045502855999999925,-0.06580262150000138
1969.0,-2.440875185,-1.3509641039999998,11.075826643000001,-0.5905688043265733,0.1684923406582806,-0.6960198524028186,11.421773570896685,0.9282267053059107,-0.017946169500000053,0.0395207995000002,-0.09698776849999824
1983.0,-2.3990007894999996,-1.3449820474999998,10.692778894,-0.6108198596374634,0.09414829584033012,-0.7812879130090016,11.040819805254081,0.9961805085179745,0.04187439550000027,0.005982056499999944,-0.38304774900000105
1987.0,-2.393018733,-1.3414516534999998,10.660416948999998,-0.6129509066541486,0.08748811941471975,-0.8034047252902738,11.00774821304036,1.0143086993739172,0.005982056499999722,0.0035303939999999923,-0.03236194500000167
1991.0,-2.370267305,-1.3114433044999998,10.593339463,-0.6177470714386291,0.08348957009840074,-0.8332481101701248,10.934207406868728,1.0406173003022308,0.02275142799999985,0.030008349000000045,-0.06707748599999874
1994.0,-2.3379053599999997,-1.2934971349999997,10.529988504,-0.6246760285690465,0.08348957009840074,-0.865491322771468,10.863682350149148,1.0706380708608851,0.032361945000000336,0.017946169500000053,-0.06335095899999921
1998.0,-2.303189819,-1.2959487975,10.4592825575,-0.6342683581380073,0.08775340946102289,-0.8964011038242876,10.787991390695058,1.1016042619491442,0.03471554099999974,-0.0024516625000001735,-0.0707059465000004
2002.0,-2.2601386254999998,-1.2899667409999998,10.410249307499999,-0.6433283622851098,0.09175021344808991,-0.9187832061518629,10.730588587941828,1.1253675236538987,0.043051193500000196,0.005982056500000166,-0.049033250000000805
2006.0,-2.2134589714999997,-1.2731973694999998,10.3408182255,-0.6593155782333779,0.10081021759519247,-0.948626591031714,10.65142965676667,1.1596344858985759,0.04667965400000007,0.016769371499999908,-0.06943108199999948
2019.0,-2.013501378,-1.234853368,9.849995393,-0.7461823604343878,0.15783361491635123,-1.0426876204094444,10.12923787270247,1.2918579793367795,0.19995759349999975,0.038344001499999836,-0.49082283249999925
2023.0,-1.976432241,-1.2265177154999998,9.712310027,-0.7754934198923804,0.18634531357693057,-1.0666701896610984,9.98697132118964,1.3318783404275738,0.03706913700000003,0.008335652500000235,-0.13768536600000125
2027.0,-1.9488755544999998,-1.2253409175,9.5998277515,-0.7973431967980974,0.2113925336723012,-1.0842561272041933,9.871994183015758,1.362370847512688,0.027556686500000094,0.0011767979999997014,-0.11248227549999967
2031.0,-1.887780125,-1.2336765699999999,9.424975182,-0.82425617386385,0.2478978403070146,-1.1079716610802923,9.691017947616645,1.4030156025998348,0.06109542949999991,-0.00833565249999979,-0.17485256949999872
2034.0,-1.8339416165,-1.2516227395,9.2681668485,-0.8485040331618072,0.2852025077391414,-1.131420159580836,9.530415419403214,1.4427096527778807,0.05383850849999994,-0.017946169500000053,-0.15680833350000078
2038.0,-1.7980492775,-1.267215313,9.180789597,-0.8644912491100754,0.31291484560230737,-1.1479414462802144,9.440641581916104,1.4707244420604848,0.035892338999999884,-0.015592573499999984,-0.08737725149999953
2042.0,-1.7776514454999999,-1.270745707,9.041927433,-0.8820789319824222,0.3467550344692254,-1.1724545956244747,9.30221968226859,1.5076312795169629,0.020397832000000227,-0.0035303939999999923,-0.13886216400000073
2056.0,-1.7752978494999998,-1.2061198835,8.640933514499999,-0.897533822508832,0.42429652247682953,-1.26438457798552,8.90349030604418,1.6075642639038938,0.002353596000000069,0.0646258234999999,-0.4009939185000011
2059.0,-1.75735168,-1.198961029,8.5607151175,-0.8874074221887609,0.4314907696535501,-1.2896988334564459,8.821090397408508,1.6238840162618855,0.01794616949999983,0.007158854500000089,-0.08021839699999944
2063.0,-1.7238129369999997,-1.1918021744999998,8.496089293999999,-0.8762163710249732,0.4328224558728218,-1.307818841750651,8.750740354766155,1.6326299427604434,0.03353874300000026,0.007158854500000089,-0.06462582350000012
2067.0,-1.6639923719999998,-1.2132787379999999,8.394296267,-0.8588957235281816,0.43015733810502643,-1.3323337364241634,8.643212697158805,1.6425134351458355,0.05982056499999988,-0.021476563500000045,-0.10179302699999937
2070.0,-1.5801455144999998,-1.2265177154999998,8.3153527345,-0.8405104251876732,0.42669460486906974,-1.355782234924707,8.552560824255297,1.651263615904792,0.08384685749999998,-0.013238977499999915,-0.0789435325000003
2074.0,-1.507085972,-1.2300481095,8.242293192,-0.8271865816779486,0.42536117332054607,-1.37150241549742,8.4687498216427,1.657162829776223,0.0730595424999998,-0.0035303940000002143,-0.07305954249999935
2078.0,-1.3946036965,-1.222889255,8.1082362865,-0.8106670403078222,0.42616053411795946,-1.3904217845890388,8.31768436994343,1.664952428792161,0.11248227550000012,0.007158854500000089,-0.1340569054999996
2092.0,-1.0402894319999998,-1.106778519,7.6377132195,-0.7826876670691012,0.45840374671930273,-1.4333219776030592,7.787286049438262,1.6962151604876992,0.35431426450000014,0.11611073599999999,-0.47052306700000024
2095.0,-0.9348679444999999,-1.085203889,7.509638370499999,-0.7813559808498294,0.4775884058572244,-1.4359870953708544,7.645018901875932,1.7031344022979122,0.10542148749999991,0.021574629999999928,-0.12807484900000077
2099.0,-0.8534727495,-1.0792218324999998,7.3815635214999995,-0.7808219100987192,0.49437498260290585,-1.434653663822331,7.508702652244476,1.7065522593324454,0.08139519499999992,0.005982056500000166,-0.12807484899999988
2103.0,-0.7732543525,-1.0660809215,7.2546654705,-0.7802895846768608,0.520488598871245,-1.4314562206326773,7.373236868140848,1.7113816433215965,0.080218397,0.01314091099999981,-0.1268980509999995
2106.0,-0.7110801915,-1.036170639,7.137377936499999,-0.7765598160653491,0.5474015759369976,-1.4282587774430238,7.247168304952378,1.715405715452994,0.06217416099999995,0.02991028249999994,-0.1172875340000008
2110.0,-0.69431082,-1.0109675485,7.0332313135,-0.7714966159053134,0.5671203058260295,-1.4258606950507835,7.139360308044839,1.7175305503321516,0.01676937150000002,0.025203090500000025,-0.10414662299999922
2114.0,-0.6883287634999999,-0.9727216135,6.9290846905,-0.760837890163384,0.5897694435291598,-1.4242619734559567,7.030803543845679,1.71907663024707,0.005982056500000055,0.038245935000000064,-0.1041466230000001
2128.0,-0.673912988,-0.9129010485,6.563983111,-0.6806330297172366,0.6118862558104321,-1.4426490171257171,6.661337802667023,1.7084795280615956,0.01441577549999995,0.05982056499999999,-0.3651015795000001
2131.0,-0.638020649,-0.9164314425,6.5052412775,-0.645459409301795,0.603890902507046,-1.4530407074920912,6.600384914218476,1.700773167949246,0.035892338999999995,-0.0035303939999999923,-0.05874183350000006
2135.0,-0.5996766475,-0.9212367009999999,6.450225970999999,-0.615883059797499,0.5964313652840223,-1.4618336762636386,6.543218185097383,1.6946976172457897,0.03834400149999995,-0.004805258499999909,-0.05501530650000053
2139.0,-0.547014937,-0.9021137335,6.379618090999999,-0.5748468784246085,0.5844392079935692,-1.47435815897595,6.466263334916457,1.6869351209852794,0.052661710500000014,0.019122967499999866,-0.07060787999999985
2143.0,-0.4943532265,-0.86494653,6.27429467,-0.532479010832446,0.5719164706105099,-1.486613860983454,6.352896285813299,1.6794770370567187,0.052661710500000014,0.03716720350000002,-0.10532342099999958
2146.0,-0.4476735725,-0.8230721345,6.222809757499999,-0.5026356259525949,0.5625894310878522,-1.4946092142868401,6.292950074817256,1.6742180693922866,0.046679654000000015,0.04187439549999994,-0.05148491250000031
2150.0,-0.385401345,-0.7679587615,6.140139698,-0.46613031931788157,0.5543287877381631,-1.5034021830583875,6.199968577908113,1.6687648137252227,0.0622722275,0.05511337300000008,-0.08267005949999984
2164.0,-0.0909076455,-0.633901856,5.7977895465,-0.3744673723323914,0.5753809491757187,-1.5073989870454545,5.8330488930365805,1.6563637148167485,0.29449369950000004,0.13405690549999993,-0.3423501514999998
2167.0,-0.022751427999999997,-0.6124252925,5.743951038,-0.3542163170215012,0.5990947377225656,-1.5026028222609742,5.776552249682419,1.655958618286638,0.0681562175,0.021476563500000045,-0.05383850850000016
2171.0,0.008433719,-0.6099736299999999,5.7080586989999995,-0.3406271834654733,0.6206792245819794,-1.4972725867253835,5.740563828417999,1.6562290834611706,0.031185146999999996,0.0024516625000000625,-0.035892339000000106
2175.0,0.045502855999999994,-0.618407349,5.693642923500001,-0.3249052575635084,0.6499902840399723,-1.4863485709371511,5.727308957924568,1.654473593039697,0.037069136999999995,-0.008433719000000117,-0.01441577549999895
2179.0,0.044326057999999995,-0.6279197995,5.694819721499999,-0.31131612400748054,0.6763691903546146,-1.474623449022253,5.729504318386301,1.651940473241782,-0.0011767979999999997,-0.009512450499999936,0.0011767979999985911
2182.0,0.032361944999999996,-0.644689171,5.690014462999999,-0.30172379443851977,0.6928904770539929,-1.4660975156262608,5.726511679184634,1.6494169838606556,-0.011964112999999998,-0.01676937150000002,-0.004805258500000242
2186.0,0.020397831999999998,-0.656653284,5.709235497,-0.28946634710176355,0.7078112968292923,-1.454904719133221,5.74691043667318,1.6436347951353791,-0.011964112999999998,-0.011964112999999998,0.01922103400000097
2200.0,-0.0897308475,-0.656653284,5.648140067499999,-0.23137655360763626,0.6859615199235753,-1.434920699197886,5.686891187852987,1.6071949879718264,-0.11012867949999999,0.0,-0.0610954295000008
2203.0,-0.106500219,-0.6471408334999998,5.602637211499999,-0.212991255267128,0.667309186207512,-1.434653663822331,5.640893305028434,1.5965268428485744,-0.01676937149999999,0.009512450500000158,-0.0455028559999997
2207.0,-0.1209159945,-0.6327250579999999,5.552427163499999,-0.19940212171110014,0.6529206918540706,-1.4362541307464098,5.589669854536998,1.590249214456719,-0.014415775500000005,0.01441577549999995,-0.050210048000000285
2211.0,-0.11365907349999999,-0.6363535185,5.430334371,-0.18208147421430843,0.6358670797328341,-1.4397168639823665,5.468674022682297,1.5843816632286674,0.007256921000000013,-0.003628460500000097,-0.12209279249999927
2215.0,-0.0897308475,-0.623114541,5.295002600999999,-0.16715890910975692,0.6241419578179362,-1.4461117503616736,5.332295556399276,1.5838985065141244,0.023928225999999983,0.013238977500000026,-0.13533177000000052
2218.0,-0.06580262149999999,-0.6064432359999999,5.1825203255,-0.1575665795407961,0.6190805029871527,-1.4522413466946777,5.218296686439651,1.5865348484091306,0.02392822600000001,0.016671305000000025,-0.11248227549999967
2222.0,-0.023928225999999997,-0.6028147755,5.028065588,-0.14504384215773675,0.6174817813923259,-1.4636994332340205,5.064128925174635,1.5952233377646252,0.041874395499999995,0.003628460499999986,-0.15445473750000005
2236.0,0.21074490849999997,-0.4663062075,4.501350416499999,-0.10134254301705074,0.6507896448373857,-1.5172583519899707,4.530343305726005,1.6540466678833627,0.23467313449999996,0.13650856799999994,-0.5267151715000002
2240.0,0.2909633055,-0.410114103,4.348072477,-0.08215788387912908,0.6630453468448898,-1.5372423719253057,4.3770523743578735,1.676154276878682,0.08021839700000002,0.056192104500000006,-0.15327793949999968
2243.0,0.3531374665,-0.378928956,4.242749056,-0.06430491096047908,0.6705066293971655,-1.5534966232491287,4.274249966500577,1.6932412763943678,0.062174161000000006,0.031185147000000024,-0.10532342099999958
2247.0,0.49798168699999995,-0.3166567285,4.1661591195,-0.03659257309731311,0.6787672727468548,-1.5750793647792907,4.207747503508819,1.715499645092245,0.14484422049999995,0.0622722275,-0.07658993650000046
2251.0,0.6620469415,-0.274782333,4.0907459809999995,-0.002485348854839925,0.6843627983287486,-1.5979955378579764,4.153072858058967,1.7383752056760615,0.16406525450000004,0.041874395499999995,-0.07541313850000009
2254.0,0.7912985884999999,-0.26164142199999996,4.0488715855,0.026825710603152843,0.6862285552991304,-1.6161155461521812,4.133759887286337,1.755977991710619,0.12925164699999991,0.013140911000000033,-0.04187439549999983
2258.0,0.982822463,-0.237713196,3.9985634709999998,0.0691918328660632,0.6888936730669258,-1.6368989268849299,4.124434190158147,1.7773013529967394,0.19152387450000008,0.02392822599999997,-0.050308114499999945
2262.0,1.1791515959999999,-0.182599823,3.954237413,0.11342545742860749,0.695288559446233,-1.6566176567739617,4.130343169771479,1.8001870947279224,0.19632913299999988,0.05511337299999999,-0.04432605799999978
2276.0,1.9380882394999999,0.09747810099999998,3.966201526,0.25251947216629556,0.7445836388395608,-1.6936552888305334,4.415477612796548,1.8672544326990748,0.7589366435,0.280077924,0.011964112999999887
2279.0,2.0985250335,0.1717144415,3.9566890755,0.27250349210163066,0.7667004511208331,-1.6899255202190215,4.482039893377443,1.8756161651158807,0.16043679400000022,0.07423634050000003,-0.009512450499999936
2283.0,2.3032878854999996,0.2842947835,3.9410965019999997,0.2879583826280404,0.8018740715362748,-1.6784674336796788,4.573641901755428,1.8823323252420563,0.20476285199999955,0.11258034199999997,-0.015592573500000206
2286.0,2.4803959845,0.41236963249999997,3.9410965019999997,0.28982413959842235,0.8450395545965985,-1.6576840529469303,4.674896211875569,1.8830842519975959,0.17710809900000024,0.128074849,0.0
2290.0,2.5965067205,0.514064593,3.9362912435,0.28316221784356005,0.883677653577249,-1.6353002052901031,4.743469016345811,1.8802323788478195,0.11611073599999999,0.10169496049999999,-0.004805258499999798
2294.0,2.6791767799999997,0.626644935,3.8884347914999995,0.2661086057223234,0.9446978548854748,-1.5963968162631494,4.763464833584894,1.8739665477376635,0.08267005949999984,0.112580342,-0.04785645200000044
2297.0,2.715069119,0.7044116695,3.8333214184999997,0.24852266817922858,0.994792295076216,-1.5609579058014047,4.749963075499226,1.8676093838449825,0.035892339000000106,0.07776673450000005,-0.055113372999999743
2301.0,2.7270332319999997,0.7726659534999999,3.7638903365,0.2213426557379209,1.0683352337675012,-1.5089977086402813,4.711750565270673,1.8620974269999397,0.011964112999999887,0.06825428399999989,-0.06943108199999992
2315.0,2.529527301,0.6193880139999999,3.7998807419999996,0.19736183181551878,1.3134806898441207,-1.3254047792937458,4.6066520958081565,1.876401088313921,-0.1975059309999998,-0.15327793950000002,0.03599040549999977
2319.0,2.4636266129999997,0.48415431049999996,3.915991478,0.2240077735057162,1.3590460006259364,-1.2811729000604535,4.651757811884257,1.8811139025209647,-0.06590068800000015,-0.1352337034999999,0.11611073600000044
2322.0,2.413416565,0.38245935,4.015332842499999,0.2549175545585358,1.3800964167342402,-1.2513277698513505,4.700399185886019,1.8802846238551087,-0.05021004799999984,-0.10169496049999999,0.09934136449999942
2326.0,2.355949596,0.2434991195,4.1769464345,0.3098081595337574,1.387824734662071,-1.2169552555625742,4.8017363356157015,1.8716352967111174,-0.057466969000000034,-0.13896023049999998,0.16161359200000014
2330.0,2.311623538,0.1142474725,4.375629163499999,0.37589156100201876,1.3715704833382478,-1.188708846948298,4.95002893353968,1.8535179468271683,-0.04432605799999978,-0.129251647,0.19868272899999972
2333.0,2.28887211,0.0077472535,4.5348891595,0.4307821659772404,1.343858145475082,-1.1727216310000297,5.079784960490282,1.834885286196153,-0.022751428000000296,-0.10650021900000001,0.1592599960000003
2337.0,2.2625902879999997,-0.123956056,4.738377147,0.5091230147822579,1.2865677127783681,-1.1559350542543483,5.252323095772275,1.802955510654309,-0.026281822000000066,-0.1317033095,0.20348798749999997
2341.0,2.2697491425,-0.2101565095,4.926272561,0.5938570046373306,1.2079615739270475,-1.1460756893098325,5.428083296489306,1.767859381191881,0.007158854500000089,-0.08620045350000001,0.18789541400000065
2354.0,2.4564677584999997,-0.250854107,5.499765452999999,0.8946941718158372,0.8794138142146268,-1.145009293136864,6.028646752759782,1.6984971589857094,0.18671861599999984,-0.04069759749999999,0.5734928919999991
2358.0,2.567773236,-0.1383718315,5.690014462999999,0.9866224088476305,0.7757604552679356,-1.1482067363265176,6.2441068812456875,1.7010604842107786,0.1113054775000002,0.1124822755,0.1902490099999996
2362.0,2.667212667,0.0232417605,5.870849088999999,1.0697594224371285,0.6798336689198232,-1.149006097123931,6.4483666626711384,1.7107817074419445,0.09943943099999997,0.16161359199999997,0.18083462600000022
2365.0,2.765279167,0.166909183,6.001277533999999,1.1238506666149368,0.6142843382026723,-1.1476744109046593,6.6098380908239385,1.7197505989117403,0.09806650000000028,0.14366742249999997,0.13042844499999973
2369.0,2.925715961,0.352451001,6.1725016429999995,1.182472785530922,0.5410066895576903,-1.1439446422931474,6.839869306163222,1.7319178592816191,0.16043679399999977,0.185541818,0.17122410900000062
2373.0,3.107727385,0.5535853924999999,6.2982228959999995,1.223774256950116,0.48451561765838985,-1.1338182419730762,7.045000917953591,1.737216918395517,0.18201142400000014,0.20113439149999995,0.12572125300000003
2376.0,3.2286433795000002,0.720004243,6.367653978,1.2429606614172897,0.45413990735668053,-1.1210284692144619,7.175622716215395,1.7343295794266327,0.12091599450000023,0.16641885050000005,0.06943108200000037
2380.0,3.408203141,0.9666414905,6.493277164499999,1.2514865948132818,0.43229013045096354,-1.0959812491190912,7.39681639332054,1.7187985199851954,0.17955976149999975,0.24663724750000005,0.12562318649999948
2394.0,3.8439126004999995,1.6920393909999998,6.9530129165,1.1457004435206537,0.5122279555215559,-0.9345051320538278,8.122995137139634,1.5647066263476224,0.4357094594999995,0.7253979004999997,0.4597357520000003
2398.0,3.919325739,1.7938324179999998,7.01763874,1.1030672858821882,0.5460698897177259,-0.8846759819093898,8.235666486533097,1.5157840725535974,0.07541313850000053,0.10179302700000004,0.06462582350000012
2401.0,3.989933619,1.8727759505,7.084716225999999,1.042846445371376,0.5905688043265733,-0.811932404015518,8.343863856016904,1.4475960935142962,0.07060787999999985,0.07894353250000008,0.06707748599999963
2405.0,4.0773108705,1.8823864675,7.20200376,0.9850236872528038,0.6302715541509403,-0.7335915552105007,8.487443720389475,1.380460237130035,0.08737725149999997,0.00961051700000004,0.1172875340000008
2408.0,4.1336010414999995,1.8260962964999998,7.2558422685,0.9490524513692006,0.6542523780733424,-0.6731054246533851,8.548013352804974,1.3348474228773588,0.05629017099999967,-0.05629017100000011,0.05383850850000016
2412.0,4.175475436999999,1.7279317299999999,7.3372374635,0.9168092387678574,0.6787672727468548,-0.5920994580805723,8.617157117304933,1.2852415956160184,0.04187439549999983,-0.09816456649999994,0.08139519499999981
2416.0,4.1922448085,1.6249619049999997,7.423437916999999,0.904019466009243,0.6936898378514063,-0.5145597154022202,8.678873673158845,1.2502913607542687,0.016769371500000574,-0.10296982500000018,0.08620045349999916
2419.0,4.204208921499999,1.5208152819999998,7.528761337999999,0.9088156307937233,0.699018328057745,-0.46206719281923875,8.75616920017815,1.2361547493803071,0.011964112999999443,-0.10414662299999988,0.10532342099999958
2433.0,4.278445262,1.2203395259999998,8.007620057499999,1.0644309322307897,0.6491909232425589,-0.30485316978734556,9.16058411914461,1.2835098439200323,0.07423634050000061,-0.300475756,0.4788587194999998
2437.0,4.3071787465,1.207198615,8.17286211,1.1342441023105627,0.6140173028271171,-0.2808723458649435,9.316908946610614,1.3200061387997628,0.028733484500000017,-0.01314091099999981,0.1652420525000018
2441.0,4.3083555444999995,1.2203395259999998,8.2937781045,1.1896670327076428,0.5852385687909826,-0.26541745533853367,9.42538653335901,1.3521310057499265,0.0011767979999994793,0.01314091099999981,0.1209159944999989
2444.0,4.3060019485,1.2694708425,8.4685326075,1.26560979912042,0.5471345405614424,-0.24410000385467495,9.584844992212144,1.4002532560172332,-0.002353595999999847,0.049131316500000244,0.17475450300000084
2448.0,4.3096304089999995,1.3460607789999999,8.669666998999999,1.3399520986091187,0.5124949908971109,-0.21905278375930431,9.77486162339341,1.4512432133637392,0.003628460499999875,0.07658993649999979,0.20113439149999834
2452.0,4.3179660615,1.4226507154999999,8.819316478,1.3935110173650684,0.4901128885695356,-0.19613661068061877,9.922152443179897,1.490152062411445,0.008335652500000457,0.07658993650000001,0.1496494790000007
2455.0,4.313160803,1.542389912,9.0455558935,1.45959441883333,0.4663973546934367,-0.1612300256407322,10.1392506713074,1.5407587355334231,-0.004805258500000242,0.11973919650000009,0.22623941550000026
2459.0,4.3083555444999995,1.6669343669999999,9.306510849999999,1.5187488631711736,0.45067542879147177,-0.11966151884598322,10.389982766245442,1.588718140701061,-0.004805258500000242,0.12454445499999989,0.2609549564999991
2473.0,4.2975682294999995,1.8847400634999998,10.3886746775,1.6597068895499918,0.4520071150107435,0.06366437512499716,11.399381533622753,1.7213339431673624,-0.010787314999999964,0.21780569649999992,1.0821638275000005
2476.0,4.277268464,1.8727759505,10.660416948999998,1.6791585840634684,0.44801031102367644,0.10976201132867139,11.63816157305038,1.7413599536995443,-0.0202997654999999,-0.011964112999999887,0.2717422714999991
2480.0,4.268932811499999,1.809326925,11.051898417,1.7047398749099496,0.43015733810502643,0.1729132596535822,11.985070291421671,1.7666557027326009,-0.008335652500000457,-0.06344902549999998,0.39148146800000205
2484.0,4.2616758905,1.7554884165,11.339135195499999,1.7188613338878356,0.4069758749800378,0.22087665282763838,12.240082024151695,1.7801404842637498,-0.0072569209999988615,-0.05383850849999994,0.28723677849999874
2487.0,4.277268464,1.6872341325,11.6935475265,1.7452419855317298,0.36167759957377693,0.28589365812293116,12.565064197429164,1.80510815682914,0.015592573499999318,-0.068254284,0.3544123310000007
2491.0,4.272463205499999,1.6189798484999998,12.056197443499999,1.772954323394896,0.30198908448482287,0.3463815340092986,12.892902481165997,1.8315415930563164,-0.004805258500000242,-0.06825428400000022,0.3626499169999988
2495.0,4.2712864075,1.5579824855,12.332744973499999,1.7988009042876798,0.24736551488515632,0.38768300542849243,13.144116386482908,1.8566562697275555,-0.0011767979999994793,-0.060997362999999805,0.2765475300000002
2498.0,4.2796220599999995,1.4885514035,12.7290317,1.8337074893275664,0.16582722289048527,0.43671104944626515,13.511446934984622,1.8922733325225602,0.008335652499999568,-0.06943108199999992,0.3962867265000014
2502.0,4.3060019485,1.427455974,13.089328021,1.8678147135700396,0.07469660132685331,0.47854659161656926,13.853150954910216,1.9295901706907472,0.02637988850000017,-0.06109542950000013,0.36029632099999986
2516.0,4.3478763439999994,1.3759710614999998,13.9608450065,1.9245710755156433,-0.2098845691985781,0.5923263508833316,14.686814438819475,2.0245680682678655,0.04187439549999983,-0.05148491250000009,0.8715169854999996
2519.0,4.381415087,1.3520428354999998,14.1224585985,1.9187085145581941,-0.275168609869426,0.6277652613450764,14.848186921640119,2.0374614968257037,0.03353874300000026,-0.023928225999999997,0.16161359200000014
2523.0,4.402989717,1.3651837464999999,14.269656415,1.8995238554202725,-0.3201998499001317,0.6642705679797898,14.995770714166918,2.0376393715942367,0.021574629999999928,0.013140911000000033,0.1471978165000003
2527.0,4.3970076605,1.3963688934999998,14.383413554999999,1.8710121567596931,-0.33911921899175024,0.690384184248129,15.105168252865898,2.0229480115149,-0.005982056499999722,0.03118514699999997,0.11375713999999881
2530.0,4.3837686829999996,1.438243289,14.519922122999999,1.8254468459778772,-0.34418241915178577,0.7247566985369054,15.235291598206773,1.993988464665197,-0.01323897750000036,0.04187439550000027,0.136508568
2534.0,4.334735433,1.4885514035,14.643191713499998,1.7689575194078289,-0.32712880703054914,0.7593979935304888,15.343688608456656,1.9526672206079718,-0.04903324999999992,0.050308114499999945,0.12326959049999964
2538.0,4.2820737225,1.5208152819999998,14.770089764499998,1.723657498672316,-0.3034132731544502,0.7849775390477177,15.453303405365384,1.9181356896385129,-0.05266171049999979,0.03226387849999979,0.1268980509999995
2541.0,4.1910680105,1.5280722029999998,14.936508614999997,1.6634384034907557,-0.26291116253266983,0.8193517986657459,15.588436269625856,1.8728286017596343,-0.0910057119999994,0.007256920999999972,0.1664188504999995
2555.0,3.7888972939999994,1.426279176,15.628367772499999,1.4497350538888139,-0.1251505793435054,0.9493858092563315,16.144221697712414,1.7374486492559476,-0.402170716500001,-0.10179302699999981,0.6918591575000015
2559.0,3.6703348955,1.3879351744999997,15.807927534,1.401771660714758,-0.1096956888170956,0.9778975079169109,16.28767310618477,1.7126822440015463,-0.1185623984999995,-0.03834400150000028,0.1795597615000002
2562.0,3.5206854164999997,1.335273464,16.0222028365,1.338353377014292,-0.09903696307516624,1.013603453754211,16.458710908195908,1.681781806086383,-0.14964947900000025,-0.05266171049999979,0.21427530250000082
2566.0,3.3638770829999998,1.2671172464999998,16.252070712499997,1.2762685248623493,-0.10249969631112298,1.0490423642159556,16.64485078305031,1.6552514664600033,-0.1568083334999999,-0.06815621750000012,0.22986787599999658
2570.0,3.257376864,1.21798593,16.40652545,1.2299038532831201,-0.11555650444529256,1.0759553412817082,16.771048598739977,1.6381992218509074,-0.10650021899999995,-0.0491313164999998,0.1544547375000036
2573.0,3.1232218919999997,1.1449263875,16.6339416635,1.1694159773967527,-0.14460227385698218,1.1113942517434532,16.963295277869303,1.6197656400244458,-0.13415497200000015,-0.07305954250000002,0.22741621349999974
2577.0,2.982006132,1.067159653,16.818306683499998,1.1115932192781806,-0.18776775691730596,1.1471001975807533,17.113930875066004,1.6083330124612842,-0.1412157599999997,-0.07776673449999993,0.18436501999999777
2581.0,2.8969824765,0.9905697164999999,16.904507137,1.0692270970152702,-0.22853690291464152,1.1713480568787102,17.179525528293233,1.6023520123053636,-0.08502365550000013,-0.07658993650000012,0.08620045350000183
2584.0,2.8251977985,0.8791661724999998,17.012282220499998,1.0164675390567335,-0.2932868728343791,1.2017255125096717,17.26766985176222,1.6010520463587854,-0.07178467799999977,-0.11140354400000008,0.1077750834999982
2598.0,2.621709811,0.6733245889999999,17.1068183265,0.8717779987371516,-0.5402980858813806,1.29152270252478,17.31964091980899,1.6492270285882864,-0.20348798749999997,-0.20584158349999992,0.09453610600000317
2602.0,2.579737349,0.6542016215,17.067297527,0.8477954294854976,-0.5882614790554368,1.3107091069919536,17.273554047344717,1.6681627681820002,-0.04197246199999993,-0.019122967499999866,-0.03952079949999998
2606.0,2.5139347275,0.660183678,16.987079129999998,0.8182190799812016,-0.6466165625958672,1.3408195272473598,17.184777207508674,1.6986442966425939,-0.06580262150000005,0.005982056499999944,-0.080218397000003
2609.0,2.4325395325,0.696076017,16.904507137,0.7897073813206222,-0.6927141987995414,1.378656520101345,17.092809363691558,1.7332583505492525,-0.08139519500000025,0.035892338999999995,-0.0825719929999984
2613.0,2.3546747315,0.7236327034999999,16.854199022499998,0.7662588828200785,-0.719627175865294,1.408499904981196,17.033266335931554,1.757523237421506,-0.07786480100000004,0.027556686499999872,-0.05030811450000172
2617.0,2.2362103995,0.7391272105,16.783591142499997,0.7337503801724321,-0.7422763135684244,1.446071607788878,16.948034624189845,1.7833919482102158,-0.11846433199999984,0.015494507000000102,-0.07060788000000073
2620.0,2.0674379529999998,0.7283398955,16.7345578925,0.6980444343351321,-0.7526697492640506,1.4855073222376896,16.877505933944025,1.80568817578929,-0.16877244650000023,-0.010787314999999964,-0.04903324999999725
2624.0,1.8878781914999998,0.6733245889999999,16.666303608499998,0.674061865083478,-0.7542684708588774,1.5108215777086154,16.786397053530976,1.8182030040019062,-0.17955976149999997,-0.05501530650000008,-0.06825428400000177
2638.0,1.0869690859999999,0.441103117,16.4472230475,0.5285747092957347,-0.7017742029466439,1.6086141210271097,16.489002993751985,1.8328987003095092,-0.8009091054999999,-0.23222147199999993,-0.2190805609999984
2641.0,0.8404299049999999,0.443456713,16.3095376815,0.4806113161216785,-0.6679340140797259,1.6317955841520986,16.337196689328053,1.8275338335601767,-0.24653918099999994,0.0023535960000000133,-0.13768536599999948
2645.0,0.64527757,0.44227991499999997,16.2185319695,0.44250728789213833,-0.6412880723895285,1.6435207060669963,16.237388149306867,1.8188522212916836,-0.19515233499999995,-0.0011767980000000344,-0.09100571200000118
2649.0,0.380694153,0.408741172,16.127624324,0.3900130199799049,-0.6037163695818466,1.6533800710115123,16.137294188304704,1.8028447714301317,-0.264583417,-0.03353874299999998,-0.09090764549999975
2652.0,0.08865211599999999,0.35372586549999996,16.062900434,0.33698817197506514,-0.5650800159304481,1.6573768749985793,16.067039289744464,1.783192238160291,-0.292042037,-0.05501530650000003,-0.06472388999999978
2656.0,-0.1113054775,0.3082230095,15.9970978125,0.29648431602403275,-0.5355019210969002,1.6560434434500555,16.000454017170856,1.7655438662748162,-0.19995759349999997,-0.04550285599999998,-0.0658026214999996
2660.0,-0.3531374665,0.22918141049999996,15.901286842,0.2402620248295394,-0.4997959752596002,1.6461840785055397,15.90685869116612,1.7370791224886728,-0.241831989,-0.07904159900000002,-0.09581097050000054
2663.0,-0.569766365,0.151414676,15.792433026999998,0.18297159213282552,-0.46835386878492236,1.6272664547431732,15.803433203803337,1.703182334533165,-0.2166288985,-0.07776673449999996,-0.10885381500000157
2677.0,-1.1959209675,-0.058153434500000004,15.436843898,-0.011545353001942489,-0.3780226080187038,1.5132196601008556,15.483208915262692,1.5597654077023735,-0.6261546025,-0.20956811050000002,-0.3555891289999984
2681.0,-1.3120317034999998,-0.067665885,15.344661388,-0.049649381231482693,-0.3662992314330579,1.4852420321913866,15.400799945956056,1.5305502547100889,-0.11611073599999977,-0.009512450499999991,-0.09218250999999889
2685.0,-1.4592295199999998,-0.0508965135,15.1890298525,-0.09814509982739714,-0.3564398664885419,1.446071607788878,15.25904876154677,1.492583308862728,-0.14719781650000008,0.016769371499999998,-0.1556315355000013
2688.0,-1.607702201,-0.0114737805,15.0227090685,-0.1445097714066265,-0.3535077133451915,1.4092992657786092,15.108495152447556,1.4601284867951412,-0.1484726810000001,0.039422733,-0.16632078399999983
2692.0,-1.7309717914999998,0.0089240515,14.889828961,-0.17675298400796974,-0.3537747487207466,1.3842520456832388,14.99010838751669,1.439636036005761,-0.12326959049999986,0.020397831999999998,-0.13288010750000012
2696.0,-1.8686571575,0.038834334,14.704189076499999,-0.21672102387863987,-0.3561728311129868,1.3557403470226594,14.822501950589688,1.4184001467707084,-0.13768536600000014,0.029910282499999996,-0.18563988450000046
2699.0,-1.9990856025,0.038834334,14.5043295495,-0.2540256913107667,-0.35777155270781363,1.3325588838976705,14.641496748355983,1.40294073817374,-0.13042844499999995,0.0,-0.1998595269999992
2713.0,-2.452839298,0.15376827199999998,13.766869469499998,-0.35474864244335946,-0.322864967667927,1.2936554948707168,13.984518593556881,1.3797220466716538,-0.4537536954999999,0.11493393799999999,-0.7374600800000017
2717.0,-2.5402165494999998,0.1813249585,13.633989362,-0.3723363253157063,-0.30607839092224554,1.2893916555080949,13.869796133399289,1.376535201813982,-0.08737725149999997,0.02755668650000001,-0.13288010749999835
