timestamp,ax,ay,az,gx,gy,gz,acc_mag,gyro_mag,dax,day,daz
116662.0,-1.489041736,1.1220768929999998,7.068044921,0.32477261254035683,0.2815704775657412,-0.06736621846847712,7.309826321509173,0.4350832001854713,0.0,0.0,0.0
116672.0,-1.293889401,0.9700738179999999,7.8772896789999995,0.4348226031956073,0.43345426506204376,-0.14943683588500647,8.04157233886938,0.6318897562625964,0.19515233499999995,-0.15200307499999988,0.8092447579999993
116682.0,-1.8912124524999998,1.4189241885000001,8.7894061955,0.5648548684569408,0.538973380979117,-0.20432744086022817,9.10185100200477,0.807033475707209,-0.5973230514999999,0.4488503705000002,0.9121165165000003
116692.0,-2.1114698114999997,1.7756901155,9.440665822,0.6272085013136902,0.4222632138982561,-0.25655467339690646,9.835524963815566,0.7984466333911384,-0.22025735899999987,0.35676592699999987,0.6512596264999999
116702.0,-2.1976702649999997,1.8044235999999998,9.866862831,0.6301389091277888,0.247463253323268,-0.3087819059335848,10.268431294393096,0.7440829066536019,-0.08620045350000005,0.028733484499999795,0.4261970090000009
116712.0,-2.2587656945,1.9049417625,9.9650273975,0.6258750697651666,0.07692713211090207,-0.35434721671540076,10.393873032421181,0.7233251942261596,-0.06109542950000035,0.10051816250000023,0.0981645664999995
116722.0,-2.319861124,2.0881299845,9.808219064,0.6493235682657104,-0.039250709548100476,-0.38951909180159044,10.292871497994499,0.758212923513758,-0.06109542949999991,0.18318822200000007,-0.15680833350000078
116732.0,-2.390469004,2.2940696345,9.717213352,0.6946235890012232,-0.08721410272215664,-0.40497398232800025,10.26651512809029,0.8087720052481853,-0.07060787999999985,0.20593964999999992,-0.0910057119999994
116742.0,-2.43597186,2.4545064285,9.6992671825,0.7463167507867913,-0.07548898080725874,-0.4169661396184533,10.297297926533018,0.8582237705380734,-0.04550285600000015,0.16043679399999977,-0.017946169500000053
116752.0,-2.3258431804999997,2.5872884695,9.6776925525,0.7628380374861696,0.017240362351199988,-0.44147928896271366,10.284033317011374,0.8815458377831379,0.11012867950000027,0.13278204100000002,-0.021574629999999928
116762.0,-2.2863223809999997,2.820784806,9.806944199499998,0.73192825643335,0.17445264005384123,-0.4774522701755688,10.457545193960609,0.8911303869149134,0.03952079949999998,0.2334963365,0.12925164699999847
116772.0,-2.2803403244999996,2.9991677694999996,10.0140606475,0.6876946318708057,0.33992556110617156,-0.5115594944180419,10.69936306314336,0.9220446898749057,0.005982056500000166,0.17838296349999982,0.20711644800000073
116782.0,-2.2815171225,3.182257925,10.2990418965,0.6298718737522335,0.4755550972786509,-0.5320775851044873,11.018273452195144,0.9518391589246997,-0.0011767980000003675,0.1830901555000004,0.2849812490000012
116792.0,-2.336532429,3.261299524,10.525281311999999,0.55339852724685,0.5525625145351448,-0.5435356716438301,11.263969330291506,0.952368777720949,-0.05501530650000008,0.07904159899999996,0.2262394154999985
116802.0,-2.3557534629999997,3.2457069505,10.7430870085,0.4689298274380805,0.5704154874537948,-0.5520616050398224,11.467262378578507,0.9219766955554805,-0.019221033999999637,-0.015592573500000206,0.21780569650000103
116812.0,-2.4909871665,3.2109914094999996,10.837721181,0.4105747438976501,0.5570933892733221,-0.5589905621702399,11.574613742697702,0.8896039080928427,-0.1352337035000004,-0.03471554100000018,0.09463417249999928
116822.0,-2.6167084195,3.0960574714999995,10.9957063125,0.39325409640085834,0.5224520942797386,-0.557124805199858,11.719142124330837,0.8590652034172495,-0.12572125300000003,-0.11493393800000007,0.15798513150000026
116832.0,-2.7698882924999997,2.8530486845,11.111817048499999,0.3913883394304764,0.47875254046830457,-0.5557931189805863,11.801891630937432,0.8314414100543522,-0.15317987299999958,-0.2430087869999995,0.11611073599999955
116842.0,-2.9447408619999997,2.6208272124999996,11.1908586475,0.3852604884267243,0.44997555176142207,-0.567249460190677,11.864887327338534,0.8201680262070747,-0.17485256950000005,-0.23222147200000043,0.07904159900000174
116852.0,-3.1422467929999995,2.4113571685,11.323738754999999,0.3666081547106609,0.46862788547748546,-0.5952288334293981,11.996475219566957,0.841612142434493,-0.1975059309999998,-0.2094700439999997,0.13288010749999835
116862.0,-3.3457347804999995,2.210222777,11.4470083455,0.3293034872785341,0.5157919178541283,-0.6487877521853481,12.12901587134602,0.8918562869897595,-0.20348798749999997,-0.20113439150000012,0.12326959050000141
116872.0,-3.4953842595,1.9373037075,11.5966578245,0.28160538415078107,0.5770774092086571,-0.7340558127915312,12.26594185031018,0.9752732257653342,-0.1496494790000007,-0.2729190694999999,0.14964947899999892
116882.0,-3.615123456,1.7660795985,11.843295072,0.24456775209420942,0.6154484728137525,-0.8401072541304625,12.508069112089956,1.0697524977749855,-0.11973919649999987,-0.17122410899999996,0.2466372475000007
116892.0,-3.6724923584999996,1.6931181224999998,12.238306933999999,0.22991222236521303,0.5962638136758308,-0.9565521311650201,12.889142939341284,1.150383477423289,-0.057368902499999486,-0.07296147600000014,0.3950118619999987
116902.0,-3.4427225489999995,1.790105891,12.709908732499999,0.23684117949563052,0.5155248824785731,-1.0319608268266873,13.28904050858698,1.177625915502987,0.22976980950000003,0.09698776850000024,0.47160179850000006
116912.0,-3.4641991125,1.9577015395,13.082267233,0.24803223065941815,0.3697689459860226,-1.1118986518972795,13.674025989606422,1.1977343916547143,-0.021476563500000267,0.16759564849999986,0.37235850050000074
116922.0,-3.3349474654999995,1.9971242724999998,13.339593728999999,0.2381728657149022,0.1968364877106685,-1.1843769397448483,13.894428408978529,1.2240178316742338,0.12925164700000025,0.03942273299999988,0.25732649599999924
116932.0,-3.0691872505,2.266512948,13.4246173845,0.19180819413567285,0.06493672014970103,-1.2523260981834914,13.956265375891324,1.2685928492439473,0.26576021499999936,0.2693886755000001,0.08502365550000057
116942.0,-2.7232086384999996,2.429303338,13.398335562499998,0.11053693751655688,0.034026939096881446,-1.31361158953802,13.886424156065921,1.3186931619252622,0.3459786120000006,0.16279039000000006,-0.026281822000001398
116952.0,-2.368894374,2.533449961,13.418635327999999,0.004218460802070294,0.1027737130036861,-1.3559794571301826,13.859646580122792,1.3598751853222293,0.3543142644999997,0.1041466230000001,0.020299765500000788
116962.0,-2.1247087889999996,2.6387733819999997,13.513171434,-0.11089298468396372,0.2349405159402087,-1.3983473247223448,13.931378776139825,1.4222761829688733,0.24418558500000032,0.10532342099999958,0.0945361060000014
116972.0,-1.977412906,2.6986920134999997,13.763437141999999,-0.22120826538551733,0.372434063753818,-1.4457766471452909,14.164226147104864,1.509274773508698,0.14729588299999952,0.059918631499999986,0.2502657079999988
116982.0,-1.9127870825,2.830395323,14.1895360845,-0.3163356909362163,0.4566357281870324,-1.4932077148974887,14.594958937960968,1.5931897995676394,0.06462582350000012,0.1317033095000002,0.42609894250000124
116992.0,-1.8876820584999998,3.0182907369999996,14.5690534395,-0.4061328809513245,0.43958211606579584,-1.5326434293463005,14.997691177312912,1.6453486667795048,0.025105024000000142,0.18789541399999976,0.37951735499999906
117002.0,-1.7583323449999997,3.224230387,14.760577313999999,-0.4929996631523343,0.34099195727914017,-1.5659512927913601,15.210589629153064,1.6767610545907565,0.12934971350000013,0.20593965000000036,0.19152387449999964
117012.0,-1.5285625355,3.367799743,14.749789998999999,-0.5830638885429976,0.22161667243048397,-1.587001708899664,15.206409291758703,1.7051838234256433,0.2297698094999996,0.14356935599999998,-0.010787314999999964
117022.0,-1.2687843769999998,3.516272424,14.526002245999997,-0.6787253848448069,0.12089372129789124,-1.5883351404481878,14.99929087676811,1.7314999157564368,0.2597781585000003,0.14847268099999988,-0.22378775300000164
117032.0,-0.9731138795,3.5426523125,14.2913291115,-0.7631940846535765,0.0763948066890438,-1.5622215241798485,14.755996198255966,1.740355557910531,0.29567049749999985,0.02637988850000017,-0.23467313449999772
117042.0,-0.793554118,3.4803800849999997,14.103335630999998,-0.8322061486066842,0.08119097147352422,-1.523583425199198,14.548087489250726,1.737948647448855,0.17955976149999997,-0.06227222750000028,-0.1879934805000012
117052.0,-0.7108840584999999,3.4420360835,13.987224894999999,-0.9020210640157095,0.10144202678441441,-1.4860134677207681,14.42204662341837,1.741312295647643,0.08267005950000006,-0.038344001499999614,-0.11611073599999955
117062.0,-0.738440745,3.4157542615,13.860326844,-0.978761445896648,0.11529819571599739,-1.4564353728872201,14.294101305480472,1.758542475263591,-0.027556686500000094,-0.026281822000000066,-0.1268980509999995
117072.0,-0.7635457689999999,3.341517921,13.659290518999999,-1.0547024669801734,0.12675628225534016,-1.4388494353441252,14.082789554636015,1.7885055623439832,-0.02510502399999992,-0.07423634050000016,-0.20103632500000046
117082.0,-0.8018897704999999,3.2804224914999995,13.4809075555,-1.117588425258781,0.14567565134695873,-1.4332539097622314,13.897448235079294,1.8233052551661464,-0.03834400149999995,-0.06109542950000035,-0.17838296349999894
117092.0,-0.8796565049999999,3.213443072,13.4689434425,-1.1642201322135655,0.1597971103248448,-1.4319204782137078,13.87488556352943,1.852387618358349,-0.07776673450000005,-0.06697941949999953,-0.011964112999999443
117102.0,-0.9168237085,3.1715686764999997,13.4832611515,-1.210850093839098,0.1331511686346474,-1.4223281486447468,13.88156132651413,1.8726731017147968,-0.03716720350000002,-0.04187439550000027,0.014317709000000178
117112.0,-0.902407933,3.07340411,13.404317618999999,-1.264141977219493,0.07293032812383506,-1.4092713405105775,13.781722814363233,1.8945763332505607,0.01441577549999995,-0.09816456649999994,-0.07894353250000208
117122.0,-0.8665155939999999,2.9512132509999995,13.3096834465,-1.308642637157592,0.003384193419617005,-1.3916854029674826,13.66046054763745,1.9103259578890308,0.035892339000000106,-0.12219085900000026,-0.09463417249999928
117132.0,-0.8689672564999998,2.789599659,13.1480698545,-1.3408841044296835,-0.057103682466750474,-1.3591769003198362,13.468805115865834,1.9101290161731213,-0.0024516624999999515,-0.1616135919999997,-0.16161359200000014
117142.0,-0.8138538834999999,2.6412250445,12.9852794645,-1.3744572579210466,-0.08801346351957004,-1.3181407189469454,13.276140653463544,1.9064034406595376,0.055113372999999966,-0.14837461449999978,-0.16279038999999962
117152.0,-0.831800053,2.4688241374999995,12.8020912425,-1.4138947176991103,-0.07415729458798706,-1.2848328555018855,13.064475654666305,1.9119082205103846,-0.017946169500000164,-0.17240090700000055,-0.18318822200000007
117162.0,-0.8689672564999998,2.3048569495,12.685980506499998,-1.4594600284809265,-0.02752558763320257,-1.2787050044981334,12.92290876938414,1.9405843762219337,-0.0371672034999998,-0.16396718799999954,-0.11611073600000132
117172.0,-0.9060363935,2.160012729,12.611744166,-1.5132859826124314,0.03935717463247213,-1.2978896636360553,12.827417816709001,1.9940163066884973,-0.03706913700000014,-0.1448442205,-0.07423634049999883
117182.0,-0.9168237085,2.072537411,12.607036974,-1.5543204186560702,0.0841213792876227,-1.3245373506555047,12.809112314921178,2.0438658379614685,-0.010787314999999964,-0.08747531800000008,-0.004707191999999694
117192.0,-0.8736744485,2.0498840494999997,12.656070223999999,-1.5796346741269958,0.09051626566692993,-1.3357284018192923,12.850737145128122,2.0706543075755808,0.04314925999999997,-0.02265336150000019,0.04903324999999903
117202.0,-0.8150306815,2.0678302189999997,12.634495593999999,-1.5972206116700907,0.046017351058082495,-1.325069676077363,12.828510269754682,2.07582295136217,0.05864376699999996,0.017946169500000053,-0.021574629999999928
117212.0,-0.624683605,2.0977405014999997,12.658521886499999,-1.6148065492131858,-0.04191408198664382,-1.2922941380541615,12.846358284315006,2.068666507898199,0.19034707650000005,0.02991028249999994,0.024026292500000324
117222.0,-0.4427702475,2.0690070169999997,12.6404776505,-1.633458882929249,-0.14423575471406339,-1.225945446539597,12.816337650095537,2.047421332566792,0.18191335749999998,-0.028733484500000017,-0.018044235999999714
117232.0,-0.29312076849999996,2.046255589,12.506420745,-1.6603718599950015,-0.26281167876530614,-1.1316173817863115,12.676105142014487,2.0264408678073007,0.14964947900000003,-0.02275142799999985,-0.1340569054999996
117242.0,-0.22486648449999996,1.979178103,12.2191839665,-1.6883512332337227,-0.36646678304124936,-1.0487474035723687,12.38047526173437,2.0210638056068935,0.068254284,-0.06707748599999985,-0.2872367785000005
117252.0,-0.192602606,1.8906240534999998,11.949795291,-1.6968771666297149,-0.4599937416678695,-0.9810670258385326,12.099965395500787,2.0133253264662816,0.032263878499999954,-0.08855404950000012,-0.2693886755000001
117262.0,-0.1315071765,1.7972647454999997,11.582242049,-1.686752511638896,-0.5516566886533597,-0.9256423501122008,11.721594839633038,2.001567610143947,0.06109542950000002,-0.09335930800000014,-0.3675532419999996
117272.0,-0.09316317499999999,1.6919413245,11.177619669999999,-1.661705291543525,-0.6483828357988854,-0.8710170351832821,11.305331764698362,1.9850278217903725,0.0383440015,-0.1053234209999998,-0.404622379000001
117282.0,-0.0177500365,1.5745557239999999,10.8580209465,-1.6129425375720556,-0.7677581206475416,-0.815060034035092,10.971606977394408,1.9635068170013856,0.07541313849999999,-0.11738560050000002,-0.3195987234999986
117292.0,0.11630686900000001,1.433339964,10.510865536499999,-1.5199461590380419,-0.913514057140092,-0.753774542680563,10.60878339238574,1.9268939566463796,0.13405690550000002,-0.1412157599999999,-0.34715541000000094
117302.0,0.279097259,1.378226591,10.225982354,-1.3843166228655626,-1.0600676091008039,-0.6847607333982032,10.322214826307393,1.8732253228617897,0.16279038999999998,-0.055113372999999966,-0.2848831824999998
117312.0,0.5771213525,1.4153937945000001,9.868039628999998,-1.2468230750519533,-1.1743796937894246,-0.6141482025210167,9.985720543282541,1.8195915641502485,0.2980240935,0.037167203500000134,-0.3579427250000009
117322.0,1.099129332,1.5662200714999999,9.4813634195,-1.1604886182728018,-1.1637209680474951,-0.5411375892515898,9.672506546571316,1.7302630479540209,0.5220079795,0.15082627699999973,-0.38667620949999915
117332.0,1.771865522,1.5889714995,9.263459656499998,-1.1807396735836917,-0.9795957132791013,-0.4617303442736039,9.564309837195713,1.6021700437445254,0.67273619,0.022751428000000073,-0.2179037630000007
117342.0,2.3093680085,1.445304077,9.231195778,-1.2955858290234228,-0.6902183779691895,-0.35727762452949924,9.6248148016178,1.5108247253212963,0.5375024865,-0.14366742249999986,-0.032263878499998455
117352.0,2.5643409084999997,1.351944769,9.253947206,-1.44720258114417,-0.38431975595989937,-0.2224474491544333,9.697377885019653,1.5137965032747098,0.25497289999999984,-0.09335930800000014,0.022751427999999407
117362.0,2.6577002164999994,1.20229529,9.2611060605,-1.5894940390715118,-0.1349104605206577,-0.06896494006330393,9.709632839040319,1.5966991875615455,0.0933593079999997,-0.14964947900000003,0.007158854500000089
117372.0,2.638577249,0.8323884519999999,9.210797946,-1.6720969819098996,-0.0003473205211468716,0.07838797269482133,9.617367583491918,1.6739334251417957,-0.019122967499999532,-0.369906838,-0.050308114499999945
117382.0,2.498538287,0.5714334955,9.013292015,-1.6720969819098996,0.020170770165298467,0.19749796749717433,9.370627660890545,1.6838410328908044,-0.14003896199999977,-0.2609549564999999,-0.19750593100000025
117392.0,2.327314178,0.44571224249999997,8.722426775999999,-1.597752937091949,-0.018465583486100008,0.2899602752800779,9.038571764881658,1.623955783572918,-0.17122410900000018,-0.12572125300000003,-0.2908652390000004
117402.0,2.231601274,0.333229967,8.5081514735,-1.4573272361349892,-0.0736232238368768,0.3624368177983945,8.802256980629766,1.5035236942478851,-0.09571290399999999,-0.11248227549999995,-0.21427530249999904
117412.0,2.132161843,0.383440015,8.3681125115,-1.2862587895007649,-0.10906387962787366,0.42772085846924235,8.643983304875778,1.3598903397616742,-0.09943943099999997,0.05021004800000001,-0.1400389620000002
117422.0,1.943089631,0.555840922,8.42195102,-1.1258490686084701,-0.1210542915890747,0.49327018918639337,8.661051635220089,1.2351136572553445,-0.1890722119999999,0.172400907,0.05383850850000016
117432.0,1.8964099769999998,0.6504750945,8.539238553999999,-1.0048750621649871,-0.13570982131807108,0.5593535906546547,8.771435671060349,1.158044682014267,-0.04667965400000029,0.09463417249999995,0.11728753399999903
117442.0,1.8102095235,0.7222597724999998,8.699675348,-0.9177412445884223,-0.16555320619792213,0.6438222904634243,8.915316531595542,1.1332096001175989,-0.08620045349999983,0.07178467799999988,0.16043679400000066
117452.0,1.7946169499999998,0.6851906354999999,8.834909051499999,-0.8788378555614688,-0.20951979538491128,0.7469433239882572,9.041335861059515,1.1722537482459345,-0.015592573500000206,-0.03706913699999992,0.13523370349999908
117462.0,1.7084164965,0.5450536069999999,8.903163335499999,-0.8913623382737801,-0.26201231796789276,0.8503296475593933,9.081964971227785,1.2594593214464256,-0.08620045349999983,-0.14013702849999998,0.068254284
117472.0,1.44746154,0.3966789925,8.887570762,-0.9265342133599698,-0.34115252757032366,0.9409279437011671,9.013401865135451,1.3638900581908737,-0.2609549565,-0.14837461449999995,-0.015592573499999318
117482.0,1.1446321879999999,0.276939796,8.721249978,-0.9678356847791636,-0.46132717321639316,1.0091423921861133,8.800402245078299,1.4723780225155807,-0.30282935200000005,-0.11973919649999998,-0.16632078399999983
117492.0,0.8428815675,0.1883857465,8.318981195,-0.9992795365830934,-0.6140103215101091,1.0472464204156535,8.363694557375899,1.5723528014501291,-0.3017506204999999,-0.08855404950000001,-0.40226878300000024
117502.0,0.6968605489999999,0.12493672099999999,7.789912427499999,-1.0118022739661527,-0.7648277128334431,1.0621672401909532,7.822017606546647,1.6543592469762967,-0.14602101850000004,-0.06344902550000002,-0.5290687675000001
117512.0,0.7807074064999999,-0.070215614,7.1673862855,-1.0094041915739125,-0.8487623418911024,1.0635006717394768,7.210122083057043,1.6942042420469177,0.08384685749999998,-0.19515233499999998,-0.622526141999999
117522.0,0.8501384885,-0.29410143349999995,6.7436409390000005,-0.9854233676515104,-0.8690151425312447,1.0648323579587484,6.803375942645874,1.6911872995083161,0.06943108200000003,-0.22388581949999997,-0.4237453464999996
117532.0,0.8752435124999999,-0.5143587924999999,6.428749407499999,-0.9345278213341037,-0.8698145033286581,1.0770898052955047,6.508412641960172,1.6703418715100975,0.02510502399999992,-0.22025735899999999,-0.3148915315000016
117542.0,0.8621026015,-0.599382448,6.166617653,-0.87350936535513,-0.8714132249234848,1.0909459742270875,6.255369972493615,1.646979884096026,-0.013140910999999922,-0.08502365550000002,-0.2621317544999986
117552.0,0.80218397,-0.6400800454999999,6.008632521499999,-0.8130214894687626,-0.8929959664536468,1.1122634257109463,6.095643228142514,1.641820838768572,-0.059918631499999986,-0.040697597499999905,-0.15798513150000115
117562.0,0.7519739219999999,-0.6388051809999999,5.863690234499999,-0.7490708803464383,-0.9422910458469745,1.1538301871764434,5.946124788869736,1.667436265560396,-0.05021004800000006,0.001274864499999917,-0.14494228700000011
117572.0,0.77472535,-0.8016936375,5.6206814475,-0.6845862004730038,-0.984925948814692,1.2060574197131217,5.730180799120679,1.7009738064331437,0.022751428000000073,-0.16288845650000006,-0.24300878699999906
117582.0,0.790219857,-0.9585019709999999,5.394442032,-0.6296955954977821,-0.9814614702494834,1.252689126667906,5.535628084275196,1.711436007756523,0.01549450699999999,-0.1568083334999999,-0.22623941550000026
117592.0,0.719611977,-0.9884122535,5.207723415999999,-0.5942566850360373,-0.9396276734084312,1.292391876492273,5.349316157965006,1.7047926368823219,-0.07060787999999996,-0.02991028250000005,-0.18671861600000028
117602.0,0.47297472949999997,-0.9178043735,5.115540906,-0.5713405119573517,-0.8943276526729184,1.334225673333325,5.218699907421447,1.7048196615246158,-0.24663724750000005,0.07060787999999996,-0.09218250999999977
117612.0,0.29468983249999997,-0.915352711,5.0628791955,-0.5513547466927646,-0.8655506639660359,1.3789916233177277,5.1533929047900715,1.7189496519017506,-0.178284897,0.0024516624999999515,-0.05266171049999979
117622.0,0.140235095,-0.9285916885,5.011394283,-0.5337688091496698,-0.8706138641260714,1.4200260593613665,5.098629332036799,1.7491002404936538,-0.15445473749999997,-0.013238977499999915,-0.05148491250000031
117632.0,0.028929617499999997,-0.9932175119999999,4.880867771499999,-0.5175145578258467,-0.8943276526729184,1.458931193717572,4.980982649214865,1.7877705378205877,-0.1113054775,-0.0646258234999999,-0.13052651150000028
117642.0,-0.0250069575,-1.1415921265,4.7025828745,-0.49992862028275176,-0.9071191707607849,1.4895739393948364,4.839229651788689,1.8142834222534805,-0.053936575,-0.1483746145000001,-0.17828489699999928
117652.0,-0.11120741099999999,-1.2410315575,4.5660743065,-0.47807884337703477,-0.885534683901371,1.5076939476890416,4.733028733005078,1.8126974642160205,-0.0862004535,-0.09943943099999997,-0.136508568
117662.0,-0.17220477399999998,-1.34154972,4.4391762555,-0.4498341800920105,-0.8357072790861848,1.5159528457094786,4.640656846052665,1.7885386426665073,-0.060997362999999985,-0.10051816250000001,-0.1268980510000004
117672.0,-0.2476179125,-1.5091453684999998,4.4727149985,-0.40639991632687966,-0.788276211333987,1.5516587915467788,4.726945507583381,1.7872283801266051,-0.07541313850000003,-0.16759564849999986,0.03353874300000026
117682.0,-0.411683167,-1.6192740479999999,4.5074305395,-0.3419152364534451,-0.7712225992127504,1.579905200161055,4.807126120764329,1.791030644057055,-0.1640652545,-0.11012867950000005,0.03471554099999974
117692.0,-0.5600577815,-1.687528332,4.570879565,-0.2526503718601951,-0.7968021447299792,1.6046853848808704,4.904524093901058,1.8093482397531042,-0.14837461449999995,-0.06825428400000022,0.06344902550000064
117702.0,-0.6259584694999999,-1.7557826159999999,4.584020476,-0.1473982913186771,-0.8119917452100859,1.639591969920757,4.948519003153757,1.8355703959264584,-0.06590068799999993,-0.06825428399999978,0.01314091099999981
117712.0,-0.7120608565,-1.8718933519999998,4.6750261879999995,-0.03761533603898179,-0.7917406898991957,1.6840908845296045,5.085949787709973,1.8612980258150724,-0.08610238700000006,-0.11611073599999999,0.0910057119999994
117722.0,-0.9096648539999999,-2.0669476205,4.9610861685,0.07083418769218987,-0.7730883561831323,1.738449164082968,5.450884202014886,1.9039140171532747,-0.1976039974999999,-0.1950542685000003,0.28605998050000014
117732.0,-1.214847802,-2.19865093,5.302259522,0.17555394281184963,-0.7912066191480854,1.7813493570969885,5.867186475019672,1.957046916415236,-0.3051829480000001,-0.13170330949999975,0.34117335350000033
117742.0,-1.5332697274999998,-2.335159498,5.550073567499999,0.27041433298699347,-0.8660829893878942,1.794406165231158,6.213469444926055,2.010750392716973,-0.3184219254999998,-0.136508568,0.2478140454999993
117752.0,-1.79069429,-2.391449669,5.656671853,0.36047855837765685,-0.9700033837101405,1.7736227844984096,6.397152023527443,2.053433499568722,-0.25742456250000023,-0.05629017100000011,0.1065982855000005
117762.0,-1.9594667364999998,-2.4345008624999998,5.703351507,0.45080981914387536,-1.0595352836789456,1.7312549169062474,6.503423925392099,2.0792037172218634,-0.16877244649999978,-0.04305119349999975,0.04667965400000007
117772.0,-2.0875415855,-2.460880751,5.704528304999999,0.5422057307538104,-1.102168441317411,1.6718334371928483,6.554037467422684,2.0745576321747192,-0.1280748490000001,-0.02637988850000017,0.0011767979999994793
117782.0,-2.1330444415,-2.4321472665,5.704528304999999,0.6162827401962058,-1.0851148291961745,1.595625380733768,6.557961733488816,2.0256601304382156,-0.04550285600000015,0.028733484500000017,0.0
117792.0,-2.1043109569999996,-2.4441113795,5.767977330499999,0.6498576390168206,-0.9950506038055111,1.5250128498565814,6.6084315479782,1.933417918441308,0.02873348450000046,-0.011964112999999887,0.06344902549999976
117802.0,-2.0408619315,-2.438129323,5.892423718999999,0.6498576390168206,-0.8620861854008272,1.4544003189793948,6.695539508012191,1.8112945177123545,0.06344902549999976,0.005982056499999722,0.1244463885
117812.0,-1.9654487929999997,-2.3280006435,5.9654832615,0.6280078621111036,-0.709136001731556,1.387252266667417,6.698474938169005,1.679802546491421,0.07541313850000009,0.11012867950000027,0.07305954250000113
117822.0,-1.906805026,-2.1567765344999996,6.071983480499999,0.5763129549962835,-0.544197151430336,1.3320946263166402,6.71986412172252,1.5500849187006205,0.058643766999999736,0.17122410900000018,0.10650021899999906
117832.0,-1.9307332519999998,-2.034683742,6.2192793635,0.5176925814095501,-0.4104316268989865,1.2985197274960252,6.822543852669222,1.456919082139356,-0.023928225999999775,0.12209279249999971,0.14729588300000085
117842.0,-2.1342212395,-1.9376959734999997,6.482587915999999,0.5080985065113371,-0.3755250418590999,1.2902590841463362,7.094611481506245,1.436645973649901,-0.2034879875000002,0.09698776850000024,0.26330855249999896
117852.0,-2.3545766649999997,-1.8886627235,6.730401961499999,0.57311551180663,-0.45093548285001894,1.2993190882934385,7.376272006770358,1.4899779504308939,-0.22035542549999976,0.049033249999999695,0.2478140455000002
117862.0,-2.5221723134999996,-1.882680667,6.8717157879999995,0.6786346277237032,-0.6062820035822782,1.3171720612120887,7.558195389372384,1.6009575461738932,-0.16759564849999986,0.005982056499999944,0.14131382650000024
117872.0,-2.5233491114999995,-1.999968201,6.802284706,0.7822897319996464,-0.7664264344282699,1.3286301477514313,7.5258382101265315,1.7218143842169804,-0.0011767979999999234,-0.11728753399999992,-0.06943108199999948
117882.0,-2.4766694575,-2.0993095655,6.585557741,0.8483713881386558,-0.8418351300899369,1.319837178979884,7.342381290396063,1.780559063183086,0.046679653999999626,-0.09934136450000008,-0.21672696500000033
117892.0,-2.517367055,-2.0896990485,6.4347314639999995,0.8864754163681959,-0.8138557568512158,1.2985197274960252,7.218708195840358,1.7704105002742678,-0.040697597499999905,0.00961051700000004,-0.15082627700000018
117902.0,-2.623867274,-2.044294259,6.414431698499999,0.8910062911063732,-0.6974126251459101,1.2732054720250994,7.225562435109818,1.7033287276678863,-0.1065002190000004,0.04540478950000004,-0.020299765500000788
117912.0,-2.7758703489999994,-2.0981327675,6.502985748,0.8699558749980696,-0.5508573278559463,1.2377665615633546,7.375394290694276,1.610072383782984,-0.1520030749999992,-0.05383850850000016,0.08855404950000167
117922.0,-3.0691872505,-2.1687406475,6.751976591499999,0.8630269178676521,-0.45546461225894425,1.1940670077519207,7.727388580038823,1.5420958118696628,-0.2933169015000008,-0.07060787999999985,0.24899084349999878
117932.0,-3.4606687184999996,-2.2011025925,6.994985378499999,0.8918056519037866,-0.45253420444484577,1.1407733790422738,8.108692930882476,1.5170591383632988,-0.3914814679999994,-0.03236194499999989,0.24300878699999995
117942.0,-3.643758874,-2.3339827,7.1446348575,0.948294978473835,-0.5186158605838551,1.0674974757265439,8.352859463845725,1.519136806785474,-0.1830901555000004,-0.13288010750000012,0.1496494790000007
117952.0,-3.6138485915,-2.460880751,7.194942972,1.0074494228116788,-0.6174730547460658,0.964643477577266,8.419206618397071,1.5253735121908287,0.02991028249999994,-0.12689805099999996,0.050308114499999945
117962.0,-3.43428883,-2.3507520715,7.15297051,1.0586102591753888,-0.7227268806168359,0.8641858164909764,8.275588328720442,1.5459000453527716,0.1795597615000002,0.11012867949999983,-0.04197246199999949
117972.0,-3.1123365104999996,-2.2154203015,7.076380573499999,1.1060413269275866,-0.8159885491971529,0.7719905440836279,8.041758992154506,1.5764308197466665,0.32195231950000025,0.13533177000000007,-0.07658993650000134
117982.0,-2.750765325,-2.0310552814999996,7.052452347499999,1.154537045523501,-0.8543596128022483,0.7234948254877135,7.837664163734604,1.608207356027586,0.36157118549999945,0.18436502000000043,-0.023928225999999775
117992.0,-2.611903161,-2.056258372,7.0823626299999995,1.2147578860343133,-0.8407687339169684,0.692850334481197,7.8236881991604434,1.631738450734554,0.1388621640000003,-0.025203090500000247,0.029910282500000385
118002.0,-2.5808160805,-2.081363396,7.318212562499999,1.2619219184109562,-0.8016000548437117,0.6797935263470274,8.034234272008058,1.6422937662168593,0.031087080499999864,-0.025105024000000142,0.23584993249999986
118012.0,-2.6789806469999995,-2.0669476205,7.6330060275,1.26991552638509,-0.7773504502165024,0.6574114240194521,8.3493706821977,1.627620639779738,-0.0981645664999995,0.014415775499999839,0.31479346500000016
118022.0,-2.8046038335,-2.207084649,8.075972408,1.2533942396857118,-0.7629619558630613,0.6129125094106047,8.829402904246225,1.5902106182401485,-0.12562318650000037,-0.14013702849999987,0.4429663805000006
118032.0,-3.06555879,-2.2489590445,8.502169417,1.1945068307234232,-0.7536366616696555,0.5319082881670438,9.313557444615602,1.5092187427534467,-0.2609549565,-0.04187439549999983,0.4261970089999991
118042.0,-3.1590161645,-2.231012875,8.7056574045,1.0668709025250778,-0.7515038693237184,0.395212355821596,9.52603130482541,1.3635117874287888,-0.09345737450000025,0.017946169500000053,0.20348798750000086
118052.0,-2.912378917,-2.1818815584999998,8.643385177,0.8603618000998567,-0.6995436721625953,0.21135239109950535,9.378201608490395,1.1288284234361186,0.24663724750000027,0.04913131650000002,-0.06227222749999939
118062.0,-2.4502895689999997,-2.033506944,8.453038100499999,0.6133523323821072,-0.5460611630714659,0.031223940318178555,9.03288008288337,0.8218021732159914,0.4620893480000001,0.14837461449999978,-0.19034707650000193
118072.0,-2.1642295885,-1.721067075,8.328591712,0.39778322580978365,-0.3480797393714891,-0.08548622676268225,8.775614023735491,0.5354427090386812,0.2860599804999997,0.3124398690000001,-0.12444638849999912
118082.0,-2.115098272,-1.3834241155,8.28661925,0.28666858431081665,-0.2319018977124866,-0.13584770232897864,8.663461293157308,0.3929528796452358,0.04913131650000002,0.3376429594999999,-0.04197246200000038
118092.0,-2.0157569075,-1.2577028625,8.3932175355,0.30612027882429343,-0.2252417212868762,-0.14916980050945133,8.723026596239366,0.4082830972496504,0.09934136449999986,0.12572125300000003,0.1065982855000005
118102.0,-2.1247087889999996,-1.205041152,8.7056574045,0.4707938390792104,-0.30118274237040144,-0.14783811429017968,9.041846186514844,0.5781124382449951,-0.10895188149999946,0.052661710500000014,0.3124398690000003
118112.0,-2.288675977,-0.9118223169999998,9.240708228499999,0.7468490762086495,-0.4615924632626963,-0.15290131445021524,9.56347981802355,0.8911958015695768,-0.16396718800000043,0.2932188350000001,0.5350508239999989
118122.0,-2.285145583,-0.8016936375,10.028476423,1.0442217648219474,-0.6875532602013942,-0.17341940513666057,10.3167311872792,1.2622214028526777,0.0035303940000002143,0.11012867949999983,0.7877681945000017
118132.0,-2.0528260444999997,-0.783747468,10.610206900999998,1.2581904044701921,-0.9228393513334978,-0.21285511958547246,10.835351648405414,1.5747961341723704,0.2323195385000001,0.017946169500000053,0.5817304779999972
118142.0,-1.4950237924999998,-0.6723439239999999,10.938239343500001,1.3290699707229339,-1.0715256956401467,-0.2746746816911116,11.060389795480633,1.729173352864505,0.5578022519999999,0.11140354400000008,0.3280324425000032
118152.0,-0.9083899894999999,-0.567020503,11.136922072499999,1.261387847659846,-1.084315468398761,-0.3167755139077188,11.188284849465706,1.6932767238240365,0.5866338029999999,0.10532342099999992,0.19868272899999795
118162.0,-0.505042475,-0.25575743199999995,11.2063531545,1.1079070838979685,-1.0070410157667122,-0.3189065609244039,11.220643064858157,1.5307812085952657,0.40334751449999995,0.311263071,0.06943108200000125
118172.0,-0.4343365285,0.208685512,11.057978539999999,0.9245794445977361,-0.8738113073157251,-0.2847993366819307,11.068472670337522,1.3036502645801682,0.0707059465,0.46444294399999997,-0.14837461450000156
118182.0,-0.508572869,0.47209213099999997,10.761033178,0.7609722805157876,-0.7184630412542138,-0.23390553569377606,10.783383161200003,1.072371089217648,-0.0742363405,0.26340661899999995,-0.2969453619999989
118192.0,-0.793554118,0.48160458149999996,10.491742569,0.6706410197495691,-0.5668462891334664,-0.19260406427458224,10.532726771604933,0.8989829911907181,-0.284981249,0.009512450499999991,-0.26929060900000046
118202.0,-1.152673641,0.33793715899999993,10.2582462325,0.668242937357329,-0.4413414079518061,-0.19287109965013738,10.328333544802357,0.8237293990025406,-0.35911952300000005,-0.14366742250000003,-0.2334963365
118212.0,-1.4578565889999997,0.067469752,10.0954558425,0.7202031345184521,-0.3480797393714891,-0.2421661790434652,10.200398358367826,0.8357610413291822,-0.3051829479999997,-0.27046740699999994,-0.16279038999999962
118222.0,-1.5320929295,-0.277332062,9.9542400825,0.7878852575815402,-0.28705953806326334,-0.33409616140451054,10.075272573845666,0.902655306621887,-0.07423634050000039,-0.344801814,-0.1412157599999997
118232.0,-1.362143685,-0.508376736,9.794980086499999,0.8446416195271438,-0.2300378860713566,-0.4502740030635131,9.902298582613176,0.984420424564858,0.16994924450000015,-0.231044674,-0.15925999600000118
118242.0,-1.2543686015,-0.2809605225,9.712408093499999,0.8931373381230583,-0.14476982546517367,-0.5627203307817518,9.797104183294001,1.0655077558562787,0.10777508349999998,0.22741621350000002,-0.08257199300000018
118252.0,-1.1957248345,-0.015200307499999998,9.845288201,0.9291103193359134,-0.06003409028084896,-0.6461226344175528,9.9176453198296,1.1332804314021356,0.05864376699999996,0.26576021499999997,0.1328801075000019
118262.0,-1.0113598145,0.19554460099999998,9.963850599499999,0.9419000920945279,0.0055152404363020815,-0.7076751611476367,10.016955881630018,1.17813850419638,0.18436502,0.2107449085,0.11856239849999817
118272.0,-0.8269947945,0.38108641899999995,10.178125901999998,0.9419000920945279,0.06067288078707888,-0.7481790170986692,10.21877654740721,1.2044205343555936,0.18436502,0.18554181799999997,0.21427530249999904
118282.0,-0.612719492,0.44090698399999995,10.366021316,0.9624181827809731,0.06973288493418145,-0.7567049504946616,10.393470164876748,1.22626009308458,0.21427530250000004,0.05982056499999999,0.18789541400000154
118292.0,-0.4559111584999999,0.3619634515,10.4630090845,1.023970709511057,0.09131737179359531,-0.7305913342263224,10.4791904089484,1.261197277976156,0.15680833350000006,-0.07894353249999997,0.09698776850000002
118302.0,-0.5791807489999999,0.378732823,10.521652851499999,1.102576848362378,0.19310497376990463,-0.6898221882289868,10.544385597023082,1.314845956305307,-0.12326959050000003,0.01676937150000002,0.058643766999999514
118312.0,-0.7911024555,0.39422733,10.636586789499999,1.1414802373893314,0.36737086359378246,-0.6695711329180966,10.673248653216271,1.3734132611145375,-0.21192170650000008,0.01549450699999999,0.11493393800000007
118322.0,-0.9731138795,0.24222425499999997,10.819775011499999,1.1257600568166184,0.5981278253169607,-0.6735679369051636,10.866147178814836,1.441799697103877,-0.18201142399999992,-0.15200307500000002,0.18318822200000007
118332.0,-1.3106587724999998,0.1775984315,11.105834991999998,1.0684696241199045,0.844606712942104,-0.6991492277516446,11.184316630457761,1.5309465960246675,-0.3375448929999999,-0.06462582349999998,0.28605998049999926
118342.0,-1.6003472134999999,0.116503002,11.4793702905,1.0087828543602024,1.0396559834987302,-0.7548391935242795,11.590971763387499,1.6334961338663199,-0.289688441,-0.06109542949999999,0.373535298500002
118352.0,-1.8122689199999997,-0.009218250999999998,11.89350512,0.9922615676608243,1.1390472484120515,-0.8441040581175295,12.030788322217946,1.7304691022096477,-0.21192170649999986,-0.125721253,0.4141348295
118362.0,-1.835020348,-0.030694814499999997,12.098267972,1.0223719879162303,1.1459744602132167,-0.948024452439776,12.236679687379752,1.8047859450806056,-0.022751428000000296,-0.021476563499999997,0.204762852
118372.0,-1.811092122,0.0410898635,12.377169097999998,1.0658045063521093,1.122792997088228,-1.0388880386278527,12.509039049093218,1.8643743499830863,0.023928225999999997,0.07178467799999999,0.2789011259999974
118382.0,-1.6087809325,0.1560238015,12.585462344,1.1257600568166184,1.118262122350051,-1.076992066857393,12.688829021137137,1.9177481043871105,0.20231118950000004,0.11493393800000001,0.20829324600000199
118392.0,-1.744014636,0.148864947,13.046374894,1.186246187373734,1.1302542796405037,-1.1401450605115557,13.163268807474115,1.9961426584072826,-0.13523370349999997,-0.007158854500000006,0.46091254999999975
118402.0,-1.7835354355,0.12611351899999998,13.488066409999998,1.2627212792083695,1.1369144560661142,-1.1889078144830254,13.606058898517563,2.0737746504180565,-0.03952079949999998,-0.022751428000000018,0.4416915159999988
118412.0,-1.744014636,0.5031792115,13.867583765,1.335199567055938,1.14011364458502,-1.2163531169706363,13.985873438893957,2.13591477161414,0.03952079949999998,0.3770656925,0.37951735500000083
118422.0,-1.6674246994999997,0.6779337145,14.1967930055,1.3618455087461356,1.1427770170235632,-1.2525913882297943,14.310444818061113,2.1747523275528957,0.07658993650000023,0.17475450299999995,0.3292092405000009
118432.0,-1.5272876709999998,0.9089783884999999,14.7187029185,1.2968285034508429,1.1747531942493514,-1.289096694864508,14.825621907488708,2.173379746724489,0.14013702849999987,0.23104467399999995,0.521909913
118442.0,-1.371754202,1.1172716345,15.282487227,1.150273206160879,1.2171210618415136,-1.3202735112928825,15.384551385704464,2.1325182936170743,0.15553346899999987,0.2082932460000001,0.5637843085000007
118452.0,-1.328604942,1.31605243,15.7027021795,0.9570879472453825,1.2360386856038803,-1.3375924134604222,15.813666267772625,2.057416446813485,0.04314926000000008,0.19878079550000005,0.4202149524999985
118462.0,-1.3693025395,1.5111066985,16.046229129,0.7625710021106146,1.2291114738027147,-1.337060088038564,16.175286772088487,1.969761210735748,-0.04069759750000013,0.19505426849999985,0.34352694950000107
118472.0,-1.388425507,1.7266568654999999,16.1181118735,0.5944329632904888,1.187810002383521,-1.3200064759173273,16.269683453783855,1.8726078730135505,-0.019122967499999977,0.21555016699999996,0.0718827444999981
118482.0,-1.314287233,1.7050822355,15.927764796999998,0.45507365850649745,1.1393142837876065,-1.3005547814038505,16.07259617452006,1.7878959173680586,0.07413827400000006,-0.021574629999999928,-0.19034707650000016
118492.0,-1.284278884,1.7014537749999998,15.567468475999998,0.34209326003714857,1.12652276569974,-1.2789720398736888,15.712746162005029,1.7383471514577578,0.030008349000000045,-0.003628460500000097,-0.36029632099999986
118502.0,-1.2663327144999998,1.7409745744999998,15.2980798005,0.24963095225424495,1.1486395779810121,-1.2632501139717238,15.448813436485485,1.7255403046226803,0.017946169500000053,0.03952079949999998,-0.26938867549999834
