timestamp,ax,ay,az,gx,gy,gz,acc_mag,gyro_mag,dax,day,daz
140432.0,-0.3994248545,0.24663724749999996,9.864313102,0.29706725599419886,-0.04128052746816989,0.30920253028331546,9.875476855349092,0.4307658775548242,0.0,0.0,0.0
140442.0,0.164359454,0.609385231,9.964831264499999,0.31332150731802205,-0.09164200303446626,0.30040956151176795,9.98479977364778,0.44363783463079337,0.5637843084999999,0.36274798350000004,0.10051816249999845
140452.0,0.4541459614999999,0.7542294515,10.0666242915,0.3626165867113499,-0.09110967761260799,0.3089354949077603,10.105049987312018,0.48500814666020414,0.2897865074999999,0.1448442205,0.10179302700000115
140462.0,0.626448802,0.9721332144999999,10.140860632,0.40258637191127206,-0.07778583410288328,0.3395799859142767,10.206592744197684,0.532391763337209,0.17230284050000005,0.21790376299999992,0.07423634050000061
140472.0,0.7557985155,1.1420824589999998,10.1803814315,0.4153761446698864,-0.05167396316379612,0.37448657095416327,10.27208595320432,0.561647337619328,0.12934971350000002,0.16994924449999993,0.03952079949999998
140482.0,0.8622987344999999,1.3420400525,10.2378484005,0.416442540842855,-0.02076418211097654,0.41552100699780203,10.361378792499332,0.58865375930071,0.10650021899999995,0.1999575935000002,0.057466969000000034
140492.0,0.9401635354999999,1.535917523,10.338366563,0.4140427131213628,0.025867524843807957,0.47414312591378754,10.494035129629532,0.630009683244426,0.07786480099999993,0.19387747049999993,0.10051816249999845
140502.0,0.9377118729999999,1.614959122,10.4388847255,0.4012529403627484,0.0836902829623801,0.558344790347002,10.604608000052307,0.692644851651777,-0.0024516624999999515,0.07904159899999996,0.10051816250000023
140512.0,0.8503346214999999,1.624569639,10.614914093,0.3690114730906571,0.14577513511432239,0.6585354160577365,10.772125912848036,0.7688229649876959,-0.08737725149999997,0.00961051700000004,0.17602936749999998
140522.0,0.691172692,1.5347407249999998,10.8052611695,0.3205157544947427,0.1924068420691069,0.7525964454354669,10.93557578384625,0.8403285972977714,-0.15916192949999997,-0.08982891400000015,0.19034707650000016
140532.0,0.5282842355,1.3995070215,10.983644133,0.26828852195806435,0.22331662312192646,0.830136188113819,11.08504138815417,0.9005415792694778,-0.16288845649999995,-0.13523370349999975,0.1783829635000007
140542.0,0.36314024949999996,1.233088171,11.1763448055,0.225920654365902,0.2393038390701945,0.8823634206504973,11.25002491062548,0.9417386450416577,-0.16514398600000008,-0.16641885050000016,0.19270067249999911
140552.0,0.24222425499999997,1.0199896665,11.351099308499998,0.19128110470157053,0.23077616034495022,0.9066112799484545,11.399408187309822,0.9548770130907888,-0.12091599449999998,-0.2130985045,0.17475450299999906
140562.0,0.1116977435,0.8248373314999999,11.5450748455,0.17555917879960561,0.18814300270648474,0.9122068055303483,11.57504152033745,0.9478080347750207,-0.13052651149999997,-0.19515233499999995,0.1939755370000018
140572.0,0.0303025485,0.6728342565,11.7665090025,0.18435214757115304,0.11673111103188476,0.9047455229780725,11.785769312483554,0.930685944852344,-0.081395195,-0.152003075,0.22143415699999913
140582.0,-0.058251501,0.550741464,11.930476190499999,0.22085745420586644,0.01654048532115026,0.8866272600131193,11.943323303403663,0.9138706149840508,-0.0885540495,-0.12209279249999994,0.1639671879999991
140592.0,-0.091790244,0.538777351,11.9952000805,0.27228532594513133,-0.0975045639919152,0.8631787615125756,12.007644708854079,0.9103427997467128,-0.033538742999999996,-0.011964112999999998,0.06472389000000156
140602.0,-0.09659550249999999,0.6261546025,12.0118713855,0.31465319353729376,-0.19476303655929925,0.8463904394376421,12.028568263061437,0.9237510750112616,-0.0048052584999999925,0.08737725149999997,0.016671304999999137
140612.0,-0.12650578499999998,0.7470705969999999,12.037074476,0.333038491877802,-0.27043876759652136,0.8487885218298823,12.060898811088297,0.9510487468481953,-0.029910282499999996,0.1209159944999999,0.02520309050000158
140622.0,-0.1575928655,0.8763222439999999,12.1220981315,0.33943337825710923,-0.32453001177432966,0.87596853427119,12.154753773577704,0.9939092613767604,-0.03108708050000003,0.12925164700000003,0.0850236554999988
140632.0,-0.18632634999999997,0.9218251,12.180741898499999,0.3362359350674556,-0.3615693891601533,0.9186016919096555,12.216994402125577,1.04288834281893,-0.02873348449999996,0.045502856000000036,0.058643766999999514
140642.0,-0.242616521,0.9075073909999999,12.264490689499999,0.3175836013513922,-0.3796893974543584,0.9609695595018178,12.300413176548743,1.080965252298006,-0.05629017100000003,-0.014317709000000067,0.08374879099999966
140652.0,-0.3635325155,0.8523940179999999,12.269295948,0.2832110870626159,-0.3764902089354528,1.000672309326185,12.304241322054649,1.1060282401058525,-0.12091599449999998,-0.055113372999999966,0.0048052585000011305
140662.0,-0.522694445,0.756681114,12.247721318,0.24510705883307565,-0.3599706675653265,1.0225220862319018,12.282200669037687,1.1113990141390573,-0.15916192949999997,-0.09571290399999988,-0.021574629999999928
140672.0,-0.600559246,0.7051962015,12.2776316005,0.20460320288204326,-0.3469138594311569,1.0238555177804256,12.312522520107823,1.1002235308265473,-0.07786480100000004,-0.05148491250000009,0.029910282499999497
140682.0,-0.6208590115,0.6130136915,12.3339217715,0.15957196285133754,-0.33438937671884555,1.0179929568229766,12.364743344024934,1.0833231866492259,-0.02029976550000001,-0.09218251,0.056290171000000555
140692.0,-0.6543977544999999,0.5698644315,12.3913887405,0.10734473031465926,-0.319201521567991,1.0099993488488426,12.421734855066488,1.0646648238637046,-0.033538742999999926,-0.04314925999999997,0.057466969000000034
140702.0,-0.7872778619999999,0.5435826094999999,12.386583481999999,0.046324529006433496,-0.2992175016326558,0.9956108544954013,12.42347531256457,1.0406334844026592,-0.1328801075,-0.026281822000000066,-0.0048052585000011305
140712.0,-0.915352711,0.538777351,12.4572894285,-0.01469392697254026,-0.29148918370482496,0.967364445881125,12.502488213347911,1.0104334846300749,-0.1280748490000001,-0.004805258499999909,0.0707059465000004
140722.0,-1.1105050459999999,0.6045799725,12.584089413,-0.054930747548017536,-0.30214790944675435,0.9367217002038607,12.647452105254965,0.9857780124561714,-0.19515233499999984,0.06580262149999994,0.12679998449999985
140732.0,-1.2684901775,0.6608701435000001,12.735013756499999,-0.08157668923821497,-0.33199129432660535,0.9191357626607658,12.815084551232111,0.9806546415215249,-0.15798513150000004,0.05629017100000011,0.15092434349999984
140742.0,-1.4252985109999998,0.6776395149999999,12.807975232499999,-0.10795559555285725,-0.3826198052684569,0.9167376802685255,12.904840204903028,0.999229853646778,-0.1568083334999999,0.016769371499999797,0.07296147599999969
140752.0,-1.5330735944999998,0.6967624825,12.75649032,-0.15511962792950004,-0.43458000242958006,0.921533845053006,12.867161221008557,1.0306049219069633,-0.10777508349999998,0.019122967500000088,-0.051484912499999425
140762.0,-1.5558250225,0.6369419175,12.5985051885,-0.2249327980092732,-0.46548978348239967,0.9172700056903839,12.710177791501074,1.0529291360229371,-0.022751428000000296,-0.05982056499999999,-0.1579851314999985
140772.0,-1.5474893699999999,0.5902622635,12.483571250499999,-0.3144646979780783,-0.464156351933876,0.9028815113369426,12.592961687239633,1.0627907549603024,0.008335652500000235,-0.04667965399999996,-0.11493393800000185
140782.0,-1.6348666214999998,0.5997747139999999,12.43090954,-0.4119902059210175,-0.4439052966229858,0.8844944676671823,12.552291845289115,1.0719693584606957,-0.08737725149999997,0.009512450499999936,-0.052661710499998904
140792.0,-1.7305795254999998,0.5135742605,12.456014563999998,-0.5076499568935747,-0.4303161630669579,0.8626446907614653,12.586141697665253,1.0895119739725954,-0.09571290399999999,-0.08620045349999994,0.025105023999998366
140802.0,-1.9053340284999998,0.32803244249999997,12.4859248465,-0.5907869704830726,-0.4380444809947888,0.8389309022146184,12.634722882435476,1.11566897891498,-0.17475450299999995,-0.18554181800000003,0.029910282500001273
140812.0,-2.0538067095,0.13170330949999998,12.5721253,-0.6302226849318844,-0.48254339560363624,0.8021585602043498,12.739458478311413,1.1284888643458366,-0.1484726810000001,-0.196329133,0.08620045350000005
140822.0,-2.150794478,-0.052563644,12.531427702499998,-0.6216967515358922,-0.547560400898929,0.7456674883050494,12.71476936818951,1.1146072162955154,-0.09698776850000002,-0.18426695349999997,-0.04069759750000124
140832.0,-2.1591301305,-0.035892338999999995,12.490730104999999,-0.5929180174997576,-0.6096452530508714,0.6758543182252762,12.676019475229008,1.0862772065670239,-0.008335652500000013,0.016671305000000004,-0.04069759749999946
140842.0,-2.1244145894999997,0.09228057649999999,12.354319603499999,-0.5742656837836942,-0.6629388817605182,0.6185656308578144,12.535982846123554,1.0732625383381114,0.03471554100000018,0.12817291549999998,-0.13641050150000034
140852.0,-2.059788766,0.25742456249999995,12.247721318,-0.5838580133526551,-0.6933145920622275,0.5884552106024081,12.42238602883157,1.0806733263145003,0.06462582349999968,0.16514398599999996,-0.10659828549999872
140862.0,-2.0298784835,0.3615711855,12.1160180085,-0.6350188497163648,-0.6973113960492945,0.5793952064553056,12.290200680308537,1.1068834300949209,0.02991028249999994,0.10414662300000005,-0.13170330950000064
140872.0,-2.0586119679999997,0.3052810145,11.952050820499998,-0.7162901063354808,-0.6690667327642702,0.5804616026282742,12.131883553200701,1.1391476995770715,-0.028733484499999573,-0.056290171,-0.16396718800000087
140882.0,-2.1459892194999997,0.1497475455,11.6839370095,-0.8260730616151761,-0.6301633437373166,0.5777964848604787,11.880323147943294,1.1888445318180134,-0.08737725149999997,-0.155533469,-0.2681138109999992
140892.0,-2.1735459059999997,-0.072961476,11.403761019,-0.9401181109282417,-0.5688761070535358,0.5442233313691158,11.609280363611404,1.2262222971705294,-0.027556686500000094,-0.2227090215,-0.2801759905000001
140902.0,-2.1710942435,-0.3447037475,11.1655574905,-1.044305540626043,-0.4806776386332543,0.473076729740819,11.379900920542322,1.2431519000856497,0.0024516624999999515,-0.27174227149999997,-0.2382035284999997
140912.0,-2.268082012,-0.48954796799999994,10.8770458475,-1.1165167930980564,-0.39167980941555947,0.36835697462115924,11.121779515650717,1.2392375410411962,-0.09698776850000002,-0.14484422049999995,-0.28851164299999965
140922.0,-2.3471236109999998,-0.549368533,10.710626996999999,-1.149292331121258,-0.3178698353487192,0.2412551171739242,10.978539324483446,1.2166010546441923,-0.07904159899999996,-0.05982056500000005,-0.16641885050000127
140932.0,-2.380662354,-0.584084074,10.5838270125,-1.1564865782979785,-0.2699064421746631,0.10722430259627164,10.86398185196284,1.1923958002182027,-0.03353874300000026,-0.03471554099999996,-0.12679998449999808
140942.0,-2.3554592635,-0.5865357365,10.472423468499999,-1.13516912681412,-0.26777364982872603,-0.029204594373621117,10.750063526128072,1.1666895826855814,0.025203090500000247,-0.0024516625000000625,-0.11140354400000163
140952.0,-2.229836077,-0.4512039665,10.382692621,-1.093867655394926,-0.30347959566602606,-0.15684052257196643,10.629019710765615,1.1459691365937632,0.12562318649999993,0.13533177000000002,-0.08973084749999849
140962.0,-2.1795279625,-0.24653918099999997,10.1576300035,-1.0483023446131101,-0.37249340494838584,-0.2490357949793149,10.391754952609832,1.1400473541184004,0.050308114499999945,0.20466478550000003,-0.22506261750000078
140972.0,-2.070576081,-0.09453610599999998,9.912169554,-1.0096659909617116,-0.4409748888088873,-0.3009959921404381,10.126565441934966,1.1421395944232529,0.1089518814999999,0.152003075,-0.24546044949999946
140982.0,-1.9221034,-0.0789435325,9.5339270635,-0.9968744728738452,-0.48174403480622285,-0.3244444906409819,9.726072116417443,1.1537331828660264,0.1484726810000001,0.015592573499999984,-0.3782424904999999
140992.0,-1.8299208899999997,-0.0897308475,9.102924795999998,-1.0131287241976685,-0.47934595241398265,-0.3457619421248407,9.28546724350924,1.1729252638220413,0.09218251000000022,-0.010787315000000006,-0.43100226750000203
141002.0,-1.795205349,-0.1579851315,8.7031076755,-1.036311932651909,-0.442306575028159,-0.37880277019434533,8.887733386989076,1.1887258164845185,0.03471554099999974,-0.06825428399999998,-0.39981712049999807
141012.0,-1.78088764,-0.306359746,8.3655627825,-1.0472359484401417,-0.38448556223883884,-0.43849128528329934,8.558507915999323,1.1986687976855153,0.014317708999999956,-0.1483746145,-0.33754489300000046
141022.0,-1.7449953009999997,-0.434434595,8.148835817499998,-1.0528332193512873,-0.3202679177409595,-0.5341510362558566,8.344894678689226,1.2232524908770597,0.03589233900000033,-0.128074849,-0.21672696500000121
141032.0,-1.7365615819999998,-0.49553002449999994,7.929853323,-1.064024270515075,-0.25978004185459197,-0.6567237642941663,8.132882014240305,1.2770745557639973,0.008433718999999895,-0.061095429499999965,-0.21898249449999874
141042.0,-1.6480075324999999,-0.5074941374999999,7.716754818499999,-1.071750843113654,-0.1968958289052363,-0.7907545788718189,7.907071775038883,1.3463694296744322,0.0885540494999999,-0.011964112999999998,-0.21309850450000045
141052.0,-1.5534714264999998,-0.41178123349999995,7.6149617915,-1.0629578743421064,-0.13827370998925076,-0.9050666635604394,7.7827039223665455,1.4029058154375533,0.09453610600000006,0.09571290399999999,-0.10179302699999937
141062.0,-1.4684477710000001,-0.2201592925,7.5551412265,-1.0317810579137319,-0.09830392478932862,-1.007388336287859,7.699673234793077,1.4453605339801505,0.08502365549999968,0.19162194099999996,-0.05982056499999988
141072.0,-1.3643011479999998,-0.0214765635,7.509638370499999,-0.9886155748534081,-0.09324072462929306,-1.0638776628579076,7.632591127585688,1.4552973129570925,0.10414662300000033,0.198682729,-0.04550285600000059
141082.0,-1.1967054995,0.1389602305,7.3121324395,-0.9505115466238678,-0.10150136797898222,-1.0758698201483605,7.410714865043883,1.4391909525399913,0.16759564849999986,0.160436794,-0.19750593099999936
141092.0,-1.062648594,0.215550167,7.097857136999999,-0.9100076906728355,-0.10656456813901777,-1.0662774905793997,7.180199150865227,1.4058512336597582,0.13405690550000005,0.07658993649999998,-0.21427530250000082
141102.0,-0.9093706545,0.1760293675,6.998417706,-0.8601802858576494,-0.09244136383187966,-1.0414955605303322,7.059446983520912,1.3539455426750502,0.1532779394999999,-0.03952079949999998,-0.09943943099999952
141112.0,-0.854355348,0.28978650749999996,7.072654046499999,-0.8521866778835153,-0.04820948459858737,-1.0145825834645799,7.12996034645762,1.3258673037061683,0.05501530649999997,0.11375713999999995,0.07423634049999972
141122.0,-0.7669780964999999,0.3113611375,7.283398955,-0.9121404830187725,-0.003710569989739945,-1.0036585676763472,7.330286590314948,1.3562243728681125,0.08737725150000009,0.02157463000000004,0.2107449085000006
141132.0,-0.691564958,0.2693886755,7.4425608845,-1.0032711045824043,0.04265410158948942,-1.0153819442619931,7.479474905975058,1.4280660959513287,0.07541313849999998,-0.04197246199999999,0.15916192949999974
141142.0,-0.6256642699999999,0.1569064,7.418632658499999,-1.0693527607214137,0.09195092631206925,-1.0577498118541555,7.446622450405174,1.5069190304026483,0.06590068800000004,-0.1124822755,-0.023928226000000663
141152.0,-0.5419154789999999,0.020397831999999998,7.237896099,-1.0882721298130322,0.13538344474794814,-1.12223449172759,7.258183546718112,1.5691001115488763,0.08374879099999999,-0.136508568,-0.18073655949999878
141162.0,-0.45689182349999996,-0.015494507,7.0499026185,-1.0546972309924174,0.18148108095162238,-1.1963097558407332,7.064709275579674,1.6051413220418185,0.08502365549999996,-0.035892338999999995,-0.1879934805000003
141172.0,-0.361080853,-0.029812216,6.985276795,-0.9819536530985458,0.23264191731533215,-1.2655906004986484,6.994666543402302,1.618664513293679,0.09581097049999998,-0.014317709,-0.06462582350000012
141182.0,-0.3276401765,0.040795663999999995,7.0116566835,-0.9006823964794297,0.26914722395004553,-1.3036946287281885,7.0194260320006485,1.6072612396442196,0.03344067649999999,0.07060788,0.02637988850000017
141192.0,-0.33597582899999995,0.148472681,7.136103071999999,-0.8319356225726251,0.27927362427011665,-1.2970327069733258,7.145550430084683,1.5660154789390879,-0.008335652499999957,0.107677017,0.12444638849999912
141202.0,-0.2929246355,0.13533177,7.3025219224999995,-0.7805077508333602,0.2539593687991909,-1.2658576358742033,7.309647457890649,1.508669368819047,0.04305119349999997,-0.013140911000000005,0.16641885050000038
141212.0,-0.2833141185,0.033538742999999996,7.379111859,-0.7410720363845482,0.1916074812716935,-1.243208498171073,7.384624808658724,1.4599549855783904,0.009610516999999985,-0.101793027,0.07658993650000046
141222.0,-0.231829206,-0.083748791,7.3036987205,-0.704832019796138,0.12019558959709349,-1.2461389059851713,7.307856980030595,1.4366966725437962,0.05148491249999998,-0.117287534,-0.07541313850000009
141232.0,-0.125328987,-0.167497582,7.064318394,-0.6664609561910427,0.07702836120751774,-1.2701197299075733,7.067415168699588,1.4364218401492932,0.10650021900000001,-0.083748791,-0.23938032650000007
141242.0,-0.024712757999999998,-0.22741621349999996,6.869166058999999,-0.6251594847718489,0.0719651610474822,-1.3034275933526331,6.872973970610411,1.4473862155339985,0.100616229,-0.05991863149999996,-0.1951523350000004
141252.0,0.0661948875,-0.2321234055,6.707552467,-0.5865231311204504,0.09488133412616774,-1.3370024921732482,6.711894154116991,1.4630746785391289,0.0909076455,-0.004707192000000027,-0.16161359199999925
141262.0,0.15720059949999998,-0.28360831799999997,6.609387900499999,-0.5524159068779773,0.1375144917646332,-1.3508586611048312,6.617337389448851,1.465910192303417,0.09100571199999999,-0.05148491249999998,-0.09816456650000127
141272.0,0.2470295135,-0.360296321,6.487295108,-0.5215061258251577,0.19453788908579198,-1.3433973785525555,6.501986991508589,1.4541424092106656,0.08982891400000001,-0.076688003,-0.12209279249999927
141282.0,0.29253236949999994,-0.499158485,6.381971687,-0.4905963447723381,0.2566244865669862,-1.3236786486635235,6.408143022282072,1.434805236099116,0.04550285599999995,-0.138862164,-0.10532342099999958
141292.0,0.32126585399999996,-0.6104639625,6.3304867745,-0.45435807351317986,0.3120474169640662,-1.298898463943708,6.367962060233789,1.4110110095374444,0.028733484500000017,-0.11130547750000003,-0.05148491250000031
141302.0,0.39422733,-0.661948875,6.2826303225,-0.41811805692476955,0.35894615929440576,-1.2778480478354044,6.329694721708871,1.3916036390278317,0.07296147600000003,-0.05148491249999998,-0.04785645199999955
141312.0,0.518771785,-0.7074517309999999,6.196429868999999,-0.38507722885526496,0.40504379549808006,-1.2623931573089946,6.258223009612419,1.380572863732629,0.124544455,-0.045502855999999925,-0.08620045350000094
141322.0,0.634882521,-0.6990180119999999,6.182014093499999,-0.34830488684499633,0.454605910266963,-1.2450725098122029,6.253718913478952,1.3704701319400645,0.11611073599999999,0.008433719000000006,-0.014415775499999839
141332.0,0.7294186269999999,-0.6966644160000001,6.2945944355000005,-0.3008755644220505,0.4967067424835702,-1.2261548860498364,6.374897014804455,1.3567238104635795,0.09453610599999995,0.002353595999999847,0.11258034200000111
141342.0,0.8240527994999999,-0.7242211024999999,6.4442439144999994,-0.23932303769196644,0.5113622722125666,-1.205903830738946,6.536959450022646,1.3315295486031746,0.09463417249999995,-0.027556686499999872,0.14964947899999892
141352.0,0.9185889054999999,-0.790023724,6.602229045999999,-0.1697751576584964,0.5145597154022202,-1.1944457441996033,6.712478784892848,1.3116005263453219,0.09453610600000006,-0.06580262150000005,0.15798513149999938
141362.0,1.0023376965,-0.8330749175,6.6728369260000004,-0.10529222311431391,0.5116293075881218,-1.1971091166381467,6.798929865573088,1.3061091982562634,0.08374879099999999,-0.04305119349999997,0.07060788000000162
141372.0,1.074220441,-0.7373620135,6.6560675545,-0.054930747548017536,0.5193558801867006,-1.2170948819027336,6.782395416435304,1.3244122729967869,0.0718827445000001,0.09571290399999999,-0.016769371500000574
141382.0,1.214259403,-0.5314223634999999,6.639298182999999,-0.015760323145508796,0.5457365318305949,-1.239476984230309,6.770311365734145,1.3543928323779622,0.140038962,0.20593965000000003,-0.016769371500000574
141392.0,1.3830318494999998,-0.3447037475,6.627334069999999,0.008754571528003558,0.5907677718613007,-1.2474705922044431,6.778875618098822,1.3803137618699268,0.16877244649999978,0.18671861599999995,-0.011964113000000332
141402.0,1.515911957,-0.2154521005,6.636944587,0.01461713248545251,0.6445937259928057,-1.2400093096521674,6.811273164386672,1.397618624724009,0.13288010750000012,0.129251647,0.009610517000001373
141412.0,1.6572257835,-0.1699492445,6.715986185999999,0.023942426678858212,0.6853611266608893,-1.2213569759361038,6.91951952766564,1.4007162369305715,0.14131382650000002,0.04550285599999998,0.07904159899999907
141422.0,1.8211929714999997,-0.12081792799999999,6.7566837835,0.051654764542024174,0.7130734645240553,-1.1885831832421545,6.998865376714934,1.3870371170211286,0.16396718799999976,0.04913131650000002,0.04069759750000035
141432.0,1.940932168,-0.1016949605,6.8057170335,0.09428792218048967,0.7338585905860557,-1.1352895545325077,7.077806431786639,1.3551092265484308,0.11973919650000031,0.01912296749999999,0.04903324999999992
141442.0,2.1072529519999996,-0.07776673449999999,6.8368041139999995,0.14518346849789632,0.7629026146684934,-1.0630783020604941,7.154610622662482,1.316523495918294,0.1663207839999996,0.02392822600000001,0.031087080499999864
141452.0,2.210222777,-0.0669794195,6.793752920499999,0.1955449440641927,0.8090002508721676,-0.9866049555551106,7.144553849710171,1.290778280490573,0.10296982500000018,0.010787314999999992,-0.043051193500000196
141462.0,2.2736718025,-0.12326959049999998,6.744719670499999,0.23711170552968963,0.8774817347326692,-0.9135943422856838,7.118709313566277,1.288739996254118,0.0634490255000002,-0.056290170999999986,-0.04903324999999992
141472.0,2.2628844875,-0.14955141249999998,6.7135345235,0.26748916116065097,0.9760718935193248,-0.8595013527786236,7.086223086170464,1.327783629995909,-0.010787314999999964,-0.026281821999999996,-0.031185146999999525
141482.0,2.2473899805,-0.10532342099999999,6.798558179,0.2824117262652025,1.0951818883216777,-0.82059796375167,7.161162479703329,1.3973406062064162,-0.015494507000000102,0.044227991499999994,0.08502365549999968
141492.0,2.1922766074999998,-0.032263878499999996,7.0008693685,0.29280341663157666,1.2108256592295703,-0.7904875434962638,7.336163138620157,1.475365437531531,-0.05511337300000019,0.07305954249999999,0.2023111895000005
141502.0,2.1731536399999998,-0.0669794195,7.3036987205,0.31198807576949833,1.2952943590383397,-0.7686377665905468,7.620439487688039,1.5381573561271946,-0.019122967499999977,-0.034715541,0.30282935199999983
141512.0,2.2113995749999997,-0.209470044,7.6245723084999995,0.32984104868814834,1.3312673402511948,-0.7585131115997277,7.941553290584189,1.5672938426114895,0.03824593499999995,-0.1424906245,0.32087358799999954
141522.0,2.3168210625,-0.2321234055,7.837670813,0.33170680565853033,1.3307350148293366,-0.753182876064137,8.176223142990693,1.5646627526113306,0.10542148750000013,-0.022653361499999997,0.21309850450000045
141532.0,2.442444249,-0.19024901,7.921419604,0.32584424470108136,1.3291345479052579,-0.739593742508109,8.291599190621472,1.5555616420435687,0.12562318649999993,0.041874395499999995,0.08374879099999966
141542.0,2.4700009355,-0.0932612415,7.8136445205,0.3255772093255262,1.3507190347646716,-0.7046871574682225,8.195281750695132,1.5578916586234253,0.027556686500000094,0.0969877685,-0.10777508349999998
141552.0,2.4053751119999998,0.1077750835,7.788539496499999,0.3447636137926999,1.40294626730135,-0.6436669561599967,8.15222622273161,1.5815901266707717,-0.06462582350000012,0.201036325,-0.025105024000000142
141562.0,2.2581772955,0.330484105,7.977709774999999,0.3889954930259922,1.466362805672564,-0.5631950603382943,8.297736902053469,1.6182478325163618,-0.14719781649999986,0.2227090215,0.1891702784999998
141572.0,2.08097113,0.43345393,8.232682675,0.44788464731753286,1.5073989870454545,-0.46380554075422514,8.502669414987922,1.6395023461656688,-0.1772061654999999,0.10296982500000001,0.2549729000000003
141582.0,1.9324984490000001,0.458558954,8.6313229975,0.5118352564398571,1.5207210852259272,-0.352423863879703,8.856893544401071,1.6427935136886422,-0.14847268099999988,0.02510502400000003,0.39864032250000037
141592.0,1.8929776495,0.352058735,9.006035094,0.5624637673817086,1.4996706691176238,-0.24264090860000767,9.209559047465625,1.6199543869983388,-0.0395207995000002,-0.10650021900000001,0.3747120964999997
141602.0,1.873854682,0.192798739,9.3040591875,0.5829801127389019,1.462900072436607,-0.1384534789022062,9.49284046466159,1.5808579315056166,-0.019122967499999977,-0.15925999600000001,0.2980240935000005
141612.0,1.8283518259999998,0.08629852,9.574624661,0.5784509833299767,1.4258606950507835,-0.05345245367157834,9.748012886389773,1.539656268980071,-0.04550285600000015,-0.106500219,0.2705654734999996
141622.0,1.757743946,0.014415775499999998,9.757812883,0.5589992888164999,1.384826259007145,0.0030368728984701333,9.914876895550629,1.4933965297703349,-0.07060787999999985,-0.07188274450000001,0.18318822200000007
141632.0,1.6632078399999999,0.032361944999999996,10.0068037265,0.5512709708886689,1.3315343756267501,0.029682814588667564,10.144132709858242,1.441445297714124,-0.09453610600000006,0.017946169499999998,0.24899084349999967
141642.0,1.5913250954999998,-0.0095124505,10.2186273665,0.5816484265196302,1.2489296874591105,0.04114090112801034,10.341796328572002,1.3783442349555128,-0.0718827445000001,-0.041874395499999995,0.21182364000000042
141652.0,1.6057408709999998,0.004903325,10.486839244,0.6466654318149231,1.1426112107446238,0.06432410958225102,10.609063347765174,1.3144862687366596,0.014415775500000061,0.0144157755,0.26821187750000064
141662.0,1.5566095545,0.07786480099999998,10.8160484845,0.734064539437791,1.0171080748922154,0.10402685940661803,10.927762856662392,1.2586425908688172,-0.0491313164999998,0.07296147599999998,0.3292092404999991
141672.0,1.491983731,0.147295883,11.056605608999998,0.8361209221189074,0.8598940518603223,0.16584642151225717,11.157788272040639,1.2107935465462953,-0.06462582350000012,0.069431082,0.24055712449999866
141682.0,1.4620734485,0.2215322235,11.2338117745,0.9357774770785318,0.6973532839513423,0.24765000355323138,11.330722054650902,1.1930262417504065,-0.02991028249999994,0.0742363405,0.17720616550000123
141692.0,1.465701909,0.2334963365,11.333153138999998,1.019979141511746,0.5582592692136543,0.34197806830651695,11.429924002250877,1.2120065428803009,0.003628460500000097,0.011964113000000026,0.09934136449999897
141702.0,1.491983731,0.24310685349999997,11.391796906,1.071139977875456,0.4700608007933728,0.437370783903519,11.49165580511958,1.2488359424912137,0.026281821999999844,0.009610516999999957,0.05864376700000129
141712.0,1.454914594,0.21917862749999997,11.482802618,1.0823310290392436,0.43675293734831305,0.5239722760582256,11.576682241062619,1.2793516056116727,-0.03706913700000003,-0.023928225999999997,0.0910057119999994
141722.0,1.3328218015,0.17720616549999998,11.6156827255,1.0647450914961487,0.42982398021789553,0.5969828893276524,11.693241687364715,1.294148111301596,-0.12209279249999994,-0.04197246199999999,0.13288010750000012
141732.0,1.112466376,0.025203090499999997,11.7688625985,1.0508889225645657,0.4095729249070053,0.6526728551002875,11.821351170482735,1.3031114166373319,-0.22035542549999998,-0.152003075,0.1531798730000009
141742.0,0.9928252459999999,-0.0920844435,12.090912984500001,1.0447610715608135,0.3786631438541857,0.6931749657220679,12.131956079403698,1.3097339448400294,-0.1196411300000001,-0.117287534,0.3220503860000008
141752.0,0.8180707429999999,-0.1507282105,12.396193999,1.013851290507994,0.3283016682878894,0.7222189898045055,12.424072778072283,1.2873525911340593,-0.17475450299999995,-0.058643766999999986,0.30528101449999845
141762.0,0.6443949715,-0.175931301,12.648813302999999,0.960025336376489,0.2374380820998126,0.7509977238406401,12.666438910606082,1.2417822154185696,-0.1736757714999999,-0.025203090500000025,0.25261930399999954
141772.0,0.5402483484999999,-0.24173392249999998,12.766100836999998,0.9195232257547086,0.10953686385516412,0.7829721557371762,12.779813541198333,1.2126692392838578,-0.1041466230000001,-0.06580262149999996,0.11728753399999903
141782.0,0.4983739529999999,-0.31479346499999994,12.780418545999998,0.9101961862320508,-0.029023080131413706,0.8141489721655509,12.794005226416639,1.221531000625816,-0.041874395499999995,-0.07305954249999996,0.014317709000000178
141792.0,0.44090698399999995,-0.318323859,12.721774779,0.926450437555874,-0.14600028258782966,0.8338677020545828,12.733392422106103,1.254974836517843,-0.05746696899999998,-0.0035303940000000478,-0.05864376699999774
141802.0,0.32479624799999995,-0.31479346499999994,12.728933633499999,0.944303410474524,-0.2224753744224652,0.8365328198223781,12.736967416711446,1.2810118586095185,-0.11611073599999999,0.0035303940000000478,0.007158854499998313
141812.0,0.23143693999999998,-0.339898489,12.695492956999999,0.950165971431973,-0.27603429317841516,0.8373321806197915,12.702150820284634,1.2962004030933132,-0.09335930799999997,-0.025105024000000087,-0.03344067649999971
141822.0,0.11532620399999999,-0.280077924,12.7169695205,0.932580033888878,-0.28562662274737605,0.8482561964080241,12.720576148986616,1.292604603881195,-0.11611073599999999,0.05982056500000005,0.021476563500000267
141832.0,-0.012748645,-0.186718616,12.743349409,0.8896798408748574,-0.25711666941604866,0.8709053341111544,12.744723634876157,1.2712652366575494,-0.128074849,0.09335930799999997,0.02637988850000106
141842.0,-0.17318543899999997,-0.152003075,12.837885514999998,0.827326208018108,-0.2256728176121188,0.9007487189910055,12.839953373254042,1.2436820855212765,-0.16043679399999997,0.034715541000000016,0.09453610599999784
141852.0,-0.3192064575,-0.12562318649999998,12.913298653499998,0.7513851869345828,-0.21315008022905949,0.9321925707949353,12.917854158566003,1.2161396485978258,-0.14602101850000002,0.026379888500000004,0.07541313850000009
141862.0,-0.430511935,-0.001176798,13.0162684785,0.6773081774921874,-0.21954496660836673,0.9532429869032389,13.023386157809485,1.1897976936189891,-0.11130547750000003,0.12444638849999998,0.1029698250000024
141872.0,-0.568197301,0.1185623985,13.067753391,0.6154886153865483,-0.23819730032443012,0.955374033919924,13.080637748336041,1.1611648178621006,-0.13768536599999998,0.1197391965,0.051484912499999425
141882.0,-0.7442266685,0.2095681105,13.067753391,0.5715220261995592,-0.27816708552435226,0.9564404300928926,13.090606205024928,1.1483869775544475,-0.17602936749999998,0.09100571199999999,0.0
141892.0,-1.0123404795,0.37598696099999995,12.976747679,0.5438114336656452,-0.31547175295647906,0.9705618890707787,13.021604346842528,1.1563925297300899,-0.268113811,0.16641885049999997,-0.0910057119999994
141902.0,-1.2757470985000001,0.5064154059999999,12.815134087,0.5219616567599281,-0.3210672785383729,0.9937450975250194,12.888430815679412,1.1675005299059253,-0.2634066190000002,0.13042844499999995,-0.16161359200000014
141912.0,-1.5187558855,0.4861156405,12.697846553,0.48758739714189986,-0.28882406593702964,1.0211904000126302,12.797587074883046,1.1679001001772222,-0.24300878699999995,-0.0202997654999999,-0.1172875340000008
