timestamp,ax,ay,az,gx,gy,gz,acc_mag,gyro_mag,dax,day,daz
69382.0,-0.372064301,-0.320089056,9.7247644725,-0.04416206606321252,0.14787302087521959,0.04166799056211262,9.737141926327654,0.15985286928678816,0.0,0.0,0.0
69392.0,-1.3859738445,-0.701960007,8.8472654305,-0.03483502654055482,0.1201606830120536,0.007028440897781165,8.982637527295973,0.1253054978740278,-1.0139095435,-0.38187095100000007,-0.8774990420000002
69402.0,-0.07394214099999999,-0.7976729109999999,8.965827828999998,-0.007656759428499123,0.11270114578902984,-0.012955579037553908,9.0015453213562,0.11370145669825157,1.3120317035,-0.09571290399999988,0.11856239849999817
69412.0,0.2707616065,-0.7102956595,8.958668974499998,0.046169194703006004,0.16332791140162936,-0.03720343833551113,8.9908610024918,0.17375758114777826,0.3447037475,0.08737725149999997,-0.007158854500000089
69422.0,0.439534053,-0.5930081255,8.983773998499998,0.08906938771702662,0.18011623347656283,-0.05425705045674772,9.014047042077175,0.2081322678354699,0.1687724465,0.11728753399999992,0.025105024000000142
69432.0,0.7519739219999999,-0.497197155,9.1430339945,0.1114514900446019,0.19663577484668915,-0.07184473332909458,9.187368525039734,0.23716814349707369,0.3124398689999999,0.09581097050000004,0.15925999600000118
69442.0,0.955559976,-0.30812494299999993,9.400360490499999,0.11704701562649572,0.23180939526213087,-0.09715898880002033,9.453825320979082,0.27726425789038595,0.20358605400000007,0.18907221200000007,0.25732649599999924
69452.0,1.024991058,0.18995481049999996,9.705641505,0.10878811760605855,0.2699134234916711,-0.10888236538566626,9.76146333920231,0.31071446732529456,0.06943108199999992,0.4980797534999999,0.3052810145000002
69462.0,1.418826122,0.44845810449999995,10.013276115499998,0.0850725837299596,0.29496064358704166,-0.08943067087218944,10.123234700489958,0.31974516518693863,0.3938350640000001,0.258503294,0.3076346104999992
69472.0,1.6786042804999999,0.5047482755,10.3604315255,0.06188937527571892,0.33306467181658195,-0.05585577205157453,10.507665037804896,0.3433398282398703,0.25977815849999986,0.056290171000000055,0.34715541000000094
69482.0,1.6390834810000001,0.558586784,10.763877106499999,0.05682792044493536,0.33999362894699936,0.0014329153158873446,10.902277937054317,0.34471311769781593,-0.03952079949999976,0.05383850849999994,0.4034455809999997
69492.0,1.6259425699999999,0.55505639,11.193604509499998,0.07574554420730191,0.2904315141781164,0.07391120316345587,11.32468802007882,0.30911279146635684,-0.013140911000000255,-0.0035303939999999923,0.42972740299999934
69502.0,1.5420957124999999,0.5382870184999999,11.535954660999998,0.11864748255057453,0.2179532263305479,0.1386611730831935,11.651011202528478,0.2842670485728011,-0.08384685749999998,-0.01676937150000002,0.3423501514999998
69512.0,1.4666825739999998,0.6507692939999999,11.8963490485,0.18579553486255238,0.1326851657243649,0.18635753088169454,12.004073439072062,0.29471081299213614,-0.07541313850000009,0.1124822755,0.3603943875000013
69522.0,1.3397845229999998,0.776490547,12.249486515000001,0.2662674306842549,0.035959018578839166,0.2295247592712703,12.346978578535623,0.3533737550793527,-0.12689805099999996,0.12572125300000003,0.35313746650000155
69532.0,1.3254668139999999,0.8889728224999999,12.514069932,0.31449611390461424,-0.07622201909309637,0.28201728185425173,12.615430282679439,0.42924509213291295,-0.014317708999999956,0.1124822754999999,0.264583416999999
69542.0,1.2356379,0.9093706545,12.77021963,0.3363458908103312,-0.1660192091082046,0.3358432359857569,12.862047481082454,0.503469577249007,-0.08982891399999993,0.020397832000000116,0.25614969799999976
69552.0,0.9974343714999999,0.7573675794999999,12.9593899085,0.34354013798705185,-0.25235366588735614,0.38460598995722645,13.019764505414793,0.5741288763038558,-0.23820352850000004,-0.1520030750000001,0.18917027850000068
69562.0,0.7999284405,0.628017866,13.0647133295,0.3288863535873075,-0.3554746994121891,0.4205789711700816,13.104236961072969,0.6414165311937524,-0.1975059309999999,-0.1293497134999999,0.10532342099999958
69572.0,0.574865823,0.523871243,13.014405214999998,0.29611081556410596,-0.446603575646569,0.45255340306661773,13.037624587857827,0.7013850237220047,-0.2250626175,-0.104146623,-0.05030811450000172
69582.0,0.35696205999999997,0.3790270224999999,12.777378484499998,0.2694648738739085,-0.5049586591869994,0.4906574312961579,12.787982027365699,0.7538828029779945,-0.21790376300000003,-0.14484422050000006,-0.23702673050000023
69592.0,0.17377383799999999,0.34911674,12.4398335915,0.25853911275642405,-0.5230786674812046,0.5260980870871548,12.445944706173703,0.7856417519681315,-0.18318822199999998,-0.02991028249999994,-0.3375448929999987
69602.0,0.11042287899999999,0.35392199849999995,12.310483878,0.20764531176826936,-0.4871056862683494,0.5602053113296279,12.316065414885015,0.7708557037061001,-0.063350959,0.004805258499999965,-0.1293497134999999
69612.0,0.08286619249999999,0.40658370899999996,12.133375779,0.1122508508420153,-0.383185291946103,0.5841861352520301,12.140468891797692,0.7076048771025252,-0.027556686499999997,0.052661710500000014,-0.1771080989999998
69622.0,0.030204481999999998,0.497589421,12.182409028999999,-0.01218588883742441,-0.2539523874821829,0.5937784648209908,12.192604204700679,0.645920410174374,-0.05266171049999999,0.09100571200000002,0.04903324999999903
69632.0,-0.08119906199999999,0.556233188,12.158480802999998,-0.1630050254900104,-0.12445070231345566,0.5959112571669279,12.171468444030154,0.6302133305949501,-0.111403544,0.05864376700000001,-0.023928226000000663
69642.0,-0.2727229365,0.452086565,12.051980583999999,-0.2983675262869346,-0.02266310033714637,0.600173351200298,12.06353994727334,0.6706301874732992,-0.19152387450000002,-0.104146623,-0.10650021899999906
69652.0,-0.5109264649999999,0.267721545,11.9646033325,-0.39082983406983823,0.04342030113111493,0.6065699829088573,11.978499638200297,0.7228834110113647,-0.23820352849999993,-0.18436502,-0.08737725149999953
69662.0,-0.9466359245,0.06541035549999999,12.008831324,-0.4230713013419295,0.06873455660204068,0.6164276025241213,12.046261986875606,0.750797412385038,-0.43570945950000006,-0.20231118950000002,0.04422799150000145
69672.0,-1.4554049264999998,-0.10581375349999998,11.938223444,-0.40868280698848825,0.023701571242082997,0.6214908026841569,12.027076912092209,0.744200389027264,-0.5087690019999997,-0.17122410899999996,-0.07060788000000073
69682.0,-1.6625213744999998,-0.31283213499999996,11.7910256275,-0.36498325317705416,-0.056236253828509296,0.6177610340726449,11.91176421080101,0.7197249381276667,-0.20711644800000006,-0.20701838149999996,-0.1471978165000003
69692.0,-1.723616804,-0.30685007849999996,11.612642664000001,-0.3196849777707934,-0.1223196552967706,0.6071023083307155,11.743869954127543,0.6969460494648898,-0.06109542950000013,0.005982056499999999,-0.17838296349999894
69702.0,-1.6625213744999998,-0.27095773949999996,11.3779695295,-0.2863771143257336,-0.15802560113407058,0.5809886920623765,11.501981830601837,0.6667321820098904,0.06109542950000013,0.035892338999999995,-0.23467313450000127
69712.0,-1.504536243,-0.25899362649999996,11.236753769499998,-0.2762507140056625,-0.15456112256886184,0.5604706013759311,11.33998863674213,0.6436853987819537,0.15798513149999982,0.011964112999999998,-0.14121576000000147
69722.0,-1.365674079,-0.24222425499999997,11.128978686,-0.2818462395875563,-0.10659772939480566,0.5431516992083913,11.215074893784932,0.6211393942061132,0.13886216400000007,0.01676937149999999,-0.1077750834999982
69732.0,-1.3764613940000001,-0.17043957699999998,11.150553316,-0.3036960164932733,-0.03651926926872935,0.546614432444348,11.23648231750217,0.6263802880185976,-0.010787315000000186,0.07178467799999999,0.021574629999999928
69742.0,-1.4673690395,-0.050700380499999996,11.218807599999998,-0.3521917350891877,0.01864011641129944,0.5705970016960021,11.314476850145734,0.670796102067854,-0.09090764549999997,0.11973919649999998,0.06825428399999822
69752.0,-1.6673266329999998,-0.035107807,11.260681995499999,-0.4212055443715475,0.04262094033370153,0.6068352729551605,11.383504278692097,0.739918714229357,-0.19995759349999975,0.015592573499999998,0.041874395500000716
69762.0,-1.8552220469999998,-0.11532620399999999,11.289415479999999,-0.49101871445132067,0.02157052422539792,0.6438746503409841,11.4414182187816,0.8100242161864734,-0.18789541399999998,-0.080218397,0.028733484500000017
69772.0,-2.0036947279999997,-0.276939796,11.231948510999999,-0.5445776332072707,-0.02879095134089846,0.6657244272467011,11.41263140416699,0.8605711652743745,-0.14847268099999988,-0.16161359200000003,-0.057466969000000034
69782.0,-2.036056673,-0.320089056,11.059547604,-0.5658950846911295,-0.0671620149459938,0.6577308192725672,11.249958977017691,0.8702630715767209,-0.032361945000000336,-0.04314925999999997,-0.17240090699999833
69792.0,-2.0623384949999997,-0.25664003049999995,10.848900762,-0.57308933186785,-0.06929306196267887,0.6265540028441924,11.046164579479072,0.8519406254058922,-0.02628182199999962,0.06344902550000003,-0.21064684200000094
69802.0,-2.0228176955,-0.22545488349999998,10.687287170000001,-0.5861461400020197,-0.03838328090985929,0.5897816608339239,10.879371690854605,0.8323959281187613,0.03952079949999954,0.03118514699999997,-0.16161359199999836
69812.0,-1.9714308494999997,-0.278116594,10.572353232,-0.6066642306884651,0.017840755613886036,0.5666001977089351,10.758184851377079,0.8302984797056453,0.05138684600000043,-0.052661710500000014,-0.11493393800000185
69822.0,-1.9246531289999997,-0.3511761365,10.6046171105,-0.6154571994600124,0.07726048999803299,0.5362227420779738,10.783576327273153,0.8199338856295176,0.04677772049999995,-0.07305954250000002,0.03226387850000023
69832.0,-2.1246107225,-0.40746630749999996,10.8931287535,-0.5794842182471572,0.08498880792586389,0.4863953372627878,11.105865727363991,0.7613182519690169,-0.1999575935000002,-0.056290170999999944,0.28851164299999965
69842.0,-2.3089757425,-0.405014645,11.1206430335,-0.4963489499869114,0.0031852258848896514,0.4357668263209362,11.365038817384214,0.6605037113740302,-0.18436502,0.0024516624999999515,0.22751428000000118
69852.0,-2.4813766494999996,-0.39422733,11.198409768,-0.39269559104022017,-0.13937326741800718,0.389669190117262,11.476803849349373,0.5705057516097818,-0.17240090699999966,0.01078731500000002,0.07776673449999905
69862.0,-2.4729429305,-0.4541459614999999,11.1133861125,-0.3002332832573166,-0.33122509478497986,0.34969940491733986,11.394254963680801,0.5675735737244367,0.008433718999999673,-0.05991863149999993,-0.0850236554999988
69872.0,-2.2048291195,-0.4996488175,10.791433793,-0.24214348976318928,-0.4988308081832473,0.3230534632271424,11.02569561051486,0.6417391876225871,0.2681138110000001,-0.04550285600000009,-0.32195231950000114
69882.0,-1.8360990795,-0.6001669799999999,10.3604315255,-0.22002667748191715,-0.5689110136385757,0.31639154147228005,10.538975359502333,0.6871499747203726,0.36873003999999976,-0.1005181624999999,-0.43100226750000026
69892.0,-1.5308180649999998,-0.6983315465,10.0109225195,-0.2373473249787089,-0.5358684402398189,0.3393077145509656,10.151336886755342,0.6772137499146077,0.3052810145000002,-0.09816456650000005,-0.3495090059999999
69902.0,-1.388425507,-0.8144422825,9.742710642,-0.2863771143257336,-0.4172925161885762,0.3782111035779192,9.874788720461419,0.6318136865771071,0.14239255799999984,-0.11611073599999999,-0.26821187749999886
69912.0,-1.3740097315,-0.948499188,9.609830534499999,-0.35299284121585317,-0.24808982652473396,0.4141840847907744,9.753788820438029,0.5980810681410043,0.014415775500000061,-0.13405690550000005,-0.1328801075000019
69922.0,-1.5128718954999998,-1.0946182729999998,9.6182642535,-0.4278674661264099,-0.07222521510602935,0.42910490456607386,9.797855774909895,0.6102606569239132,-0.13886216399999984,-0.14611908499999982,0.008433719000001005
69932.0,-1.8241349665,-1.318406026,9.7486926985,-0.5019444755688052,0.08765392569365922,0.4224429828112115,10.005132290739002,0.661883328820107,-0.31126307100000017,-0.2237877530000001,0.13042844499999973
69942.0,-2.2526855715,-1.5889714995,9.912757953,-0.5613659552822041,0.18198024511769276,0.3939330294798841,10.288935462186178,0.7095292644269131,-0.42855060499999986,-0.27056547350000004,0.16406525450000053
69952.0,-2.5112869319999995,-1.8439443995,10.040832801999999,-0.600801669731016,0.214223457719036,0.349966440292895,10.513087860424289,0.7275512665922291,-0.2586013604999997,-0.25497290000000006,0.128074848999999
69962.0,-2.6584847485,-1.999575935,10.0815303995,-0.6255835997800835,0.20596281436934685,0.2822843172298069,10.616171639243634,0.7165612025295871,-0.1471978165000003,-0.15563153549999997,0.04069759750000124
69972.0,-2.5759127555,-2.160012729,9.958260809,-0.6495644237024857,0.19663577484668915,0.19781561742103732,10.510372964526757,0.7069162517478053,0.08257199299999973,-0.160436794,-0.12326959049999964
69982.0,-2.428714939,-2.2138512375,9.797824015,-0.6839386833205139,0.18651111985587002,0.11761075697488989,10.334270607334258,0.7186033749769726,0.1471978165000003,-0.05383850850000016,-0.16043679400000066
69992.0,-2.2515087735,-2.0306630155,9.5978664215,-0.7161801505926052,0.23021067366730405,0.036339500355773935,10.065382450986363,0.7531477422520153,0.1772061654999999,0.18318822200000007,-0.19995759350000064
70002.0,-2.120982262,-1.9816297655,9.3907499735,-0.7478892924428382,0.31094785953530973,-0.036938148289207995,9.829120375090769,0.8107967636216091,0.13052651149999983,0.04903325000000014,-0.20711644799999895
70012.0,-2.0408619315,-1.8283518259999998,9.211190212,-0.7862603560479334,0.4196661639712886,-0.0960925926270518,9.610099528346625,0.8964144259396922,0.08012033050000023,0.15327793950000013,-0.1795597615000002
70022.0,-2.012128447,-1.696746583,9.152546445,-0.8278288628426824,0.5393067388662478,-0.1459199974422379,9.523482361092027,0.9987216981699649,0.028733484500000017,0.13160524299999987,-0.058643766999999514
70032.0,-1.9294583875,-1.6894896619999997,9.050851484499999,-0.8595380046929154,0.6339018389950885,-0.1901536220047822,9.40718329690534,1.0848020662564994,0.08267005949999984,0.007256921000000194,-0.10169496050000149
70042.0,-1.866009362,-1.5901482974999999,9.025648394,-0.844882474963919,0.7047796599185782,-0.2205310776357435,9.35269434330175,1.1221295476634086,0.06344902549999998,0.09934136449999986,-0.025203090499999803
70052.0,-1.942697365,-1.5877947014999998,9.1693158165,-0.8430167179935371,0.7199692603986848,-0.24264614458776365,9.506393512200432,1.1348612576958164,-0.0766880029999999,0.002353596000000069,0.14366742250000009
70062.0,-2.059984899,-1.6332975575,9.2471806175,-0.8089094937510639,0.6858620361562117,-0.253304870329693,9.613612643960186,1.0903690471825078,-0.11728753399999992,-0.04550285600000015,0.07786480100000048
70072.0,-2.210811176,-1.732638922,9.3201420935,-0.7223097469256092,0.5944643792170246,-0.2490410309670709,9.73420630215871,0.9680602789944238,-0.15082627700000018,-0.09934136450000008,0.07296147599999969
70082.0,-2.2551372339999998,-1.802070004,9.39673203,-0.6285140075941821,0.4652297294238525,-0.23332085039435796,9.830141051232056,0.8160313585338721,-0.04432605799999978,-0.06943108199999992,0.07658993650000134
70092.0,-2.3556553965,-1.7194980109999998,9.2950370695,-0.5576344413414402,0.3040206477341443,-0.2088059557208456,9.741842735348978,0.6685691075448854,-0.10051816250000023,0.08257199300000018,-0.10169496050000149
70102.0,-2.289852775,-1.6464384685,9.0736029125,-0.5059412795558722,0.16013046821197574,-0.17816321004358115,9.501813257239922,0.55978609720272,0.06580262150000005,0.0730595424999998,-0.22143415699999913
70112.0,-2.1569726675,-1.6392796139999999,8.8078426975,-0.45584683936513093,0.06900159197759582,-0.1504508721804152,9.215088807229268,0.4849670355750685,0.13288010750000012,0.007158854500000089,-0.26576021500000024
70122.0,-1.9809433,-1.6368279515,8.5671875065,-0.4038866422040078,0.04661774432076854,-0.12646830292876113,8.944274362526915,0.4257838248243651,0.17602936749999976,0.0024516624999999515,-0.2406551910000001
70132.0,-1.8600273054999998,-1.6584025815,8.352912203999999,-0.36631493939632587,0.08605520409883241,-0.11287916937273326,8.716716296132596,0.39285345850037234,0.12091599450000023,-0.02157463000000015,-0.21427530250000082
70142.0,-1.81815291,-1.5997588145,8.259552895999999,-0.35299284121585317,0.16226326055791282,-0.10435323597674097,8.607271478844726,0.40227218339743925,0.04187439549999983,0.05864376700000018,-0.09335930800000014
70152.0,-1.842081136,-1.5434686435,8.230819411499999,-0.3609864491899872,0.2392706778144066,-0.09449387103222501,8.574493952986378,0.44327278894966643,-0.023928225999999997,0.05629017099999989,-0.028733484500000017
70162.0,-1.9546614779999998,-1.5578844189999999,8.3492837435,-0.3812375045008774,0.299491518325219,-0.07557450194060646,8.715402709342435,0.4906615021890063,-0.11258034199999978,-0.014415775499999839,0.11846433200000028
70172.0,-2.0611616969999997,-1.6476152665,8.480987053,-0.4052183284232795,0.32400466766947933,-0.05052728184523584,8.882013566795392,0.5212810418310208,-0.10650021899999995,-0.08973084750000004,0.13170330950000064
70182.0,-2.1126466095,-1.8211929714999997,8.6246544755,-0.40894984236404336,0.3248040284668927,-0.040934952276275006,9.064473749635718,0.5238447296630547,-0.05148491250000031,-0.1735777049999998,0.14366742250000009
70192.0,-2.2287573455,-1.955249877,8.735959952999998,-0.3881647163020429,0.30695105554824276,-0.04812919945299563,9.225364908069949,0.4971993738169952,-0.11611073599999999,-0.13405690550000027,0.11130547749999842
70202.0,-2.3676195095,-2.0319378799999996,8.801860641,-0.35086004886991606,0.26724830572387576,-0.07157769795353945,9.338476558493298,0.44681964778824373,-0.13886216399999984,-0.07668800299999967,0.06590068800000104
70212.0,-2.4142991635,-2.0474323869999997,8.769498696,-0.3154211384081712,0.20756153596417365,-0.10755067916639457,9.323353860567504,0.39260595303136503,-0.04667965400000007,-0.015494507000000102,-0.03236194499999989
70222.0,-2.2862243145,-2.0761658714999998,8.682121444499998,-0.2970340947384109,0.1292206871591562,-0.15311598994821055,9.215015958707781,0.3582900302893904,0.12807484899999988,-0.028733484500000017,-0.08737725150000131
70232.0,-2.153344207,-1.9492678204999998,8.525313110999999,-0.30236433027400167,0.05967455245493812,-0.20294339476339665,9.00652540941543,0.3690139047662494,0.13288010750000012,0.12689805099999996,-0.156808333499999
70242.0,-2.120982262,-1.7984415434999999,8.321825123499998,-0.32181602478747845,0.025567328212464935,-0.23305381501880282,8.774151305238647,0.39816243265375656,0.03236194499999989,0.15082627699999995,-0.20348798750000086
70252.0,-2.1186286659999998,-1.7434262369999998,8.0931340455,-0.3553909236080934,0.03622605395439431,-0.23252148959694455,8.545580211237159,0.42624086933622674,0.002353596000000291,0.05501530650000008,-0.22869107799999888
70262.0,-2.106664553,-1.8044235999999998,7.8405147415,-0.3996228028413856,0.09351474132185617,-0.2226621246524286,8.316709173632468,0.46692805993004133,0.011964112999999887,-0.06099736300000003,-0.25261930399999954
70272.0,-2.1150002055,-1.976824507,7.6250626409999995,-0.4561121294114341,0.1854447236829015,-0.23012340720470434,8.156141322948905,0.5434931486979045,-0.008335652500000013,-0.1724009070000001,-0.2154521005000003
70282.0,-2.1126466095,-2.1073510184999997,7.450308137999999,-0.5203297739093135,0.2744425529005963,-0.26502999224459095,8.02566479258596,0.6452152239743587,0.002353595999999847,-0.13052651149999983,-0.17475450300000084
70292.0,-2.095877238,-2.1432433575,7.311445974,-0.5856138145801614,0.35544851947340916,-0.320719958017226,7.902115901260572,0.7564049717535821,0.01676937150000013,-0.035892339000000106,-0.13886216399999896
70302.0,-2.1616798595,-2.1048993559999998,7.2228919245,-0.6354429647245995,0.4092727282756623,-0.3798744023550698,7.827747368615346,0.8459293641272977,-0.06580262150000005,0.03834400150000006,-0.0885540494999999
70312.0,-2.200023861,-2.034291476,7.330568941499999,-0.6498314590780407,0.4273927365698674,-0.4233086661202007,7.919323696148556,0.88551437215476,-0.03834400150000006,0.07060787999999985,0.10767701699999943
70322.0,-2.2970116294999996,-1.9445606284999999,7.505323444499999,-0.6167906310085361,0.4044765634911819,-0.46007926280121725,8.086251200063717,0.8693128901455769,-0.09698776849999957,0.08973084750000004,0.17475450299999995
70332.0,-2.317311395,-2.0474323869999997,7.719598746999999,-0.5347200135920067,0.33173298559731024,-0.49498584784110383,8.315895399499523,0.8006142992928102,-0.020299765500000344,-0.10287175849999985,0.21427530249999993
70342.0,-2.247880313,-2.2581772955,7.821391774,-0.4310649093160635,0.2179532263305479,-0.5104407383675136,8.445501754299714,0.7027590713016328,0.06943108199999992,-0.21074490850000016,0.10179302700000115
70352.0,-2.106664553,-2.370659571,7.7903046934999995,-0.3383373114868568,0.10790498100454943,-0.5056445735830332,8.411118210916353,0.6178932400210525,0.14121576000000013,-0.11248227550000012,-0.031087080500000752
70362.0,-1.9977126715,-2.288087578,7.647814069,-0.2829126357605249,0.028497736026563414,-0.4912560792295919,8.228928284805008,0.5676127340111726,0.1089518814999999,0.08257199300000018,-0.14249062449999972
70372.0,-1.8169761119999999,-2.228267013,7.459918655,-0.273320306191564,-0.012004374595216999,-0.47127205929425686,7.994808466249807,0.5449270122296399,0.18073655950000012,0.05982056499999988,-0.18789541399999976
70382.0,-1.692431657,-2.2342490695,7.209652946999999,-0.2983675262869346,-0.023994786556418044,-0.44702419999629966,7.735327364395326,0.5379865852480007,0.12454445499999989,-0.005982056500000166,-0.2502657080000015
70392.0,-1.5703388644999998,-2.2701414085,6.9774314749999995,-0.3335394013731243,-0.01866455102082736,-0.431834599516193,7.50360287810237,0.5459652178229507,0.12209279250000016,-0.03589233899999966,-0.2322214719999991
70402.0,-1.4638386455,-2.3204495229999997,6.8229767374999994,-0.35619028440550676,-0.0026773350725593018,-0.43130227409433475,7.353932358222799,0.5593749533782427,0.10650021899999973,-0.050308114499999945,-0.15445473750000005
70412.0,-1.3668508769999999,-2.5359016234999996,6.862497536999999,-0.3471302802584042,0.03436029698401236,-0.4459578038233311,7.442644073805805,0.5661787917893397,0.09698776850000024,-0.21545210049999985,0.03952079949999998
70422.0,-1.3201712229999998,-2.7513537239999994,7.071967581,-0.287176475123147,0.08845328649107262,-0.47367014168649707,7.702306462308609,0.5609435933144556,0.04667965400000007,-0.21545210049999985,0.20947004400000058
70432.0,-1.389602305,-2.7932281195,7.355772031999999,-0.18512009244203056,0.11376579663274639,-0.4989843971574228,7.990025036279937,0.5442403271678662,-0.06943108200000014,-0.041874395500000716,0.28380445099999907
70442.0,-1.5224824124999998,-2.7094793284999996,7.5783829869999995,-0.06547951754707126,0.09271538052444277,-0.5067109697560017,8.190916897734445,0.5192684429801768,-0.1328801074999999,0.08374879100000054,0.2226109550000004
70452.0,-1.5631800099999997,-2.5574762535,7.577206189,0.03364471199069469,0.025567328212464935,-0.49472055779480073,8.148513371253673,0.49652198865876973,-0.040697597499999905,0.15200307499999965,-0.0011767979999994793
70462.0,-1.3704793375,-2.450877968,7.337727795999999,0.07787833655323899,-0.05517160298479275,-0.48139671428507597,7.856670136688523,0.4907664797076897,0.19270067249999978,0.10659828550000006,-0.23947839300000062
70472.0,-1.0376416364999999,-2.323979917,7.0289163875,0.06295577144868746,-0.08634667408391547,-0.4731360709353868,7.475509909222499,0.48505352169036836,0.3328377010000001,0.12689805099999996,-0.30881140849999955
70482.0,-0.6353728535,-2.3838985485,6.787084398499999,0.013660692055359617,-0.057035614625922694,-0.44782356079371305,7.22157777669584,0.45164766958897123,0.4022687829999999,-0.059918631499999986,-0.24183198900000047
70492.0,-0.31577413,-2.5059913409999997,6.777571947999999,-0.034569736494251685,0.04555134814780001,-0.3985267360711332,7.2329238494996435,0.40260843429177534,0.31959872349999996,-0.12209279249999971,-0.009512450499999936
70502.0,-0.2068222485,-2.7477252634999996,6.8769133125,-0.05428672105403162,0.17318727634614534,-0.3329774053539822,7.408421307794965,0.37922926211892527,0.10895188149999999,-0.24173392249999992,0.09934136450000075
70512.0,-0.33734875999999997,-2.855500347,7.055296275999999,-0.053487360256618224,0.2688470273187025,-0.277020404205792,7.618719837330292,0.38971775190728075,-0.13052651149999997,-0.10777508350000042,0.17838296349999894
70522.0,-0.64135491,-2.7704766915,7.2958534004999995,-0.055086081851445035,0.31441233810051855,-0.2636965606960673,7.830475979167122,0.4140355913282258,-0.30400615000000003,0.08502365550000013,0.24055712450000044
70532.0,-0.964582094,-2.737036015,7.4107873385,-0.08759458449909141,0.29469360821148655,-0.2903442477155167,7.9587407131998225,0.4228674924083938,-0.32322718399999995,0.03344067649999971,0.11493393800000007
70542.0,-0.9191773044999999,-2.7166381829999997,7.359302425999999,-0.16939991186931763,0.24379980722333192,-0.3676169550183136,7.898375917349775,0.47252185320935497,0.04540478950000004,0.02039783200000045,-0.05148491250000031
70552.0,-0.628213999,-2.6400482464999997,7.106683122,-0.2698558276263553,0.22514747350726852,-0.5091090521482419,7.6071974188203475,0.6186320226999995,0.29096330549999994,0.07658993650000001,-0.25261930399999954
70562.0,-0.09669356900000001,-2.84588983,6.929575023,-0.33274004057571094,0.25658957998194637,-0.6266185800265162,7.4918254497931835,0.7544567528971325,0.5315204299999999,-0.20584158350000026,-0.1771080989999998
70572.0,0.17985396099999998,-3.0159371409999998,6.943892732,-0.2973011301139661,0.3354627542088221,-0.674049647778714,7.572705630042216,0.8094851135746836,0.27654753,-0.1700473109999998,0.014317709000000178
70582.0,0.1893664115,-2.9692574869999997,7.065985524499999,-0.19817690057620013,0.40554295966415044,-0.6953670992625728,7.66684427221223,0.8290202523412759,0.00951245050000002,0.04667965400000007,0.12209279249999927
70592.0,0.113953273,-2.8926675505,7.26476632,-0.07080800775340995,0.42632634039689893,-0.6753813339979857,7.820315888143485,0.8018153582908712,-0.0754131385,0.07658993649999957,0.19878079550000027
70602.0,-0.036873003999999994,-2.693886755,7.2946766025,0.05975832825903385,0.40021272412855974,-0.6343468979543471,7.776290388241,0.7524209388999086,-0.15082627699999998,0.19878079550000027,0.029910282500000385
70612.0,0.00980665,-2.68309944,7.2144582055,0.16740849119279208,0.35278340170561384,-0.5919790303621848,7.697241452248903,0.7091691644671136,0.046679653999999994,0.010787314999999964,-0.08021839700000033
70622.0,0.0481506515,-2.5945453905,7.146203921499999,0.23056148484695493,0.339194268149586,-0.5655983787182903,7.602776779326526,0.6986507538456711,0.0383440015,0.0885540494999999,-0.06825428400000089
70632.0,-0.024908891,-2.4676473395,7.033721645999999,0.24867974781190808,0.3402589189933025,-0.5466807549559239,7.454068958521998,0.6902735666136028,-0.0730595425,0.12689805099999996,-0.11248227549999967
70642.0,0.090025047,-2.725071902,7.058826669999999,0.2532106225500853,0.3301342640024834,-0.5096413775701002,7.567110104740153,0.6579046932285957,0.114933938,-0.2574245624999998,0.025105024000000142
70652.0,0.13072264449999998,-3.0554579404999997,7.334197401999999,0.28571912519773174,0.34425572298036955,-0.4643431021638394,7.946279831937276,0.6447960435948966,0.04069759749999999,-0.3303860384999999,0.27537073199999984
70662.0,-0.0907115125,-3.2768920974999998,7.668211900999999,0.3608607854838436,0.31361297730310506,-0.4241080269176141,8.339527813719192,0.6390940654777559,-0.22143415699999996,-0.22143415700000002,0.33401449900000024
70672.0,-0.18887607899999997,-3.3881975749999995,7.957900341999999,0.4621160620382946,0.22914427749433552,-0.40252354005820024,8.65122735995639,0.6542809450099915,-0.09816456649999998,-0.11130547749999975,0.289688441
70682.0,-0.2654660155,-3.4516466004999997,8.097939304,0.566036456360541,0.13614964428957366,-0.40385697160672385,8.80686989976556,0.7085438935484027,-0.07658993650000001,-0.0634490255000002,0.1400389620000011
70692.0,-0.37088750299999995,-3.1739222724999996,8.1278495865,0.6387817795836647,0.07166496441613916,-0.421975234571677,8.733457450089361,0.7689220556367607,-0.10542148749999997,0.27772432800000013,0.029910282499999497
70702.0,-0.3564717275,-2.8794285729999998,7.957900341999999,0.6622302780842084,0.05621007388972938,-0.4440920468529492,8.47032224019366,0.7993286305995919,0.01441577549999995,0.2944936994999998,-0.1699492445000006
70712.0,-0.2068222485,-2.7286022959999996,7.787853030999999,0.645443701338527,0.11110242419420305,-0.45981397275491415,8.254616936276749,0.8002313476739481,0.149649479,0.15082627700000018,-0.17004731100000026
70722.0,-0.0644296905,-2.7357611504999997,7.713616690499999,0.6134675241127389,0.2352738738273396,-0.45927990200380386,8.184645545505509,0.8016447013679816,0.142392558,-0.007158854500000089,-0.07423634049999972
70732.0,0.00980665,-2.9692574869999997,7.8728766865,0.6086713593282584,0.37356678243836233,-0.43556611345695684,8.414200705671632,0.836511090063879,0.0742363405,-0.2334963365,0.1592599960000003
70742.0,-0.06080122999999999,-3.123614158,8.284657919999999,0.635317301018456,0.47402444352465195,-0.42250930532278724,8.854163938455526,0.8982434854295218,-0.07060787999999998,-0.1543566710000004,0.4117812334999993
70752.0,-0.363630582,-2.9991677694999996,8.733606357,0.6739536546698544,0.4969388712740855,-0.43556611345695684,9.241380552103893,0.9438641902403194,-0.302829352,0.12444638850000045,0.4489484370000003
70762.0,-0.6270372009999999,-2.8040154345,9.163333759999999,0.7067291926930559,0.45430571363562,-0.4406275682877404,9.603247565563843,0.9486898793503152,-0.26340661899999995,0.1951523349999995,0.42972740299999934
70772.0,-0.7922792535,-2.5370784215,9.499701855,0.7240498401898476,0.37356678243836233,-0.44782356079371305,9.864522728761786,0.929702239226224,-0.16524205250000001,0.26693701300000017,0.336368095000001
70782.0,-0.800614906,-2.2234617544999997,9.767913732499999,0.7072615181149141,0.28989744342700613,-0.4571488549871187,10.049721642264311,0.8906427220427734,-0.008335652500000013,0.31361666700000024,0.26821187749999886
70792.0,-0.8150306815,-1.8678726255,9.876865614,0.6430456189462869,0.23953596786070974,-0.4390288466929136,10.08492426912043,0.8146357935749509,-0.014415775500000061,0.3555891289999997,0.10895188150000124
70802.0,-0.7036271374999999,-1.6715434925,9.907952694499999,0.572166052693545,0.16865814693722003,-0.3854699279369636,10.072570446137139,0.7102159021923807,0.11140354400000008,0.1963291330000001,0.031087080499998976
70812.0,-0.4582647545,-1.860713771,9.982189035,0.5154096907479414,0.0626049602690366,-0.3007359380818909,10.164465566535222,0.6000071956411616,0.24536238299999996,-0.1891702785,0.07423634050000061
70822.0,-0.32891504099999996,-2.1659947855,9.982189035,0.5130116083557013,-0.06369753638078506,-0.20667490870416053,10.219775753189667,0.5567340517128065,0.12934971350000002,-0.3052810145000002,0.0
70832.0,-0.23075047449999997,-2.313192602,9.834893152,0.5703002957231632,-0.20918643749778038,-0.13472894627845028,10.105900707343507,0.6222164268968168,0.0981645665,-0.14719781649999986,-0.14729588299999996
70842.0,-0.2176095635,-2.266512948,9.554815227999999,0.6627626035060667,-0.34348254212173607,-0.09635962800260693,9.822368803236772,0.7526750316420432,0.013140910999999977,0.04667965400000007,-0.2800779240000004
70852.0,-0.10748088399999998,-2.219833294,9.296213867499999,0.7541602604452537,-0.42928467347902927,-0.08703258847994924,9.558179966074901,0.8721339924440338,0.1101286795,0.04667965400000007,-0.25860136050000015
70862.0,-0.04766031899999999,-1.9050398289999997,9.152546445,0.818110869567578,-0.4332814774660963,-0.10301980442821729,9.348826380031115,0.9314780264312466,0.05982056499999999,0.31479346500000016,-0.1436674224999983
70872.0,-0.035696206,-1.5566095545,9.0998847345,0.8324993639210193,-0.3400198088857793,-0.11341324012384353,9.23212920758097,0.906383596717754,0.011964112999999992,0.34843027449999964,-0.05266171050000068
70882.0,-0.034519408,-1.2477981459999998,9.1465643885,0.7959940572863059,-0.18493857819982315,-0.10328683980377243,9.231350492515496,0.8236971459331014,0.0011767979999999997,0.3088114085000002,0.04667965400000007
70892.0,0.044522190999999996,-1.222693122,9.2734624395,0.7275125734258043,-0.03438647692279228,-0.07744025891098841,9.353826292640612,0.7324301795993929,0.07904159899999999,0.02510502399999992,0.1268980509999995
70902.0,0.208489379,-1.5112047649999998,9.4697915725,0.6603645211138266,0.07672816457617472,-0.06065368216530694,9.591879903830455,0.6675682595400504,0.163967188,-0.2885116429999999,0.19632913300000077
70912.0,0.3127340685,-1.7984415434999999,9.704464707,0.62545793607394,0.13375156189733345,-0.06118600758716521,9.874655934886837,0.6425191340592945,0.10424468950000002,-0.28723677850000007,0.2346731344999995
70922.0,0.30430034949999996,-1.82599823,9.94982709,0.6129351986908806,0.11723027519795513,-0.07717322353543328,10.120569517550226,0.6287990153046263,-0.008433719000000062,-0.027556686500000094,0.2453623829999998
70932.0,0.1438635555,-1.5673968695,10.074371545,0.6267913676224636,0.06900159197759582,-0.08729962385550437,10.196587257304534,0.6365923833559379,-0.16043679399999997,0.25860136049999993,0.12454445500000055
70942.0,-0.10865768199999999,-1.201118492,10.1976411355,0.6667594074931338,0.026099653634323206,-0.06358408997940541,10.268708626313423,0.6702926494442077,-0.2525212375,0.36627837750000003,0.12326959049999964
70952.0,-0.40560304399999997,-0.8443525649999999,10.311398275499998,0.7269802480039461,0.007714355293814937,0.001965240737745615,10.353858192930232,0.7270238334722153,-0.296945362,0.3567659270000001,0.11375713999999881
70962.0,-0.7263785654999999,-0.655280353,10.480170722,0.7853353315443765,0.017840755613886036,0.09389522309879095,10.525730213325422,0.7911296912981852,-0.32077552149999994,0.1890722119999999,0.168772446500002
70972.0,-0.8856385615,-0.7785499435,10.683658709499998,0.81997662653796,0.028497736026563414,0.1775645621101471,10.748537532949065,0.8394658794403624,-0.15925999600000007,-0.12326959049999997,0.2034879874999973
70982.0,-0.8042433665,-1.2310287745,10.9278442945,0.823973430525027,0.004783947479716458,0.21913306890489606,11.026333033290914,0.8526279389348839,0.08139519500000003,-0.45247883099999997,0.2441855850000021
70992.0,-0.6545938875,-1.5877947014999998,11.0978916055,0.8127806340319873,-0.03944967708282783,0.21300347257189198,11.229994802273561,0.8411534434376783,0.14964947899999992,-0.35676592699999987,0.17004731099999937
71002.0,-0.4810161825,-1.5758305885,11.143394461499998,0.7458996170955646,-0.10153452923477012,0.17463415429604864,11.264539881240953,0.7727694269683114,0.17357770500000003,0.011964112999999887,0.045502855999998815
71012.0,-0.2654660155,-1.40823494,10.918331843999999,0.6758194116402364,-0.16815025612488968,0.11787779235044502,11.011973851554801,0.7063296395550989,0.21555016700000001,0.16759564849999986,-0.225062617499999
71022.0,-0.0405014645,-1.164049355,10.6034403125,0.6243932852302234,-0.1990600371777093,0.06405183821893991,10.667220712549856,0.6584789374163819,0.22496455099999998,0.2441855850000001,-0.31489153149999893
71032.0,0.0014709974999999999,-0.7737446849999999,10.359254727499998,0.5844235000303012,-0.16841729150044482,0.027546531584226503,10.388110584251136,0.6088300443197051,0.041972462,0.39030467,-0.2441855850000021
71042.0,-0.198486596,-0.266152481,10.27540787,0.5639054093438558,-0.09647307440398656,0.026213100035702836,10.280770446167548,0.5726984297042383,-0.19995759349999997,0.5075922039999999,-0.08384685749999754
71052.0,-0.40079778549999995,0.1109132115,10.352095873,0.5636383739683007,-0.02319542575900464,0.07444352858531414,10.36044543294981,0.5690062243367853,-0.20231118949999996,0.3770656925,0.07668800299999923
71062.0,-0.363630582,-0.025595356499999996,10.4777190595,0.5713666918961317,0.018373081035744306,0.15438309898515842,10.48405832739639,0.5921415438620535,0.03716720349999997,-0.136508568,0.12562318650000037
71072.0,-0.1493552795,-0.42060721849999994,10.602263514499999,0.5894867001903369,0.02236988502281132,0.22819307305199862,10.611654398003484,0.6325085454332935,0.2142753025,-0.39501186199999994,0.12454445499999878
71082.0,0.022947561,-0.6995083445,10.6813051135,0.6068056023578766,0.0002530727415391778,0.2668294267033971,10.704210267098746,0.6628808686736867,0.1723028405,-0.27890112600000005,0.07904159900000174
71092.0,0.1330762405,-0.7079420635,10.6585536855,0.6060062415604631,-0.04424584186730825,0.2692275090956373,10.68286749509437,0.6645936435045303,0.11012867949999999,-0.008433719000000006,-0.022751428000001184
71102.0,0.2672312125,-0.6289004645,10.508904206499999,0.5804266960432343,-0.09567371360657316,0.2412498811861682,10.531096616049817,0.6358066641104653,0.13415497199999998,0.07904159899999996,-0.1496494790000007
71112.0,0.46356034549999997,-0.320089056,10.4059343815,0.5132768984020044,-0.12764814550310927,0.2055439353488682,10.42117150563097,0.5674465021852406,0.196329133,0.30881140850000005,-0.10296982499999885
71122.0,0.5006294825,-0.06864655,10.2766827345,0.44453012449519974,-0.09034347807098249,0.1783639229075605,10.289098612276272,0.4874245219607381,0.037069136999999974,0.25144250599999995,-0.12925164700000025
71132.0,0.3509800035,-0.007649186999999999,10.3388568955,0.373650558242458,-0.021863739539732963,0.16770519716563115,10.344815483059449,0.4101436284253664,-0.14964947899999992,0.060997363,0.06217416099999973
71142.0,0.12836904849999997,-0.12375992299999998,10.517239858999998,0.3366129261858864,0.02929709682397682,0.18102904067535583,10.518751322419028,0.3833250520453602,-0.22261095500000005,-0.11611073599999998,0.17838296349999894
71152.0,-0.06080122999999999,-0.2721345375,10.692092428499999,0.34647229113040234,0.018373081035744306,0.21593562571524244,10.69572786189219,0.4086671176898498,-0.18917027849999996,-0.1483746145,0.1748525695000005
71162.0,-0.063154826,-0.44934070299999995,10.838113447,0.3608607854838436,-0.04477816728916652,0.24551197521953835,10.847607970859835,0.4387501803327178,-0.0023535960000000064,-0.17720616549999996,0.14602101850000082
71172.0,-0.0069627215,-0.4421818485,10.829679727999999,0.3709871858039147,-0.12684878470569588,0.25483901474219606,10.838705470566477,0.46761632739543385,0.0561921045,0.007158854499999978,-0.008433719000001005
71182.0,0.08521978849999999,-0.26497568299999996,10.706410137499999,0.38937248414442294,-0.20359091191588655,0.2521738969744007,10.710027663703585,0.5066081968728859,0.09218251,0.1772061655,-0.12326959049999964
71192.0,0.2827257195,-0.0938496405,10.5124346005,0.4237467437624513,-0.2552840737014546,0.24204924198358158,10.516654544924368,0.5507441299548428,0.19750593099999997,0.17112604249999996,-0.19397553699999825
71202.0,0.41688069149999996,0.161221326,10.3245391865,0.47543990554801935,-0.2691402426330376,0.232989237836479,10.334209754039096,0.59393901954637,0.13415497199999998,0.2550709665,-0.18789541400000154
71212.0,0.3845187465,0.4209994845,10.3700420425,0.5455201110033476,-0.2451576733813835,0.25830349330740476,10.385704944565717,0.651471542725917,-0.03236194499999995,0.2597781585,0.04550285600000059
71222.0,0.18818961349999996,0.6472389,10.650119966499998,0.629454740061007,-0.2062542843544299,0.3419728323187609,10.671428621564425,0.745452558949222,-0.19632913300000004,0.22623941549999993,0.28007792399999865
71232.0,-0.11826819899999999,0.5897719309999999,11.115837775,0.7014007024867172,-0.17001601309527162,0.4701410859389646,11.132100778272136,0.8613367697048239,-0.3064578124999999,-0.057466969000000034,0.4657178085000009
71242.0,-0.4366901245,0.2760571975,11.526442210499999,0.7333751343832533,-0.18733666059206333,0.598042304183613,11.53801438173499,0.964670259584427,-0.31842192550000004,-0.3137147334999999,0.4106044354999998
71252.0,-0.6856809679999999,-0.067469752,11.8424124735,0.7152568714183002,-0.2536853521066278,0.6822439686168275,11.86243835599666,1.0204927646478428,-0.2489908434999999,-0.3435269495,0.31597026300000053
71262.0,-0.8532766165,-0.286550313,12.030405954,0.6579664387215863,-0.3416185304806061,0.7123543888722337,12.06403164303645,1.0281399857009887,-0.16759564850000008,-0.219080561,0.1879934805000012
71272.0,-0.9323182154999999,-0.30930174099999996,12.069926753499999,0.5457854010496508,-0.42075699475378503,0.699297580738064,12.109831404969839,0.9818020467789187,-0.07904159899999996,-0.022751427999999962,0.039520799499998205
71282.0,-0.8868153594999999,-0.2362421985,11.8987026445,0.4338713987532704,-0.4753823096827035,0.6465380227795274,11.934042755094708,0.9122741615956477,0.045502856000000036,0.07305954249999996,-0.17122410899999885
71292.0,-0.7120608565,-0.16082906,11.589891236,0.3507361304930245,-0.4855069646735226,0.5809886920623765,11.612858197369398,0.8344343630772093,0.17475450299999995,0.0754131385,-0.30881140850000044
71302.0,-0.6353728535,0.015102240999999999,11.4103314745,0.30170634114599976,-0.41436210837447773,0.5471485031954584,11.428017811441025,0.749729389642209,0.076688003,0.17593130099999998,-0.1795597615000002
71312.0,-0.6904862264999999,0.2593858925,11.345705651,0.2558739949886287,-0.28646089012982934,0.5700646762741439,11.369656502698204,0.6873900479501863,-0.055113372999999966,0.2442836515,-0.06462582350000012
71322.0,-0.8856385615,0.35872725699999997,11.490549871499999,0.1823310562973436,-0.1292468670979361,0.6329488892234997,11.530211500920492,0.6712478403052026,-0.19515233500000007,0.09934136449999997,0.14484422049999957
71332.0,-1.2351475675,0.19829046299999997,11.814953853499999,0.09466491329892043,0.010644763107913416,0.7043607808980996,11.880995041727456,0.710773428357375,-0.3495090060000001,-0.160436794,0.32440398199999976
71342.0,-1.623000575,-0.17642163349999998,12.079439204,0.019256217637253437,0.09458113749482472,0.7485944054606439,12.189261952323008,0.7547913469128293,-0.38785300749999996,-0.3747120964999999,0.2644853505000011
71352.0,-1.9821200979999998,-0.5020024135,12.298519765,-0.02790781473938933,0.09031729813220257,0.7283433501497537,12.467333111622189,0.7344522422682063,-0.3591195229999997,-0.32558078,0.21908056100000017
71362.0,-2.2622960885,-0.705490401,12.395507533499998,-0.047092473877311,-0.01866455102082736,0.6404101717757753,12.619996327693631,0.6424105032411692,-0.2801759905000001,-0.20348798750000008,0.09698776849999824
71372.0,-2.3185862595,-0.7258882329999999,12.2890073145,-0.018315485170428497,-0.1876019506383665,0.5119748827800166,12.52686939124794,0.5455714705498813,-0.05629017100000011,-0.020397831999999894,-0.10650021899999906
71382.0,-2.132946375,-0.543876809,12.1081726885,0.044570473108179194,-0.351210860049567,0.37474662501271044,12.306628623491122,0.5155294639962497,0.18563988450000002,0.18201142399999992,-0.18083462599999933
71392.0,-1.8576737094999998,-0.2350654005,11.869969159999998,0.103724917446023,-0.44793700719509266,0.27109326606601925,12.016753938265973,0.533758353396387,0.2752726655000002,0.3088114085,-0.23820352850000148
71402.0,-1.5464106384999998,0.05707470299999999,11.750328029999999,0.12131085498911787,-0.45086741500919114,0.23218987703906563,11.85178687781687,0.5214497947594546,0.31126307099999995,0.29214010349999997,-0.11964112999999976
71412.0,-1.4147073289999998,0.20907777799999996,11.6988431175,0.08080874436733745,-0.38585040971389845,0.24950877920660536,11.785925531406383,0.466546056401487,0.13170330949999998,0.152003075,-0.051484912499999425
71422.0,-1.4530513305,0.242616521,11.671286430999999,0.0352434335855215,-0.31017467867667625,0.2982715331780749,11.763891698743858,0.43175958403662085,-0.03834400150000006,0.03353874300000004,-0.027556686500000538
71432.0,-1.54160538,0.246146915,11.673640027,-0.0023265238929084412,-0.2536853521066278,0.3542285343262651,11.777563709502296,0.4357057781551927,-0.08855404950000012,0.0035303939999999923,0.002353596000000735
71442.0,-1.70439577,0.2353596,11.609014203499997,-0.02284461457935378,-0.23476598301500926,0.39792983346695115,11.735824208770799,0.46258523058925943,-0.16279039000000006,-0.010787314999999992,-0.0646258235000019
71452.0,-1.874443081,0.22467035149999998,11.38159799,-0.008189084850357395,-0.2558163991233129,0.42404170440603833,11.537104768386389,0.49529835275991224,-0.1700473109999998,-0.010689248500000026,-0.22741621349999797
71462.0,-1.9306351854999997,0.221041891,11.249894680499999,-0.006590363255530588,-0.3072442708625778,0.43203705770942435,11.416494298137657,0.5301872255156035,-0.056192104499999784,-0.003628460499999986,-0.13170330950000064
71472.0,-1.9211227349999997,0.0510926465,10.9853112635,-0.0071244340066408535,-0.3767904055667958,0.4141840847907744,11.152147173411954,0.5599734131019766,0.009512450499999936,-0.16994924449999999,-0.264583416999999
71482.0,-1.9282815894999998,-0.1428828905,10.757895049999998,0.023785347046178722,-0.44207444623764375,0.36622069161671816,10.9302786476657,0.574554743883169,-0.007158854500000089,-0.193975537,-0.22741621350000152
71492.0,-1.9306351854999997,-0.2027034555,10.514886263,0.07468089336358537,-0.5076237769547948,0.3041340941355239,10.692580326291141,0.5964534197899029,-0.002353595999999847,-0.05982056499999999,-0.24300878699999906
71502.0,-1.8600273054999998,-0.194367803,10.225197822,0.11384957243684211,-0.5590516486940597,0.24870941840919197,10.394813654851259,0.6223799851031816,0.07060787999999985,0.008335652499999985,-0.28968844099999913
71512.0,-1.7319524564999997,-0.21947282699999998,9.961791202999999,0.1423612710974215,-0.5729078176256427,0.2079420177411084,10.113610216215372,0.6258833611363172,0.1280748490000001,-0.025105023999999976,-0.2634066190000013
71522.0,-1.611036462,-0.1787752295,9.729569731,0.1524876714174926,-0.5281418676412402,0.1844935192405646,9.863666976077795,0.5798484120282429,0.12091599449999979,0.04069759749999999,-0.2322214719999991
71532.0,-1.5547462909999998,-0.0136312435,9.4697915725,0.12637405514915342,-0.43887700304799016,0.17543351509346203,9.5965813843665,0.489244666641625,0.05629017100000011,0.165143986,-0.25977815849999963
71542.0,-1.4925721299999999,0.07256921,9.232764842,0.06029065368089212,-0.32802765159532626,0.17703223668828885,9.352913154796425,0.37759438020086095,0.06217416099999995,0.0862004535,-0.23702673050000023
71552.0,-1.364497281,0.023535959999999998,9.0639923955,-0.02364397537676718,-0.20545492355701647,0.1682392679167414,9.166153223514831,0.2665993519395682,0.12807484899999988,-0.04903325,-0.16877244650000023
71562.0,-1.3130123685,-0.0626644935,8.9274838275,-0.10944610673406042,-0.08421562706723039,0.13839413770763836,9.02374067717228,0.19550871968638878,0.05148491250000009,-0.0862004535,-0.136508568
71572.0,-1.284278884,-0.07462860649999999,8.900025207499999,-0.17552776287306973,0.021837559600953054,0.10855075282778733,8.99251857795867,0.20753346835638137,0.028733484500000017,-0.011964112999999985,-0.027458620000000877
71582.0,-1.26505785,-0.1919161405,8.864034801999999,-0.21150074408592484,0.10523986323675408,0.08297120731055843,8.955909565192036,0.2503841344925078,0.01922103399999986,-0.11728753400000001,-0.03599040549999977
71592.0,-1.2686863105000001,-0.20996037649999996,8.956217312,-0.2290866816290197,0.1761194294894958,0.051262065460325454,9.048064812650196,0.2934732705013525,-0.003628460500000097,-0.018044235999999964,0.09218251000000066
71602.0,-1.3261532794999997,-0.19319100499999997,9.0065254265,-0.22482284226639757,0.21022665373196897,0.028345892381639908,9.10568534177041,0.30910199928016346,-0.05746696899999959,0.01676937149999999,0.050308114499999945
71612.0,-1.2830040194999999,-0.127290317,9.047223024,-0.21549754807299185,0.2211506695202015,0.017420131264155404,9.138629360295274,0.309273782962548,0.043149259999999856,0.06590068799999999,0.04069759749999946
71622.0,-1.3392941905,-0.004020726499999999,8.967004627,-0.20110905371955062,0.2384713170169932,0.011559315635958444,9.066471037597156,0.3121650818169196,-0.05629017100000011,0.12326959049999998,-0.08021839699999944
71632.0,-1.2172013979999998,0.048640984,8.9012020055,-0.18965096718020782,0.26271917631495045,0.01102524488484818,8.98417176657564,0.3242073579991132,0.12209279250000016,0.0526617105,-0.0658026214999996
