timestamp,ax,ay,az,gx,gy,gz,acc_mag,gyro_mag,dax,day,daz
75312.0,0.5261267725,0.0963993695,9.6474880705,0.019179423150165686,0.04000818244346602,-0.010040879186723379,9.662304502013018,0.04548982512216494,0.0,0.0,0.0
75322.0,0.7128453885,-0.04726805299999999,9.6618057795,-0.023453734488299804,0.022689280275926284,0.03685611781436426,9.688182168885954,0.0492265631669884,0.18671861600000006,-0.14366742249999997,0.014317709000000178
75332.0,0.7762944139999999,-0.140627361,9.621108181999999,-0.014660765716752368,0.06025923775435622,0.06270269870714829,9.653400008370975,0.0881915087255964,0.06344902549999987,-0.09335930800000002,-0.04069759750000124
75342.0,0.7236327034999999,-0.0497197155,9.6498416665,0.03436727830102034,0.1098213525232392,0.09680992294962147,9.677063631505357,0.1503795214427982,-0.052661710500000014,0.09090764550000001,0.028733484500001794
75352.0,0.7021561399999999,0.05687856999999999,9.8126320565,0.08659451083769866,0.14366154139015724,0.1367797081495436,9.837886271599015,0.2164392208988253,-0.021476563499999934,0.10659828549999999,0.16279038999999962
75362.0,0.5213215139999999,0.036480738,10.280703461,0.1103100447137976,0.16844347143922472,0.17141925781387507,10.293977395459038,0.2644353814918055,-0.180834626,-0.02039783199999999,0.46807140449999984
75372.0,0.26399501799999997,-0.10591182,10.874496118499998,0.09565451498480122,0.12580856847150726,0.1919373485003204,10.878215686150742,0.2486313091450088,-0.25732649599999996,-0.142392558,0.5937926574999981
75382.0,0.24477398399999997,-0.32146198699999995,11.179777133,0.0511556003759538,0.02775073510670984,0.19460072093886377,11.187075974349996,0.20311681205334184,-0.019221033999999998,-0.21555016699999996,0.305281014500002
75392.0,0.402857182,-0.3286208415,11.134274277,0.01731366617978375,-0.09428792218048967,0.20525944668079313,11.146405216123313,0.2265423045645215,0.158083198,-0.007158854500000034,-0.04550285600000059
75402.0,0.6398839125,-0.417174891,11.168989817999998,0.015449654538653806,-0.22938513293111074,0.23776794932843953,11.195080163435401,0.33074133210567813,0.2370267305,-0.08855404950000001,0.03471554099999885
75412.0,0.8972104085,-0.459147353,11.279118497499999,0.02930582347023679,-0.3658140299010035,0.29079454266253124,11.32405920549404,0.46823092785931136,0.257326496,-0.04197246199999999,0.11012867950000071
75422.0,1.118742632,-0.485429175,11.3461959835,0.03490134905213061,-0.46120674549800555,0.3534134655655838,11.411546339413734,0.5820917830562434,0.22153222350000001,-0.02628182200000001,0.06707748600000052
75432.0,-0.324992381,-2.091954578,10.3980890615,0.018912387774610552,-0.37167659085845245,0.2766713383553931,10.611416028740424,0.4637328930223336,-1.443735013,-1.6065254030000002,-0.9481069219999991
75442.0,-1.6274135674999999,-2.3505559385,10.1478233535,-0.037576938795437914,-0.11373961669396647,0.007812093731926619,10.542860473018727,0.12004064121539383,-1.3024211865,-0.2586013604999997,-0.2502657080000006
75452.0,-0.5284803685,-0.5273035705,9.822242573499999,-0.06928608064567089,0.2017513348842845,-0.10463597931556404,9.850573065970721,0.23759808556921555,1.0989331989999997,1.823252368,-0.325580780000001
75462.0,0.21133330749999998,-0.30351581749999995,10.708077268,-0.09619905771142345,0.4274450964474273,-0.04468217418030683,10.714462300824522,0.44040897569304316,0.739813676,0.22378775300000003,0.8858346945000015
75472.0,0.623114541,0.125132854,12.660581282999999,-0.15695222364409406,0.38507722885526496,0.13144947261395293,12.676523513400893,0.4361163107935338,0.41178123349999995,0.42864867149999997,1.9525040149999988
75482.0,1.5029671789999999,0.7487377275,13.540433921,-0.22170219356383172,0.10555751316061705,0.4296215220246642,13.64415146847544,0.49484230154914766,0.8798526379999999,0.6236048735,0.8798526380000009
75492.0,1.2372069639999999,0.4183516889999999,13.5309214705,-0.2707319829108564,-0.2781478869025803,0.7245961282457218,13.593805024653587,0.8220107071248557,-0.265760215,-0.3303860385000001,-0.009512450500000824
75502.0,0.6493963629999999,-0.2842947835,13.1166885745,-0.32002706230418426,-0.640537580811171,0.9071226614192888,13.135831086026561,1.1556717682365039,-0.5878106009999999,-0.7026464724999999,-0.4142328959999997
75512.0,0.123956056,-0.934377612,12.4259081485,-0.36319429069376,-0.8819515229470266,0.9438932581003053,12.461605833141432,1.341895325391788,-0.5254403069999999,-0.6500828285,-0.6907804259999999
75522.0,-0.1322917085,-1.4383413555,11.653830594,-0.41009128769484765,-0.9429717242552523,0.8527643818659254,11.743001935822452,1.3358808434764367,-0.2562477645,-0.5039637435,-0.7720775544999992
75532.0,0.11189387649999999,-1.6909606595,10.991783652499999,-0.46071979863669915,-0.8009473017034658,0.6840922722946894,11.121653476661692,1.1496788899406716,0.24418558499999998,-0.252619304,-0.6620469415000017
75542.0,0.544072942,-1.4958083245,10.4339814005,-0.5070844702159285,-0.47399826358587205,0.5282116808113199,10.554687384088645,0.8722480114979398,0.4321790655,0.19515233499999995,-0.5578022519999983
75552.0,1.039701033,-1.234853368,10.4710505375,-0.537727215893193,-0.08282983564114689,0.44960554195999924,10.594750607605695,0.7058020145520474,0.49562809100000005,0.2609549565,0.037069136999999586
75562.0,1.33174307,-0.981057266,10.893619086,-0.5331963411550157,0.25237984582613604,0.46106362849934207,11.018482189236769,0.7487146280962457,0.29204203699999987,0.253796102,0.42256854849999925
75572.0,1.373715532,-0.7224559054999999,11.492217002,-0.5126799957978223,0.4682142424447628,0.528478716186875,11.596555028080871,0.872556650528724,0.041972462000000155,0.25860136050000004,0.598597916000001
75582.0,1.1893505119999999,-0.518967918,12.1446534265,-0.4932283012843455,0.5534823030509458,0.6209410239697786,12.213782755154364,0.9670494156076292,-0.1843650200000002,0.20348798749999997,0.6524364244999994
75592.0,0.822974068,-0.392069867,12.744330074,-0.49962318766365277,0.5209738004032993,0.7062090845759617,12.776891411148126,1.0098357794688522,-0.3663764439999999,0.12689805099999996,0.5996766475000008
75602.0,0.5165162555,-0.493862894,13.121493832999999,-0.5691693223678708,0.41678637070549784,0.7688280074790141,13.140939464502635,1.043437157386449,-0.3064578124999999,-0.10179302699999998,0.3771637589999983
75612.0,0.20652804899999996,-0.6279197995,13.204065826,-0.6754877990823573,0.2763606697485381,0.8005371493292471,13.220601024422791,1.0832906876499886,-0.30998820650000003,-0.1340569055,0.08257199300000195
75622.0,-0.020888164499999997,-0.7380484789999999,13.024506064499999,-0.7716816208060249,0.11541687810513301,0.8117282004930347,13.045417206703956,1.1259290613164796,-0.22741621349999996,-0.11012867949999994,-0.17955976150000197
75632.0,-0.24124358999999998,-0.7355968164999999,12.6545992265,-0.8244411787645615,-0.0479232506012603,0.8189224476697554,12.678256296884657,1.163027888955512,-0.22035542549999998,0.0024516625000000625,-0.3699068379999986
75642.0,-0.32979763949999996,-0.7942405835,12.2021203955,-0.8225754217941795,-0.18808366151191694,0.8309146049602084,12.232388431282555,1.1842402074764142,-0.08855404949999998,-0.05864376700000018,-0.4524788310000005
75652.0,-0.17053764349999997,-0.7787460764999999,11.837018815999999,-0.7863371505350213,-0.2509678744612726,0.855961825055579,11.863833401976475,1.1891095972514996,0.159259996,0.015494507000000102,-0.365101579500001
75662.0,-0.104735022,-0.5573119194999999,11.447890944,-0.7788758679827456,-0.1854185437441216,0.9084543476385606,11.461927109616745,1.210915750923023,0.06580262149999998,0.22143415700000002,-0.38912787199999954
75672.0,-0.17897136249999998,-0.4651294095,11.306675184,-0.8247064688108646,0.005900958200992829,0.9657430350060223,11.31765345964694,1.2699744842589629,-0.07423634049999998,0.09218250999999994,-0.1412157599999997
75682.0,-0.437572723,-0.5417193459999999,11.277941699500001,-0.8923885918739527,0.25904002225174644,0.9955881652151254,11.29942028225631,1.3618571609208439,-0.25860136050000004,-0.07658993649999996,-0.02873348449999824
75692.0,-0.879264239,-0.647042767,11.423962717999999,-0.9677972875356197,0.4897969839749247,0.9865281610680228,11.476005146677357,1.4662095647800455,-0.44169151599999995,-0.10532342100000003,0.14602101849999727
75702.0,-1.364105015,-0.7548178504999999,11.620291851000001,-1.0330813282064677,0.6464769362557076,0.9348349992824548,11.724406815775312,1.5359381288589826,-0.4848407760000001,-0.10777508349999998,0.19632913300000254
75712.0,-1.7747094504999998,-0.819443674,11.808285331499999,-1.0773132074397598,0.6899112000208386,0.8620896760593312,11.968988430049997,1.5426534997874342,-0.4106044354999998,-0.06462582350000001,0.18799348049999764
75722.0,-2.0188950355,-0.8624948674999999,11.845354468499998,-1.1146178748718867,0.6419478068467824,0.7720254506686678,12.047085001992942,1.5001644210483978,-0.2441855850000001,-0.04305119349999997,0.037069136999999586
75732.0,-2.220029427,-0.8817159015,11.7998516125,-1.1364676517776038,0.5305661299722603,0.6995471628210992,12.039204777090667,1.4361146802472606,-0.20113439150000012,-0.01922103400000008,-0.045502855999998815
75742.0,-2.380466221,-0.808656359,11.552037567,-1.1465940520976747,0.35736489099209895,0.6446565578458776,11.822441223607434,1.3630736088683015,-0.16043679399999977,0.07305954250000002,-0.2478140455000002
75752.0,-2.4846128439999995,-0.8146384155,11.192918043999999,-1.1386004441235407,0.1711085892070201,0.6172112553582667,11.494274708405001,1.3063838847749418,-0.10414662299999966,-0.005982056500000055,-0.3591195230000004
75762.0,-2.5372745545,-0.887697958,10.730828696,-1.1010287413158588,-0.0004939281783143953,0.6004246786125853,11.062389178312594,1.2541029973075002,-0.05266171050000068,-0.07305954249999991,-0.46208934799999923
75772.0,-2.5072662055,-0.972623547,10.2843319215,-1.0413402262269047,-0.11640473446176182,0.576175073985376,10.630139390478616,1.1957914721411371,0.030008349000000045,-0.08492558900000002,-0.4464967744999999
75782.0,-2.4211638184999997,-1.0086139525,9.907266229,-0.9856502604542696,-0.1499796332823767,0.5447329675106982,10.24857358238087,1.1361048949045582,0.08610238700000039,-0.03599040549999999,-0.37706569250000044
75792.0,-2.380466221,-1.051665146,9.639054351499999,-0.9669979267382063,-0.09988344776238349,0.5122244648630518,9.984186887263494,1.0988337435013225,0.040697597499999905,-0.04305119349999997,-0.26821187750000064
75802.0,-2.485789642,-1.0767701699999999,9.5074491085,-0.9659315305652378,-0.006089453760208216,0.4743874720090667,9.885857205826602,1.0761525341634213,-0.10532342100000003,-0.02510502399999992,-0.1316052429999992
75812.0,-2.7347804855,-1.2180839964999999,9.540889785,-0.958470248012962,0.06532243791439177,0.4261570434594555,9.999566531401166,1.0509719610490151,-0.24899084350000011,-0.14131382650000002,0.03344067649999971
75822.0,-3.0005407005,-1.341353587,9.5696232695,-0.9432823928621074,0.07971093226783302,0.3534134655655838,10.118308329996209,1.0104635486002185,-0.26576021500000024,-0.12326959050000008,0.028733484500000017
75832.0,-3.2435494874999997,-1.5220901464999999,9.5888443035,-0.9195668589860084,0.0461377787764701,0.27294156974388123,10.236371758035085,0.9603275499901447,-0.2430087869999995,-0.1807365594999999,0.01922103400000097
75842.0,-3.3417140539999997,-1.70047311,9.527748873999998,-0.8923885918739527,-0.012751375515070572,0.19167031312476526,10.238977498878608,0.912829395570524,-0.09816456649999994,-0.17838296350000005,-0.061095429500001686
75852.0,-3.3943757645,-1.8872897925,9.4858744785,-0.8540175282688575,-0.08096582400001695,0.10880033491082251,10.25014459475364,0.8647189810124197,-0.052661710500000236,-0.18681668250000016,-0.04187439549999894
75862.0,-3.3859420455,-2.0081077205,9.399674025,-0.8129830922252187,-0.14784684093643966,0.028862509840230227,10.190729705417375,0.8268211663311728,0.008433718999999673,-0.12081792799999991,-0.08620045350000005
75872.0,-3.367995876,-2.094308174,9.329066145,-0.7711475500549146,-0.19980703809756284,-0.06280043714525996,10.137109947426898,0.7990840327116128,0.017946169500000053,-0.08620045350000005,-0.07060787999999896
75882.0,-3.306998513,-2.0931313759999997,9.2189374655,-0.7237182276319687,-0.23791106632710304,-0.1635233882778527,10.015300600330448,0.7791724116019039,0.06099736300000025,0.0011767980000003675,-0.11012867950000071
75892.0,-3.13224401,-2.106272287,9.120772899,-0.6858794894487317,-0.2562981099968633,-0.2685101787730676,9.870959110456186,0.7798827548671414,0.17475450299999995,-0.013140911000000255,-0.0981645664999995
75902.0,-2.950232586,-2.0608674975,9.011821017499999,-0.660832269353361,-0.23711170552968963,-0.3734969692682825,9.703811890448149,0.7952491654635695,0.18201142400000014,0.04540478950000004,-0.10895188150000124
75912.0,-2.777831679,-1.9482871555,8.9531772505,-0.6600329085559477,-0.16569981385508964,-0.46675863784859956,9.574526335856671,0.8252051227996076,0.17240090699999966,0.11258034199999978,-0.058643766999999514
75922.0,-2.638969515,-1.8165838459999997,9.011821017499999,-0.7032001369455233,-0.050855403744610776,-0.5504279768599557,9.564363806448508,0.894453834694879,0.1388621640000003,0.13170330950000042,0.058643766999999514
75932.0,-2.6115108949999994,-1.6717396255,8.968769824,-0.7703481892575013,0.05892755153508455,-0.6231715547538274,9.489654086744341,0.9925983959671371,0.027458620000000433,0.14484422049999957,-0.04305119349999842
75942.0,-2.6246518059999997,-1.584362374,8.8370665145,-0.8337664729579671,0.12954008241227113,-0.6836594306401949,9.353755706484062,1.0859730113973467,-0.013140911000000255,0.0873772515000002,-0.13170330950000064
75952.0,-2.6366159189999996,-1.5747518569999999,8.623968009999999,-0.8649432893863419,0.1596505026676773,-0.7326874746579676,9.154474925027241,1.1447471827338895,-0.011964112999999887,0.00961051700000004,-0.21309850450000134
75962.0,-2.601900378,-1.5520984955,8.395276932,-0.8769337013475429,0.16471370282771286,-0.7657300480567242,8.925221010246258,1.1757915746233558,0.03471554099999974,0.02265336149999997,-0.22869107799999888
75972.0,-2.5372745545,-1.6119190604999998,8.1343219755,-0.8939873134687795,0.18256667574636284,-0.7817172640049922,8.67198012126519,1.2015097954572214,0.06462582349999968,-0.05982056499999988,-0.2609549564999991
75982.0,-2.533646094,-1.7184192795,7.875720615,-0.9083758078222208,0.21054430365583196,-0.7817172640049922,8.449810799972667,1.216781571557542,0.003628460500000319,-0.10650021900000017,-0.25860136050000104
75992.0,-2.5947415234999998,-1.8716972189999999,7.645950805499999,-0.8902575448572677,0.23212879051524585,-0.7809179032075788,8.288335042305754,1.2067622148176012,-0.06109542949999991,-0.1532779394999999,-0.22976980950000048
76002.0,-2.7108522594999998,-1.9914364155,7.390977905499999,-0.8436258379024831,0.22306878636814328,-0.797172154531402,8.120412142829014,1.181925412954921,-0.11611073599999999,-0.11973919650000009,-0.2549729000000003
76012.0,-2.7994063089999996,-2.173349773,7.177879401,-0.7780765071853321,0.1998855779139026,-0.8291465864279381,8.00512820721619,1.1544874867562676,-0.0885540494999999,-0.18191335750000004,-0.21309850449999868
76022.0,-2.8449091650000002,-2.290637307,6.992337582999999,-0.7021337407725549,0.1860294089823196,-0.884305972107967,7.88880930837826,1.144375717692135,-0.04550285600000059,-0.11728753399999992,-0.1855418180000008
76032.0,-2.843732367,-2.3409454215,6.9539935815,-0.6080727113948244,0.1665777144688428,-0.9621127501618741,7.869235412230875,1.1502875733158042,0.0011767980000003675,-0.050308114499999945,-0.038344001499999614
76042.0,-2.64975683,-2.3529095344999997,7.021071067499999,-0.5110812742029955,0.1455272983605392,-1.0516429048014273,7.86465723795756,1.1782763099664946,0.19397553700000003,-0.011964112999999887,0.06707748599999963
76052.0,-2.3864482775,-2.2464093155,7.157481568999999,-0.448462351299943,0.15618602410246857,-1.1270516004630942,7.872168227656379,1.223011800746351,0.26330855249999985,0.10650021899999995,0.13641050149999945
76062.0,-2.1936495385,-2.083520859,7.340669791,-0.43327275081983635,0.21294238604807217,-1.1766137152319773,7.939684530770057,1.2718056342267205,0.1927987390000001,0.16288845649999972,0.18318822200000096
76072.0,-2.0057541244999997,-1.978197438,7.517875956499999,-0.4668476496404512,0.2862200346930541,-1.2085898924577654,8.028373036237124,1.326860265583976,0.1878954140000002,0.10532342100000003,0.17720616549999946
76082.0,-1.8177606439999998,-1.9506407515,7.5561218915,-0.5467872200402956,0.377350656256686,-1.2352358341479628,8.012754279240898,1.402560996085361,0.18799348049999987,0.027556686500000094,0.03824593500000084
76092.0,-1.6908625929999999,-1.9758438419999997,7.4137293335,-0.6456444142025063,0.4855331446123025,-1.251757120847341,7.856612363275559,1.4897969773428972,0.12689805099999996,-0.025203090499999803,-0.14239255800000006
76102.0,-1.6466346015,-2.105095489,7.1611100295,-0.7207860744886182,0.597714182284238,-1.2706764899389598,7.643580926716921,1.5784212210192887,0.0442279914999999,-0.12925164700000025,-0.25261930400000043
76112.0,-1.656147052,-2.289460509,6.898978275,-0.7391731181583785,0.6995035295897994,-1.2946573138613617,7.455223250784701,1.6467603489431255,-0.009512450499999936,-0.18436502,-0.2621317544999995
76122.0,-1.725578134,-2.4294994709999997,6.817485013499999,-0.6997356583803147,0.7805077508333602,-1.3202386047078425,7.440308426767353,1.6857794381474682,-0.06943108200000014,-0.14003896199999977,-0.08149326150000125
76132.0,-1.8273711609999999,-2.5301157,6.891721354,-0.6134029469304151,0.8020904923635221,-1.3455511148495163,7.565487032347658,1.682296090441766,-0.10179302699999981,-0.10061622900000033,0.0742363405000015
76142.0,-1.8009912725,-2.6641726055,7.1539511749999996,-0.4942929521280621,0.7322773222837489,-1.3724640919152689,7.843494288249447,1.6322417966867946,0.02637988849999995,-0.13405690550000005,0.26222982099999914
76152.0,-1.7351886509999999,-2.7025166069999997,7.504636979,-0.37571702807681934,0.5851914449011788,-1.3900517747876158,8.16296832360902,1.5543024959648644,0.06580262150000005,-0.038344001499999614,0.35068580400000027
76162.0,-1.514931292,-2.6258286039999996,7.729699596499999,-0.2925817598165734,0.3904074643908556,-1.3911164256313324,8.302906029168199,1.4741868891327023,0.22025735899999987,0.07668800300000012,0.225062617499999
76172.0,-1.156988567,-2.57914895,7.671055829499999,-0.25953918641781676,0.2100119782339737,-1.3700660095230286,8.175312189131418,1.4101583211606152,0.357942725,0.046679653999999626,-0.058643766999999514
76182.0,-0.7882585269999999,-2.5025590134999995,7.420888187999999,-0.2662011081726791,0.11568391348068814,-1.3303632596986616,7.871069471185997,1.361657886764006,0.3687300400000001,0.07658993650000046,-0.25016764150000004
76192.0,-0.5261267725,-2.4618614159999996,6.9204548384999995,-0.2960462383817822,0.11968071746775516,-1.2762720155208536,7.364120190766093,1.315612825642583,0.2621317544999999,0.040697597499999905,-0.5004333494999997
76202.0,-0.35009740500000003,-2.4965769569999994,6.4560118945,-0.3264219486834915,0.21640686461328093,-1.225643504579002,6.930768664234623,1.286695465116271,0.17602936749999992,-0.03471554099999974,-0.46444294399999997
76212.0,-0.43629785849999997,-2.5121695305,6.278805729,-0.3168296191145306,0.3493712830179649,-1.1886058725224302,6.776780426856657,1.2787592506569347,-0.08620045349999994,-0.01559257350000065,-0.17720616549999946
76222.0,-0.672147791,-2.7204627765,6.397368127499999,-0.2635377357341358,0.44103423000345515,-1.18807180177132,6.984197830103406,1.2944025403075996,-0.23584993250000003,-0.20829324599999977,0.11856239849999906
76232.0,-0.7847281329999999,-2.9885765875,6.6966670855,-0.19452392645177602,0.43543870442156124,-1.2387003127131717,7.375143274275684,1.32733751848814,-0.11258034199999989,-0.2681138110000001,0.2992989580000005
76242.0,-0.7918869875,-3.1250851555,6.95879884,-0.1361670975820936,0.36535849896623296,-1.312777322155567,7.669297459721042,1.3694570489054163,-0.007158854500000089,-0.136508568,0.26213175450000037
76252.0,-0.638609048,-3.1609774945,7.048529687499999,-0.10925586584559303,0.26596897938216385,-1.376460895902336,7.751217387771537,1.40617244325279,0.15327793950000002,-0.035892339000000106,0.08973084749999938
76262.0,-0.371672035,-3.1669595509999997,6.924083298999999,-0.10126051254220701,0.18309900116822111,-1.4249583598275024,7.623037611789796,1.4402379188423684,0.26693701299999995,-0.005982056499999722,-0.1244463885
76272.0,-0.04246279449999999,-3.0915464124999996,6.707356334,-0.09246754377065958,0.14153049437347218,-1.4425442973705973,7.385667965784021,1.4524170122127489,0.3292092405,0.07541313850000009,-0.21672696499999944
76282.0,0.25556129899999996,-2.970630418,6.4128626345,-0.07941073563649,0.14526200831423605,-1.4225585321060104,7.072111695021488,1.4321591717617916,0.2980240935,0.12091599449999979,-0.29449369950000026
76292.0,0.5129858615,-2.9214991015,6.228595681,-0.045038221347713674,0.17457132244297682,-1.3687343233037572,6.89881987382886,1.3805568571382527,0.25742456250000006,0.04913131650000002,-0.18426695349999989
76302.0,0.6937224209999999,-2.8820763684999995,6.1771107684999995,0.009054768159346582,0.20707982509062323,-1.2917269060472631,6.851591963739733,1.308251674026224,0.1807365594999999,0.03942273300000032,-0.05148491250000031
76312.0,0.763153503,-2.8927656170000002,6.252523907,0.06954089871646206,0.22626622955779688,-1.201927970702903,6.9314177043116585,1.2250155876520892,0.06943108200000003,-0.010689248500000748,0.07541313850000009
76322.0,0.718827445,-2.9862229915,6.450029837999999,0.1374883118258533,0.20521581344949325,-1.1158605492993066,7.14402726490729,1.1428741538161629,-0.044326058,-0.0934573744999998,0.19750593099999936
76332.0,0.65900688,-3.2686545115,6.679897713999999,0.19131426595735843,0.13513560799416496,-1.0615022697459433,7.465884130693367,1.087037188684244,-0.05982056499999999,-0.2824315199999998,0.22986787600000014
76342.0,0.68058151,-3.5416716475,6.8055209004999995,0.218227243023111,0.03547905303454073,-1.0513776147551241,7.7020610214150835,1.074372738675861,0.02157463000000004,-0.273017136,0.12562318650000037
76352.0,0.7583482444999999,-3.6637644399999996,6.748053931499999,0.21955892924238268,-0.04605923896013035,-1.0681641915008058,7.715859886893835,1.0914679642152663,0.07776673449999993,-0.12209279249999971,-0.057466969000000034
76362.0,0.9403596685,-3.655330721,6.467976007499999,0.20570276031079968,-0.07776838081036333,-1.0974752509587984,7.488686975673602,1.1192915049800143,0.18201142400000003,0.008433718999999673,-0.2800779240000004
76372.0,1.143847656,-3.5344147264999997,6.0801229999999995,0.17932385399615738,-0.05298645076129585,-1.1227895064297242,7.12519267207321,1.1382534358942291,0.20348798749999997,0.12091599450000023,-0.3878530074999995
76382.0,1.3700870715,-3.4147735965,5.7113929599999995,0.164668324267161,0.02721840968485157,-1.124920553446409,6.793955169294433,1.137234694515122,0.22623941550000004,0.11964112999999976,-0.36873004
76392.0,1.6011317454999998,-3.396827427,5.4971176575,0.18118961096653932,0.14286218059274383,-1.0990739725536252,6.657353977044153,1.1230328912862377,0.23104467399999984,0.017946169500000053,-0.21427530249999993
76402.0,1.8010893389999998,-3.317785828,5.443279148999999,0.22488916477797333,0.27263090113702626,-1.0556397087884943,6.624267016166789,1.1132286106008857,0.19995759349999997,0.07904159899999996,-0.05383850850000016
76412.0,1.9482871555,-3.2339389704999997,5.542620513499999,0.27551593039057287,0.3954689192216391,-1.0098091079603753,6.7063273303557045,1.1189366061082473,0.1471978165000003,0.0838468575000002,0.09934136449999986
76422.0,1.944658695,-3.2088339465,5.782000839999999,0.32827548834910947,0.47301040722924326,-0.9615786794107639,6.892738675592639,1.1207752666325972,-0.003628460500000097,0.025105023999999698,0.23938032650000007
76432.0,1.8884665904999998,-3.2196212614999995,5.9148809474999995,0.36931166972200014,0.4961918703542319,-0.9186784863967433,6.994146392093608,1.1075051435396108,-0.05619210450000023,-0.01078731499999952,0.13288010750000012
76442.0,1.8381584759999998,-3.2423726895,5.985586894,0.4074156979515403,0.48473378381488913,-0.8888351015168922,7.051174207614691,1.0913213228913767,-0.050308114499999945,-0.022751428000000296,0.0707059465000004
76452.0,1.8094249915,-3.2711061740000003,5.953224949,0.4471184477759073,0.4546233635594829,-0.8693834070034154,7.029583322988763,1.0781580669867201,-0.028733484499999795,-0.02873348450000046,-0.03236194499999989
76462.0,1.8645383644999998,-3.2782650284999995,5.941260836,0.5033424842996527,0.4295761434641123,-0.8464672339247299,7.0371944147625936,1.0744282654708173,0.055113372999999743,-0.007158854499999201,-0.011964113000000332
76472.0,1.9733921794999998,-3.2566903985,6.00951512,0.5742203052231424,0.41278956671843087,-0.8096948919144613,7.114392526653449,1.0750488376415837,0.10885381500000002,0.021574629999999484,0.068254284
76482.0,2.1409878279999996,-3.1777468659999997,6.0693356849999995,0.6400366713158485,0.40719404113653707,-0.7659953381030273,7.17765558390979,1.07805509402894,0.16759564849999986,0.0789435325000003,0.05982056499999988
76492.0,2.266709081,-2.9957354419999995,6.1663234534999996,0.6975923940588655,0.4271780610718721,-0.711637058549664,7.220522545462133,1.084224860077983,0.12572125300000048,0.18201142400000014,0.09698776850000002
76502.0,2.3517327365,-2.786265398,6.254877503,0.7474215442033038,0.46101999526804216,-0.6436896454402726,7.2399871760627725,1.0888134644755365,0.08502365549999968,0.2094700439999997,0.08855404950000079
76512.0,2.3625200514999998,-2.5922898610000003,6.3961913295,0.7791306860535367,0.5225725219981262,-0.5640171104159836,7.29470569939281,1.0946423925372764,0.010787314999999964,0.1939755369999996,0.14131382649999935
76522.0,2.1769782335,-2.5013822155,6.566140574,0.803645580727049,0.5929180174997576,-0.47874904980980054,7.355973712207074,1.1075191409595346,-0.18554181799999991,0.09090764550000019,0.1699492445000006
76532.0,1.8872897925,-2.5575743199999996,6.9551703795,0.8358870479991403,0.637151642062302,-0.3972125031443815,7.647054607564427,1.1235867321438209,-0.2896884409999998,-0.05619210449999956,0.3890298054999999
76542.0,1.5783803175,-2.6832955729999997,7.236523168,0.8699942722416135,0.625426520147404,-0.3311291016761202,7.877729820180021,1.1214699495812361,-0.3089094750000001,-0.12572125300000003,0.28135278849999956
76552.0,1.3485124414999998,-2.83412185,7.5406273845,0.9134285360067443,0.5553463146920757,-0.2805005907342687,8.167728804104541,1.1051885816618665,-0.22986787600000014,-0.15082627700000018,0.30410421649999986
76562.0,1.238383762,-2.970630418,7.843456736499999,0.9648546624167572,0.44476574394421897,-0.23573464074986614,8.478092533092532,1.088270144505985,-0.11012867949999983,-0.136508568,0.30282935199999983
76572.0,1.2516227395,-3.066343322,8.048121521999999,1.000295318207754,0.3219259805303541,-0.20322788343147172,8.702946678182457,1.0702937135070998,0.013238977499999915,-0.09571290399999999,0.20466478549999945
76582.0,1.401174152,-3.1142978405,8.1786480335,0.9949650826721634,0.22253471561703297,-0.17764659258499083,8.862980520087433,1.0349084632220555,0.14955141250000015,-0.0479545185000001,0.13052651150000116
76592.0,1.4071562085,-3.1058641215,8.1798248315,0.9552623328477965,0.16924283223663814,-0.16165937663672278,8.862054773604429,0.9835156403819244,0.005982056499999944,0.008433719000000117,0.0011767979999994793
76602.0,1.4311825009999999,-3.038884702,8.1343219755,0.9072989396737403,0.15991579271398043,-0.15073361551923828,8.800585070568916,0.933533635998155,0.02402629249999988,0.06697941949999997,-0.045502855999998815
76612.0,1.4933566619999998,-2.878447908,8.0745014105,0.8540070562933454,0.20601517424690668,-0.14833553312699807,8.701330329735553,0.8909398041432873,0.06217416099999995,0.16043679399999977,-0.05982056500000077
76622.0,1.4646231775,-2.646226436,7.9727083835,0.7905887725928795,0.2718315403396128,-0.1376768073850687,8.527116415939602,0.847276753466698,-0.028733484499999795,0.23222147199999998,-0.10179302700000026
76632.0,1.4503054684999999,-2.5216819809999995,7.826687365,0.7484879403762722,0.30780277622321595,-0.10623470091039086,8.349808445390332,0.816249078172192,-0.014317709000000178,0.12454445500000055,-0.14602101849999993
76642.0,1.4263772424999999,-2.5360977565,7.8326694214999995,0.7700706819064341,0.3221930159059092,-0.04921130358923211,8.355660005944914,0.8362050867050125,-0.023928225999999997,-0.014415775500000283,0.005982056499999722
76652.0,1.2563299315,-2.5288408354999996,7.960744270499999,0.8470780991629279,0.25557728901578963,0.011274826967883369,8.446706471067507,0.8848661924072448,-0.1700473109999998,0.007256921000000194,0.12807484899999988
76662.0,1.2443658185,-2.5349209585,8.166683920499999,0.9323461597691108,0.12420984687668045,0.06403438492641995,8.641122427870522,0.9427607597637068,-0.01196411300000011,-0.00608012300000027,0.20593964999999947
76672.0,1.3425303849999999,-2.637792717,8.385764481499999,0.9883031609173011,-0.018613936472519525,0.10187312310965702,8.89277145729572,0.9937141187093232,0.09816456649999994,-0.10287175850000008,0.21908056100000017
76682.0,1.6142726565,-2.6055288384999997,8.613180694999999,0.9885701962928563,-0.12706346020369116,0.11066609188120445,9.142293936562059,1.0028275723222264,0.2717422715000002,0.03226387850000023,0.22741621349999974
76692.0,1.929164188,-2.39478393,8.7113452615,0.9283493557820438,-0.16037132364875095,0.09840864454444828,9.238192507233569,0.9472252895435509,0.3148915314999998,0.21074490849999972,0.09816456650000127
76702.0,2.2009064594999996,-2.105095489,8.7244861725,0.8204321574727305,-0.1116085696772814,0.09174672278958593,9.240783258762251,0.8330563360201979,0.27174227149999974,0.289688441,0.013140911000000699
76712.0,2.2966193635,-1.6885089969999998,8.476672127,0.7111832729441454,-0.014350097109897379,0.1064022525185823,8.943125487345673,0.7192419706494042,0.09571290400000043,0.4165864920000002,-0.2478140455000002
76722.0,2.2595502265,-1.2875150784999998,8.245627452999999,0.6688154053519831,0.09783094056203814,0.13571331197657507,8.646018412952191,0.6894222526253716,-0.03706913700000003,0.4009939185,-0.2310446740000014
76732.0,2.103918691,-1.039701033,8.183453292,0.7468892187814453,0.16764411064181134,0.18714118371584,8.513304874060722,0.7880164183615767,-0.15563153549999997,0.24781404549999975,-0.06217416099999973
76742.0,2.0308591485,-0.739225277,8.396551796499999,0.9091646966441221,0.18629644435787474,0.26148348320453846,8.670232116991404,0.9641889974445692,-0.07305954250000024,0.3004757560000001,0.21309850449999956
76752.0,1.9830026964999998,-0.5512317965,8.868153594999999,1.0884937866280355,0.14792538075277942,0.36327283051009973,9.10386205806691,1.1570081206221128,-0.047856451999999994,0.18799348049999998,0.47160179850000006
76762.0,2.0608674975,-0.39805192349999996,9.513431164999998,1.2017394751436876,0.05226562978022219,0.4877095701895395,9.742227297042868,1.2979869363862697,0.07786480100000004,0.15317987300000002,0.6452775699999993
76772.0,2.1469698845,-0.378928956,10.280703461,1.231849895399094,-0.0665773296465757,0.6315997497117081,10.50932588188522,1.385931076732721,0.08610238699999995,0.019122967499999977,0.7672722960000016
76782.0,2.221206225,-0.4231569475,10.991783652499999,1.1817554552083525,-0.1971436656590195,0.772557776090526,11.221948438643018,1.4255725510201558,0.07423634050000016,-0.04422799150000001,0.7110801914999989
76792.0,2.1135292079999997,-0.4351210605,11.5437019145,1.0599820879674562,-0.29307045200713183,0.8842064883406032,11.743653176979926,1.4111248813181396,-0.10767701700000032,-0.011964112999999998,0.5519182620000009
76802.0,1.8369816779999997,-0.44708517349999993,11.837018815999999,0.8875802097847083,-0.38659741063375197,0.9684081527738178,11.98705140090795,1.3693321500165643,-0.27654753,-0.011964112999999943,0.293316901499999
76812.0,1.514931292,-0.401680384,11.807010467,0.6954613470421805,-0.4769286713999705,1.0193019537619723,11.910577656781335,1.322914931420777,-0.3220503859999997,0.04540478949999993,-0.030008348999999157
76822.0,1.201314625,-0.4148212949999999,11.469465573999999,0.5507718067225985,-0.549406959247539,1.0392877190265595,11.53966525026595,1.2981974244580565,-0.313616667,-0.013140910999999922,-0.33754489300000046
76832.0,1.0121443465,-0.3764772935,10.9990405735,0.48682119760027437,-0.5659265006176653,1.0566083665233512,11.05192584431203,1.2937112980651697,-0.1891702785,0.03834400149999995,-0.4704250004999988
76842.0,0.9211386344999999,-0.2364383315,10.637469387999998,0.47749590340686865,-0.48545635012521476,1.0773917472560997,10.679894870700183,1.2745364579731675,-0.09100571200000007,0.140038962,-0.36157118550000256
76852.0,0.7559946485,-0.2160404995,10.660220815999999,0.5070722529111645,-0.3194493583217741,1.1245557796327423,10.689177201817946,1.274282489760415,-0.1651439859999999,0.020397831999999977,0.022751428000001184
76862.0,0.493862894,-0.25203090499999997,10.949909256999998,0.5547686107096657,-0.15903963742947927,1.2066263970492719,10.963937836000323,1.3375384404788297,-0.2621317545,-0.03599040549999996,0.28968844099999913
76872.0,0.07247114349999999,-0.417174891,11.463483517499998,0.5838143801213552,-0.053785811558709255,1.2876306182928325,11.471300768104513,1.41482322327798,-0.4213917505,-0.16514398600000002,0.5135742605000004
76882.0,-0.34656701100000004,-0.7368716809999999,12.071593884,0.5910086272980758,-0.04605923896013035,1.3409225016732274,12.09902754222832,1.4661124808581123,-0.41903815450000004,-0.3196967899999999,0.6081103665000018
76892.0,-0.6553784195,-0.9858625244999999,12.487003578,0.5763530975690794,-0.1379892213211757,1.344386980238436,12.542994225739905,1.4692175709924375,-0.30881140849999994,-0.2489908435,0.41540969399999916
76902.0,-0.6997044775,-1.088734283,12.7467817365,0.5489077950814686,-0.27761556148072203,1.2940255046721398,12.812313348212452,1.4327847620000158,-0.044326058,-0.10287175850000008,0.25977815849999963
76912.0,-0.7440305355,-0.8517075525,12.7934613905,0.5270580181757516,-0.4278988820529458,1.2263451269383037,12.843350090336871,1.401716796699974,-0.044326058,0.2370267305,0.04667965400000007
76922.0,-0.7404020749999999,-0.485429175,12.786302536,0.5251922612053697,-0.5899090698693195,1.1749172551990388,12.816917307165774,1.4157154299182226,0.003628460500000097,0.3662783775,-0.007158854499998313
76932.0,-0.6326269914999999,-0.2688002765,12.680979114999998,0.5529045990685356,-0.719943080459905,1.1583959684996605,12.699594553137787,1.4717006334881773,0.10777508349999998,0.2166288985,-0.10532342100000314
76942.0,-0.510534199,-0.10120462799999999,12.607919572499998,0.5776847837883512,-0.7860247365989143,1.1778476630131371,12.618657753172709,1.5293396330545728,0.12209279249999994,0.1675956485,-0.07305954249999935
76952.0,-0.358531124,-0.031773546,12.521719119,0.5598318108697011,-0.7828272934092606,1.2172851227912012,12.526891227285095,1.5517774640511142,0.152003075,0.06943108199999999,-0.08620045349999828
76962.0,-0.289100042,-0.055701772,12.357751931,0.5108037668519284,-0.7186096489113812,1.2519246724555326,12.36125860540999,1.5312203307302155,0.06943108199999998,-0.023928225999999997,-0.16396718800000087
76972.0,-0.315381864,-0.070019481,12.2943029055,0.46896822468162436,-0.6162879761839617,1.272708053188281,12.298546758867301,1.489807992326616,-0.02628182200000001,-0.014317708999999998,-0.06344902549999887
76982.0,-0.476995456,-0.11915079749999999,12.448659576499999,0.4439210045862537,-0.5046410092631364,1.276704857175348,12.458364532681433,1.442811040600297,-0.16161359199999997,-0.049131316499999994,0.1543566709999986
76992.0,-0.876910643,-0.15739673249999997,12.764727906,0.41647570209864293,-0.3988548579705081,1.2655138060115605,12.795781512726116,1.3907057206221227,-0.399915187,-0.03824593499999998,0.3160683295000002
77002.0,-1.3868564429999999,-0.28792324399999997,13.101096000999998,0.35225805760076356,-0.29493446364826176,1.2492595546877372,13.177442354848084,1.3310602961439253,-0.5099457999999999,-0.1305265115,0.3363680949999992
77012.0,-1.8991558389999998,-0.43041386849999996,13.293894739999999,0.2368795767391744,-0.1958102341104958,1.213021283428579,13.435761472920117,1.251348958408187,-0.512299396,-0.1424906245,0.19279873900000055
77022.0,-2.406748043,-0.6506712275000001,13.341751191999998,0.11430684870086462,-0.13185962498817158,1.1530674782933217,13.572698112682462,1.1661979359695607,-0.507592204,-0.2202573590000001,0.04785645199999955
77032.0,-2.7706728245,-0.880441037,13.359697361499999,0.02930582347023679,-0.13905387216489223,1.069930464703824,13.672355975139268,1.0793266465508298,-0.3639247815000002,-0.22976980949999992,0.017946169500000053
77042.0,-2.902376134,-1.00616229,13.275850504,-0.013594369543783834,-0.2328496114963195,0.9705409451197547,13.626604726841821,0.9981750721247384,-0.13170330949999975,-0.12572125300000003,-0.08384685749999932
77052.0,-2.6916312254999997,-0.9583058379999999,13.1082548555,-0.038643334968406454,-0.38713148138486225,0.8732807272231188,13.416019308646318,0.9560247485060508,0.21074490850000016,0.047856452000000105,-0.16759564849999897
77062.0,-2.4091997055,-0.635078654,12.710889397499999,-0.07887841021463173,-0.5291559039366488,0.8069320357085543,12.952771031452135,0.968177196861066,0.2824315199999998,0.32322718399999995,-0.3973654580000012
77072.0,-2.105095489,-0.35617752799999997,12.2870459845,-0.10792243429706938,-0.6352073452755803,0.7760222546557348,12.471158265152356,1.008635793057943,0.30410421649999986,0.278901126,-0.4238434129999984
77082.0,-1.9398534365,-0.1801481605,11.751995160499998,-0.11005522664300643,-0.6861011462637349,0.7802860940183568,11.912383261432105,1.0448412914573573,0.16524205250000001,0.17602936749999998,-0.5350508240000025
77092.0,-1.8441405324999998,-0.1766177665,11.192918043999999,-0.0887377751591477,-0.6850364954200183,0.7970726707640384,11.345195568114002,1.0547389417654274,0.09571290400000021,0.0035303939999999923,-0.5590771164999992
77102.0,-1.7639221354999999,-0.289100042,10.730828696,-0.05036671155405237,-0.6296118196936865,0.7994707531562786,10.878680280129954,1.0188725800035212,0.08021839699999989,-0.1124822755,-0.46208934799999923
77112.0,-1.6717396255,-0.437572723,10.449573974,-0.007998843961890012,-0.5318192763751921,0.770426729073841,10.59149562155783,0.9361907226096493,0.09218250999999977,-0.148472681,-0.2812547219999999
77122.0,-1.5664162045,-0.4698366015,10.207741984999998,-0.009864600932271952,-0.3929922970130592,0.7115393201115523,10.337910939361054,0.8129135623963741,0.10532342100000003,-0.03226387850000001,-0.24183198900000136
77132.0,-1.4694284359999998,-0.48062391649999997,9.862940171,-0.0607584019204266,-0.2165953601724963,0.6292016673194678,9.983376587826521,0.6682064588207568,0.09698776850000024,-0.010787314999999964,-0.34480181399999843
77142.0,-1.4048026124999997,-0.472288264,9.533730930499999,-0.12071395238493582,-0.013817771688039106,0.5356729633635956,9.648240877982438,0.5492798128400054,0.06462582350000012,0.008335652499999957,-0.3292092405000009
77152.0,-1.42392558,-0.5345604915,9.366135282,-0.1524213489059168,0.1588511418702639,0.4381474554206565,9.488825485652916,0.4903459447852935,-0.0191229675000002,-0.062272227499999944,-0.16759564849999897
77162.0,-1.538859518,-0.5716296285,9.2452192875,-0.1406979723202709,0.25930705762730155,0.3643374813538163,9.389831133853273,0.4688047246664722,-0.11493393800000007,-0.03706913700000003,-0.12091599450000068
77172.0,-1.7268529984999998,-0.5249499745,9.1291085515,-0.07834608479277345,0.2854206738956407,0.3209049629179374,9.305816283337341,0.43655820381108507,-0.18799348049999987,0.04667965399999996,-0.11611073599999955
77182.0,-1.8919969844999998,-0.48660597299999997,9.0836056955,0.02584134490502804,0.24704961029054534,0.2971894290418384,9.291304020084393,0.3873278221163887,-0.1651439859999999,0.03834400150000006,-0.04550285600000059
77192.0,-1.9602512685,-0.44590837549999995,9.1051803255,0.1707961752709131,0.1681764360636696,0.28413262090766883,9.324469318672735,0.37173376682527925,-0.06825428400000022,0.040697597500000016,0.021574629999999928
