timestamp,ax,ay,az,gx,gy,gz,acc_mag,gyro_mag,dax,day,daz
85632.0,1.1459070525,-0.10699055149999999,11.1326071465,0.02192133540504878,0.16492663299645616,0.04326671215693943,11.191938698428542,0.1719108710883632,0.0,0.0,0.0
85642.0,-0.20809711299999997,-0.564274641,11.0284605235,-0.042563344468385715,0.11136771424050616,0.037405896528742474,11.044847296242375,0.12495442034041249,-1.3540041655,-0.45728408950000005,-0.1041466230000001
85652.0,1.1386501315,-0.9652685595,10.8009462435,-0.08413185126313466,0.024235641993193262,0.06165375582669969,10.90360982743334,0.10708277334530869,1.3467472445,-0.4009939185,-0.2275142799999994
85662.0,1.4655057759999999,-0.6875442315,10.727984767499999,-0.03270397952386975,0.021303488849842785,0.05605823024480587,10.849427700181714,0.06830749660215,0.32685564449999993,0.277724328,-0.07296147600000147
85672.0,1.1925867065,-0.12611351899999998,10.668066135999998,0.048033206344135944,0.0253002928369098,0.07284480699048733,10.735259789789207,0.09084965401592393,-0.2729190694999999,0.5614307125,-0.05991863150000043
85682.0,1.221320191,0.3790270224999999,10.6813051135,0.08773770149775495,0.05914222703307985,0.15544774982887496,10.757581671565907,0.18804177782982698,0.028733484500000017,0.5051405414999999,0.013238977500002136
85692.0,1.3553770964999998,0.5514279295,10.7268079695,0.060025363634588984,0.16546070374756644,0.24924348916030223,10.826150241414448,0.3051271958592126,0.13405690549999982,0.17240090700000005,0.045502855999998815
85702.0,1.3397845229999998,0.498766219,10.9829576675,-0.024443336174180586,0.30268896151487257,0.3169238668941383,11.075610567159849,0.4389291759651089,-0.015592573499999984,-0.05266171049999996,0.25614969799999976
85712.0,1.1889582459999999,0.28449091649999997,11.2738229065,-0.14488501719580527,0.40714168125897726,0.35183045193402496,11.339913567546558,0.5572617730782505,-0.15082627699999995,-0.21427530250000004,0.2908652390000004
85722.0,1.027344654,-0.158475464,11.503690782499998,-0.23681499955685062,0.4481761173026159,0.34756835790065477,11.55056072795463,0.6146112100745617,-0.16161359199999992,-0.4429663805,0.22986787599999836
85732.0,0.688622963,-0.44335864649999995,11.743071108999999,-0.2541339017243903,0.3962159201414927,0.30999665509297286,11.771596643855398,0.5636213458946204,-0.33872169099999994,-0.28488318249999994,0.23938032650000096
85742.0,0.37490822949999997,-0.648023432,11.7922024255,-0.2173633050433738,0.2536591721678479,0.2740236738801177,11.815943829967031,0.4320633701796691,-0.31371473350000006,-0.20466478550000006,0.049131316500000466
85752.0,0.24330298649999998,-0.7474628629999999,11.7215945455,-0.1310288482642223,0.08152432936065514,0.24311389282729812,11.747922189217093,0.28795683746144346,-0.13160524299999998,-0.09943943099999986,-0.07060787999999896
85762.0,0.08286619249999999,-0.563097843,11.65814552,-0.014583971229664618,-0.06023305781557631,0.20580922539517132,11.672030798115072,0.21493755076394325,-0.160436794,0.18436501999999988,-0.06344902550000064
85772.0,-0.0189268345,-0.21829602899999997,11.6294120355,0.09120043473371169,-0.1518960048010665,0.1954175350287971,11.631476074547615,0.26377628507292833,-0.101793027,0.344801814,-0.028733484500000017
85782.0,0.032558078,0.1803442935,11.611465866,0.14023022408073638,-0.1550934479907201,0.2185989981537858,11.612911936716138,0.3024963063398008,0.051484912499999994,0.3986403225,-0.017946169500000053
85792.0,0.18103075899999999,0.396973192,11.758663682499998,0.11544829403166891,-0.07915242690719483,0.26016750494853474,11.766755349246248,0.2954328111623138,0.148472681,0.21662889849999997,0.14719781649999852
85802.0,0.1067944185,0.48915570199999997,11.992061952499999,0.022720696202462184,0.040489893317016454,0.3273173025897646,12.002509246870837,0.3305938264266099,-0.07423634049999998,0.09218251,0.23339827000000035
85812.0,-0.094339973,0.31440119899999996,12.215947771999998,-0.11850436555191098,0.13002004795656957,0.40858681387962853,12.22035711886809,0.4448501792758949,-0.2011343915,-0.174754503,0.22388581949999953
85822.0,-0.2858638475,-0.1405292945,12.366774049,-0.2695887922508001,0.1465413346559479,0.4621457326355785,12.370875757234813,0.554735214190759,-0.1915238745,-0.4549304935,0.15082627700000195
85832.0,-0.5348546909999999,-0.6923494899999999,12.425417816,-0.3732438965267434,0.1023077100934036,0.46108108179186197,12.456180203375277,0.6019747817187826,-0.24899084349999995,-0.5518201954999999,0.058643766999999514
85842.0,-0.7718814214999999,-1.0346996415,12.378738162,-0.40202088523362584,0.0013194689145077131,0.4149834455881878,12.445865287730388,0.5777835176556085,-0.2370267305,-0.34235015150000014,-0.04667965400000007
85852.0,-1.0245007254999998,-1.0443101584999999,12.1524987465,-0.3604523784388769,-0.11246029035225463,0.3467689971032414,12.240237384437458,0.51266165390084,-0.2526193039999999,-0.009610516999999819,-0.22623941550000026
85862.0,-1.182485857,-0.9102532529999999,11.831723224999998,-0.28904048676427696,-0.20918643749778038,0.2793539094157084,11.92545631242706,0.4531467481156438,-0.15798513150000026,0.13405690549999993,-0.32077552150000166
85872.0,-1.202883689,-0.7761963474999999,11.527619008499999,-0.2165639442459604,-0.2606125639077933,0.2319228416635105,11.616170192635138,0.4106178940319562,-0.020397832000000005,0.13405690550000005,-0.30410421649999897
85882.0,-1.0927550095,-0.7043136029999999,11.3169721665,-0.16007287234665993,-0.24382598716211182,0.21806667273192754,11.391401589773483,0.36418060112156164,0.11012867950000005,0.07188274449999998,-0.21064684199999917
85892.0,-0.9741926109999999,-0.5845744065,11.160065766499999,-0.15500967218662437,-0.17481217787975203,0.23378859863389242,11.217746939232809,0.33052141361440723,0.11856239850000017,0.11973919649999987,-0.15690640000000045
85902.0,-0.8772048425,-0.47572059149999996,11.1002452015,-0.21309946568075164,-0.08341626626981699,0.2620332619189167,11.145009733073648,0.34789522288138197,0.0969877684999999,0.10885381500000008,-0.05982056499999899
85912.0,-0.7275553635,-0.509161268,11.055919143499999,-0.3178192208004115,-0.007473499857039719,0.2918766467987677,11.091525148120917,0.4315748918285058,0.14964947899999992,-0.03344067649999999,-0.04432605800000111
85922.0,-0.6796989115,-0.691172692,11.071511717,-0.42413769751489805,0.05914222703307985,0.31212770210965796,11.113868903317561,0.5299191371293613,0.047856452000000105,-0.18201142400000003,0.015592573500001095
85932.0,-0.7946328495,-0.912606849,11.081122234,-0.4848908634475686,0.08898561191293089,0.31639154147228005,11.146997918327399,0.5857825501819365,-0.11493393800000007,-0.22143415700000002,0.009610517000000485
85942.0,-1.075985638,-1.003612561,11.0978916055,-0.4790283024901197,0.06606943883424535,0.3113283413122445,11.195006983169176,0.5751161808179901,-0.2813527884999999,-0.09100571199999996,0.016769371499998798
85952.0,-1.3907791029999998,-0.933004681,11.036796176,-0.4132119363974135,-0.0018779742751458986,0.2889462389846692,11.163137286564096,0.5042197538693459,-0.31479346499999994,0.07060787999999996,-0.06109542949999991
85962.0,-1.5452338405,-0.8923070835,10.7734876235,-0.3002332832573166,-0.08421562706723039,0.25270622239625895,10.920256184119415,0.4013635895987358,-0.15445473750000005,0.040697597500000016,-0.26330855249999985
85972.0,-1.5847546399999999,-0.7414808064999999,10.4610477545,-0.21922731668450376,-0.16388816209151955,0.232989237836479,10.606354754454468,0.35944948324075704,-0.03952079949999998,0.15082627700000006,-0.3124398690000003
85982.0,-1.4410872174999998,-0.5702566975,10.1378205705,-0.20537114775292076,-0.19319747622026032,0.22472859448678986,10.25559998191907,0.3605627744613108,0.14366742250000009,0.17122410899999996,-0.3232271839999985
85992.0,-1.2507401409999999,-0.539169617,9.939039775,-0.24241052513874442,-0.1673508953274763,0.23991644963764452,10.031927353466864,0.3799066828468304,0.19034707649999993,0.031087080499999975,-0.19878079550000116
86002.0,-1.052057412,-0.6456698359999999,9.864803434499999,-0.29783345553582435,-0.105266043175534,0.2654977404841254,9.941733306450509,0.412643620191103,0.19868272899999995,-0.10650021899999995,-0.07423634050000061
86012.0,-0.8580818749999999,-0.8707324534999998,9.8600962425,-0.35086004886991606,-0.02692519437051652,0.27189262686343263,9.935591447978537,0.44469465988202267,0.19397553700000003,-0.2250626174999999,-0.004707191999999694
86022.0,-0.8424893014999999,-1.0491154169999999,9.8373448145,-0.3873653555046295,0.020771163427984515,0.250842210755129,9.928936719543492,0.4619579792274408,0.015592573499999984,-0.17838296350000005,-0.022751427999999407
86032.0,-0.9011330685,-1.08265416,9.809788128000001,-0.40495129304772437,0.01650732406536237,0.21300347257189198,9.910404832980301,0.45785207307219605,-0.05864376700000007,-0.03353874300000004,-0.02755668649999876
86042.0,-0.9813514655,-0.9928252459999999,9.742710642,-0.4126796109755552,-0.01866455102082736,0.171436711106395,9.842213334493112,0.4472620850180822,-0.080218397,0.08982891400000004,-0.06707748600000052
86052.0,-1.0220490629999999,-0.8946606795000001,9.603848478,-0.4092151324103465,-0.07249050515233249,0.15038629499809142,9.699428210312476,0.4419592013456794,-0.040697597499999905,0.09816456649999983,-0.13886216400000073
86062.0,-0.949087587,-0.8491578234999999,9.4554738635,-0.3950936734324604,-0.12498477306456594,0.15784583222111517,9.540850184356756,0.4434360281189758,0.07296147599999991,0.04550285600000015,-0.14837461449999978
86072.0,-0.7718814214999999,-0.9617381655,9.303372721999999,-0.39029750864797996,-0.15935728735334226,0.18262776227018268,9.384747478344307,0.4594342062159173,0.1772061655,-0.11258034200000011,-0.1521011415000011
86082.0,-0.707255598,-1.0705919805,9.2256059875,-0.38789942625573975,-0.17507921325530718,0.19728329199917904,9.314407308369605,0.4690835672944244,0.0646258234999999,-0.10885381499999991,-0.07776673449999905
86092.0,-0.8102254229999999,-0.971250616,9.0879206215,-0.38763239088018464,-0.1947979431443391,0.20101306061069094,9.175516019158861,0.4781332028303731,-0.10296982499999985,0.09934136449999997,-0.13768536599999948
86102.0,-0.902407933,-0.9137836469999999,8.964651030999999,-0.39082983406983823,-0.19985939797512267,0.21034010013334864,9.0561751715984,0.4867593819148665,-0.0921825100000001,0.057466969000000034,-0.12326959050000141
86112.0,-0.950264385,-0.9581097049999999,8.782639607,-0.3916291948672516,-0.15536048336627525,0.23565261027502238,8.885703971811111,0.4827447138950421,-0.047856451999999994,-0.044326058,-0.1820114239999988
86122.0,-0.9562464414999999,-1.014399876,8.640247049,-0.3950936734324604,-0.04158072409951291,0.264698379686712,8.751987399046197,0.47738160795297324,-0.005982056499999944,-0.056290171,-0.14239255800000095
86132.0,-0.964582094,-1.225046718,8.682121444499998,-0.39562599885431865,0.12469155775023089,0.29507408998842133,8.821019830744897,0.5090546474850726,-0.008335652500000013,-0.21064684200000006,0.04187439549999894
86142.0,-0.9514411829999999,-1.5218940134999999,8.8113730915,-0.4006891990143542,0.31521169889793194,0.32758259263606776,8.992313243578977,0.6059872971664119,0.013140911000000033,-0.2968472954999999,0.12925164700000202
86152.0,-1.146593518,-1.6500669289999998,9.1214593645,-0.40628472459624804,0.5022691068096762,0.33664259678317027,9.340150882288993,0.7284708443476342,-0.19515233500000007,-0.12817291549999998,0.3100862729999996
86162.0,-1.4769795565,-1.7601956085,9.567956139,-0.3815027945471805,0.6075211873511942,0.30040432552401203,9.839997046154506,0.7777333309827024,-0.3303860384999999,-0.11012867950000005,0.4464967744999999
86172.0,-1.773826852,-1.8223697694999998,10.0599557695,-0.31408770685964754,0.6120520620893715,0.23751836724540432,10.376425365315363,0.7277869118685266,-0.2968472955000001,-0.06217416099999995,0.4919996305000005
86182.0,-2.048020786,-1.766177665,10.374847301,-0.22269179524971247,0.49747294202519576,0.1698379895115682,10.72153110349916,0.5708904504369251,-0.2741939339999999,0.056192104499999784,0.3148915315000007
86192.0,-2.120982262,-1.5482739019999998,10.493311633,-0.12116948331970633,0.30801745172121126,0.10002481943179502,10.816899133235275,0.3457770361882878,-0.07296147600000014,0.21790376300000025,0.1184643319999985
86202.0,-2.0707722139999998,-1.2884957435,10.3723956385,-0.04869119547213781,0.11909603216833706,0.047265261473258435,10.655276163707157,0.13707188747837026,0.050210048000000285,0.25977815849999986,-0.1209159944999989
86212.0,-1.9414225004999999,-1.0634331259999998,10.101830164999999,-0.03829950510576357,-0.019198621771937627,0.031276300195738384,10.341517491230467,0.053043813241718134,0.1293497134999999,0.22506261750000012,-0.2705654735000014
86222.0,-1.7570574804999999,-0.8958374775,9.870785491,-0.09399121620765064,-0.06769434036785206,0.040868629764699224,10.065892011402202,0.12282962729275047,0.18436502,0.16759564849999986,-0.23104467399999962
86232.0,-1.585931438,-0.956932907,9.728392933,-0.1845877670201723,-0.025061182729386577,0.06591759518932185,9.903157485033779,0.19760019222873346,0.17112604249999985,-0.06109542950000002,-0.14239255799999917
86242.0,-1.5093415014999998,-1.0431333605,9.608653736499999,-0.28531071815276504,0.0703332781968675,0.10188883107292497,9.782252583321169,0.3110149671835289,0.07658993650000023,-0.08620045349999994,-0.1197391965000012
86252.0,-1.5356233235,-1.1974900314999999,9.518922888999999,-0.384434947690531,0.1977021710196577,0.11867715314785841,9.716069901660195,0.44828634165116776,-0.026281822000000288,-0.15435667099999995,-0.08973084750000027
86262.0,-1.7523502884999997,-1.2981062604999998,9.3907499735,-0.47956237324122997,0.3189432128386958,0.11387924303412601,9.640642948576904,0.5870888559993759,-0.21672696499999966,-0.10061622899999989,-0.12817291549999865
86272.0,-1.9126890159999999,-1.444127279,9.324947351999999,-0.5650957238937161,0.3879570221210556,0.08936609368986566,9.628007373670357,0.6912525782066827,-0.1603387275000001,-0.14602101850000015,-0.06580262150000138
86282.0,-2.0073231885,-1.6428100079999999,9.323770554,-0.6202533642444928,0.4130042422164262,0.053393112477010535,9.677854537505315,0.7470860488627523,-0.09463417250000017,-0.19868272899999995,-0.0011767979999994793
86292.0,-2.105487755,-1.9002345704999999,9.2399236965,-0.6487650629050722,0.4074087166345324,0.0027646015351590184,9.665410494465327,0.7660845986297252,-0.09816456649999994,-0.2574245625,-0.08384685749999932
86302.0,-2.185706152,-2.042725195,9.183731591999999,-0.6508978552510093,0.3780976571765396,-0.05692216822454307,9.658724737721707,0.7548946877334183,-0.08021839699999989,-0.14249062450000016,-0.056192104500000895
86312.0,-2.2551372339999998,-2.1324560425,9.0412409675,-0.6298456938134537,0.3383949073521726,-0.11181277319976472,9.559134424714838,0.723684190505678,-0.06943108199999992,-0.08973084749999982,-0.14249062449999883
86322.0,-2.2551372339999998,-2.0726354775,8.878450577499999,-0.5960055049465357,0.29682640055742365,-0.15844448015454923,9.391929856205,0.6844217466488747,0.0,0.05982056499999988,-0.1627903900000014
86332.0,-2.1377516334999997,-2.066653421,8.621026015,-0.5581685120925506,0.26032109392271024,-0.19148530822405388,9.119381994431953,0.6449695985846071,0.11738560050000002,0.005982056500000166,-0.2574245624999989
86342.0,-1.8098172574999998,-2.058219702,8.340948091,-0.5317878604486562,0.2483306819615092,-0.22639189326394046,8.779699419911955,0.6290625926405568,0.32793437599999997,0.008433718999999673,-0.2800779240000004
86352.0,-1.5643568079999999,-1.9792761695,8.179334499,-0.5357846644357233,0.2874993610347659,-0.2570363842704569,8.559571205639807,0.6601430088084924,0.2454604494999999,0.07894353250000008,-0.16161359200000014
86362.0,-1.368027675,-1.973294113,8.157759869,-0.5504401941647197,0.366906606012752,-0.26236487447679563,8.503789476241357,0.7116461144748251,0.19632913299999988,0.005982056500000166,-0.021574629999999928
86372.0,-1.4099020705,-1.9170039419999998,8.2188552985,-0.5453787393339361,0.4425805917207221,-0.24797638012335435,8.55641924988048,0.7448542371393347,-0.04187439550000005,0.05629017100000011,0.06109542949999991
86382.0,-1.5188539519999997,-1.9205343359999998,8.321825123499998,-0.5136695974837031,0.46896124336461636,-0.21919764608721987,8.674568741405922,0.7292658714127067,-0.10895188149999968,-0.0035303939999999923,0.10296982499999885
86392.0,-1.5583747515,-1.997222339,8.363699518999999,-0.46117532957146967,0.45803548224713186,-0.19042065738033734,8.738930059316996,0.677302897055576,-0.0395207995000002,-0.07668800300000012,0.041874395500000716
86402.0,-1.5919134945,-2.0881299845,8.3014272915,-0.3993557674658305,0.4196661639712886,-0.16963553131833686,8.706788758331063,0.6036397366610763,-0.03353874300000004,-0.09090764550000019,-0.06227222749999939
86412.0,-1.6625213744999998,-2.1468718179999997,8.1733524425,-0.33487283292164804,0.3778306218009844,-0.16590576270682497,8.61259113582624,0.5314325122711461,-0.07060787999999985,-0.05874183349999962,-0.128074848999999
86422.0,-1.7092010284999999,-2.241407924,8.063223763,-0.28237856500941455,0.3506523546889288,-0.16857088047462032,8.541712655539481,0.48073991884350026,-0.04667965400000007,-0.09453610600000051,-0.11012867950000071
86432.0,-1.8229581684999998,-2.26533615,7.9303436555,-0.23654796418129548,0.3567802056926809,-0.1691032058964786,8.446613217788938,0.46026399900154474,-0.11375713999999992,-0.023928225999999775,-0.13288010750000012
86442.0,-1.9450509609999997,-2.2749466669999996,7.931520453499999,-0.193913061213578,0.37543253940874427,-0.1707019274913054,8.477477353722053,0.4557312969342418,-0.12209279249999994,-0.009610516999999597,0.0011767979999994793
86452.0,-2.049197584,-2.3479081429999997,7.923184801,-0.1544773467647661,0.3876899867455004,-0.17363233530540387,8.514031992953429,0.4520121285428261,-0.1041466230000001,-0.07296147600000014,-0.008335652499999568
86462.0,-2.1198054639999997,-2.325156715,7.926715195,-0.12703204427715528,0.3874229513699453,-0.1845580964228884,8.528349355951462,0.4475437123641358,-0.07060787999999985,0.02275142799999985,0.0035303940000002143
86472.0,-2.07312581,-2.3120158039999996,7.831002291,-0.12143651869526145,0.38449254355584683,-0.20640787332860538,8.424242671224587,0.45297412099909967,0.046679653999999626,0.013140911000000255,-0.09571290399999999
86482.0,-2.0468439879999996,-2.2126744394999998,7.7903046934999995,-0.12969716204495063,0.38955574371588236,-0.2391834113518069,8.353103956254616,0.4751670606959578,0.02628182200000051,0.09934136449999986,-0.04069759750000035
86492.0,-2.026446156,-2.1276507839999996,7.739996579,-0.1342262914538759,0.3943519085003628,-0.2722242394213116,8.278944916156568,0.49763054727764744,0.02039783199999956,0.08502365550000013,-0.050308114499999945
86502.0,-1.992907413,-2.0151685085,7.668211900999999,-0.12996245209125376,0.40154615567708346,-0.29487337712444195,8.175209956513562,0.5148590706488421,0.03353874300000004,0.11248227549999967,-0.07178467800000021
86512.0,-1.9845717604999997,-1.897782908,7.617903786499999,-0.1193037263493244,0.4122048814190128,-0.31006123227529664,8.09768875289993,0.5294187483897528,0.008335652500000235,0.11738560050000002,-0.050308114499999945
86522.0,-1.9749612435,-1.9170039419999998,7.555631559,-0.10198482418178466,0.43192186597879273,-0.3161908286083007,8.041327271186478,0.5449165466105755,0.009610516999999819,-0.01922103399999986,-0.06227222749999939
86532.0,-2.0000662675,-1.9828065635,7.5365085915,-0.08386481588757953,0.45457274901117517,-0.3236521111605765,8.04554216273853,0.5642874981302817,-0.02510502399999992,-0.06580262150000027,-0.01912296750000042
86542.0,-2.095877238,-1.9600551354999998,7.6071164714999995,-0.05961695658962231,0.4604335646393721,-0.3407057232818131,8.130359065990445,0.5758764093418927,-0.09581097050000009,0.022751428000000296,0.07060787999999985
86552.0,-2.1797240954999997,-1.907393425,7.650167665,-0.029239500958661003,0.43938314853106847,-0.3558935784326677,8.180122988858301,0.5661914329968231,-0.08384685749999976,0.05266171049999979,0.043051193500000196
86562.0,-2.200023861,-1.851103254,7.712439892499999,-0.0017941984710501708,0.4018131910526386,-0.3649535825797703,8.230942676350269,0.5428150486951029,-0.020299765500000344,0.05629017099999989,0.06227222749999939
86572.0,-2.176095635,-1.8092288584999998,7.696945385499999,0.021121974607635374,0.357047241068236,-0.3681510257694239,8.20071152659725,0.5132874905360968,0.02392822600000022,0.04187439550000027,-0.015494506999999658
86582.0,-2.049197584,-1.8415908035,7.674193957499999,0.03551046896107663,0.3285355424076566,-0.3646865472042152,8.153767247299662,0.4921309518234562,0.12689805099999996,-0.032361945000000114,-0.022751428000000296
86592.0,-1.9486794214999998,-1.9373037075,7.7041042399999995,0.034178782741804956,0.33306467181658195,-0.3558935784326677,8.179469376656213,0.48863125562289644,0.10051816250000001,-0.09571290399999999,0.029910282500000385
86602.0,-1.8552220469999998,-2.0186989024999997,7.718421949,0.015791739072044696,0.3565131703171257,-0.35962334704417964,8.190911517373053,0.5066359357287499,0.09345737450000002,-0.08139519499999981,0.014317709000000178
86612.0,-1.8277634269999998,-2.0474323869999997,7.805799200499999,-0.01431868118336148,0.38262678658546484,-0.38147312394989663,8.274249191494157,0.5404905426921388,0.02745861999999999,-0.028733484500000017,0.08737725149999953
86622.0,-1.8217813704999999,-1.9935938784999998,7.823745369999999,-0.04336270526579912,0.3898210337621855,-0.4177131405383069,8.2767321769458,0.5729965360713474,0.005982056499999944,0.05383850849999994,0.017946169500000053
86632.0,-1.8264885624999998,-1.8906240534999998,7.749607096,-0.07560417253789037,0.39461719854666594,-0.45555013339229194,8.183332446075354,0.6074246029983416,-0.004707191999999916,0.10296982499999996,-0.07413827399999917
86642.0,-1.8229581684999998,-1.7494082935,7.63349636,-0.1179720401300527,0.4036772026937685,-0.4800650280658043,8.040763181415102,0.6382281076534737,0.0035303939999999923,0.1412157599999999,-0.11611073600000044
86652.0,-1.723616804,-1.7853006324999998,7.543667446,-0.16167159394148672,0.4223295364098319,-0.4856605536476981,7.941352011545404,0.6636008702383633,0.09934136449999986,-0.035892338999999884,-0.08982891399999993
86662.0,-1.5213056145,-2.078617534,7.5843650435,-0.18378840622275888,0.4556373998548917,-0.48939032225921,8.009844863567972,0.6934598084455953,0.20231118950000004,-0.29331690150000034,0.04069759750000035
86672.0,-1.389602305,-2.2821055214999997,7.748332231499999,-0.16620246867966404,0.45430571363562,-0.5091090521482419,8.19607543565967,0.7022883802373965,0.13170330949999998,-0.20348798749999952,0.1639671879999991
86682.0,-1.3572403599999998,-2.3036801515,7.9326972515,-0.10038610258695785,0.3823597512099097,-0.5474801157533373,8.37118446333514,0.6752857366205738,0.032361945000000114,-0.021574630000000372,0.18436502000000043
86692.0,-1.3944075635,-2.1899230115,8.030861818,-0.00419228086329038,0.2483306819615092,-0.580787979198397,8.44007563883485,0.6316647683729579,-0.037167203500000134,0.11375714000000015,0.09816456650000038
86702.0,-1.3572403599999998,-1.8774831425,7.9758465114999995,0.09306619170409364,0.08418944712845047,-0.6031700815259724,8.305490468370385,0.6160871093393737,0.037167203500000134,0.31243986899999987,-0.05501530650000053
86712.0,-1.214847802,-1.5519023625,7.698122183499999,0.17034064433614257,-0.0578349754233361,-0.616493925035697,7.94640429860274,0.6422036897285702,0.14239255799999984,0.3255807800000001,-0.2777243280000006
86722.0,-1.0137134105,-1.3579268255,7.347338313,0.21590595511795854,-0.12045389832638866,-0.608233281686008,7.5402228367414805,0.6565609248409112,0.2011343914999999,0.1939755369999998,-0.35078387049999904
86732.0,-0.7263785654999999,-1.430986368,7.022934330999999,0.22922805329843127,-0.08394859169167525,-0.5773235006331884,7.203954082540926,0.6268136013595773,0.28733484500000017,-0.0730595424999998,-0.32440398200000065
86742.0,-0.40795664,-1.7230284049999998,6.9235929665,0.2241665984676477,0.04715006974262681,-0.5376207508088213,7.146425335111618,0.5843884535525414,0.3184219254999999,-0.29204203699999987,-0.09934136449999897
86752.0,-0.173381572,-2.034291476,6.9942008465,0.2095110687386513,0.2350068384517845,-0.5163032993249626,7.286099674038008,0.604724895251516,0.23457506799999997,-0.31126307100000017,0.07060787999999985
86762.0,-0.18289402249999998,-2.1563842685,7.1307094145,0.1860608249088555,0.39515126929777616,-0.5176367308734863,7.451876279900214,0.6772820249665552,-0.009512450499999964,-0.12209279250000016,0.136508568
86772.0,-0.270271274,-2.1336328405,7.268296714,0.16580976959796528,0.4750890943683685,-0.5424169155933017,7.579813505776569,0.7398774476922768,-0.08737725150000003,0.022751428000000296,0.13758729949999982
86782.0,-0.41639035899999993,-2.0223273629999996,7.3509667735,0.15142127524452406,0.4812186907013726,-0.5711956496294363,7.635437210750126,0.7620789335971799,-0.14611908499999993,0.1113054775000002,0.08267005949999984
86792.0,-0.5396599495,-1.883465199,7.395194764999999,0.14742447125745703,0.42446232875576895,-0.5991732775389054,7.650331994705972,0.7489398238677293,-0.12326959050000003,0.13886216399999962,0.044227991499999675
86802.0,-0.4821929805,-1.9457374264999998,7.411964136499999,0.17167233055541425,0.3434563621829561,-0.6172932858331104,7.678256088727992,0.7269695059195506,0.05746696899999998,-0.06227222749999983,0.016769371499999686
86812.0,-0.3182257925,-2.1468718179999997,7.4885540729999995,0.23455828883402194,0.2864347101910494,-0.6111636895001064,7.796715229003799,0.7145512503847133,0.16396718799999999,-0.2011343914999999,0.07658993650000046
86822.0,-0.16739951549999998,-2.2797519255,7.688511666499999,0.3131644276853426,0.2544585329652613,-0.5911796695647713,8.021128541889675,0.7157614864415613,0.150826277,-0.13288010750000012,0.19995759349999975
86832.0,-0.0644296905,-2.2425847219999997,7.871699888499999,0.38617504095476934,0.2248821834609654,-0.5586711669171249,8.185169305211508,0.7154136086482638,0.10296982499999999,0.037167203500000134,0.18318822200000007
86842.0,-0.115914603,-1.9325965154999998,7.988987422499999,0.43920163428886105,0.18677640990217317,-0.5061786443341434,8.22023634233071,0.6957013172604335,-0.05148491250000001,0.3099882064999999,0.11728753399999992
86852.0,-0.2487947105,-1.5422918454999999,7.957900341999999,0.4690450191687121,0.14600900923408963,-0.42997058787506304,8.109792894881613,0.6528373206413105,-0.13288010749999998,0.3903046699999999,-0.031087080499999864
86862.0,-0.2487947105,-1.4225526489999998,7.917202744499999,0.4892960744796023,0.11270114578902984,-0.340438687906258,8.047835370127052,0.6066388521902,0.0,0.11973919650000009,-0.04069759750000035
86872.0,-0.1230734575,-1.5841662409999997,7.9411309705,0.5114128867608745,0.12122707918502215,-0.25890039591158687,8.09853633971592,0.5858912531144318,0.12572125299999998,-0.16161359199999992,0.023928226000000663
86882.0,-0.002157463,-1.9145522794999998,8.089505585,0.5396575500458988,0.15080517401857002,-0.205608512531192,8.312978749842406,0.5968645845228231,0.1209159945,-0.33038603850000015,0.14837461449999978
86892.0,-0.0536423755,-2.0175221045,8.375663631999998,0.5793602998702656,0.17931687267914942,-0.18988658662922706,8.615394025986438,0.635507524483301,-0.0514849125,-0.10296982499999996,0.2861580469999989
86902.0,-0.31577413,-1.8811116029999997,8.7168369855,0.629454740061007,0.174520707894669,-0.1746987314783724,8.923090338884798,0.6761585568854976,-0.2621317545,0.13641050150000011,0.3411733535000021
86912.0,-0.6653812024999999,-1.5974052185,9.1202825665,0.6582334740971414,0.12362516157726235,-0.15791215473269096,9.282994649871085,0.6881066309877545,-0.3496070724999999,0.28370638449999963,0.4034455809999997
86922.0,-0.9191773044999999,-1.339980656,9.3752554665,0.671290282231311,0.04128925411442985,-0.1443212758474111,9.515032850058912,0.6878692289859634,-0.253796102,0.2574245625,0.2549729000000003
86932.0,-0.9586000375,-1.27290317,9.474596831,0.6734213292479961,-0.044512877242863375,-0.11421260092125693,9.607662651346908,0.684486815896241,-0.0394227330000001,0.06707748600000007,0.09934136449999897
86942.0,-0.8065969625,-1.3376270599999998,9.4925430005,0.6779522039861734,-0.11032924333556954,-0.0835681099147405,9.620198408967457,0.6919359521078751,0.152003075,-0.06472388999999978,0.017946169500000053
86952.0,-0.5780039509999999,-1.4393220205000001,9.405165749,0.6798162156273033,-0.14816623618955463,-0.07051130178057091,9.532202222583749,0.6993390910389593,0.2285930115000001,-0.10169496050000038,-0.08737725149999953
86962.0,-0.36843584049999994,-1.4225526489999998,9.238746898499999,0.6680928390416574,-0.16841729150044482,-0.07717322353543328,9.35488349806053,0.6933023381512121,0.20956811049999996,0.016769371500000352,-0.16641885050000127
86972.0,-0.23918419349999998,-1.2741780344999998,9.256693067999999,0.671290282231311,-0.16841729150044482,-0.10568492219601264,9.347037247020136,0.7001173686419415,0.12925164699999997,0.1483746145,0.017946169500000053
86982.0,-0.25232510449999995,-1.189154379,9.34769878,0.7077955888660244,-0.14123902438838912,-0.14272255425258432,9.426411224695713,0.7357260258552556,-0.013140910999999977,0.08502365549999968,0.09100571200000118
86992.0,-0.40913343799999996,-0.912606849,9.499701855,0.7669500332038682,-0.07062474818195054,-0.15577936238675388,9.552202717950548,0.7857909507195932,-0.1568083335,0.2765475300000001,0.15200307499999965
87002.0,-0.617426684,-0.6612624095,9.649351333999999,0.8106495870153023,0.015974998643504098,-0.14752046436631672,9.691669869083476,0.8241178562054058,-0.20829324600000004,0.25134443949999996,0.14964947899999892
87012.0,-0.7155912504999999,-0.564274641,9.939039775,0.800257896648928,0.09911026690375001,-0.12433725591207603,9.980730852863426,0.815901525530161,-0.09816456649999994,0.09698776850000002,0.2896884410000009
87022.0,-0.6031089749999999,-0.9114300509999999,10.274231072,0.7379060091214306,0.1627955859797711,-0.0835681099147405,10.332195763459076,0.7602573972719607,0.1124822755,-0.34715540999999983,0.3351912969999997
87032.0,-0.418743955,-1.3459627125,10.617856087999998,0.6598321956919683,0.18970856304552366,-0.05345768965933432,10.711014425756696,0.6886403923298393,0.18436501999999994,-0.43453266150000014,0.34362501599999895
87042.0,-0.2295736765,-1.6715434925,10.905092866499999,0.572166052693545,0.15959814279011747,-0.06518281157423222,11.034845361274892,0.5975737259633234,0.1891702785,-0.3255807799999999,0.2872367785000005
87052.0,-0.0907115125,-1.7553903499999999,10.890775157499998,0.46478117980608996,0.047417105118181944,-0.11980812650315074,11.031709178118877,0.48231101390692355,0.138862164,-0.08384685749999998,-0.014317709000000178
87062.0,0.018240369,-1.45726819,10.767505566999999,0.3712524758502178,-0.09407499201174636,-0.2120033989104992,10.86568633009545,0.4377487248371273,0.10895188149999999,0.2981221599999999,-0.12326959049999964
87072.0,0.12238699199999999,-1.0550974735,10.378377695,0.2947791293448343,-0.1993270725532644,-0.2932746555296152,10.432589938959088,0.46112475592399865,0.104146623,0.4021707164999999,-0.38912787199999954
87082.0,0.0960071035,-0.602520576,10.121051199,0.31209803151237403,-0.23236790062276907,-0.30180058892560746,10.13942433184474,0.49242625639741777,-0.02637988849999999,0.4525768975000001,-0.25732649599999924
87092.0,-0.05119071299999999,-0.227906546,9.984542631,0.37311823282059975,-0.2179794062693278,-0.22958933645359408,9.987274574830888,0.48932964413971236,-0.1471978165,0.37461403,-0.136508568
87102.0,-0.095516771,-0.1668111165,10.098299771,0.45678757183195595,-0.1876019506383665,-0.10142108283339049,10.100129091606151,0.5041186504252267,-0.04432605800000001,0.06109542949999999,0.11375714000000059
87112.0,-0.14582488549999997,-0.47572059149999996,10.393970268499999,0.5519149973826548,-0.15243007555217675,0.053925437898868805,10.405873001381005,0.5751113328055039,-0.05030811449999997,-0.308909475,0.29567049749999796
87122.0,-0.155337336,-0.9724274139999999,10.7662307025,0.6358496264403142,-0.1742798524578938,0.1946181742313837,10.811173308337441,0.687425958309831,-0.00951245050000002,-0.4967068224999999,0.3722604340000011
87132.0,-0.1805404265,-1.2609390569999999,11.066706458499999,0.701133667111162,-0.24542470875693864,0.2833507134027754,11.139773516085254,0.7950530382377239,-0.025203090499999997,-0.288511643,0.3004757559999991
87142.0,-0.28704064549999997,-1.3220344865,11.209197083,0.746431942517423,-0.3618695857914963,0.31532514529931155,11.29053881624788,0.8874346112189193,-0.10650021899999998,-0.06109542950000013,0.1424906245000006
87152.0,-0.37569276149999997,-1.2286751785,11.145748057499999,0.778408119743211,-0.5054927299381097,0.29987025477290175,11.21955825808532,0.9753790394508223,-0.088652116,0.09335930799999992,-0.06344902550000064
87162.0,-0.3900104705,-1.143651523,11.020026804499999,0.7898662062825538,-0.6219358616434154,0.2460460459706486,11.08607404562401,1.0350031384315326,-0.014317709000000012,0.08502365550000013,-0.12572125300000003
87172.0,-0.35529492949999997,-0.8982891399999999,10.966188295999999,0.7848030061225182,-0.6683005332226447,0.22126411592158113,11.00865312421541,1.0542766098700906,0.034715541000000016,0.24536238300000002,-0.05383850850000016
87182.0,-0.32057938849999995,-0.6647928035,11.059547604,0.7544255504915569,-0.6293971441956911,0.24045052038875478,11.084146959557085,1.0114915368461583,0.034715541000000016,0.2334963364999999,0.09335930800000192
87192.0,-0.40913343799999996,-0.67077486,11.1900741155,0.7141904752453316,-0.5166837811018973,0.2886792036091141,11.217623981631798,0.9275590801567836,-0.08855404950000001,-0.005982056499999944,0.1305265114999994
87202.0,-0.46905206949999995,-0.646846634,11.379146327499999,0.6824813333950986,-0.3829200018997999,0.3640878992707811,11.407164045216325,0.8631155755071883,-0.059918631499999986,0.023928225999999997,0.18907221199999924
87212.0,-0.5504472644999999,-0.493666761,11.558706089,0.635584336394011,-0.28113065459423864,0.43416810472610945,11.58233074617529,0.8194533768210748,-0.08139519499999998,0.15317987299999997,0.1795597615000002
87222.0,-0.5755522885,-0.36676871,11.720319681,0.5844235000303012,-0.23210261057646592,0.478934054710512,11.740173471813293,0.7904430896563837,-0.02510502400000003,0.126898051,0.16161359200000014
87232.0,-0.6353728535,-0.29733762799999996,11.8029897405,0.5476511580200327,-0.23450069296870613,0.4986527845995439,11.823818128774548,0.7768957236800607,-0.05982056499999999,0.06943108200000003,0.08267005949999984
87242.0,-0.6079142335,-0.24467591749999998,11.8076969325,0.5391252246240404,-0.2784655368264433,0.49492127065878005,11.825867108574588,0.7830364788287086,0.02745861999999999,0.052661710499999986,0.00470719200000147
87252.0,-0.6162498859999999,-0.217119231,11.794556021499998,0.5703002957231632,-0.33975277351022415,0.4704063759852677,11.81263968919593,0.8136071121723373,-0.008335652499999902,0.027556686499999983,-0.013140911000002475
87262.0,-0.777863478,-0.1189546645,11.8531997885,0.6267913676224636,-0.40130530024030814,0.4637461995596573,11.879291520486776,0.8769115691636344,-0.16161359200000014,0.0981645665,0.05864376700000129
87272.0,-0.9933155785,0.04511059,11.8747744185,0.6947387807318548,-0.4628578269703922,0.48932574507688625,11.916332417907908,0.9676461265543245,-0.21545210049999997,0.1640652545,0.021574629999999928
87282.0,-1.156204035,0.1575928655,12.0220703015,0.7640196253897698,-0.5110882555200035,0.5367568128290842,12.078568525119815,1.0644458976526898,-0.16288845650000006,0.1124822755,0.14729588299999996
87292.0,-1.274668367,0.161221326,12.21712457,0.8127806340319873,-0.5443961189650633,0.5943125355721012,12.284498545756163,1.1446339516805373,-0.11846433200000006,0.003628460499999986,0.19505426849999985
87302.0,-1.334488932,0.1371950335,12.448169243999999,0.8037223752141368,-0.5747718292667726,0.6406772071513305,12.520247629903935,1.1776245564277923,-0.05982056499999988,-0.02402629249999999,0.23104467399999962
87312.0,-1.3907791029999998,0.09414383999999999,12.582226149499999,0.7285789695987729,-0.6043499241003205,0.6486708151254645,12.659207892009396,1.1475364796367946,-0.05629017099999989,-0.043051193500000015,0.1340569054999996
87322.0,-1.345276247,0.022359162,12.5200519885,0.625724971449495,-0.6488488387091679,0.6190927202919166,12.592139210936741,1.0935320533519592,0.045502855999999925,-0.07178467799999999,-0.06217416099999795
87332.0,-1.136983001,-0.030400614999999995,12.213594176,0.5178077731401817,-0.6952135102883973,0.5530110641529072,12.26643946864682,1.0282353582169017,0.208293246,-0.052759776999999994,-0.3064578124999997
87342.0,-0.8424893014999999,-0.004020726499999999,11.789750763,0.4144197042397936,-0.7082703184225668,0.45361979923958623,11.81981503421448,0.9376361007783162,0.29449369950000004,0.026379888499999997,-0.42384341300000017
87352.0,-0.5743754904999999,0.185149552,11.362376955999999,0.3392780439536817,-0.6653701254085462,0.34943236954178475,11.378391698782949,0.8245786656097812,0.268113811,0.18917027849999998,-0.42737380700000216
87362.0,-0.4941570934999999,0.47238633049999995,11.070334918999999,0.28758313683886166,-0.5595839741159179,0.288412168233559,11.091422600240708,0.6921126089493143,0.080218397,0.28723677849999996,-0.29204203699999987
87372.0,-0.5300494325,0.708236263,10.988939724,0.2524112617526719,-0.41276338677965096,0.28148495643239346,11.024488526132492,0.5597489072996302,-0.035892339000000106,0.23584993250000003,-0.08139519499999892
87382.0,-0.5863396035,0.8231702009999999,11.003257433,0.21697060596167508,-0.2670091956163525,0.3020030471188388,11.049573631924295,0.4577947082089653,-0.056290171,0.11493393799999996,0.014317709000000178
87392.0,-0.664106338,0.8555321459999999,11.0751401775,0.1722064013065245,-0.14150431443469225,0.3299806750283079,11.127969375959204,0.3982031661686202,-0.07776673449999993,0.032361945,0.07188274449999987
87402.0,-0.7742350175,0.8040472334999998,11.200763364,0.13410062774773232,-0.05730265000147783,0.3646219700218914,11.256244122812317,0.3927031360737686,-0.11012867950000005,-0.05148491250000009,0.12562318650000037
87412.0,-0.8376840429999999,0.624487472,11.3636518205,0.11278492159312557,-0.03838328090985929,0.3947323902772975,11.411585422549082,0.41231950563392145,-0.06344902549999987,-0.17955976149999986,0.16288845649999928
87422.0,-0.855728279,0.4819968475,11.525265412499998,0.11758108637760599,-0.09460731743360463,0.4013925667029079,11.56703655553353,0.42882612908971535,-0.018044236000000158,-0.1424906245,0.16161359199999836
87432.0,-0.801791704,0.485625308,11.579103920999998,0.11891277259687766,-0.19639666473916592,0.3720815072449151,11.61698538734085,0.4372145302262871,0.05393657500000004,0.003628460499999986,0.05383850850000016
87442.0,-0.7431479369999999,0.6436104394999999,11.5025139845,0.13756510631294105,-0.295786184323235,0.340107075348379,11.544450234537754,0.4712604884916806,0.05864376700000007,0.15798513149999988,-0.07658993649999779
87452.0,-0.708432396,0.8962297435,11.370810675,0.16154767556459515,-0.3514778954251221,0.34303748316247745,11.428054935969213,0.5170194167603802,0.03471554099999996,0.2526193040000001,-0.13170330950000064
87462.0,-0.7562888479999998,1.0865768199999999,11.210373881,0.16714320114648895,-0.36053615424297264,0.3864717469276084,11.288272877600784,0.5543316510709863,-0.04785645199999988,0.19034707649999993,-0.16043679399999888
87472.0,-0.8497462225,1.111681844,11.0859274925,0.1482238320548704,-0.32962637319015303,0.45948236019703514,11.173884442480134,0.5845920711263217,-0.09345737450000013,0.025105024000000142,-0.12444638850000089
87482.0,-1.034013176,1.0158708735,10.920685439999998,0.11651469020463745,-0.2718053604008329,0.5418182676598677,11.016467099719184,0.6172688734628123,-0.1842669535,-0.09581097050000009,-0.1652420525000018
87492.0,-1.2268119149999999,0.81002929,10.803397905999999,0.09066810931185341,-0.220377488661568,0.5993739904028846,10.902963874140326,0.6450086231411507,-0.19279873899999989,-0.20584158349999992,-0.11728753399999903
87502.0,-1.364497281,0.553879592,10.7746644215,0.056028559647521965,-0.1878689860139216,0.6158952771022631,10.874834657512197,0.6463442950618102,-0.13768536600000014,-0.256149698,-0.02873348449999824
87512.0,-1.4638386455,0.34548827949999994,10.702781676999999,0.03284535119328129,-0.16308880129410613,0.5977752688080579,10.807947138881557,0.6204933893290921,-0.09934136450000008,-0.2083913125000001,-0.07188274450000165
87522.0,-1.6062312035,0.22820074549999997,10.5902994015,0.025118778594702393,-0.13777454582318038,0.5620693229707578,10.713845979514316,0.5792535734371256,-0.14239255799999984,-0.11728753399999997,-0.11248227549999967
87532.0,-1.7643144014999999,0.2162366325,10.5112578025,0.012861331257946215,-0.11059453338187268,0.5191691299567373,10.660492679946474,0.5309737753935841,-0.15808319799999992,-0.01196411299999997,-0.07904159899999996
87542.0,-1.8912124524999998,0.212608172,10.413093235999998,-0.014051645807806348,-0.06956009733823401,0.47813469391309854,10.585574973373962,0.48337236310631687,-0.12689805099999996,-0.003628460499999986,-0.09816456650000127
87552.0,-2.037233471,0.11454167199999998,10.2647186215,-0.05695183882182697,-0.01253670001707527,0.43949659493244814,10.465557242142252,0.4433485510856237,-0.14602101850000015,-0.09806650000000003,-0.148374614499998
87562.0,-2.2622960885,0.1205237285,10.1378205705,-0.0953229024269223,0.053012630700075766,0.40592344144108516,10.3878734821342,0.42032206110577786,-0.2250626174999999,0.005982056500000013,-0.1268980509999995
87572.0,-2.4370505915,0.05226944449999999,10.104281827500001,-0.12569861272863161,0.09511346291668299,0.37714470740495065,10.39415503684189,0.4087601281845767,-0.17475450299999995,-0.068254284,-0.03353874299999937
87582.0,-2.4478379064999998,-0.0938496405,10.097122973,-0.16886584111820738,0.10950370259937622,0.3369096321587254,10.390024567026039,0.3924472364800903,-0.010787314999999964,-0.14611908499999998,-0.0071588545000018655
