timestamp,ax,ay,az,gx,gy,gz,acc_mag,gyro_mag,dax,day,daz
114152.0,0.6968605489999999,0.4682675375,9.070955117,0.012180652849668426,0.20345652156348298,0.013089969389957472,9.109726441889316,0.2042407201543957,0.0,0.0,0.0
114162.0,0.9829205295,0.5928119924999999,9.139209400999999,0.0244381001864246,0.19466355279193553,0.0210835773640915,9.211010112962157,0.19732115132637967,0.28605998050000003,0.12454445499999994,0.06825428399999822
114172.0,1.1576750325,0.8514133529999999,9.239727563499999,0.04415683007545653,0.20292245081237273,0.016821483330721348,9.35081181642761,0.20835140745254951,0.17475450300000006,0.25860136049999993,0.10051816250000023
114182.0,1.2498575425,1.05127288,9.3307332755,0.0726685287360359,0.18054034848479744,0.02561445210226878,9.472586869661876,0.1962947596248346,0.09218251,0.1998595270000001,0.09100571200000118
114192.0,1.4413814169999999,1.256035732,9.401341155499999,0.10224487824033182,0.13790719084633196,0.04772951905428893,9.593769940509922,0.1781867430609265,0.19152387449999986,0.204762852,0.07060787999999896
114202.0,1.6832134059999997,1.3936230314999998,9.476754294,0.12249593355122203,0.09180780931340572,0.07890633548266364,9.725444178695017,0.17222118733423808,0.2418319889999998,0.13758729949999982,0.07541313850000009
114212.0,1.9549556774999999,1.5073801715000001,9.3882002445,0.12569337674087563,0.04304505534193615,0.11914141072888891,9.707334882100787,0.17845553366702824,0.2717422715000002,0.11375714000000037,-0.08855404949999901
114222.0,2.2542546354999997,1.606721536,9.360643558,0.12809145913311584,0.00840550567760469,0.16470672151070487,9.761396717470626,0.208821403451255,0.29929895799999984,0.09934136449999986,-0.027556686500000538
114232.0,2.528350503,1.6593832464999998,9.304353386999999,0.1534057146040416,-0.010513863414013842,0.21213778926290278,9.783511689315018,0.26200438208247,0.27409586750000026,0.05266171049999979,-0.056290171000000555
114242.0,2.8000927745,1.7407784414999998,9.3426973885,0.20350015479478287,-0.019306832185561274,0.2694264766303646,9.9074125593559,0.3381947561391135,0.27174227149999997,0.08139519500000003,0.0383440015000005
114252.0,3.0131912789999995,1.938382439,9.4025179535,0.2623893090863235,-0.015042992822939126,0.3360422035204842,10.062007355868662,0.42661317806974947,0.21309850449999956,0.19760399750000013,0.05982056500000077
114262.0,3.186768984,2.078421401,9.5509906345,0.30901927071185603,0.01027126264798663,0.424774742691876,10.280892674171145,0.5253874670532414,0.17357770500000047,0.140038962,0.14847268099999944
114272.0,3.2394306944999998,2.09273911,9.7126042265,0.3276716044279194,0.059566342041314474,0.5220332152592599,10.450270286821198,0.619221694780206,0.05266171049999979,0.014317709000000178,0.16161359200000014
114282.0,3.1940259049999997,1.9706463174999997,9.873041020499999,0.3095533414629663,0.12138590414695363,0.61129807985251,10.562300288429743,0.6958758160532861,-0.04540478950000004,-0.12209279250000038,0.16043679399999888
114292.0,3.0324123129999996,1.7839277014999997,10.110067750999999,0.2783765250345916,0.17707586991958868,0.6880402070627005,10.704736914563723,0.7630522131106086,-0.16161359200000014,-0.18671861600000006,0.23702673050000023
114302.0,2.837259978,1.6965504499999997,10.392499270999998,0.2551950619096029,0.1949288428382387,0.7519908161850248,10.90561179897264,0.8176869578389523,-0.1951523349999995,-0.08737725149999997,0.2824315199999994
114312.0,2.6480896995,1.6570296505,10.738477883,0.24880017553029568,0.1701486581184232,0.8076807819576599,11.18360557078594,0.862090678958509,-0.18917027850000023,-0.03952079949999976,0.34597861200000146
114322.0,2.4793172529999996,1.627119368,11.062881865,0.2567937835044297,0.10832909601278405,0.8689680186414408,11.453466140766734,0.9125698097740788,-0.16877244650000023,-0.02991028249999994,0.32440398199999976
114332.0,2.320057257,1.5875985685,11.377773396499999,0.2714493132334261,0.025991443220699555,0.9339850239367335,11.719934400523098,0.972979090070128,-0.1592599959999994,-0.03952079949999998,0.31489153149999893
114342.0,2.1404974955,1.501398115,11.7608211455,0.2810416428023869,-0.06647086456220404,0.9990020292320263,12.047939236417456,1.0399076089895765,-0.1795597615000002,-0.08620045350000005,0.38304774900000105
114352.0,1.9406379685,1.4140208635,12.093658846499999,0.2730480348282529,-0.15173892516838702,1.056023681223933,12.329724855921352,1.1012565305325437,-0.1998595270000001,-0.08737725149999997,0.332837700999999
114362.0,1.7071416320000001,1.3289972079999999,12.359419061499999,0.23467697122315756,-0.2154224989151561,1.0965275371749654,12.547342573961584,1.1418637281411124,-0.2334963364999998,-0.08502365550000013,0.26576021500000024
114372.0,1.563572276,1.1386501315,12.488670708499999,0.16353211492411268,-0.24686460538983396,1.1218400473166392,12.637570116505255,1.1602628916625881,-0.1435693560000002,-0.19034707649999993,0.12925164700000025
114382.0,1.4330457645,1.014203743,12.649107502499998,0.07479957575272099,-0.241003789761637,1.1301006906663285,12.770362172047758,1.1579315067208298,-0.13052651149999983,-0.1244463885,0.16043679399999888
114392.0,1.2343630355,0.93751574,12.820233544999999,-0.033649947978450674,-0.21808761668295146,1.1327658084341237,12.913596556130278,1.1540593157662287,-0.19868272900000017,-0.0766880029999999,0.17112604250000096
114402.0,1.034405442,0.749620326,12.925655032499998,-0.14902842884003983,-0.18717783563013188,1.131434122214852,12.988628998889148,1.156455008924171,-0.19995759349999997,-0.1878954140000001,0.10542148749999924
114412.0,0.8165016789999999,0.552114395,12.990280856,-0.26360754890421556,-0.15680037999917057,1.1149128355154738,13.027620734989798,1.1563329666684794,-0.21790376300000003,-0.1975059309999999,0.0646258235000019
114422.0,0.5831034089999999,0.3713778355,12.999793306499999,-0.36353113923939495,-0.12935507751155975,1.086134101479339,13.018162585173464,1.1526382397227004,-0.23339827000000002,-0.18073655950000006,0.009512450499999048
114432.0,0.39275633249999997,0.25997429149999995,13.062065534,-0.4426713488418258,-0.1027091358213623,1.043767979216429,13.070554700680095,1.1384018113584324,-0.19034707649999993,-0.11140354400000002,0.062272227500001165
114442.0,0.2635046855,0.239674526,13.129143019999999,-0.5071542833860083,-0.07259871556595614,0.9923401074771641,13.133974076314772,1.1167877728406557,-0.12925164699999997,-0.020299765499999955,0.06707748599999874
114452.0,0.20240925599999998,0.24320491999999996,13.234466440999999,-0.568174484694234,-0.05714382503954634,0.9395805495186275,13.23824837801368,1.0994995547208897,-0.06109542950000002,0.0035303939999999645,0.10532342099999958
114462.0,0.15818126449999997,0.28635417999999996,13.248784149999999,-0.6329244546139716,-0.05661149961768807,0.9006771604916737,13.252822396838097,1.1022783562098555,-0.04422799150000001,0.043149259999999995,0.014317709000000178
114472.0,0.087475318,0.3162644625,13.2631999255,-0.7027376246937449,-0.07446447253633806,0.8729648226285078,13.26725847359894,1.1231441173674659,-0.07070594649999998,0.02991028250000005,0.014415775500001615
114482.0,0.0671755525,0.33538743,13.1925920455,-0.772283759397963,-0.09444849247167315,0.8567105713046846,13.197025504334132,1.157279450152478,-0.020299765499999997,0.019122967499999977,-0.07060788000000073
114492.0,0.027654752999999997,0.41442902899999995,13.053729881499999,-0.853822051392634,-0.09418320242537001,0.8553788850854129,13.060336137504553,1.2122522873203367,-0.0395207995,0.07904159899999996,-0.13886216400000073
114502.0,-0.07649186999999999,0.391677601,12.850143827499998,-0.943086915985884,-0.07419743716078293,0.8641718538569603,12.856339243219178,1.28129277832335,-0.104146623,-0.022751427999999962,-0.20358605400000052
114512.0,-0.22133609049999997,0.30067188899999997,12.657443155,-1.020361368617933,-0.03476172271197106,0.8641718538569603,12.662948332511231,1.3375868917316516,-0.14484422049999998,-0.09100571200000002,-0.19270067249999911
114522.0,-0.388931739,0.238497728,12.462290819999998,-1.078184126736505,0.014268066635053644,0.8449854493897867,12.470639179533618,1.3699215300711651,-0.16759564850000003,-0.06217416099999998,-0.1951523350000013
114532.0,-0.549368533,0.17259704,12.330685576999999,-1.1200179235775574,0.048642326253081965,0.8042180487217031,12.34412420231193,1.3797002917039765,-0.160436794,-0.06590068799999999,-0.1316052429999992
114542.0,-0.6594972125,0.10316595799999999,12.2325210105,-1.143466422078101,0.05183976944273558,0.7519908161850248,12.25072038945095,1.3695594210338555,-0.11012867950000005,-0.06943108200000002,-0.0981645664999995
114552.0,-0.6990180119999999,0.09120184499999999,12.0732610145,-1.1661155597812314,0.03585080816521553,0.7000306190239017,12.09382385690636,1.3605710737704888,-0.03952079949999987,-0.011964112999999998,-0.1592599959999994
114562.0,-0.6846022365,0.07325567549999999,11.8086775975,-1.1983587723825746,0.026258478596254686,0.6544653082420857,11.828732527955484,1.3656786205900966,0.01441577549999995,-0.017946169499999998,-0.26458341700000076
114572.0,-0.6546919539999999,0.1067944185,11.574102529499998,-1.2300679142328075,0.03931528673042427,0.6206251193751676,11.593096047468654,1.3783280829306157,0.02991028250000005,0.03353874300000001,-0.2345750680000016
114582.0,-0.642727841,0.09483030549999999,11.3226600235,-1.2660391501164108,0.07155675400251552,0.5971766208746238,11.341283960478316,1.4016402588360874,0.011964112999999887,-0.011964113000000012,-0.2514425059999983
114592.0,-0.6834254384999999,0.066096821,11.089261753499999,-1.3057418999407777,0.11872078637915828,0.5787895772048636,11.11049797972049,1.433197093584976,-0.040697597499999905,-0.02873348449999999,-0.23339827000000035
114602.0,-0.8186591419999999,-0.030890947499999998,10.761229311,-1.3449123243432866,0.16375377173911598,0.559871953442497,10.792368290849936,1.465967619758624,-0.13523370349999997,-0.0969877685,-0.32803244249999963
114612.0,-1.013811477,-0.199663394,10.472717668,-1.359834889447838,0.19759396060603404,0.5324249056256342,10.523568526666221,1.4736589089602987,-0.19515233500000007,-0.1687724465,-0.28851164299999965
114622.0,-1.2257331835,-0.3900104705,10.227355284999998,-1.3446452889677314,0.2223758906551015,0.49378855197423577,10.307925403777915,1.4496030918663827,-0.21192170650000008,-0.1903470765,-0.24536238300000157
114632.0,-1.3968592260000001,-0.5612345795,9.966400328499999,-1.3105380647252582,0.23676438500854277,0.4434270764079394,10.079451148669394,1.4036363365181137,-0.17112604250000008,-0.171224109,-0.2609549564999991
114642.0,-1.5297393334999998,-0.7503067914999999,9.753301824,-1.2719017110738597,0.24742311075047213,0.3856043182893672,9.901007988072212,1.3519034169087154,-0.13288010749999968,-0.1890722119999999,-0.21309850449999956
114652.0,-1.6446732714999999,-0.9227076984999999,9.5988470865,-1.2295338434816974,0.2394295027763381,0.32351946613742494,9.782341491527845,1.2937328951667126,-0.11493393800000007,-0.172400907,-0.15445473750000005
114662.0,-1.7607840074999999,-1.0532342099999998,9.432428236,-1.1735768423335071,0.22663798468847168,0.2606335078588172,9.652997723478036,1.223346723698531,-0.11611073599999999,-0.13052651149999994,-0.1664188504999995
114672.0,-1.8494361234999999,-1.144239922,9.2948409365,-1.1154887941686318,0.22130949448213297,0.19375249092239452,9.545876963843682,1.153617427920694,-0.088652116,-0.09100571200000007,-0.13758729949999982
114682.0,-1.8781696079999999,-1.2016088244999998,9.0900780845,-1.0768506951879813,0.229303102456267,0.1305994972682317,9.359535481306661,1.1087125692485058,-0.028733484500000017,-0.05736890249999993,-0.204762852
114692.0,-1.9260260599999999,-1.2112193414999999,8.8782544445,-1.0648602832267804,0.2594135227116732,0.06984633133556108,9.165153062459286,1.0982264377443003,-0.047856451999999994,-0.00961051700000004,-0.21182364000000042
114702.0,-2.019385368,-1.23759923,8.6005301165,-1.0526028358900241,0.3100420336535247,0.007227408432508519,8.92068872920766,1.097338155806306,-0.09335930800000014,-0.02637988850000017,-0.2777243279999997
114712.0,-2.1271604515,-1.321348021,8.4532342335,-1.012633050690102,0.36599903480171486,-0.05992064387946932,8.816345114923907,1.0784115505634477,-0.10777508349999998,-0.08374879099999988,-0.14729588299999996
114722.0,-2.272004672,-1.480608017,8.3934136685,-0.9529462809304,0.41875859276025146,-0.13106550017851418,8.820634803695091,1.0491155983430382,-0.1448442205,-0.15925999600000007,-0.05982056500000077
114732.0,-2.43597186,-1.5679852685,8.48079092,-0.9047158523807886,0.4552638993949649,-0.20940634898353166,8.961939038718091,1.0342277363501804,-0.16396718799999999,-0.08737725149999997,0.08737725150000131
114742.0,-2.5640467090000003,-1.65536252,8.613671027499999,-0.8887286364325206,0.467521346731721,-0.301336331344577,9.138374536455997,1.0484361608859445,-0.12807484900000032,-0.08737725149999997,0.13288010749999835
114752.0,-2.6382830494999996,-1.7224400059999998,8.770479361,-0.891659044246619,0.45286581700272466,-0.40232457252347287,9.319262054759232,1.0779649164293497,-0.07423634049999928,-0.06707748599999985,0.15680833350000078
114762.0,-2.5305079659999996,-1.7870658295,8.7309585615,-0.9060492839293123,0.42888324775107056,-0.5043792098753374,9.26427073479538,1.1221695649342818,0.10777508349999998,-0.06462582350000012,-0.03952079949999998
114772.0,-2.4072383755,-1.7583323449999997,8.5693449695,-0.9414881943910571,0.4323477263162793,-0.5957768668145244,9.0730481337998,1.1951044521965102,0.12326959049999964,0.02873348450000024,-0.16161359200000014
114782.0,-2.237289131,-1.6864496005,8.2676924155,-1.0001103133070428,0.4787123978955087,-0.6738506802439868,8.729508164154126,1.2974825385905056,0.16994924450000015,0.07188274449999965,-0.30165255400000035
114792.0,-2.1534422735,-1.6852728025,7.9863396269999996,-1.0558002790796777,0.548790858021585,-0.7436638503237599,8.441509265642818,1.4031826529112852,0.08384685749999976,0.0011767980000001454,-0.28135278849999956
114802.0,-2.1702116449999997,-1.7211651415,7.732543525,-1.0699234833868159,0.6108774555027794,-0.8105448672601826,8.213675023668014,1.4747509985709302,-0.016769371499999686,-0.035892339000000106,-0.2537961019999999
114812.0,-2.178645364,-1.7691196599999999,7.5482765715,-1.0395460277558546,0.6452517151208076,-0.8880863552677867,8.053121083985575,1.511854190754565,-0.008433719000000117,-0.047954518499999876,-0.18426695349999989
114822.0,-2.0720470785,-1.7151830849999998,7.363911551499999,-0.9953141485225623,0.6700318998406232,-0.974153776671383,7.839797538770094,1.5454994602575398,0.10659828550000006,0.05393657500000004,-0.18436502000000043
114832.0,-1.9188672055,-1.631434294,7.16277716,-0.960939888904534,0.6993429592986159,-1.0543586371175304,7.592694241953928,1.5887599505503467,0.1531798729999998,0.08374879099999988,-0.20113439149999923
114842.0,-1.7320505229999998,-1.5213056145,6.984394196499999,-0.9326952256195098,0.7286540187566087,-1.114844767674646,7.355007279332677,1.625956924077363,0.18681668250000016,0.11012867950000005,-0.1783829635000007
114852.0,-1.5872063024999998,-1.5009077825,6.7749241525,-0.903651201537072,0.7694231647539441,-1.1532158312797411,7.118394853504028,1.6548426674501697,0.1448442205,0.020397832000000005,-0.2094700439999997
114862.0,-1.4244159124999998,-1.5368001214999998,6.576143356999999,-0.8554207729874608,0.7992665496337953,-1.174800318139155,6.901911094547716,1.658531731297848,0.16279039000000006,-0.035892338999999884,-0.19878079550000027
114872.0,-1.338215459,-1.6038776074999999,6.446891709999999,-0.780544402747652,0.8157878363331735,-1.1819945653158757,6.776847107247825,1.6345857306994074,0.08620045349999983,-0.06707748600000007,-0.12925164700000025
114882.0,-1.2137690705,-1.7535270864999999,6.449245306,-0.6795561615687561,0.8085918438272008,-1.1838585769570058,6.792706207142676,1.586549235562704,0.1244463885,-0.14964947900000003,0.002353596000000735
114892.0,-1.176601867,-1.899548105,6.457679024999999,-0.5657764023019939,0.7704878155976607,-1.1878571262733248,6.8333222773817655,1.5247160272734606,0.03716720349999991,-0.14602101850000015,0.008433718999999229
114902.0,-1.0832425589999999,-1.9714308494999997,6.5126943315,-0.46052432176047575,0.7049384848805097,-1.1969153850911751,6.8902207142834975,1.463429997460258,0.09335930800000014,-0.07188274449999965,0.05501530650000053
114912.0,-0.9827243964999999,-1.9965358734999998,6.541427816,-0.37152474721352896,0.6316608362355277,-1.2075741108331048,6.909571665855071,1.4125371793266916,0.10051816250000001,-0.025105024000000142,0.028733484500000017
114922.0,-0.8785777735,-1.9701559849999999,6.5809486155000005,-0.2894541297969996,0.5562521405738607,-1.2272928407221366,6.925481801952187,1.3782045762648418,0.10414662299999988,0.02637988849999995,0.03952079950000087
114932.0,-0.732556755,-1.947404557,6.571436165,-0.2151118303083011,0.49310089224895,-1.2560698294290191,6.892952718435721,1.366430754146416,0.14602101850000004,0.02275142799999985,-0.009512450500000824
114942.0,-0.5709431629999999,-1.8480631925,6.4528737665,-0.15728907218972898,0.4483349422645474,-1.2941738576585593,6.7365342354384,1.3786333981637386,0.16161359200000003,0.09934136450000008,-0.11856239849999994
114952.0,-0.37579082799999997,-1.781083773,6.375107032,-0.10799399279640114,0.4382102872737283,-1.3306809096225247,6.629891991752858,1.405134385596788,0.19515233499999995,0.06697941949999997,-0.07776673449999993
114962.0,-0.23692866399999998,-1.7188115455,6.3020474895,-0.06855653301833727,0.4581943072090634,-1.3605242945023757,6.5365320224628425,1.4372433257140125,0.13886216399999998,0.062272227500000055,-0.07305954250000024
114972.0,-0.017848103,-1.6972369155,6.21349344,-0.03711442654365942,0.4925685668270917,-1.385039189175888,6.441151483317225,1.4704879561685504,0.21908056099999998,0.021574629999999928,-0.0885540494999999
114982.0,0.2060377165,-1.712829489,6.2194754965,0.0049864056729478,0.5354687598411123,-1.396497275715231,6.454309556457024,1.4956457796174119,0.2238858195,-0.015592573499999984,0.00598205650000061
114992.0,0.4118793,-1.7103778265,6.249385779,0.056414277412212714,0.5725063918976839,-1.3940974479937387,6.4922923133450166,1.5081292497535819,0.2058415835,0.0024516624999999515,0.029910282499999497
115002.0,0.6274294669999999,-1.7379345129999997,6.3116580065,0.10411063521071375,0.5927574472085742,-1.382641106783648,6.576557678493514,1.5079445764858583,0.2155501669999999,-0.02755668649999965,0.06227222750000028
115012.0,0.8201301394999999,-1.7834373689999998,6.439732855499999,0.14701082822473438,0.5781019174795777,-1.3674515063035413,6.73226719204371,1.491890623571551,0.1927006725,-0.04550285600000015,0.128074848999999
115022.0,1.0296001835,-1.8445327985,6.528286904999999,0.18644654267354627,0.5173487515469072,-1.3517313257308283,6.861552863353888,1.4593113516190042,0.20947004400000002,-0.06109542950000013,0.0885540494999999
115032.0,1.2618216555,-1.8564969114999998,6.537897422,0.233610575050189,0.43474580870851953,-1.337341086048135,6.912515994433,1.4255030688838624,0.23222147199999998,-0.011964112999999887,0.009610517000001373
115042.0,1.5228746785,-1.8360990795,6.4660146775,0.30102566273772197,0.3465473402882381,-1.3272164310573158,6.8920064513755825,1.4043557111914542,0.2610530230000001,0.020397831999999783,-0.07188274450000076
115052.0,1.831686087,-1.8708146204999998,6.402565652,0.38949116653355853,0.26714009531025207,-1.3232196270702488,6.917215349673314,1.404983053561135,0.3088114085,-0.03471554099999974,-0.06344902549999976
115062.0,2.1728594405,-1.8397275399999997,6.364319717,0.4894147568687379,0.2106507687402036,-1.3314785250906862,6.9721217021649435,1.4341323556036918,0.3411733534999999,0.031087080500000086,-0.03824593499999995
115072.0,2.6505413620000002,-1.6816443419999998,6.329604176,0.5757492136478894,0.2066539647531366,-1.3269493956817608,7.065209567273293,1.4611597164117767,0.47768192150000033,0.15808319799999992,-0.03471554099999974
115082.0,3.1305768795,-1.4219642499999998,6.3140116025,0.624511967619359,0.27540073865994125,-1.2949749637852248,7.1895226853555885,1.4638377373823879,0.48003551749999973,0.259680092,-0.015592573500000206
115092.0,3.4777322895,-1.168168148,6.494748162,0.6431643013354224,0.39157858031894377,-1.2169011503557623,7.459289000114892,1.4310284807836842,0.34715541000000005,0.2537961019999999,0.18073655949999967
115102.0,3.6069839365,-1.040093299,6.754526320499999,0.6564863995158952,0.5034925826153241,-1.1004562733212047,7.727596845276091,1.376765478572871,0.1292516469999998,0.12807484899999988,0.25977815849999963
115112.0,3.5471633714999995,-1.0711803795,7.071771448,0.6889949021635415,0.5589172583416562,-0.9805486630506902,7.983717605369383,1.3223381403748429,-0.059820565000000325,-0.031087080499999864,0.31724512750000056
115122.0,3.4034959489999994,-1.1861143175,7.434519431499999,0.751348535020291,0.5581178975442427,-0.8467848838485929,8.262126301769356,1.2621667275565531,-0.14366742250000009,-0.11493393800000007,0.36274798349999937
115132.0,3.2000079615,-1.356063562,7.8547343839999995,0.8113023401555481,0.4962983354386036,-0.7247444812321413,8.589284695540098,1.1957332846322557,-0.20348798749999952,-0.16994924449999993,0.4202149525000003
115142.0,2.976122142,-1.5020845804999998,8.191102479,0.8547348585914271,0.3825185761718412,-0.6216234477073084,8.843512928274514,1.1239696839093838,-0.22388581949999997,-0.14602101849999993,0.3363680950000001
115152.0,2.7845982675,-1.6374163505,8.447252177,0.8989684831539714,0.23409926724074745,-0.5350237008818537,9.043848138822321,1.072006138570168,-0.19152387450000008,-0.13533177000000007,0.25614969799999976
115162.0,2.6397540469999994,-1.6984137135,8.562186115,0.9514610057369527,0.0768869895381062,-0.46600989159949396,9.119426606906627,1.062240497094127,-0.14484422050000045,-0.06099736300000003,0.11493393800000007
115172.0,2.5439430764999997,-1.643398407,8.596901656,1.0135476032181472,-0.07020063317371592,-0.4073877726835084,9.114774971634679,1.094610282346768,-0.09581097049999965,0.05501530649999986,0.03471554100000063
115182.0,2.4829457135,-1.51414676,8.607688971,1.0782975731378848,-0.18238167084565146,-0.34743396754825123,9.085701362497094,1.1474750942403162,-0.060997362999999805,0.12925164700000003,0.010787314999999964
115192.0,2.455389027,-1.4051948785,8.645934905999999,1.1267932917337993,-0.22981099326859736,-0.2818828915018482,9.097015901891336,1.184033014507971,-0.027556686500000094,0.10895188150000013,0.038245934999999065
115202.0,2.4110629689999996,-1.3907791029999998,8.726153303,1.1417158568383505,-0.20796121636288034,-0.21313611759504353,9.159325445756494,1.1799110008347011,-0.044326058000000224,0.014415775500000061,0.08021839700000122
115212.0,2.2733776029999997,-1.4458924759999998,8.879431242499999,1.1201313699789366,-0.1266899597437644,-0.14865318305086106,9.279178302428535,1.137032277792464,-0.13768536599999992,-0.055113372999999966,0.1532779394999988
115222.0,2.0591023004999998,-1.54160538,9.096060141,1.0865582164875738,-0.02063851840483295,-0.09909106828197807,9.452764649575185,1.0912624551737622,-0.21427530249999993,-0.09571290400000021,0.21662889850000155
115232.0,1.8125631194999998,-1.6445752049999998,9.292389274,1.0700369297881955,0.057700585070932536,-0.06498384403950487,9.609292954563442,1.0735601001407542,-0.24653918099999994,-0.10296982499999974,0.196329132999999
115242.0,1.6305516955,-1.6517340594999999,9.536574859,1.0902879850990856,0.0768869895381062,-0.05699023606537084,9.814946982858396,1.094480418563276,-0.18201142399999992,-0.007158854500000089,0.24418558500000032
115252.0,1.5312103309999998,-1.6098596639999998,9.7018169115,1.1414488214627956,0.04064697294969594,-0.07004529887028843,9.9529646136115,1.1443181080113196,-0.09934136450000008,0.04187439550000005,0.16524205250000001
115262.0,1.6401622125,-1.4638386455,9.8622537055,1.2067328621336433,-0.025434683189313367,-0.09456019354380078,10.10430620156677,1.2106992830035197,0.10895188150000013,0.1460210184999997,0.16043679400000066
115272.0,1.9094528214999997,-1.2339707695,9.978364441499998,1.2680183534881724,-0.09471552784722828,-0.12387125300179355,10.23408280525941,1.2775702185470938,0.2692906089999998,0.22986787600000014,0.11611073599999777
115282.0,2.2937754349999997,-0.9155488439999999,10.077705806,1.3159817466622283,-0.1546693329824855,-0.14092486512303015,10.375923561025559,1.3325128058384133,0.38432261349999997,0.31842192550000004,0.09934136450000253
115292.0,2.6947693534999995,-0.6067374355,10.183029227,1.3511553670776701,-0.17918422765599784,-0.1257370099721755,10.551018738592788,1.3687722999462741,0.40099391849999977,0.3088114084999999,0.10532342099999958
115302.0,3.0131912789999995,-0.24751984599999996,10.3278734475,1.390858116902037,-0.1623959055810644,-0.07111169504325696,10.761299071468141,1.4021111242243605,0.31842192550000004,0.35921758950000005,0.14484422049999957
115312.0,3.1903974445,0.03138128,10.600792517,1.434025345291613,-0.1104374537491932,0.025080381351158518,11.070520431627854,1.4384902320342863,0.17720616550000035,0.27890112599999994,0.27291906950000033
115322.0,3.229918244,0.261249156,10.931276621999999,1.4548087260243614,-0.03929085212089634,0.1479201447650234,11.401466202691584,1.4628371644186229,0.03952079949999998,0.22986787599999997,0.33048410499999825
115332.0,3.1556819035,0.3270517775,11.290396144999999,1.4326919137430891,0.03638487891632579,0.2750220022122585,11.72767394892415,1.4593036287282475,-0.07423634049999972,0.06580262149999999,0.3591195230000004
115342.0,2.95572431,0.35215680149999995,11.588420238499998,1.3700729908400366,0.09527228787861447,0.3834732712726821,11.964606313357912,1.4259132367881158,-0.1999575935000002,0.025105023999999976,0.2980240934999987
115352.0,2.7259545005,0.3760850275,11.765626403999999,1.2869377225797907,0.13071119834035932,0.4674079003303414,12.083138357447034,1.3754142155953053,-0.22976980950000003,0.023928226000000052,0.17720616550000123
115362.0,2.5786586175,0.39412926349999994,11.794359888499999,1.2125936777618405,0.14110463403598555,0.5313602547819176,12.079393334162596,1.3314043959129471,-0.14729588299999996,0.018044235999999936,0.028733484500000017
115372.0,2.4505837685,0.4443393115,11.8039704055,1.1691611593259614,0.13710783004891855,0.5865178951326944,12.06385160568961,1.3151956564891916,-0.12807484899999988,0.05021004800000006,0.009610517000000485
115382.0,2.2722008049999998,0.5353450235,11.9451861655,1.17209156714006,0.11765613553544174,0.6475380964409202,12.17115291666658,1.344227359613063,-0.17838296350000027,0.09100571200000002,0.1412157599999997
115392.0,2.0507666479999997,0.6622430745,12.140338500499999,1.2072651875555016,0.07955036197664955,0.7253448744948273,12.330126870433853,1.4106532813310126,-0.22143415700000002,0.12689805099999996,0.1951523349999995
115402.0,1.7885368269999997,0.7112763244999999,12.459937223999999,1.233378803823841,0.034252086570388716,0.8116775859447268,12.607728328979423,1.4768943708611708,-0.26222982100000003,0.04903324999999992,0.3195987235000004
115412.0,1.5024768465,0.749620326,12.809446229999999,1.2291149644612187,-0.017441075215179333,0.8873533169819491,12.919027828233908,1.516055307739804,-0.2860599804999997,0.03834400150000006,0.3495090059999999
115422.0,1.2606448575,0.7364794149999999,12.96635263,1.1744896495323003,-0.07259871556595614,0.9363831063289737,13.048292145371663,1.503831716708565,-0.24183198900000002,-0.013140911000000033,0.15690640000000045
115432.0,1.1553214365,0.693330155,12.936344280999998,1.076964141589361,-0.11843106172332722,0.9568994516861672,13.006324526246072,1.4455221337937065,-0.10532342100000003,-0.04314925999999997,-0.030008349000000933
115442.0,1.1649319535,0.750797124,12.8107210945,0.9706456648748745,-0.12509123814893758,0.9579658478591356,12.885470023975039,1.3694887331652255,0.00961051700000004,0.057466969000000034,-0.1256231864999986
115452.0,1.1325700085,0.9315336835,12.658619953,0.8736542276830456,-0.08352447668344062,0.9670258520062383,12.74327779427799,1.3059046849606186,-0.032361945000000114,0.1807365595,-0.15210114149999931
115462.0,0.9374176734999999,1.130314479,12.667053671999998,0.799044892818792,-0.01397659664997059,1.0003337154512981,12.751886583770883,1.280365427626937,-0.19515233499999995,0.19878079549999994,0.008433718999997453
115472.0,0.6334115235,1.1650300199999999,12.828667264,0.735626609118326,0.04544313773417636,1.0490964694227676,12.897023256396379,1.2821134852131342,-0.30400615,0.03471554099999996,0.16161359200000192
115482.0,0.25752262899999995,1.071670712,12.993811249999998,0.6724753607934152,0.06835931081286191,1.0832036936652407,13.040472645576624,1.2768031752071516,-0.3758888945,-0.09335930799999992,0.16514398599999858
115492.0,-0.17230284049999997,0.9938059109999999,13.101586333499998,0.6133209164555714,0.04331209071749128,1.0927960232342016,13.140353987307071,1.2538905981626578,-0.4298254694999999,-0.07786480100000004,0.10777508349999998
115502.0,-0.503865677,0.8813236355,13.072852848999998,0.5602943231214796,-0.01291194580625405,1.0853347406819258,13.112211620567942,1.2214941449707255,-0.33156283649999996,-0.1124822754999999,-0.028733484500000017
115512.0,-0.767272296,0.8273870605,12.943601201999998,0.507534765162943,-0.06060830360475509,1.0693475247336577,12.992693646835045,1.1852295275468168,-0.26340661900000006,-0.05393657500000004,-0.12925164700000025
115522.0,-1.0090062185,0.816697812,12.780712745499999,0.44864561087140237,-0.0800599981182319,1.052026877236866,12.846466718443768,1.1464959824969372,-0.24173392249999992,-0.01068924849999997,-0.16288845649999928
115532.0,-1.267607579,0.7484435279999999,12.631161332999998,0.3860284332976018,-0.08858593151422418,1.030177100331149,12.716651812061915,1.103689393182311,-0.25860136050000015,-0.06825428400000011,-0.14955141250000104
115542.0,-1.4710955665,0.7316741564999999,12.5029884175,0.3340682361364786,-0.1011104142265355,0.9987349938564712,12.61047931702856,1.0579680950831576,-0.20348798749999997,-0.01676937150000002,-0.12817291549999865
115552.0,-1.7021402405,0.7220636395,12.323428655999999,0.2917003685443163,-0.13095379910638655,0.9595645694539624,12.461362330714058,1.0114356951683354,-0.23104467399999984,-0.00961051699999993,-0.1795597615000002
115562.0,-1.8901337209999998,0.701763874,12.090030385999999,0.26878419546563076,-0.17598678446634422,0.9041416390568825,12.256994442052916,0.9595250885283698,-0.18799348049999987,-0.02029976550000001,-0.23339827000000035
115572.0,-1.9810413664999997,0.701763874,11.824270171,0.26665314844894566,-0.22688058545449888,0.8345937590234125,12.009594602126919,0.9050554923510169,-0.09090764549999997,0.0,-0.26576021499999847
115582.0,-2.008598053,0.7639380349999999,11.6088180705,0.2786435604101467,-0.25006204857948755,0.7607837849565723,11.806046097394436,0.8479181737353323,-0.027556686500000316,0.06217416099999995,-0.2154521005000003
115592.0,-2.020562166,0.9268264915,11.431611904999999,0.2845061213675956,-0.23354250720936123,0.6827099715271099,11.645747273513818,0.7756150726950932,-0.011964112999999887,0.16288845650000006,-0.17720616550000123
