timestamp,ax,ay,az,gx,gy,gz,acc_mag,gyro_mag,dax,day,daz
188612.0,-0.4296293365,1.7420533059999999,9.115281175,0.18564718187613283,0.18586883869113613,-0.21127036062466162,9.290192785245972,0.33711610257211994,0.0,0.0,0.0
188622.0,-0.45600922499999996,1.5289548014999998,8.262887157,0.1984386999639993,0.19599523901120722,-0.21393547839245694,8.415518484777426,0.3515116502670598,-0.02637988849999995,-0.2130985045,-0.852394018
188632.0,-0.536227622,1.744406902,8.653191827,0.20270079399736943,0.23116885942664894,-0.21153739600021673,8.84354138890075,0.3731952885050055,-0.080218397,0.21545210050000008,0.3903046700000008
188642.0,-0.9084880559999999,2.044882658,8.888943693,0.225616967076055,0.24049415362005463,-0.2104709998272482,9.166254175518388,0.39120134908548776,-0.372260434,0.3004757560000002,0.2357518659999993
188652.0,-1.3441975154999999,2.2579811625,9.1799069985,0.26212227371076835,0.21011844331834534,-0.18755657207781465,9.548614474990101,0.3847535761073679,-0.43570945949999995,0.2130985045,0.29096330550000005
188662.0,-1.8326667519999997,2.2232656215,9.455179664,0.29916165109659204,0.16108865397132063,-0.16970359915916464,9.884432200493317,0.3797980509332629,-0.48846923649999985,-0.03471554100000018,0.2752726654999993
188672.0,-2.3437893499999998,2.0508647145,9.743691306999999,0.3346005615583369,0.09527228787861447,-0.1795629641036806,10.229316442483434,0.3915063252496435,-0.511122598,-0.1724009070000001,0.28851164299999965
188682.0,-2.8968844099999997,1.8784638075,10.077705806,0.37323691520973534,0.03238807492925877,-0.21793228237952394,10.652732976718912,0.43341580725217094,-0.55309506,-0.17240090699999988,0.334014499000002
188692.0,-3.488225405,1.7947150164999999,10.398481327499999,0.4110756533929725,-0.05554510344471954,-0.2856144054426121,11.113826181154002,0.5036308568043469,-0.5913409950000004,-0.0837487910000001,0.3207755214999981
188702.0,-3.9443326965,1.720478676,10.681010913999998,0.44251775986765024,-0.1562680545773123,-0.37647799163068885,11.515285556174312,0.6016455358946314,-0.45610729149999996,-0.07423634049999994,0.28252958649999904
188712.0,-4.190969944,1.6582064484999999,10.8941094185,0.4497120070443709,-0.23700698577456997,-0.4835958291425888,11.789635181786108,0.7016253462852745,-0.24663724749999982,-0.062272227500000055,0.21309850450000134
188722.0,-4.319044793,1.6450655375,11.028166323999999,0.4233331007297286,-0.26844909224924784,-0.604836870961627,11.957459638920728,0.7855593356186046,-0.12807484899999988,-0.01314091099999981,0.1340569054999996
188732.0,-4.376511762,1.6666401674999998,11.158692835499998,0.3697741819737786,-0.25246187630097977,-0.7303400068140351,12.101568925056279,0.8566600668835411,-0.057466969000000034,0.021574629999999706,0.1305265114999994
188742.0,-4.410050505,1.6689937635,11.293926539,0.30848694528999776,-0.19916824759133292,-0.8563772134175537,12.238744310899756,0.9317800802355516,-0.03353874300000026,0.002353596000000291,0.13523370350000086
188752.0,-4.316593130499999,1.6007394794999998,11.4938841325,0.24426930079211837,-0.11443425773626022,-0.9850777924596156,12.381628147656713,1.0213427181168075,0.09345737450000069,-0.06825428400000022,0.19995759350000064
188762.0,-4.141838627499999,1.5193442845,11.791908225999999,0.18005165629423903,-0.01957212223186441,-1.1193756424128232,12.590168143495953,1.1339327562647084,0.17475450299999995,-0.08139519499999981,0.2980240934999987
188772.0,-3.8892193235,1.5672007365,12.176230839499999,0.11183720780929264,0.06143209901169641,-1.2496749430497118,12.877994508135293,1.2561723317785114,0.25261930399999954,0.047856451999999994,0.3843226135000002
188782.0,-3.5948236904999997,1.6940987874999998,12.529368306,0.02736850800052308,0.12378398653919383,-1.3655874946624114,13.144496879492433,1.3714593381256592,0.29439563300000016,0.12689805099999973,0.35313746650000155
188792.0,-3.235606101,1.870128155,12.856223950499999,-0.053901003289340874,0.1517633597779149,-1.4572504416479015,13.388391255948635,1.466122875208515,0.3592175894999996,0.1760293675000002,0.3268556444999984
188802.0,-2.8106839564999997,2.0963675704999996,13.1818047305,-0.1202514401331573,0.15042992822939125,-1.5214663408165288,13.640186114822729,1.53360666352192,0.42492214450000043,0.2262394154999996,0.325580780000001
188812.0,-2.342612552,2.3237837839999997,13.485810880499999,-0.18420204925548153,0.12778079052626085,-1.5585057182023525,13.883619835913883,1.5745470456759512,0.46807140449999984,0.22741621350000019,0.3040061499999993
188822.0,-1.8374720105,2.529723434,13.743235443,-0.2569456271493532,0.1048646174475753,-1.575292294948034,14.094407560576325,1.599551017575321,0.5051405414999999,0.20593965000000036,0.2574245625000007
188832.0,-1.3179156935,2.740370276,13.957510745499999,-0.33608583675178405,0.09767037027085468,-1.5712954909609669,14.28490942342673,1.6098020719356334,0.5195563169999999,0.21064684200000006,0.21427530249999904
188842.0,-0.9096648539999999,2.9152228454999998,14.137070507,-0.4274817483617191,0.08914443687486237,-1.54944571405525,14.463152384781722,1.609804148526246,0.4082508395000002,0.1748525694999996,0.17955976150000197
188852.0,-0.4847427095,3.049279751,14.339381696499998,-0.5247402209291031,0.0598333774168696,-1.5204016899728123,14.66802474541788,1.609519689654655,0.4249221444999999,0.13405690550000005,0.20231118949999782
188862.0,-0.06452775699999999,3.1474443174999998,14.5249235145,-0.6281282898294913,0.003876376268679406,-1.489757198966296,14.862165813408943,1.616767356996362,0.42021495249999996,0.09816456649999994,0.1855418180000008
188872.0,0.3676513085,3.250316076,14.5464981445,-0.734979091965836,-0.06886894695444425,-1.4495221237200706,14.909739445962417,1.6266688613960378,0.43217906549999996,0.10287175850000008,0.021574629999999928
188882.0,0.885932761,3.2898368755,14.463926151499999,-0.8474271650133268,-0.1282904266678432,-1.4039568129382545,14.859780053569375,1.6448969469765826,0.5182814524999999,0.03952079949999998,-0.08257199300000018
188892.0,1.3971534255,3.4012404195,14.234058275499999,-0.97079925384905,-0.1485414819787334,-1.3482668471656196,14.701322698177771,1.6680345482957573,0.5112206645,0.1114035440000003,-0.22986787600000014
188902.0,1.8484554584999997,3.467043041,13.9479002285,-1.103498382207431,-0.12535827352449272,-1.2733904769258109,14.4907244751391,1.6896587474992701,0.4513020329999997,0.06580262150000005,-0.2861580469999989
188912.0,2.181195093,3.3916299024999996,13.6929273285,-1.2255370394946303,-0.07926063732081848,-1.1921192203066948,14.274348470345032,1.711540685822691,0.3327396345000002,-0.07541313850000053,-0.2549729000000003
188922.0,2.423027082,3.215600535,13.453547001999999,-1.3198651042479157,-0.031030208771207185,-1.1135130814553742,14.043114824561568,1.727112662752488,0.24183198900000002,-0.17602936749999953,-0.23938032650000096
188932.0,2.5906227305,3.1174359684999997,13.238094901499998,-1.3894112389521338,0.005208062487951079,-1.0359733387770222,13.844742315066794,1.7331276564345146,0.16759564849999986,-0.09816456650000038,-0.2154521005000003
188942.0,2.72232604,3.076738371,13.021367936499999,-1.4373746321261902,0.023593360828459344,-0.96216161938093,13.65406170373329,1.7298431898772837,0.1317033095000002,-0.040697597499999905,-0.21672696499999944
188952.0,2.8683470585,3.0396692339999998,12.840631377,-1.4858703507221045,0.03904825135486913,-0.8752948371799202,13.503659432173512,1.7249569609363375,0.14602101849999993,-0.03706913700000003,-0.18073655949999967
188962.0,2.974945344,2.9953431759999996,12.658619953,-1.530903336082062,0.04277976529563301,-0.7916272434978161,13.344026365991892,1.7239979191965074,0.10659828550000006,-0.044326058000000224,-0.1820114239999988
188972.0,3.0324123129999996,2.9511151844999994,12.473078135,-1.5735382390497796,0.025991443220699555,-0.7106212769250033,13.171267343351419,1.7267543959958807,0.05746696899999959,-0.04422799150000012,-0.1855418180000008
188982.0,3.1676460165,2.9104175869999995,12.2205568975,-1.6230986084894108,-0.015310028198494259,-0.6301493811033007,12.95555952869663,1.7411983609998527,0.1352337035000004,-0.040697597499999905,-0.2525212374999999
188992.0,3.348382576,2.8577558764999997,11.939204108999999,-1.6817207274053962,-0.05554510344471954,-0.545415391248228,12.724898006714753,1.7688266767866423,0.18073655950000012,-0.05266171049999979,-0.28135278850000134
189002.0,3.5004837175,2.8205886729999996,11.594402294999998,-1.748336454295516,-0.07739488035043655,-0.44655819708601713,12.43540394587324,1.8061241785402768,0.15210114149999976,-0.037167203500000134,-0.3448018140000002
189012.0,3.6320889604999995,2.8122530205,11.18742632,-1.8138857850126668,-0.0925827355012912,-0.341039081168944,12.093772981734281,1.8479883275790674,0.13160524299999965,-0.008335652499999568,-0.40697597499999816
189022.0,3.682397075,2.7332114215,10.762406109,-1.855454291807416,-0.12349251655411078,-0.22725932190218168,11.698712670530341,1.8733947341718633,0.05030811450000039,-0.07904159899999996,-0.42502021099999965
189032.0,3.7578102134999996,2.6207291459999995,10.247655050499999,-1.8762394178694164,-0.17065654893075355,-0.10148915067421826,11.22514110786216,1.8867162103942647,0.07541313849999964,-0.11248227550000056,-0.5147510585000017
189042.0,3.7841901019999997,2.4614691499999997,9.7353556545,-1.883965990467995,-0.2279469816274674,0.028012534494508988,10.73107985358797,1.897912638074243,0.02637988850000017,-0.15925999599999985,-0.5122993959999995
189052.0,3.7589870114999995,2.2950502994999997,9.22413499,-1.8701098215364123,-0.2910982299523782,0.15644782349026773,10.221639083023966,1.8990852654799892,-0.025203090500000247,-0.16641885049999994,-0.5112206644999997
189062.0,3.7350587854999997,2.1095084815,8.78479707,-1.8325381187287302,-0.348121627273537,0.27635543376078214,9.776162320959168,1.8856714851051122,-0.023928225999999775,-0.18554181799999991,-0.4393379199999998
189072.0,3.707502099,1.9143561464999999,8.38860841,-1.7709855919986461,-0.3966173458694514,0.38800240068160735,9.36904916872862,1.855866684071357,-0.02755668649999965,-0.19515233499999995,-0.39618865999999997
189082.0,3.7446693025,1.7743171844999999,8.039001337499998,-1.6979749787292193,-0.449376903827988,0.4972530305394445,9.044130260042952,1.8254641071423956,0.037167203500000134,-0.140038962,-0.34960707250000134
189092.0,3.7601638095,1.6917451915,7.684687072999999,-1.6228333184431074,-0.502935822583938,0.6107657544306517,8.720966063296554,1.8054271593926168,0.015494506999999658,-0.08257199299999995,-0.35431426449999925
189102.0,3.750651359,1.6294729639999999,7.258490064,-1.5610137563374682,-0.5455689802224035,0.7349372040637883,8.33116112954024,1.8095696045117535,-0.009512450499999936,-0.062272227500000055,-0.4261970089999991
189112.0,3.6740614224999995,1.5097337675,6.7557031185,-1.5138497239608257,-0.570350910271471,0.8609744106673067,7.836934860667344,1.8325714401920816,-0.07658993650000046,-0.11973919649999987,-0.5027869455000005
189122.0,3.592568161,1.3397845229999998,6.3236221194999995,-1.47068249557125,-0.5591598591076834,0.9848788249248882,7.3952528874765955,1.8562200975645191,-0.08149326149999947,-0.16994924450000015,-0.4320809990000001
189132.0,3.4633165139999997,1.1518891089999999,5.940476304,-1.4160571806423314,-0.5085313481658318,1.1007896312083356,6.972135147425315,1.8642853545237785,-0.12925164700000025,-0.18789541399999998,-0.3831458154999998
189142.0,3.2550232679999995,0.9650724264999999,5.6256828389999995,-1.3510419206762907,-0.4443137036679525,1.204977060906137,6.570757084889921,1.8640543597228612,-0.2082932460000002,-0.18681668249999994,-0.31479346500000016
189152.0,2.9892630529999997,0.7567791804999999,5.4017970195,-1.2801623544235488,-0.4011464752783767,1.2923761685290052,6.219953325222643,1.862785631599412,-0.2657602149999998,-0.208293246,-0.22388581949999953
189162.0,2.7186975794999997,0.5125935954999999,5.294120002500001,-1.193028536846984,-0.39528565965017975,1.379242950730015,5.973422412972097,1.8659793566904141,-0.27056547350000004,-0.24418558499999998,-0.10767701699999943
189172.0,2.384781147,0.231240807,5.2150784035,-1.082180930723572,-0.41846712277516845,1.4522535639994416,5.739137233466433,1.8588358490771972,-0.3339164324999997,-0.28135278849999995,-0.07904159900000085
189182.0,2.0328204784999997,-0.0069627215,5.183991323,-0.9601405281071206,-0.4653641197762561,1.5196686516869746,5.568318742155387,1.8568323587790734,-0.3519606685000003,-0.23820352849999998,-0.031087080499999864
189192.0,1.7119468905,-0.20329185449999998,5.106126522,-0.835969078473984,-0.530648160447104,1.571628848848098,5.38930587299241,1.8575384272962256,-0.32087358799999977,-0.196329133,-0.0778648009999996
189202.0,1.4486383379999999,-0.40560304399999997,5.0163956745,-0.7155273974523593,-0.5959304557886999,1.6182605558028824,5.2371072575199165,1.8670510949379313,-0.26330855250000007,-0.2023111895,-0.08973084750000027
189212.0,1.186408517,-0.5265190385,4.9385308734999995,-0.6049468267045025,-0.6420298373216261,1.661160748816903,5.106258381204948,1.8808556586195055,-0.2622298209999998,-0.12091599450000007,-0.07786480100000048
189222.0,0.9194715039999999,-0.5947733225,4.7961383154999995,-0.5026251539770831,-0.6830642733652648,1.70326158103351,4.919565620380816,1.902710924019536,-0.26693701300000017,-0.068254284,-0.14239255800000006
189232.0,0.6800911774999999,-0.6821505739999999,4.6692402645,-0.40190220284449024,-0.7075791680387771,1.7426990408115741,4.767563115780419,1.9233287827460188,-0.23938032649999996,-0.08737725149999986,-0.1268980509999995
189242.0,0.41550776049999993,-0.8065969625,4.493210896999999,-0.30410965952599595,-0.711308936650289,1.774406437332555,4.583905488103947,1.9357069233803945,-0.264583417,-0.12444638850000012,-0.17602936750000087
189252.0,0.13415497199999998,-0.9741926109999999,4.3687645085,-0.20498542998823002,-0.7038493994272652,1.7853321984500397,4.478074600826628,1.9299829176456547,-0.28135278849999995,-0.16759564849999986,-0.12444638849999912
189262.0,-0.11120741099999999,-1.190919576,4.3579771935,-0.0882752629073692,-0.6859946811793632,1.7688109117506612,4.51913949152131,1.899229650720509,-0.24536238299999996,-0.2167269650000001,-0.010787314999999964
189272.0,-0.33862362449999994,-1.3333121339999998,4.341207822,0.028434904173491617,-0.6580170532698941,1.7256436833610855,4.553951312820015,1.8470628327410425,-0.22741621349999996,-0.14239255799999984,-0.016769371499999686
189282.0,-0.525440307,-1.4626618475,4.355525531,0.12995721610349778,-0.6311040762041416,1.6646252273821118,4.624507524866318,1.7849813390217282,-0.18681668250000005,-0.12934971350000013,0.01431770899999929
189292.0,-0.6726381235,-1.4997309845,4.3495434745,0.21522527670968075,-0.5863381262197391,1.5932133357075118,4.649748757472867,1.7112694267910853,-0.14719781649999997,-0.03706913700000003,-0.005982056499999722
189302.0,-0.8510210869999999,-1.4111769349999999,4.378276959,0.2956971725313833,-0.5231868778948282,1.5249988872225655,4.678137061064472,1.6391409131232297,-0.17838296349999994,0.08855404950000012,0.028733484500000017
189312.0,-1.0760837044999998,-1.3261532794999997,4.511157066499999,0.39082459808208225,-0.445380099840921,1.4852961373981985,4.823606196452186,1.5991284862606687,-0.2250626174999999,0.08502365550000013,0.13288010749999923
189322.0,-1.3968592260000001,-1.3130123685,4.7649531685,0.5059360435681163,-0.37716565135597463,1.4615806035220995,5.136146013801933,1.5919934262854731,-0.3207755215000003,0.01314091099999981,0.2537961020000008
189332.0,-1.7464662985,-1.3907791029999998,5.1037729259999995,0.6274423754334575,-0.34012801929940295,1.445059316822721,5.570718905608896,1.611697066181565,-0.3496070724999998,-0.07776673449999993,0.3388197574999996
189342.0,-2.0696934825,-1.4973773885,5.54664124,0.7247008480008416,-0.31587841467219374,1.432801869485965,6.1066356695289095,1.6364264997705926,-0.32322718400000006,-0.10659828550000006,0.44286831400000004
189352.0,-2.4156720944999996,-1.7211651415,5.945281562499999,0.7955804142535832,-0.31827649706443395,1.409086335609866,6.644114235160558,1.649173255097823,-0.3459786119999997,-0.2237877530000001,0.3986403224999995
189362.0,-2.6814323095,-2.0443923254999996,6.2769424655,0.86859102752301,-0.3475875565224267,1.363522770157302,7.125280761218538,1.6536208233087029,-0.26576021500000024,-0.3232271839999996,0.3316609030000013
189372.0,-2.872956184,-2.2371910644999997,6.499553420499999,0.9463978055769172,-0.3782320475289431,1.292110878482702,7.450039983798457,1.6456849061931877,-0.19152387450000008,-0.1927987390000001,0.2226109549999986
189382.0,-3.1099829145,-2.340062823,6.7066698685,1.0433909880979981,-0.4000818244346601,1.1964493821808928,7.754180064269494,1.637138156787057,-0.23702673050000023,-0.10287175850000008,0.20711644800000073
189392.0,-3.235606101,-2.3915477355,6.984394196499999,1.160368190554414,-0.4179347973533102,1.0933283486560599,8.060422427150234,1.6481779972030524,-0.12562318649999993,-0.05148491250000031,0.2777243279999997
189402.0,-3.2176599315,-2.3340807665,7.3112498409999995,1.2482996235991404,-0.41393799336624315,0.9830130679545063,8.321997518435602,1.6419230506936549,0.017946169500000053,0.057466969000000034,0.32685564450000015
189412.0,-3.1805907945,-2.1689367804999997,7.60211508,1.2682853888637275,-0.369971404179254,0.873497148050366,8.521302614590521,1.583800472019032,0.03706913700000003,0.16514398600000035,0.2908652390000004
189422.0,-3.174608738,-1.9821200979999998,7.766082267999999,1.2296472898830768,-0.27564333942596847,0.7791690832970805,8.620845348086549,1.4815924434380423,0.005982056500000166,0.18681668249999994,0.1639671879999991
189432.0,-3.2488450784999996,-1.8372758774999998,7.956429344499999,1.1864818068227532,-0.1546693329824855,0.6965661404586929,8.788364177033047,1.384509324100113,-0.07423634049999972,0.1448442205,0.19034707650000016
189442.0,-3.38525558,-1.7882426275,8.1431479605,1.188345818463883,-0.05421341722544786,0.6067689504435847,8.998256816924295,1.3353926157090528,-0.13641050150000034,0.049033249999999695,0.18671861600000117
189452.0,-3.5277462044999996,-1.6937065215,8.4520574355,1.2512317767424908,-0.0030525808617380824,0.49698599516388936,9.314016854039219,1.3463229021186296,-0.14249062449999972,0.09453610600000006,0.3089094750000001
189462.0,-3.615123456,-1.4877668715,8.829123127999999,1.3575502534569772,0.011335913491703169,0.3696171023410991,9.655878161795476,1.407013857763606,-0.08737725150000042,0.20593964999999992,0.37706569249999866
189472.0,-3.600805747,-1.1513987765,9.2840536215,1.4638687301714641,0.007339109504636156,0.23665268393641514,10.024229287932373,1.4828924487353912,0.014317709000000178,0.3363680950000001,0.4549304935000009
189482.0,-3.476261292,-0.789827591,9.7461429695,1.5259535823234063,-0.00012042771838760874,0.10315419478062086,10.377645348329102,1.5294362156720724,0.12454445500000011,0.3615711855,0.46208934799999923
189492.0,-3.3110192394999998,-0.47385732799999997,10.2584423655,1.5227561391337527,0.01906423141953406,-0.00822748209390127,10.789950367722907,1.522897697040335,0.16524205250000001,0.31597026300000003,0.5122993960000013
189502.0,-3.1686266814999997,-0.20329185449999998,10.610403033999999,1.461735937825527,0.05104040864532217,-0.09642595051418272,11.075295714730878,1.4658018417159662,0.14239255800000006,0.2705654735,0.3519606684999985
189512.0,-3.0166236064999996,-0.084729456,10.8007501105,1.370340026215592,0.07795164038182274,-0.16916952840805438,11.214428207156747,1.3829412767824127,0.1520030750000001,0.11856239849999999,0.19034707650000016
189522.0,-2.9196358379999996,0.0014709974999999999,10.805555369,1.2818745224197552,0.09846973106826808,-0.23551996525187083,11.193047057119538,1.3070456125161718,0.09698776850000002,0.0862004535,0.0048052585000011305
189532.0,-2.8968844099999997,0.0061781894999999995,10.722983375999998,1.2139271093103638,0.10193420963347682,-0.30293505293940376,11.107400683188613,1.2553004644751857,0.02275142799999985,0.004707192,-0.08257199300000195
189542.0,-2.8130375525,0.060114764499999994,10.633154461999998,1.189679250012407,0.08994379767227578,-0.37754438780365734,10.9991257775078,1.2513857796106813,0.08384685749999976,0.053936574999999994,-0.08982891399999993
189552.0,-2.7340940199999997,0.12111212749999999,10.620013551,1.2131277485129506,0.0667605892180351,-0.45241901271421414,10.966978894894025,1.2964639885280826,0.0789435325000003,0.06099736299999999,-0.013140910999998923
189562.0,-2.609549565,0.333033834,10.631977663999999,1.2344434546675573,0.0395823221059794,-0.5219668927476842,10.952607429949058,1.3408455690792835,0.12454445499999967,0.21192170649999997,0.011964112999999443
189572.0,-2.4060615775,0.5700605645,10.690621431,1.2283156036638054,0.01826487062212066,-0.5816536625073863,10.972852315732512,1.3591960163313743,0.20348798749999997,0.2370267305,0.05864376700000129
189582.0,-2.113921474,0.7364794149999999,10.776821884499999,1.20833158372847,0.029989992537018565,-0.6234892046776903,11.006859491117126,1.3600380157325536,0.29214010349999997,0.16641885049999994,0.08620045349999828
189592.0,-1.8949389795,0.8693595225,10.851058225,1.1827502928819893,0.06809402076655877,-0.652533228760128,11.049526882076448,1.3525289888252694,0.21898249450000007,0.13288010750000012,0.07423634050000061
189602.0,-1.7225380725,0.9842934605,11.0294411885,1.1616998767736857,0.11232589999985107,-0.6805108566695971,11.206450997446755,1.3510213682810357,0.1724009070000001,0.11493393799999996,0.1783829635000007
189612.0,-1.5812242459999999,1.0261678559999998,11.2389112325,1.1467773116691342,0.14270335563081235,-0.7036940651238377,11.395894711554709,1.3530143338331242,0.14131382650000002,0.04187439549999983,0.2094700439999997
189622.0,-1.4483441384999998,1.0022396299999998,11.453186534999999,1.1195990445570787,0.17441249748104534,-0.7220793634643461,11.587824076373233,1.3436220997705324,0.13288010750000012,-0.023928225999999997,0.21427530249999904
189632.0,-1.3298798065,1.0070448885,11.6435336115,1.0625756472359198,0.21038373336464847,-0.7428644895263465,11.762422993130315,1.3134595430246494,0.11846433199999984,0.004805258500000242,0.19034707650000193
189642.0,-1.2975178615,1.1147219055,11.831429025499999,0.9906314301394615,0.23889543202522784,-0.7673776388706068,11.954449812222935,1.2756528126654614,0.03236194499999989,0.10767701699999987,0.18789541399999798
189652.0,-1.2951642654999997,1.1625783575,12.008635191,0.9120252912881409,0.2370296750548459,-0.7969557337041547,12.134098980248973,1.2341440921909206,0.002353596000000291,0.047856451999999994,0.17720616550000123
189662.0,-1.1945480364999999,1.1901350439999998,12.225264089499998,0.8310193247153281,0.19412948204082528,-0.8310629579466279,12.34100678601552,1.1911947842056552,0.10061622899999989,0.027556686499999872,0.216628898499998
189672.0,-1.024598792,1.2942816669999997,12.2719437435,0.7518808604421492,0.1299118375429459,-0.8526456994767898,12.38247030934171,1.144205664497985,0.16994924449999993,0.10414662299999988,0.04667965400000185
189682.0,-0.8342517155,1.3289972079999999,12.187018154499999,0.6487598269173162,0.06036570283872787,-0.8529127348523449,12.287620640376193,1.073309584590721,0.19034707649999993,0.03471554100000018,-0.08492558900000091
189692.0,-0.585260872,1.3397845229999998,12.0014763365,0.5546987975395858,0.019331266795089192,-0.8411893582666989,12.090202112120954,1.0078015629720496,0.2489908435,0.010787314999999964,-0.18554181799999903
189702.0,-0.30155448749999997,1.340961321,11.8422163405,0.49554435320174206,0.034252086570388716,-0.8331940049633131,11.921711296141787,0.970025598286645,0.2837063845,0.0011767980000001454,-0.1592599959999994
189712.0,-0.133958839,1.4283385725,11.752485493,0.45131072863919774,0.09527228787861447,-0.825200396989179,11.839721758192335,0.945364415351862,0.16759564849999997,0.08737725149999997,-0.08973084750000027
189722.0,0.003726527,1.5851469059999999,11.7488570325,0.39881820605621626,0.17361313668363196,-0.8166744635931867,11.855308775849306,0.9252862595955088,0.137685366,0.1568083334999999,-0.003628460499999875
189732.0,0.10542148749999998,1.7503889585,11.776413718999999,0.33113608299312813,0.26474201291801186,-0.8004202122693636,11.906254460455513,0.9057659493893804,0.10169496049999999,0.16524205250000024,0.02755668649999876
189742.0,0.176127434,1.928771922,11.833880687999999,0.2527969795173627,0.3412171047526474,-0.7785704353636466,11.991326621267653,0.8868524952049349,0.07070594650000002,0.17838296349999982,0.057466969000000034
189752.0,0.27066354,1.9982030039999998,11.8769318815,0.1875129388465148,0.3809198545770144,-0.7436638503237599,12.046891089192725,0.8563276009356409,0.09453610599999998,0.06943108199999992,0.043051193500000196
189762.0,0.329307307,2.035272141,11.894878051,0.15047530678994314,0.3851836939396366,-0.6879721392218728,12.072236737180722,0.8026923198685977,0.05864376700000001,0.03706913700000025,0.017946169500000053
189772.0,0.33528936349999994,2.078421401,11.868596228999998,0.13422105546611993,0.3689294426158134,-0.6221557731291667,12.053872030366175,0.7356643469661998,0.005982056499999944,0.043149259999999856,-0.026281822000001398
189782.0,0.24555851599999998,2.0496879165,11.841039542499999,0.1262274474919859,0.3348222183733402,-0.5667328427320868,12.01963963631501,0.6702427929101357,-0.08973084749999996,-0.028733484500000017,-0.02755668649999876
189792.0,0.1246425215,1.9837872284999998,11.909293826499999,0.12303000430233228,0.2929884215322881,-0.5331579439114718,12.074031098685996,0.6206738195433424,-0.12091599449999997,-0.06590068800000015,0.068254284
189802.0,0.075511205,1.919161405,11.9775481105,0.11476936095264312,0.23916246740078298,-0.5243649751399244,12.130562277976411,0.5876472744599452,-0.04913131650000001,-0.06462582349999968,0.06825428400000177
189812.0,0.0887501825,1.9611338669999998,11.978724908499998,0.08146149750758333,0.1919984350241402,-0.529693465346263,12.13852433670199,0.5692754534128709,0.013238977499999999,0.04197246199999971,0.001176797999997703
189822.0,0.1150320045,2.031741747,11.9440093675,0.02736850800052308,0.14670015961787938,-0.5342243400844403,12.116128369222968,0.5546761375800673,0.02628182200000001,0.07060788000000007,-0.03471554099999885
189832.0,0.119837263,2.0867570535,11.764449606,-0.03444930877586408,0.1064633390424021,-0.5302275360973733,11.94868990735172,0.5419062995307248,0.0048052584999999925,0.05501530650000008,-0.1795597615000002
189842.0,0.055211439499999994,2.0292900845,11.477114761,-0.07948229413582177,0.06303082060652322,-0.5248973005617826,11.655266182600283,0.534609666546043,-0.06462582350000001,-0.057466969000000034,-0.28733484500000017
189852.0,0.003726527,1.9000384375,11.211354545999999,-0.09200677684813308,0.020929988389916002,-0.5278294537051331,11.371219402821131,0.5361970193861986,-0.051484912499999994,-0.12925164700000003,-0.26576021500000024
189862.0,0.07198081099999999,1.7827509035,11.0030613,-0.07815060791655008,-0.008115781021773632,-0.5411515518856058,11.14678159796091,0.5468257359776689,0.068254284,-0.11728753399999992,-0.20829324599999843
189872.0,0.215550167,1.8317841535,10.81869628,-0.06189635659272691,-0.01344427122811232,-0.5531419638468068,10.974793130551175,0.5567566250675524,0.14356935599999998,0.04903324999999992,-0.18436502000000132
189882.0,0.330484105,1.938382439,10.646295373,-0.06589316057979391,0.005475097863506212,-0.5502115560327084,10.826363719764935,0.5541702280885754,0.11493393799999999,0.10659828550000006,-0.1724009070000001
189892.0,0.43463072799999997,1.9730979799999997,10.5600949195,-0.07601781557061303,0.027857200191081496,-0.5347566655062986,10.75163356040614,0.5408506477670421,0.104146623,0.03471554099999974,-0.08620045350000005
189902.0,0.4945493595,1.927595124,10.515866928,-0.0696229291913058,0.028124235566636624,-0.5041139198290342,10.702507149189604,0.5096755527399556,0.05991863150000004,-0.0455028559999997,-0.044227991499999675
189912.0,0.5232828439999999,1.8772870094999998,10.5349898955,-0.04484274447149031,0.0012112585008840647,-0.47027198563286415,10.71373154177149,0.47240668851104145,0.028733484499999906,-0.05030811450000017,0.01912296750000131
189922.0,0.5160259229999999,1.8796406055,10.491938701999999,-0.015264649637942407,-0.04195596988869169,-0.43296731820073736,10.671462378023822,0.4352631520905583,-0.007256920999999972,0.002353596000000069,-0.04305119350000197
189932.0,0.5304416985,1.938382439,10.4512411045,0.0017889624832941877,-0.0840568021052989,-0.3948632899711971,10.642703392452574,0.40371495406265756,0.014415775500000061,0.05874183350000006,-0.04069759749999946
189942.0,0.5292649005,1.9407360349999998,10.3637657865,0.0015219271077390553,-0.11017041837363806,-0.35862501871203883,10.557188023800503,0.37516895046492577,-0.0011767980000000344,0.002353595999999847,-0.08747531799999919
